"trial_type","trial_index","time_elapsed","internal_node_id","task_version","subject_id","assigned_condition","age","gender","success","timeout","failed_images","failed_audio","failed_video","browser_interaction","rt","stimulus","response","task_part","environment","score","rewardMap","correct","fullState","isCatch","numberMissed","duration","condition","order","trial_num","key_press","ground_truth","bonus"
"pavlovia","0","3080","0.0-0.0","spark_pilot_2","7113","8","8","Male","","","","","","","","","","","","","","","","","","","","","","","",""
"preload","1","14493","0.0-1.0","spark_pilot_2","7113","8","8","Male","true","false","[]","[]","[]","[{""event"":""fullscreenenter"",""trial"":2,""time"":15459},{""event"":""blur"",""trial"":27,""time"":157701},{""event"":""focus"",""trial"":27,""time"":160323},{""event"":""blur"",""trial"":60,""time"":327782},{""event"":""focus"",""trial"":60,""time"":329227}]","","","","","","","","","","","","","","","","","",""
"fullscreen","2","16461","0.0-2.0","spark_pilot_2","7113","8","8","Male","true","","","","","","","","","","","","","","","","","","","","","","",""
"audio-button-response","3","20078","0.0-3.0-0.0-0.0","spark_pilot_2","7113","8","8","Male","","","","","","","3576","./assets/audio/audiotest/turtle.mp3","2","audio_test","","","","","","","","","","","","","",""
"learning-instructions","4","28143","0.0-3.0-1.0-0.0","spark_pilot_2","7113","8","8","Male","","","","","","","1075.9000000059605","<p> Welcome! Please remember to stay in fullscreen mode and don't click away from the experiment. </p>","","instructions","","","","","","","","","","","","","",""
"learning-instructions","5","38358","0.0-3.0-1.0-0.1","spark_pilot_2","7113","8","8","Male","","","","","","","1788.2999999970198","<p> Today you will be playing a game to earn treasure. </p>
            <p> At the end of the experiment, you will earn a bonus based on how much treasure you find. </p>
            <img src='./assets/img/instructions/treasure.jpg' class='instructions-image'>","","instructions","","","","","","","","","","","","","",""
"learning-instructions","6","47155","0.0-3.0-1.0-0.2","spark_pilot_2","7113","8","8","Male","","","","","","","519.4000000059605","<p> Animals have hidden treasure in treasure chests. </p>
            <p> You need to first find an animal and then choose which of their treasure chests to search. </p>
            <img src='./assets/img/space/animals/cat.jpg' class='instructions-image'>","","instructions","","","","","","","","","","","","","",""
"learning-instructions","7","60766","0.0-3.0-1.0-0.3","spark_pilot_2","7113","8","8","Male","","","","","","","436","<p> In each round, you will search for treasure in a different place. In the real game, there will be two rounds. </p>
            <p> You will begin with a separate, practice round where you will search for treasure in outer space. </p>
            <img src='./assets/img/space/0.jpg' class='instructions-image'>","","instructions","","","","","","","","","","","","","",""
"learning-instructions","8","72666","0.0-3.0-1.0-0.4","spark_pilot_2","7113","8","8","Male","","","","","","","458.10000002384186","<p> On every turn, you will see a picture of the place that you are in, but the specific image may be different each time. </p>
            <p> For example, both of these images mean you are in outer space. </p>
            <img src='./assets/img/instructions/outerspace.jpg' class='instructions-image'>","","instructions","","","","","","","","","","","","","",""
"learning-instructions","9","81341","0.0-3.0-1.0-0.5","spark_pilot_2","7113","8","8","Male","","","","","","","831.7000000178814","<p> You need to decide which direction to travel in. </p>
            <p> You can choose between going <b>up or down</b> by using the arrow keys. </p>
            <img src='./assets/img/instructions/updown.jpg' class='instructions-image'>","","instructions","","","","","","","","","","","","","",""
"learning-instructions","10","91171","0.0-3.0-1.0-0.6","spark_pilot_2","7113","8","8","Male","","","","","","","1002.5","<p> You will have <b>2 seconds</b> to make your choice. </p>
            <p> If you do not make a choice within 2 seconds, you will not find an animal or earn treasure. </p>
            <img src='./assets/img/instructions/2seconds.jpg' class='instructions-image'>","","instructions","","","","","","","","","","","","","",""
"learning-instructions","11","99053","0.0-3.0-1.0-0.7","spark_pilot_2","7113","8","8","Male","","","","","","","832.8000000119209","<p> Let’s try practicing that now! </p>
            <p> When you see a picture of the place you are in, press the <b>up</b> key to travel up. </p>
            <img src='./assets/img/instructions/pressUp.jpg' class='instructions-image'>","","instructions","","","","","","","","","","","","","",""
"revaluation","12","103081","0.0-3.0-2.0-0.0","spark_pilot_2","7113","8","8","Male","","false","","","","","[1016.3000000119209]","./assets/img/space/0.jpg","[""ArrowUp""]","first stage practice","space","0","null","null","ArrowUp","false","","","","","","","",""
"html-keyboard-response","13","103584","0.0-3.0-2.0-1.0","spark_pilot_2","7113","8","8","Male","","","","","","","null","<div style=""font-size:60px;"">+</div>","null","fixation","","","","","","","","","","","","","",""
"revaluation","14","107601","0.0-3.0-2.0-0.1","spark_pilot_2","7113","8","8","Male","","false","","","","","[896.6999999880791]","./assets/img/space/1.jpg","[""ArrowUp""]","first stage practice","space","0","null","null","ArrowUp","false","","","","","","","",""
"html-keyboard-response","15","108105","0.0-3.0-2.0-1.1","spark_pilot_2","7113","8","8","Male","","","","","","","null","<div style=""font-size:60px;"">+</div>","null","fixation","","","","","","","","","","","","","",""
"revaluation","16","112123","0.0-3.0-2.0-0.2","spark_pilot_2","7113","8","8","Male","","false","","","","","[488.09999999403954]","./assets/img/space/2.jpg","[""ArrowUp""]","first stage practice","space","0","null","null","ArrowUp","false","","","","","","","",""
"html-keyboard-response","17","112625","0.0-3.0-2.0-1.2","spark_pilot_2","7113","8","8","Male","","","","","","","null","<div style=""font-size:60px;"">+</div>","null","fixation","","","","","","","","","","","","","",""
"learning-instructions","18","119832","0.0-3.0-3.0-0.0","spark_pilot_2","7113","8","8","Male","","","","","","","2495.4000000059605","<p> Great job! Now try pressing the <b>down</b> key to travel down. </p>
            <img src='./assets/img/instructions/pressDown.jpg' class='instructions-image'>","","instructions","","","","","","","","","","","","","",""
"revaluation","19","123850","0.0-3.0-4.0-0.0","spark_pilot_2","7113","8","8","Male","","false","","","","","[661.1999999880791]","./assets/img/space/3.jpg","[""ArrowDown""]","first stage practice","space","0","null","null","ArrowDown","false","","","","","","","",""
"html-keyboard-response","20","124354","0.0-3.0-4.0-1.0","spark_pilot_2","7113","8","8","Male","","","","","","","null","<div style=""font-size:60px;"">+</div>","null","fixation","","","","","","","","","","","","","",""
"revaluation","21","128372","0.0-3.0-4.0-0.1","spark_pilot_2","7113","8","8","Male","","false","","","","","[394.90000000596046]","./assets/img/space/4.jpg","[""ArrowDown""]","first stage practice","space","0","null","null","ArrowDown","false","","","","","","","",""
"html-keyboard-response","22","128882","0.0-3.0-4.0-1.1","spark_pilot_2","7113","8","8","Male","","","","","","","null","<div style=""font-size:60px;"">+</div>","null","fixation","","","","","","","","","","","","","",""
"revaluation","23","132898","0.0-3.0-4.0-0.2","spark_pilot_2","7113","8","8","Male","","false","","","","","[688.8999999761581]","./assets/img/space/5.jpg","[""ArrowDown""]","first stage practice","space","0","null","null","ArrowDown","false","","","","","","","",""
"html-keyboard-response","24","133401","0.0-3.0-4.0-1.2","spark_pilot_2","7113","8","8","Male","","","","","","","null","<div style=""font-size:60px;"">+</div>","null","fixation","","","","","","","","","","","","","",""
"learning-instructions","25","145729","0.0-3.0-5.0-0.0","spark_pilot_2","7113","8","8","Male","","","","","","","2455.0999999940395","<p> The animals don’t move, so the animal in the upper part of a place will stay in the upper part of a place, and the animal in the lower part of a place will stay in the lower part of a place. </p>","","instructions","","","","","","","","","","","","","",""
"learning-instructions","26","157074","0.0-3.0-5.0-0.1","spark_pilot_2","7113","8","8","Male","","","","","","[{""event"":""fullscreenenter"",""trial"":2,""time"":15459},{""event"":""blur"",""trial"":27,""time"":157701},{""event"":""focus"",""trial"":27,""time"":160323},{""event"":""blur"",""trial"":60,""time"":327782},{""event"":""focus"",""trial"":60,""time"":329227}]","2195.4000000059605","<p> Each animal has two treasure chests for you to choose from. </p>
            <p> The amount of treasure in each chest can range from <b> 0 to 40 pieces.</b></p>","","instructions","","","","","","","","","","","","","",""
"learning-instructions","27","169839","0.0-3.0-5.0-0.2","spark_pilot_2","7113","8","8","Male","","","","","","","1532.699999988079","<p> You should decide which chest to search for treasure by using the <b>left</b> and <b>right</b> arrow keys. </p>
            <p><b> Pay attention to which animal is on the screen, as the animals have different treasure chests. </b></p>
            <img src='./assets/img/instructions/leftright.jpg' class='instructions-image'>","","instructions","","","","","","","","","","","","","",""
"learning-instructions","28","177048","0.0-3.0-5.0-0.3","spark_pilot_2","7113","8","8","Male","","","","","","","830.7999999821186","<p> Let’s try practicing that now. </p>
            <p> When you see an animal, choose which chest to search for treasure. </p>
            <img src='./assets/img/instructions/chooseChest.jpg' class='instructions-image'>","","instructions","","","","","","","","","","","","","",""
"revaluation","29","181067","0.0-3.0-6.0-0.0","spark_pilot_2","7113","8","8","Male","","false","","","","","[732.2000000178814]","./assets/img/space/animals/rabbit.jpg","[""ArrowRight""]","second stage practice","space","23","{""ArrowUp,ArrowLeft"":3,""ArrowUp,ArrowRight"":36,""ArrowDown,ArrowLeft"":15,""ArrowDown,ArrowRight"":23}","true","ArrowDown,ArrowRight","","","","","","","","",""
"html-keyboard-response","30","181570","0.0-3.0-6.0-1.0","spark_pilot_2","7113","8","8","Male","","","","","","","null","<div style=""font-size:60px;"">+</div>","null","fixation","","","","","","","","","","","","","",""
"revaluation","31","185587","0.0-3.0-6.0-0.1","spark_pilot_2","7113","8","8","Male","","false","","","","","[645.1999999880791]","./assets/img/space/animals/rabbit.jpg","[""ArrowLeft""]","second stage practice","space","15","{""ArrowUp,ArrowLeft"":3,""ArrowUp,ArrowRight"":36,""ArrowDown,ArrowLeft"":15,""ArrowDown,ArrowRight"":23}","false","ArrowDown,ArrowLeft","","","","","","","","",""
"html-keyboard-response","32","186092","0.0-3.0-6.0-1.1","spark_pilot_2","7113","8","8","Male","","","","","","","null","<div style=""font-size:60px;"">+</div>","null","fixation","","","","","","","","","","","","","",""
"revaluation","33","190110","0.0-3.0-6.0-0.2","spark_pilot_2","7113","8","8","Male","","false","","","","","[492.40000000596046]","./assets/img/space/animals/cat.jpg","[""ArrowRight""]","second stage practice","space","36","{""ArrowUp,ArrowLeft"":3,""ArrowUp,ArrowRight"":36,""ArrowDown,ArrowLeft"":15,""ArrowDown,ArrowRight"":23}","true","ArrowUp,ArrowRight","","","","","","","","",""
"html-keyboard-response","34","190620","0.0-3.0-6.0-1.2","spark_pilot_2","7113","8","8","Male","","","","","","","null","<div style=""font-size:60px;"">+</div>","null","fixation","","","","","","","","","","","","","",""
"revaluation","35","194637","0.0-3.0-6.0-0.3","spark_pilot_2","7113","8","8","Male","","false","","","","","[569]","./assets/img/space/animals/cat.jpg","[""ArrowRight""]","second stage practice","space","36","{""ArrowUp,ArrowLeft"":3,""ArrowUp,ArrowRight"":36,""ArrowDown,ArrowLeft"":15,""ArrowDown,ArrowRight"":23}","true","ArrowUp,ArrowRight","","","","","","","","",""
"html-keyboard-response","36","195148","0.0-3.0-6.0-1.3","spark_pilot_2","7113","8","8","Male","","","","","","","null","<div style=""font-size:60px;"">+</div>","null","fixation","","","","","","","","","","","","","",""
"learning-instructions","37","212831","0.0-3.0-7.0-0.0","spark_pilot_2","7113","8","8","Male","","","","","","","836.5","<p> Great job. Now let’s try putting it together. </p>
            <p> On each turn, you will first see a picture to remind you of the place you are in, and you need to choose whether to go up or down. </p>
            <p> Then you will see an animal and choose which of its chests to search for treasure. </p>","","instructions","","","","","","","","","","","","","",""
"learning-instructions","38","221628","0.0-3.0-7.0-0.1","spark_pilot_2","7113","8","8","Male","","","","","","","519.5","<p> When you choose whether to go up or down, try to go to the animal with the chest with the most treasure. </p>
            <p> Try practicing that now! </p>","","instructions","","","","","","","","","","","","","",""
"revaluation","39","227651","0.0-3.0-8.0-0.0","spark_pilot_2","7113","8","8","Male","","false","","","","","[1145.3999999761581,1077.300000011921]","./assets/img/space/6.jpg","[""ArrowDown"",""ArrowRight""]","full practice","space","23","{""ArrowUp,ArrowLeft"":3,""ArrowUp,ArrowRight"":36,""ArrowDown,ArrowLeft"":15,""ArrowDown,ArrowRight"":23}","false","ArrowDown,ArrowRight","false","","","","","","","",""
"html-keyboard-response","40","228156","0.0-3.0-8.0-1.0","spark_pilot_2","7113","8","8","Male","","","","","","","null","<div style=""font-size:60px;"">+</div>","null","fixation","","","","","","","","","","","","","",""
"revaluation","41","234179","0.0-3.0-8.0-0.1","spark_pilot_2","7113","8","8","Male","","false","","","","","[753.9000000059605,1062.7999999821186]","./assets/img/space/7.jpg","[""ArrowDown"",""ArrowLeft""]","full practice","space","15","{""ArrowUp,ArrowLeft"":3,""ArrowUp,ArrowRight"":36,""ArrowDown,ArrowLeft"":15,""ArrowDown,ArrowRight"":23}","false","ArrowDown,ArrowLeft","false","","","","","","","",""
"html-keyboard-response","42","234686","0.0-3.0-8.0-1.1","spark_pilot_2","7113","8","8","Male","","","","","","","null","<div style=""font-size:60px;"">+</div>","null","fixation","","","","","","","","","","","","","",""
"revaluation","43","240707","0.0-3.0-8.0-0.2","spark_pilot_2","7113","8","8","Male","","false","","","","","[378.5,474.5]","./assets/img/space/8.jpg","[""ArrowUp"",""ArrowRight""]","full practice","space","36","{""ArrowUp,ArrowLeft"":3,""ArrowUp,ArrowRight"":36,""ArrowDown,ArrowLeft"":15,""ArrowDown,ArrowRight"":23}","true","ArrowUp,ArrowRight","false","","","","","","","",""
"html-keyboard-response","44","241212","0.0-3.0-8.0-1.2","spark_pilot_2","7113","8","8","Male","","","","","","","null","<div style=""font-size:60px;"">+</div>","null","fixation","","","","","","","","","","","","","",""
"revaluation","45","247237","0.0-3.0-8.0-0.3","spark_pilot_2","7113","8","8","Male","","false","","","","","[621.1000000238419,439.59999999403954]","./assets/img/space/9.jpg","[""ArrowUp"",""ArrowRight""]","full practice","space","36","{""ArrowUp,ArrowLeft"":3,""ArrowUp,ArrowRight"":36,""ArrowDown,ArrowLeft"":15,""ArrowDown,ArrowRight"":23}","true","ArrowUp,ArrowRight","false","","","","","","","",""
"html-keyboard-response","46","247740","0.0-3.0-8.0-1.3","spark_pilot_2","7113","8","8","Male","","","","","","","null","<div style=""font-size:60px;"">+</div>","null","fixation","","","","","","","","","","","","","",""
"revaluation","47","253764","0.0-3.0-8.0-0.4","spark_pilot_2","7113","8","8","Male","","false","","","","","[607.2999999821186,386.09999999403954]","./assets/img/space/10.jpg","[""ArrowUp"",""ArrowRight""]","full practice","space","36","{""ArrowUp,ArrowLeft"":3,""ArrowUp,ArrowRight"":36,""ArrowDown,ArrowLeft"":15,""ArrowDown,ArrowRight"":23}","true","ArrowUp,ArrowRight","false","","","","","","","",""
"html-keyboard-response","48","254268","0.0-3.0-8.0-1.4","spark_pilot_2","7113","8","8","Male","","","","","","","null","<div style=""font-size:60px;"">+</div>","null","fixation","","","","","","","","","","","","","",""
"learning-instructions","49","265874","0.0-3.0-9.0-0.0","spark_pilot_2","7113","8","8","Male","","","","","","","1274.4000000059605","<p> One last thing: sometimes, you will see a robber. The robber can be anywhere in the picture. </p>
            <p> If you do not stop them, you will lose treasure. </p>
            <img src='./assets/img/instructions/robber.jpg' class='instructions-image'>","","instructions","","","","","","","","","","","","","",""
"learning-instructions","50","273663","0.0-3.0-9.0-0.1","spark_pilot_2","7113","8","8","Male","","","","","","","611.8000000119209","<p> If you see the robber, you should <b>press the space bar</b> rather than using the arrow keys. </p>
            <p> Try practicing that now! </p>","","instructions","","","","","","","","","","","","","",""
"revaluation","51","277668","0.0-3.0-10.0-0.0","spark_pilot_2","7113","8","8","Male","","true","","","","","[]","./assets/img/space/catch/0.jpg","[]","catch practice","space","-5","{""ArrowUp,ArrowLeft"":3,""ArrowUp,ArrowRight"":36,""ArrowDown,ArrowLeft"":15,""ArrowDown,ArrowRight"":23}","false","","true","","","","","","","",""
"html-keyboard-response","52","278171","0.0-3.0-10.0-1.0","spark_pilot_2","7113","8","8","Male","","","","","","","null","<div style=""font-size:60px;"">+</div>","null","fixation","","","","","","","","","","","","","",""
"revaluation","53","282189","0.0-3.0-10.0-0.1","spark_pilot_2","7113","8","8","Male","","false","","","","","[590.6999999880791]","./assets/img/space/catch/1.jpg","[""spaceBar""]","catch practice","space","0","{""ArrowUp,ArrowLeft"":3,""ArrowUp,ArrowRight"":36,""ArrowDown,ArrowLeft"":15,""ArrowDown,ArrowRight"":23}","true","spaceBar","true","","","","","","","",""
"html-keyboard-response","54","282696","0.0-3.0-10.0-1.1","spark_pilot_2","7113","8","8","Male","","","","","","","null","<div style=""font-size:60px;"">+</div>","null","fixation","","","","","","","","","","","","","",""
"revaluation","55","286711","0.0-3.0-10.0-0.2","spark_pilot_2","7113","8","8","Male","","false","","","","","[559.5]","./assets/img/space/catch/2.jpg","[""spaceBar""]","catch practice","space","0","{""ArrowUp,ArrowLeft"":3,""ArrowUp,ArrowRight"":36,""ArrowDown,ArrowLeft"":15,""ArrowDown,ArrowRight"":23}","true","spaceBar","true","","","","","","","",""
"html-keyboard-response","56","287215","0.0-3.0-10.0-1.2","spark_pilot_2","7113","8","8","Male","","","","","","","null","<div style=""font-size:60px;"">+</div>","null","fixation","","","","","","","","","","","","","",""
"learning-instructions","57","302582","0.0-3.0-11.0-0.0","spark_pilot_2","7113","8","8","Male","","","","","","","1746.300000011921","<p> After you explore a place to find treasure, it will be time to play a different game. </p>
            <p> During this game, red dots will appear on the screen and fall down slowly. </p>
            <p><b> You must click on them before they reach the bottom. </b></p>
            <img src='./assets/img/instructions/dotGame.jpg' class='instructions-image'>","","instructions","","","","","","","","","","","","","",""
"learning-instructions","58","309382","0.0-3.0-11.0-0.1","spark_pilot_2","7113","8","8","Male","","","","","","","1064.7000000178814","<p> For every dot you click, you will earn additional treasure. </p>
            <p> Let’s try practicing that now. </p>","","instructions","","","","","","","","","","","","","",""
"revaluation","59","324395","0.0-3.0-12.0-0.0","spark_pilot_2","7113","8","8","Male","","","","","","[{""event"":""fullscreenenter"",""trial"":2,""time"":15459},{""event"":""blur"",""trial"":27,""time"":157701},{""event"":""focus"",""trial"":27,""time"":160323},{""event"":""blur"",""trial"":60,""time"":327782},{""event"":""focus"",""trial"":60,""time"":329227}]","[232]","","","rest practice","","10","","","","","0","15000","","","","","",""
"learning-instructions","60","330800","0.0-3.0-13.0-0.0-0.0","spark_pilot_2","7113","8","8","Male","","","","","","","1166","<p> Now, you will practice a shortened version of the game to get a sense of how it all fits together. </p>","","instructions","","","","","","","","","","","","","",""
"learning-instructions","61","336239","0.0-3.0-13.0-0.0-0.1","spark_pilot_2","7113","8","8","Male","","","","","","","2245.2000000178814","<p>This time you are searching for treasure in outer space.</p>","","instructions","","","","","","","","","","","","","",""
"learning-instructions","62","352153","0.0-3.0-13.0-1.0-0.0","spark_pilot_2","7113","8","8","Male","","","","","","","1109.800000011921","<p> Remember, when you see a picture of the place, use the up and down keys to <b>find an animal</b>.</p>
            <p> When you encounter an animal, you should use the left and right keys to <b>select a treasure chest</b>.</p>
            <p> Don't forget to look out for the robber! </p>","","instructions","","","","","","","","","","","","","",""
"revaluation","63","358178","0.0-3.0-13.0-2.0-0.0","spark_pilot_2","7113","8","8","Male","","false","","","","","[1919.199999988079,1383.300000011921]","./assets/img/space/11.jpg","[""ArrowDown"",""ArrowRight""]","practice block","space","23","{""ArrowUp,ArrowLeft"":3,""ArrowUp,ArrowRight"":36,""ArrowDown,ArrowLeft"":15,""ArrowDown,ArrowRight"":23}","false","ArrowDown,ArrowRight","false","","","","","","","",""
"html-keyboard-response","64","358688","0.0-3.0-13.0-2.0-1.0","spark_pilot_2","7113","8","8","Male","","","","","","","null","<div style=""font-size:60px;"">+</div>","null","fixation","","","","","","","","","","","","","",""
"revaluation","65","364714","0.0-3.0-13.0-2.0-0.1","spark_pilot_2","7113","8","8","Male","","false","","","","","[602.5,762.0999999940395]","./assets/img/space/12.jpg","[""ArrowUp"",""ArrowRight""]","practice block","space","36","{""ArrowUp,ArrowLeft"":3,""ArrowUp,ArrowRight"":36,""ArrowDown,ArrowLeft"":15,""ArrowDown,ArrowRight"":23}","true","ArrowUp,ArrowRight","false","","","","","","","",""
"html-keyboard-response","66","365225","0.0-3.0-13.0-2.0-1.1","spark_pilot_2","7113","8","8","Male","","","","","","","null","<div style=""font-size:60px;"">+</div>","null","fixation","","","","","","","","","","","","","",""
"revaluation","67","371247","0.0-3.0-13.0-2.0-0.2","spark_pilot_2","7113","8","8","Male","","false","","","","","[620.9000000059605,555.7000000178814]","./assets/img/space/13.jpg","[""ArrowUp"",""ArrowRight""]","practice block","space","36","{""ArrowUp,ArrowLeft"":3,""ArrowUp,ArrowRight"":36,""ArrowDown,ArrowLeft"":15,""ArrowDown,ArrowRight"":23}","true","ArrowUp,ArrowRight","false","","","","","","","",""
"html-keyboard-response","68","371750","0.0-3.0-13.0-2.0-1.2","spark_pilot_2","7113","8","8","Male","","","","","","","null","<div style=""font-size:60px;"">+</div>","null","fixation","","","","","","","","","","","","","",""
"revaluation","69","377776","0.0-3.0-13.0-2.0-0.3","spark_pilot_2","7113","8","8","Male","","false","","","","","[1367.7000000178814,908.7000000178814]","./assets/img/space/14.jpg","[""ArrowUp"",""ArrowRight""]","practice block","space","36","{""ArrowUp,ArrowLeft"":3,""ArrowUp,ArrowRight"":36,""ArrowDown,ArrowLeft"":15,""ArrowDown,ArrowRight"":23}","true","ArrowUp,ArrowRight","false","","","","","","","",""
"html-keyboard-response","70","378280","0.0-3.0-13.0-2.0-1.3","spark_pilot_2","7113","8","8","Male","","","","","","","null","<div style=""font-size:60px;"">+</div>","null","fixation","","","","","","","","","","","","","",""
"revaluation","71","384308","0.0-3.0-13.0-2.0-0.4","spark_pilot_2","7113","8","8","Male","","false","","","","","[1308.5,441.59999999403954]","./assets/img/space/11.jpg","[""ArrowUp"",""ArrowRight""]","practice block","space","36","{""ArrowUp,ArrowLeft"":3,""ArrowUp,ArrowRight"":36,""ArrowDown,ArrowLeft"":15,""ArrowDown,ArrowRight"":23}","true","ArrowUp,ArrowRight","false","","","","","","","",""
"html-keyboard-response","72","384818","0.0-3.0-13.0-2.0-1.4","spark_pilot_2","7113","8","8","Male","","","","","","","null","<div style=""font-size:60px;"">+</div>","null","fixation","","","","","","","","","","","","","",""
"revaluation","73","390839","0.0-3.0-13.0-2.0-0.5","spark_pilot_2","7113","8","8","Male","","false","","","","","[740.1999999880791,550.6999999880791]","./assets/img/space/12.jpg","[""ArrowUp"",""ArrowRight""]","practice block","space","36","{""ArrowUp,ArrowLeft"":3,""ArrowUp,ArrowRight"":36,""ArrowDown,ArrowLeft"":15,""ArrowDown,ArrowRight"":23}","true","ArrowUp,ArrowRight","false","","","","","","","",""
"html-keyboard-response","74","391343","0.0-3.0-13.0-2.0-1.5","spark_pilot_2","7113","8","8","Male","","","","","","","null","<div style=""font-size:60px;"">+</div>","null","fixation","","","","","","","","","","","","","",""
"revaluation","75","397369","0.0-3.0-13.0-2.0-0.6","spark_pilot_2","7113","8","8","Male","","false","","","","","[591.4000000059605,313.5]","./assets/img/space/13.jpg","[""ArrowUp"",""ArrowRight""]","practice block","space","36","{""ArrowUp,ArrowLeft"":3,""ArrowUp,ArrowRight"":36,""ArrowDown,ArrowLeft"":15,""ArrowDown,ArrowRight"":23}","true","ArrowUp,ArrowRight","false","","","","","","","",""
"html-keyboard-response","76","397874","0.0-3.0-13.0-2.0-1.6","spark_pilot_2","7113","8","8","Male","","","","","","","null","<div style=""font-size:60px;"">+</div>","null","fixation","","","","","","","","","","","","","",""
"revaluation","77","403900","0.0-3.0-13.0-2.0-0.7","spark_pilot_2","7113","8","8","Male","","false","","","","","[611,796.1000000238419]","./assets/img/space/14.jpg","[""ArrowUp"",""ArrowRight""]","practice block","space","36","{""ArrowUp,ArrowLeft"":3,""ArrowUp,ArrowRight"":36,""ArrowDown,ArrowLeft"":15,""ArrowDown,ArrowRight"":23}","true","ArrowUp,ArrowRight","false","","","","","","","",""
"html-keyboard-response","78","404411","0.0-3.0-13.0-2.0-1.7","spark_pilot_2","7113","8","8","Male","","","","","","","null","<div style=""font-size:60px;"">+</div>","null","fixation","","","","","","","","","","","","","",""
"revaluation","79","408427","0.0-3.0-13.0-2.0-0.8","spark_pilot_2","7113","8","8","Male","","false","","","","","[1390.5]","./assets/img/space/catch/3.jpg","[""spaceBar""]","practice block","space","0","{""ArrowUp,ArrowLeft"":3,""ArrowUp,ArrowRight"":36,""ArrowDown,ArrowLeft"":15,""ArrowDown,ArrowRight"":23}","true","spaceBar","true","","","","","","","",""
"html-keyboard-response","80","408939","0.0-3.0-13.0-2.0-1.8","spark_pilot_2","7113","8","8","Male","","","","","","","null","<div style=""font-size:60px;"">+</div>","null","fixation","","","","","","","","","","","","","",""
"learning-instructions","81","422594","0.0-3.0-13.0-3.0-0.0","spark_pilot_2","7113","8","8","Male","","","","","","","572","<p> Now, you will travel with a friend who will choose whether you go up or down first. </p>
            <p> On these turns, you will just see the animal that they found. You will still get to choose which chest to search for treasure.</p>","","instructions","","","","","","","","","","","","","",""
"revaluation","82","426608","0.0-3.0-13.0-4.0-0.0","spark_pilot_2","7113","8","8","Male","","true","","","","","[]","./assets/img/space/animals/cat.jpg","[]","practice block","space","-5","{""ArrowUp,ArrowLeft"":3,""ArrowUp,ArrowRight"":36,""ArrowDown,ArrowLeft"":15,""ArrowDown,ArrowRight"":23}","false","ArrowUp","","","","","","","","",""
"html-keyboard-response","83","427112","0.0-3.0-13.0-4.0-1.0","spark_pilot_2","7113","8","8","Male","","","","","","","null","<div style=""font-size:60px;"">+</div>","null","fixation","","","","","","","","","","","","","",""
"revaluation","84","431129","0.0-3.0-13.0-4.0-0.1","spark_pilot_2","7113","8","8","Male","","false","","","","","[413.90000000596046]","./assets/img/space/animals/cat.jpg","[""ArrowRight""]","practice block","space","36","{""ArrowUp,ArrowLeft"":3,""ArrowUp,ArrowRight"":36,""ArrowDown,ArrowLeft"":15,""ArrowDown,ArrowRight"":23}","true","ArrowUp,ArrowRight","","","","","","","","",""
"html-keyboard-response","85","431634","0.0-3.0-13.0-4.0-1.1","spark_pilot_2","7113","8","8","Male","","","","","","","null","<div style=""font-size:60px;"">+</div>","null","fixation","","","","","","","","","","","","","",""
"revaluation","86","435649","0.0-3.0-13.0-4.0-0.2","spark_pilot_2","7113","8","8","Male","","false","","","","","[657]","./assets/img/space/animals/rabbit.jpg","[""ArrowRight""]","practice block","space","23","{""ArrowUp,ArrowLeft"":3,""ArrowUp,ArrowRight"":36,""ArrowDown,ArrowLeft"":15,""ArrowDown,ArrowRight"":23}","true","ArrowDown,ArrowRight","","","","","","","","",""
"html-keyboard-response","87","436153","0.0-3.0-13.0-4.0-1.2","spark_pilot_2","7113","8","8","Male","","","","","","","null","<div style=""font-size:60px;"">+</div>","null","fixation","","","","","","","","","","","","","",""
"revaluation","88","440168","0.0-3.0-13.0-4.0-0.3","spark_pilot_2","7113","8","8","Male","","false","","","","","[905]","./assets/img/space/animals/rabbit.jpg","[""ArrowRight""]","practice block","space","23","{""ArrowUp,ArrowLeft"":3,""ArrowUp,ArrowRight"":36,""ArrowDown,ArrowLeft"":15,""ArrowDown,ArrowRight"":23}","true","ArrowDown,ArrowRight","","","","","","","","",""
"html-keyboard-response","89","440673","0.0-3.0-13.0-4.0-1.3","spark_pilot_2","7113","8","8","Male","","","","","","","null","<div style=""font-size:60px;"">+</div>","null","fixation","","","","","","","","","","","","","",""
"learning-instructions","90","449723","0.0-3.0-13.0-5.0-0.0","spark_pilot_2","7113","8","8","Male","","","","","","","1671.0999999940395","<p> Time to play the dot game! </p>
            <p> For 15 seconds, click the red dots on the following screen as they appear. </p>","","instructions","","","","","","","","","","","","","",""
"revaluation","91","464733","0.0-3.0-13.0-6.0-0.0","spark_pilot_2","7113","8","8","Male","","","","","","","[101]","","","rest practice","","10","","","","","0","15000","","","","","",""
"learning-instructions","92","472561","0.0-3.0-13.0-7.0-0.0","spark_pilot_2","7113","8","8","Male","","","","","","","1689.7000000178814","<p> You have almost finished this part of the game! </p>
            <p> We are going to ask you to make a few more choices. </p>","","instructions","","","","","","","","","","","","","",""
"learning-instructions","93","488142","0.0-3.0-13.0-7.0-0.1","spark_pilot_2","7113","8","8","Male","","","","","","","1545","<p> First, you need to decide whether to go up or down. When you see each picture, use the arrow keys to make your choice. </p>
            <p><b>You will not see which animal you found, but try to get to the one that will give you the most treasure.</b></p>","","instructions","","","","","","","","","","","","","",""
"revaluation","94","489428","0.0-3.0-13.0-8.0","spark_pilot_2","7113","8","8","Male","","false","","","","","[1284.300000011921]","./assets/img/space/15.jpg","[""ArrowUp""]","practice block","space","0","{""ArrowUp,ArrowLeft"":3,""ArrowUp,ArrowRight"":36,""ArrowDown,ArrowLeft"":15,""ArrowDown,ArrowRight"":23}","true","ArrowUp","false","","","","","","","",""
"html-keyboard-response","95","489929","0.0-3.0-13.0-9.0","spark_pilot_2","7113","8","8","Male","","","","","","","null","<div style=""font-size:60px;"">+</div>","null","fixation","","","","","","","","","","","","","",""
"learning-instructions","96","503041","0.0-3.0-13.0-10.0-0.0","spark_pilot_2","7113","8","8","Male","","","","","","","1716","<p> Now you will see the animals again and can search their chests for treasure. </p>
            <p> This time, you will not see how much treasure you earned, but you will earn more bonus money for making better choices. </p>","","instructions","","","","","","","","","","","","","",""
"revaluation","97","504671","0.0-3.0-13.0-11.0-0.0","spark_pilot_2","7113","8","8","Male","","false","","","","","[1628]","./assets/img/space/animals/cat.jpg","[""ArrowRight""]","practice block","space","0","{""ArrowUp,ArrowLeft"":3,""ArrowUp,ArrowRight"":36,""ArrowDown,ArrowLeft"":15,""ArrowDown,ArrowRight"":23}","true","ArrowUp,ArrowRight","","","","","","","","",""
"html-keyboard-response","98","505178","0.0-3.0-13.0-11.0-1.0","spark_pilot_2","7113","8","8","Male","","","","","","","null","<div style=""font-size:60px;"">+</div>","null","fixation","","","","","","","","","","","","","",""
"revaluation","99","506695","0.0-3.0-13.0-11.0-0.1","spark_pilot_2","7113","8","8","Male","","false","","","","","[1514]","./assets/img/space/animals/rabbit.jpg","[""ArrowRight""]","practice block","space","0","{""ArrowUp,ArrowLeft"":3,""ArrowUp,ArrowRight"":36,""ArrowDown,ArrowLeft"":15,""ArrowDown,ArrowRight"":23}","true","ArrowDown,ArrowRight","","","","","","","","",""
"html-keyboard-response","100","507206","0.0-3.0-13.0-11.0-1.1","spark_pilot_2","7113","8","8","Male","","","","","","","null","<div style=""font-size:60px;"">+</div>","null","fixation","","","","","","","","","","","","","",""
"learning-instructions","101","513006","0.0-3.0-14.0-0.0","spark_pilot_2","7113","8","8","Male","","","","","","","1213.7000000178814","<p> Before you start, we're going to ask you a few questions about how the game works. </p>","","instructions","","","","","","","","","","","","","",""
"comp-q","102","519773","0.0-3.0-15.0-0.0-0.0","spark_pilot_2","7113","8","8","Male","","","","","","","1168.5","<p> <b> True or False? </b> </p>
            <p> There can be 50 pieces of treasure in a given animal's chest. </p>","1","comp_question","","","","true","","","","","","","","","",""
"comp-q","103","529124","0.0-3.0-15.0-0.0-1.0","spark_pilot_2","7113","8","8","Male","","","","","","","2680.0999999940395","<p> <b> That's right! </b> The amount of treasure in each chest can range from 0 to 40 pieces. </p>","0","comp_answer","","","","","","","","","","","","","",""
"comp-q","104","537138","0.0-3.0-15.0-0.1-0.1","spark_pilot_2","7113","8","8","Male","","","","","","","882.6999999880791","<p> <b> True or False? </b> </p><p> In this game, all animals have the same amount of treasure in their left and right chests. </p>","1","comp_question","","","","true","","","","","","","","","",""
"comp-q","105","543516","0.0-3.0-15.0-0.1-1.1","spark_pilot_2","7113","8","8","Male","","","","","","","1136.300000011921","<p> <b> That's right! </b> Animals have different amounts of treasure in their treasure chests. </p>","0","comp_answer","","","","","","","","","","","","","",""
"comp-q","106","550032","0.0-3.0-15.0-0.2-0.2","spark_pilot_2","7113","8","8","Male","","","","","","","662.9000000059605","<p> <b> True or False? </b> </p><p> The same animal will always be there if you go up in the same place. </p>","0","comp_question","","","","true","","","","","","","","","",""
"comp-q","107","557583","0.0-3.0-15.0-0.2-1.2","spark_pilot_2","7113","8","8","Male","","","","","","","1097.199999988079","<p> <b> That's right! </b> One animal lives in the upper part and one lives in the lower part of every place. </p>","0","comp_answer","","","","","","","","","","","","","",""
"comp-q","108","564253","0.0-3.0-15.0-0.3-0.3","spark_pilot_2","7113","8","8","Male","","","","","","","1138.1000000238419","<p> <b> True or False? </b> </p><p> If you see a different picture, it means you are in a new place. </p>","1","comp_question","","","","true","","","","","","","","","",""
"comp-q","109","577263","0.0-3.0-15.0-0.3-1.3","spark_pilot_2","7113","8","8","Male","","","","","","","1759.5","<p> <b> That's right! </b> Lots of different images may show the same place. For example,  you may see three different images that all remind you that you are in outer space. </p>","0","comp_answer","","","","","","","","","","","","","",""
"learning-instructions","110","590584","0.0-3.0-16.0-0.0","spark_pilot_2","7113","8","8","Male","","","","","","","3452.5999999940395","<p> Good job. Remember to do your best because the amount of treasure you earn will be converted into bonus money. </p>
            <p> It’s time to start the real game! </p>","","instructions","","","","","","","","","","","","","",""
"learning-instructions","111","595326","0.0-4.0-0.0-0.0","spark_pilot_2","7113","8","8","Male","","","","","","","1971.9000000059605","<p> This time you are searching for treasure in the <b>canyon</b>.</p>","","instructions","","","","","","","","","","","","","",""
"learning-instructions","112","614569","0.0-4.0-0.0-0.1","spark_pilot_2","7113","8","8","Male","","","","","","","1912.3999999761581","<p><b>New</b> animals with <b>new</b> treasure chests live here. You need to explore to discover where the animal with the best treasure chest is.</p>
                    <p> Like before, once you figure out which animal has the chest with the most treasure, you should try to get to that animal and select that chest! </p>","","instructions","","","","","","","","","","","","","",""
"learning-instructions","113","630343","0.0-4.0-1.0-0.0","spark_pilot_2","7113","8","8","Male","","","","","","","1043","<p> Remember, when you see a picture of the place, use the up and down keys to <b>find an animal</b>.</p>
            <p> When you encounter an animal, you should use the left and right keys to <b>select a treasure chest</b>.</p>
            <p> Don't forget to look out for the robber! </p>","","instructions","","","","","","","","","","","","","",""
"revaluation","114","634357","0.0-4.0-2.0-0.0","spark_pilot_2","7113","8","8","Male","","false","","","","","[1437.2999999821186]","./assets/img/canyon/catch/5.jpg","[""spaceBar""]","value training","canyon","0","{""ArrowUp,ArrowLeft"":26,""ArrowUp,ArrowRight"":10,""ArrowDown,ArrowLeft"":5,""ArrowDown,ArrowRight"":17}","true","spaceBar","true","","","revaluation","1","0","","",""
"html-keyboard-response","115","634866","0.0-4.0-2.0-1.0","spark_pilot_2","7113","8","8","Male","","","","","","","null","<div style=""font-size:60px;"">+</div>","null","fixation","","","","","","","","","","","1","","",""
"revaluation","116","640886","0.0-4.0-2.0-0.1","spark_pilot_2","7113","8","8","Male","","false","","","","","[537.4000000059605,1295.9000000059605]","./assets/img/canyon/memory/30.jpg","[""ArrowUp"",""ArrowRight""]","value training","canyon","10","{""ArrowUp,ArrowLeft"":26,""ArrowUp,ArrowRight"":10,""ArrowDown,ArrowLeft"":5,""ArrowDown,ArrowRight"":17}","false","ArrowUp,ArrowRight","false","","","revaluation","1","2","","",""
"html-keyboard-response","117","641390","0.0-4.0-2.0-1.1","spark_pilot_2","7113","8","8","Male","","","","","","","null","<div style=""font-size:60px;"">+</div>","null","fixation","","","","","","","","","","","3","","",""
"revaluation","118","647417","0.0-4.0-2.0-0.2","spark_pilot_2","7113","8","8","Male","","false","","","","","[400.2000000178814,711]","./assets/img/canyon/memory/22.jpg","[""ArrowDown"",""ArrowLeft""]","value training","canyon","5","{""ArrowUp,ArrowLeft"":26,""ArrowUp,ArrowRight"":10,""ArrowDown,ArrowLeft"":5,""ArrowDown,ArrowRight"":17}","false","ArrowDown,ArrowLeft","false","","","revaluation","1","4","","",""
"html-keyboard-response","119","647928","0.0-4.0-2.0-1.2","spark_pilot_2","7113","8","8","Male","","","","","","","null","<div style=""font-size:60px;"">+</div>","null","fixation","","","","","","","","","","","5","","",""
"revaluation","120","653954","0.0-4.0-2.0-0.3","spark_pilot_2","7113","8","8","Male","","false","","","","","[550.6000000238419,845.5999999940395]","./assets/img/canyon/memory/21.jpg","[""ArrowUp"",""ArrowLeft""]","value training","canyon","26","{""ArrowUp,ArrowLeft"":26,""ArrowUp,ArrowRight"":10,""ArrowDown,ArrowLeft"":5,""ArrowDown,ArrowRight"":17}","true","ArrowUp,ArrowLeft","false","","","revaluation","1","6","","",""
"html-keyboard-response","121","654462","0.0-4.0-2.0-1.3","spark_pilot_2","7113","8","8","Male","","","","","","","null","<div style=""font-size:60px;"">+</div>","null","fixation","","","","","","","","","","","7","","",""
"revaluation","122","660486","0.0-4.0-2.0-0.4","spark_pilot_2","7113","8","8","Male","","false","","","","","[662.4000000059605,751.2999999821186]","./assets/img/canyon/memory/5.jpg","[""ArrowDown"",""ArrowRight""]","value training","canyon","17","{""ArrowUp,ArrowLeft"":26,""ArrowUp,ArrowRight"":10,""ArrowDown,ArrowLeft"":5,""ArrowDown,ArrowRight"":17}","false","ArrowDown,ArrowRight","false","","","revaluation","1","8","","",""
"html-keyboard-response","123","660990","0.0-4.0-2.0-1.4","spark_pilot_2","7113","8","8","Male","","","","","","","null","<div style=""font-size:60px;"">+</div>","null","fixation","","","","","","","","","","","9","","",""
"revaluation","124","667016","0.0-4.0-2.0-0.5","spark_pilot_2","7113","8","8","Male","","false","","","","","[891.9000000059605,393.09999999403954]","./assets/img/canyon/memory/23.jpg","[""ArrowUp"",""ArrowLeft""]","value training","canyon","26","{""ArrowUp,ArrowLeft"":26,""ArrowUp,ArrowRight"":10,""ArrowDown,ArrowLeft"":5,""ArrowDown,ArrowRight"":17}","true","ArrowUp,ArrowLeft","false","","","revaluation","1","10","","",""
"html-keyboard-response","125","667527","0.0-4.0-2.0-1.5","spark_pilot_2","7113","8","8","Male","","","","","","","null","<div style=""font-size:60px;"">+</div>","null","fixation","","","","","","","","","","","11","","",""
"revaluation","126","673553","0.0-4.0-2.0-0.6","spark_pilot_2","7113","8","8","Male","","false","","","","","[528.5,495.7999999821186]","./assets/img/canyon/memory/0.jpg","[""ArrowUp"",""ArrowLeft""]","value training","canyon","26","{""ArrowUp,ArrowLeft"":26,""ArrowUp,ArrowRight"":10,""ArrowDown,ArrowLeft"":5,""ArrowDown,ArrowRight"":17}","true","ArrowUp,ArrowLeft","false","","","revaluation","1","12","","",""
"html-keyboard-response","127","674063","0.0-4.0-2.0-1.6","spark_pilot_2","7113","8","8","Male","","","","","","","null","<div style=""font-size:60px;"">+</div>","null","fixation","","","","","","","","","","","13","","",""
"revaluation","128","678081","0.0-4.0-2.0-0.7","spark_pilot_2","7113","8","8","Male","","false","","","","","[1190.5]","./assets/img/canyon/catch/0.jpg","[""spaceBar""]","value training","canyon","0","{""ArrowUp,ArrowLeft"":26,""ArrowUp,ArrowRight"":10,""ArrowDown,ArrowLeft"":5,""ArrowDown,ArrowRight"":17}","true","spaceBar","true","","","revaluation","1","14","","",""
"html-keyboard-response","129","678591","0.0-4.0-2.0-1.7","spark_pilot_2","7113","8","8","Male","","","","","","","null","<div style=""font-size:60px;"">+</div>","null","fixation","","","","","","","","","","","15","","",""
"revaluation","130","682606","0.0-4.0-2.0-0.8","spark_pilot_2","7113","8","8","Male","","false","","","","","[765.3999999761581]","./assets/img/canyon/catch/1.jpg","[""ArrowUp""]","value training","canyon","-10","{""ArrowUp,ArrowLeft"":26,""ArrowUp,ArrowRight"":10,""ArrowDown,ArrowLeft"":5,""ArrowDown,ArrowRight"":17}","false","ArrowUp","true","","","revaluation","1","16","","",""
"html-keyboard-response","131","683116","0.0-4.0-2.0-1.8","spark_pilot_2","7113","8","8","Male","","","","","","","null","<div style=""font-size:60px;"">+</div>","null","fixation","","","","","","","","","","","17","","",""
"revaluation","132","687130","0.0-4.0-2.0-0.9","spark_pilot_2","7113","8","8","Male","","false","","","","","[1149]","./assets/img/canyon/catch/7.jpg","[""spaceBar""]","value training","canyon","0","{""ArrowUp,ArrowLeft"":26,""ArrowUp,ArrowRight"":10,""ArrowDown,ArrowLeft"":5,""ArrowDown,ArrowRight"":17}","true","spaceBar","true","","","revaluation","1","18","","",""
"html-keyboard-response","133","687640","0.0-4.0-2.0-1.9","spark_pilot_2","7113","8","8","Male","","","","","","","null","<div style=""font-size:60px;"">+</div>","null","fixation","","","","","","","","","","","19","","",""
"revaluation","134","693662","0.0-4.0-2.0-0.10","spark_pilot_2","7113","8","8","Male","","false","","","","","[716.2999999821186,610.7999999821186]","./assets/img/canyon/memory/5.jpg","[""ArrowUp"",""ArrowLeft""]","value training","canyon","26","{""ArrowUp,ArrowLeft"":26,""ArrowUp,ArrowRight"":10,""ArrowDown,ArrowLeft"":5,""ArrowDown,ArrowRight"":17}","true","ArrowUp,ArrowLeft","false","","","revaluation","1","20","","",""
"html-keyboard-response","135","694172","0.0-4.0-2.0-1.10","spark_pilot_2","7113","8","8","Male","","","","","","","null","<div style=""font-size:60px;"">+</div>","null","fixation","","","","","","","","","","","21","","",""
"revaluation","136","700196","0.0-4.0-2.0-0.11","spark_pilot_2","7113","8","8","Male","","false","","","","","[819.0999999940395,749.3000000119209]","./assets/img/canyon/memory/26.jpg","[""ArrowUp"",""ArrowLeft""]","value training","canyon","26","{""ArrowUp,ArrowLeft"":26,""ArrowUp,ArrowRight"":10,""ArrowDown,ArrowLeft"":5,""ArrowDown,ArrowRight"":17}","true","ArrowUp,ArrowLeft","false","","","revaluation","1","22","","",""
"html-keyboard-response","137","700706","0.0-4.0-2.0-1.11","spark_pilot_2","7113","8","8","Male","","","","","","","null","<div style=""font-size:60px;"">+</div>","null","fixation","","","","","","","","","","","23","","",""
"revaluation","138","706731","0.0-4.0-2.0-0.12","spark_pilot_2","7113","8","8","Male","","false","","","","","[677.8999999761581,969.8000000119209]","./assets/img/canyon/memory/40.jpg","[""ArrowUp"",""ArrowLeft""]","value training","canyon","26","{""ArrowUp,ArrowLeft"":26,""ArrowUp,ArrowRight"":10,""ArrowDown,ArrowLeft"":5,""ArrowDown,ArrowRight"":17}","true","ArrowUp,ArrowLeft","false","","","revaluation","1","24","","",""
"html-keyboard-response","139","707241","0.0-4.0-2.0-1.12","spark_pilot_2","7113","8","8","Male","","","","","","","null","<div style=""font-size:60px;"">+</div>","null","fixation","","","","","","","","","","","25","","",""
"revaluation","140","713266","0.0-4.0-2.0-0.13","spark_pilot_2","7113","8","8","Male","","false","","","","","[993.2999999821186,857.1000000238419]","./assets/img/canyon/memory/27.jpg","[""ArrowUp"",""ArrowLeft""]","value training","canyon","26","{""ArrowUp,ArrowLeft"":26,""ArrowUp,ArrowRight"":10,""ArrowDown,ArrowLeft"":5,""ArrowDown,ArrowRight"":17}","true","ArrowUp,ArrowLeft","false","","","revaluation","1","26","","",""
"html-keyboard-response","141","713776","0.0-4.0-2.0-1.13","spark_pilot_2","7113","8","8","Male","","","","","","","null","<div style=""font-size:60px;"">+</div>","null","fixation","","","","","","","","","","","27","","",""
"revaluation","142","717793","0.0-4.0-2.0-0.14","spark_pilot_2","7113","8","8","Male","","false","","","","","[964.2000000178814]","./assets/img/canyon/catch/6.jpg","[""spaceBar""]","value training","canyon","0","{""ArrowUp,ArrowLeft"":26,""ArrowUp,ArrowRight"":10,""ArrowDown,ArrowLeft"":5,""ArrowDown,ArrowRight"":17}","true","spaceBar","true","","","revaluation","1","28","","",""
"html-keyboard-response","143","718303","0.0-4.0-2.0-1.14","spark_pilot_2","7113","8","8","Male","","","","","","","null","<div style=""font-size:60px;"">+</div>","null","fixation","","","","","","","","","","","29","","",""
"revaluation","144","724329","0.0-4.0-2.0-0.15","spark_pilot_2","7113","8","8","Male","","false","","","","","[1651.5999999940395,1263]","./assets/img/canyon/memory/7.jpg","[""ArrowUp"",""ArrowLeft""]","value training","canyon","26","{""ArrowUp,ArrowLeft"":26,""ArrowUp,ArrowRight"":10,""ArrowDown,ArrowLeft"":5,""ArrowDown,ArrowRight"":17}","true","ArrowUp,ArrowLeft","false","","","revaluation","1","30","","",""
"html-keyboard-response","145","724840","0.0-4.0-2.0-1.15","spark_pilot_2","7113","8","8","Male","","","","","","","null","<div style=""font-size:60px;"">+</div>","null","fixation","","","","","","","","","","","31","","",""
"revaluation","146","730865","0.0-4.0-2.0-0.16","spark_pilot_2","7113","8","8","Male","","false","","","","","[1221.800000011921,944.5999999940395]","./assets/img/canyon/memory/21.jpg","[""ArrowUp"",""ArrowLeft""]","value training","canyon","26","{""ArrowUp,ArrowLeft"":26,""ArrowUp,ArrowRight"":10,""ArrowDown,ArrowLeft"":5,""ArrowDown,ArrowRight"":17}","true","ArrowUp,ArrowLeft","false","","","revaluation","1","32","","",""
"html-keyboard-response","147","731376","0.0-4.0-2.0-1.16","spark_pilot_2","7113","8","8","Male","","","","","","","null","<div style=""font-size:60px;"">+</div>","null","fixation","","","","","","","","","","","33","","",""
"revaluation","148","737401","0.0-4.0-2.0-0.17","spark_pilot_2","7113","8","8","Male","","false","","","","","[899.7999999821186,718.8999999761581]","./assets/img/canyon/memory/2.jpg","[""ArrowUp"",""ArrowLeft""]","value training","canyon","26","{""ArrowUp,ArrowLeft"":26,""ArrowUp,ArrowRight"":10,""ArrowDown,ArrowLeft"":5,""ArrowDown,ArrowRight"":17}","true","ArrowUp,ArrowLeft","false","","","revaluation","1","34","","",""
"html-keyboard-response","149","737912","0.0-4.0-2.0-1.17","spark_pilot_2","7113","8","8","Male","","","","","","","null","<div style=""font-size:60px;"">+</div>","null","fixation","","","","","","","","","","","35","","",""
"revaluation","150","743932","0.0-4.0-2.0-0.18","spark_pilot_2","7113","8","8","Male","","false","","","","","[607.0999999940395,431.90000000596046]","./assets/img/canyon/memory/22.jpg","[""ArrowUp"",""ArrowLeft""]","value training","canyon","26","{""ArrowUp,ArrowLeft"":26,""ArrowUp,ArrowRight"":10,""ArrowDown,ArrowLeft"":5,""ArrowDown,ArrowRight"":17}","true","ArrowUp,ArrowLeft","false","","","revaluation","1","36","","",""
"html-keyboard-response","151","744437","0.0-4.0-2.0-1.18","spark_pilot_2","7113","8","8","Male","","","","","","","null","<div style=""font-size:60px;"">+</div>","null","fixation","","","","","","","","","","","37","","",""
"revaluation","152","750463","0.0-4.0-2.0-0.19","spark_pilot_2","7113","8","8","Male","","false","","","","","[620.4000000059605,715.5999999940395]","./assets/img/canyon/memory/30.jpg","[""ArrowUp"",""ArrowLeft""]","value training","canyon","26","{""ArrowUp,ArrowLeft"":26,""ArrowUp,ArrowRight"":10,""ArrowDown,ArrowLeft"":5,""ArrowDown,ArrowRight"":17}","true","ArrowUp,ArrowLeft","false","","","revaluation","1","38","","",""
"html-keyboard-response","153","750973","0.0-4.0-2.0-1.19","spark_pilot_2","7113","8","8","Male","","","","","","","null","<div style=""font-size:60px;"">+</div>","null","fixation","","","","","","","","","","","39","","",""
"revaluation","154","756999","0.0-4.0-2.0-0.20","spark_pilot_2","7113","8","8","Male","","false","","","","","[731.2000000178814,563.0999999940395]","./assets/img/canyon/memory/2.jpg","[""ArrowUp"",""ArrowLeft""]","value training","canyon","26","{""ArrowUp,ArrowLeft"":26,""ArrowUp,ArrowRight"":10,""ArrowDown,ArrowLeft"":5,""ArrowDown,ArrowRight"":17}","true","ArrowUp,ArrowLeft","false","","","revaluation","1","40","","",""
"html-keyboard-response","155","757509","0.0-4.0-2.0-1.20","spark_pilot_2","7113","8","8","Male","","","","","","","null","<div style=""font-size:60px;"">+</div>","null","fixation","","","","","","","","","","","41","","",""
"revaluation","156","763536","0.0-4.0-2.0-0.21","spark_pilot_2","7113","8","8","Male","","false","","","","","[687.9000000059605,434.90000000596046]","./assets/img/canyon/memory/12.jpg","[""ArrowUp"",""ArrowLeft""]","value training","canyon","26","{""ArrowUp,ArrowLeft"":26,""ArrowUp,ArrowRight"":10,""ArrowDown,ArrowLeft"":5,""ArrowDown,ArrowRight"":17}","true","ArrowUp,ArrowLeft","false","","","revaluation","1","42","","",""
"html-keyboard-response","157","764045","0.0-4.0-2.0-1.21","spark_pilot_2","7113","8","8","Male","","","","","","","null","<div style=""font-size:60px;"">+</div>","null","fixation","","","","","","","","","","","43","","",""
"revaluation","158","770072","0.0-4.0-2.0-0.22","spark_pilot_2","7113","8","8","Male","","false","","","","","[911.6000000238419,505.39999997615814]","./assets/img/canyon/memory/31.jpg","[""ArrowUp"",""ArrowLeft""]","value training","canyon","26","{""ArrowUp,ArrowLeft"":26,""ArrowUp,ArrowRight"":10,""ArrowDown,ArrowLeft"":5,""ArrowDown,ArrowRight"":17}","true","ArrowUp,ArrowLeft","false","","","revaluation","1","44","","",""
"html-keyboard-response","159","770582","0.0-4.0-2.0-1.22","spark_pilot_2","7113","8","8","Male","","","","","","","null","<div style=""font-size:60px;"">+</div>","null","fixation","","","","","","","","","","","45","","",""
"revaluation","160","776608","0.0-4.0-2.0-0.23","spark_pilot_2","7113","8","8","Male","","false","","","","","[825.2000000178814,741.1000000238419]","./assets/img/canyon/memory/14.jpg","[""ArrowUp"",""ArrowLeft""]","value training","canyon","26","{""ArrowUp,ArrowLeft"":26,""ArrowUp,ArrowRight"":10,""ArrowDown,ArrowLeft"":5,""ArrowDown,ArrowRight"":17}","true","ArrowUp,ArrowLeft","false","","","revaluation","1","46","","",""
"html-keyboard-response","161","777119","0.0-4.0-2.0-1.23","spark_pilot_2","7113","8","8","Male","","","","","","","null","<div style=""font-size:60px;"">+</div>","null","fixation","","","","","","","","","","","47","","",""
"revaluation","162","783145","0.0-4.0-2.0-0.24","spark_pilot_2","7113","8","8","Male","","false","","","","","[1200.5999999940395,1341.4000000059605]","./assets/img/canyon/memory/27.jpg","[""ArrowUp"",""ArrowLeft""]","value training","canyon","26","{""ArrowUp,ArrowLeft"":26,""ArrowUp,ArrowRight"":10,""ArrowDown,ArrowLeft"":5,""ArrowDown,ArrowRight"":17}","true","ArrowUp,ArrowLeft","false","","","revaluation","1","48","","",""
"html-keyboard-response","163","783655","0.0-4.0-2.0-1.24","spark_pilot_2","7113","8","8","Male","","","","","","","null","<div style=""font-size:60px;"">+</div>","null","fixation","","","","","","","","","","","49","","",""
"revaluation","164","787672","0.0-4.0-2.0-0.25","spark_pilot_2","7113","8","8","Male","","false","","","","","[1031.2999999821186]","./assets/img/canyon/catch/2.jpg","[""spaceBar""]","value training","canyon","0","{""ArrowUp,ArrowLeft"":26,""ArrowUp,ArrowRight"":10,""ArrowDown,ArrowLeft"":5,""ArrowDown,ArrowRight"":17}","true","spaceBar","true","","","revaluation","1","50","","",""
"html-keyboard-response","165","788183","0.0-4.0-2.0-1.25","spark_pilot_2","7113","8","8","Male","","","","","","","null","<div style=""font-size:60px;"">+</div>","null","fixation","","","","","","","","","","","51","","",""
"revaluation","166","794209","0.0-4.0-2.0-0.26","spark_pilot_2","7113","8","8","Male","","false","","","","","[1265.199999988079,1462.9000000059605]","./assets/img/canyon/memory/31.jpg","[""ArrowUp"",""ArrowLeft""]","value training","canyon","26","{""ArrowUp,ArrowLeft"":26,""ArrowUp,ArrowRight"":10,""ArrowDown,ArrowLeft"":5,""ArrowDown,ArrowRight"":17}","true","ArrowUp,ArrowLeft","false","","","revaluation","1","52","","",""
"html-keyboard-response","167","794720","0.0-4.0-2.0-1.26","spark_pilot_2","7113","8","8","Male","","","","","","","null","<div style=""font-size:60px;"">+</div>","null","fixation","","","","","","","","","","","53","","",""
"revaluation","168","800740","0.0-4.0-2.0-0.27","spark_pilot_2","7113","8","8","Male","","false","","","","","[794.4000000059605,759.3000000119209]","./assets/img/canyon/memory/20.jpg","[""ArrowUp"",""ArrowLeft""]","value training","canyon","26","{""ArrowUp,ArrowLeft"":26,""ArrowUp,ArrowRight"":10,""ArrowDown,ArrowLeft"":5,""ArrowDown,ArrowRight"":17}","true","ArrowUp,ArrowLeft","false","","","revaluation","1","54","","",""
"html-keyboard-response","169","801245","0.0-4.0-2.0-1.27","spark_pilot_2","7113","8","8","Male","","","","","","","null","<div style=""font-size:60px;"">+</div>","null","fixation","","","","","","","","","","","55","","",""
"revaluation","170","807270","0.0-4.0-2.0-0.28","spark_pilot_2","7113","8","8","Male","","false","","","","","[705.5999999940395,706.1999999880791]","./assets/img/canyon/memory/28.jpg","[""ArrowUp"",""ArrowLeft""]","value training","canyon","26","{""ArrowUp,ArrowLeft"":26,""ArrowUp,ArrowRight"":10,""ArrowDown,ArrowLeft"":5,""ArrowDown,ArrowRight"":17}","true","ArrowUp,ArrowLeft","false","","","revaluation","1","56","","",""
"html-keyboard-response","171","807775","0.0-4.0-2.0-1.28","spark_pilot_2","7113","8","8","Male","","","","","","","null","<div style=""font-size:60px;"">+</div>","null","fixation","","","","","","","","","","","57","","",""
"revaluation","172","813801","0.0-4.0-2.0-0.29","spark_pilot_2","7113","8","8","Male","","false","","","","","[695.7999999821186,518.5]","./assets/img/canyon/memory/28.jpg","[""ArrowUp"",""ArrowLeft""]","value training","canyon","26","{""ArrowUp,ArrowLeft"":26,""ArrowUp,ArrowRight"":10,""ArrowDown,ArrowLeft"":5,""ArrowDown,ArrowRight"":17}","true","ArrowUp,ArrowLeft","false","","","revaluation","1","58","","",""
"html-keyboard-response","173","814311","0.0-4.0-2.0-1.29","spark_pilot_2","7113","8","8","Male","","","","","","","null","<div style=""font-size:60px;"">+</div>","null","fixation","","","","","","","","","","","59","","",""
"revaluation","174","820333","0.0-4.0-2.0-0.30","spark_pilot_2","7113","8","8","Male","","false","","","","","[650.5,508.10000002384186]","./assets/img/canyon/memory/14.jpg","[""ArrowUp"",""ArrowLeft""]","value training","canyon","26","{""ArrowUp,ArrowLeft"":26,""ArrowUp,ArrowRight"":10,""ArrowDown,ArrowLeft"":5,""ArrowDown,ArrowRight"":17}","true","ArrowUp,ArrowLeft","false","","","revaluation","1","60","","",""
"html-keyboard-response","175","820836","0.0-4.0-2.0-1.30","spark_pilot_2","7113","8","8","Male","","","","","","","null","<div style=""font-size:60px;"">+</div>","null","fixation","","","","","","","","","","","61","","",""
"revaluation","176","826862","0.0-4.0-2.0-0.31","spark_pilot_2","7113","8","8","Male","","false","","","","","[608.4000000059605,661.4000000059605]","./assets/img/canyon/memory/11.jpg","[""ArrowUp"",""ArrowLeft""]","value training","canyon","26","{""ArrowUp,ArrowLeft"":26,""ArrowUp,ArrowRight"":10,""ArrowDown,ArrowLeft"":5,""ArrowDown,ArrowRight"":17}","true","ArrowUp,ArrowLeft","false","","","revaluation","1","62","","",""
"html-keyboard-response","177","827367","0.0-4.0-2.0-1.31","spark_pilot_2","7113","8","8","Male","","","","","","","null","<div style=""font-size:60px;"">+</div>","null","fixation","","","","","","","","","","","63","","",""
"revaluation","178","833388","0.0-4.0-2.0-0.32","spark_pilot_2","7113","8","8","Male","","false","","","","","[591.8000000119209,923.3000000119209]","./assets/img/canyon/memory/7.jpg","[""ArrowUp"",""ArrowLeft""]","value training","canyon","26","{""ArrowUp,ArrowLeft"":26,""ArrowUp,ArrowRight"":10,""ArrowDown,ArrowLeft"":5,""ArrowDown,ArrowRight"":17}","true","ArrowUp,ArrowLeft","false","","","revaluation","1","64","","",""
"html-keyboard-response","179","833892","0.0-4.0-2.0-1.32","spark_pilot_2","7113","8","8","Male","","","","","","","null","<div style=""font-size:60px;"">+</div>","null","fixation","","","","","","","","","","","65","","",""
"revaluation","180","839918","0.0-4.0-2.0-0.33","spark_pilot_2","7113","8","8","Male","","false","","","","","[670.4000000059605,1074.800000011921]","./assets/img/canyon/memory/34.jpg","[""ArrowUp"",""ArrowLeft""]","value training","canyon","26","{""ArrowUp,ArrowLeft"":26,""ArrowUp,ArrowRight"":10,""ArrowDown,ArrowLeft"":5,""ArrowDown,ArrowRight"":17}","true","ArrowUp,ArrowLeft","false","","","revaluation","1","66","","",""
"html-keyboard-response","181","840423","0.0-4.0-2.0-1.33","spark_pilot_2","7113","8","8","Male","","","","","","","null","<div style=""font-size:60px;"">+</div>","null","fixation","","","","","","","","","","","67","","",""
"revaluation","182","846449","0.0-4.0-2.0-0.34","spark_pilot_2","7113","8","8","Male","","false","","","","","[852.4000000059605,709.0999999940395]","./assets/img/canyon/memory/23.jpg","[""ArrowUp"",""ArrowLeft""]","value training","canyon","26","{""ArrowUp,ArrowLeft"":26,""ArrowUp,ArrowRight"":10,""ArrowDown,ArrowLeft"":5,""ArrowDown,ArrowRight"":17}","true","ArrowUp,ArrowLeft","false","","","revaluation","1","68","","",""
"html-keyboard-response","183","846959","0.0-4.0-2.0-1.34","spark_pilot_2","7113","8","8","Male","","","","","","","null","<div style=""font-size:60px;"">+</div>","null","fixation","","","","","","","","","","","69","","",""
"revaluation","184","852985","0.0-4.0-2.0-0.35","spark_pilot_2","7113","8","8","Male","","false","","","","","[758.4000000059605,1300.5999999940395]","./assets/img/canyon/memory/37.jpg","[""ArrowUp"",""ArrowLeft""]","value training","canyon","26","{""ArrowUp,ArrowLeft"":26,""ArrowUp,ArrowRight"":10,""ArrowDown,ArrowLeft"":5,""ArrowDown,ArrowRight"":17}","true","ArrowUp,ArrowLeft","false","","","revaluation","1","70","","",""
"html-keyboard-response","185","853496","0.0-4.0-2.0-1.35","spark_pilot_2","7113","8","8","Male","","","","","","","null","<div style=""font-size:60px;"">+</div>","null","fixation","","","","","","","","","","","71","","",""
"revaluation","186","859521","0.0-4.0-2.0-0.36","spark_pilot_2","7113","8","8","Male","","false","","","","","[625,543.5]","./assets/img/canyon/memory/8.jpg","[""ArrowUp"",""ArrowLeft""]","value training","canyon","26","{""ArrowUp,ArrowLeft"":26,""ArrowUp,ArrowRight"":10,""ArrowDown,ArrowLeft"":5,""ArrowDown,ArrowRight"":17}","true","ArrowUp,ArrowLeft","false","","","revaluation","1","72","","",""
"html-keyboard-response","187","860032","0.0-4.0-2.0-1.36","spark_pilot_2","7113","8","8","Male","","","","","","","null","<div style=""font-size:60px;"">+</div>","null","fixation","","","","","","","","","","","73","","",""
"revaluation","188","866052","0.0-4.0-2.0-0.37","spark_pilot_2","7113","8","8","Male","","false","","","","","[594.8000000119209,949.3999999761581]","./assets/img/canyon/memory/0.jpg","[""ArrowUp"",""ArrowLeft""]","value training","canyon","26","{""ArrowUp,ArrowLeft"":26,""ArrowUp,ArrowRight"":10,""ArrowDown,ArrowLeft"":5,""ArrowDown,ArrowRight"":17}","true","ArrowUp,ArrowLeft","false","","","revaluation","1","74","","",""
"html-keyboard-response","189","866557","0.0-4.0-2.0-1.37","spark_pilot_2","7113","8","8","Male","","","","","","","null","<div style=""font-size:60px;"">+</div>","null","fixation","","","","","","","","","","","75","","",""
"revaluation","190","872583","0.0-4.0-2.0-0.38","spark_pilot_2","7113","8","8","Male","","false","","","","","[763.3000000119209,422.59999999403954]","./assets/img/canyon/memory/34.jpg","[""ArrowUp"",""ArrowLeft""]","value training","canyon","26","{""ArrowUp,ArrowLeft"":26,""ArrowUp,ArrowRight"":10,""ArrowDown,ArrowLeft"":5,""ArrowDown,ArrowRight"":17}","true","ArrowUp,ArrowLeft","false","","","revaluation","1","76","","",""
"html-keyboard-response","191","873088","0.0-4.0-2.0-1.38","spark_pilot_2","7113","8","8","Male","","","","","","","null","<div style=""font-size:60px;"">+</div>","null","fixation","","","","","","","","","","","77","","",""
"revaluation","192","879114","0.0-4.0-2.0-0.39","spark_pilot_2","7113","8","8","Male","","false","","","","","[674.0999999940395,1181]","./assets/img/canyon/memory/12.jpg","[""ArrowUp"",""ArrowLeft""]","value training","canyon","26","{""ArrowUp,ArrowLeft"":26,""ArrowUp,ArrowRight"":10,""ArrowDown,ArrowLeft"":5,""ArrowDown,ArrowRight"":17}","true","ArrowUp,ArrowLeft","false","","","revaluation","1","78","","",""
"html-keyboard-response","193","879624","0.0-4.0-2.0-1.39","spark_pilot_2","7113","8","8","Male","","","","","","","null","<div style=""font-size:60px;"">+</div>","null","fixation","","","","","","","","","","","79","","",""
"revaluation","194","885650","0.0-4.0-2.0-0.40","spark_pilot_2","7113","8","8","Male","","false","","","","","[1457,557.9000000059605]","./assets/img/canyon/memory/40.jpg","[""ArrowUp"",""ArrowLeft""]","value training","canyon","26","{""ArrowUp,ArrowLeft"":26,""ArrowUp,ArrowRight"":10,""ArrowDown,ArrowLeft"":5,""ArrowDown,ArrowRight"":17}","true","ArrowUp,ArrowLeft","false","","","revaluation","1","80","","",""
"html-keyboard-response","195","886160","0.0-4.0-2.0-1.40","spark_pilot_2","7113","8","8","Male","","","","","","","null","<div style=""font-size:60px;"">+</div>","null","fixation","","","","","","","","","","","81","","",""
"revaluation","196","892181","0.0-4.0-2.0-0.41","spark_pilot_2","7113","8","8","Male","","false","","","","","[621.8000000119209,443.5]","./assets/img/canyon/memory/1.jpg","[""ArrowUp"",""ArrowLeft""]","value training","canyon","26","{""ArrowUp,ArrowLeft"":26,""ArrowUp,ArrowRight"":10,""ArrowDown,ArrowLeft"":5,""ArrowDown,ArrowRight"":17}","true","ArrowUp,ArrowLeft","false","","","revaluation","1","82","","",""
"html-keyboard-response","197","892685","0.0-4.0-2.0-1.41","spark_pilot_2","7113","8","8","Male","","","","","","","null","<div style=""font-size:60px;"">+</div>","null","fixation","","","","","","","","","","","83","","",""
"revaluation","198","898711","0.0-4.0-2.0-0.42","spark_pilot_2","7113","8","8","Male","","false","","","","","[1823.300000011921,939.3000000119209]","./assets/img/canyon/memory/11.jpg","[""ArrowUp"",""ArrowLeft""]","value training","canyon","26","{""ArrowUp,ArrowLeft"":26,""ArrowUp,ArrowRight"":10,""ArrowDown,ArrowLeft"":5,""ArrowDown,ArrowRight"":17}","true","ArrowUp,ArrowLeft","false","","","revaluation","1","84","","",""
"html-keyboard-response","199","899216","0.0-4.0-2.0-1.42","spark_pilot_2","7113","8","8","Male","","","","","","","null","<div style=""font-size:60px;"">+</div>","null","fixation","","","","","","","","","","","85","","",""
"revaluation","200","905238","0.0-4.0-2.0-0.43","spark_pilot_2","7113","8","8","Male","","false","","","","","[562.5,362.5]","./assets/img/canyon/memory/37.jpg","[""ArrowUp"",""ArrowLeft""]","value training","canyon","26","{""ArrowUp,ArrowLeft"":26,""ArrowUp,ArrowRight"":10,""ArrowDown,ArrowLeft"":5,""ArrowDown,ArrowRight"":17}","true","ArrowUp,ArrowLeft","false","","","revaluation","1","86","","",""
"html-keyboard-response","201","905741","0.0-4.0-2.0-1.43","spark_pilot_2","7113","8","8","Male","","","","","","","null","<div style=""font-size:60px;"">+</div>","null","fixation","","","","","","","","","","","87","","",""
"revaluation","202","909758","0.0-4.0-2.0-0.44","spark_pilot_2","7113","8","8","Male","","false","","","","","[1267.2000000178814]","./assets/img/canyon/catch/4.jpg","[""spaceBar""]","value training","canyon","0","{""ArrowUp,ArrowLeft"":26,""ArrowUp,ArrowRight"":10,""ArrowDown,ArrowLeft"":5,""ArrowDown,ArrowRight"":17}","true","spaceBar","true","","","revaluation","1","88","","",""
"html-keyboard-response","203","910263","0.0-4.0-2.0-1.44","spark_pilot_2","7113","8","8","Male","","","","","","","null","<div style=""font-size:60px;"">+</div>","null","fixation","","","","","","","","","","","89","","",""
"revaluation","204","914280","0.0-4.0-2.0-0.45","spark_pilot_2","7113","8","8","Male","","false","","","","","[1184.4000000059605]","./assets/img/canyon/catch/3.jpg","[""spaceBar""]","value training","canyon","0","{""ArrowUp,ArrowLeft"":26,""ArrowUp,ArrowRight"":10,""ArrowDown,ArrowLeft"":5,""ArrowDown,ArrowRight"":17}","true","spaceBar","true","","","revaluation","1","90","","",""
"html-keyboard-response","205","914791","0.0-4.0-2.0-1.45","spark_pilot_2","7113","8","8","Male","","","","","","","null","<div style=""font-size:60px;"">+</div>","null","fixation","","","","","","","","","","","91","","",""
"revaluation","206","920817","0.0-4.0-2.0-0.46","spark_pilot_2","7113","8","8","Male","","false","","","","","[831.2999999821186,597.3999999761581]","./assets/img/canyon/memory/20.jpg","[""ArrowUp"",""ArrowLeft""]","value training","canyon","26","{""ArrowUp,ArrowLeft"":26,""ArrowUp,ArrowRight"":10,""ArrowDown,ArrowLeft"":5,""ArrowDown,ArrowRight"":17}","true","ArrowUp,ArrowLeft","false","","","revaluation","1","92","","",""
"html-keyboard-response","207","921328","0.0-4.0-2.0-1.46","spark_pilot_2","7113","8","8","Male","","","","","","","null","<div style=""font-size:60px;"">+</div>","null","fixation","","","","","","","","","","","93","","",""
"revaluation","208","927353","0.0-4.0-2.0-0.47","spark_pilot_2","7113","8","8","Male","","false","","","","","[661.1999999880791,1023.2000000178814]","./assets/img/canyon/memory/8.jpg","[""ArrowUp"",""ArrowLeft""]","value training","canyon","26","{""ArrowUp,ArrowLeft"":26,""ArrowUp,ArrowRight"":10,""ArrowDown,ArrowLeft"":5,""ArrowDown,ArrowRight"":17}","true","ArrowUp,ArrowLeft","false","","","revaluation","1","94","","",""
"html-keyboard-response","209","927864","0.0-4.0-2.0-1.47","spark_pilot_2","7113","8","8","Male","","","","","","","null","<div style=""font-size:60px;"">+</div>","null","fixation","","","","","","","","","","","95","","",""
"revaluation","210","933890","0.0-4.0-2.0-0.48","spark_pilot_2","7113","8","8","Male","","false","","","","","[662.2000000178814,746.9000000059605]","./assets/img/canyon/memory/1.jpg","[""ArrowUp"",""ArrowLeft""]","value training","canyon","26","{""ArrowUp,ArrowLeft"":26,""ArrowUp,ArrowRight"":10,""ArrowDown,ArrowLeft"":5,""ArrowDown,ArrowRight"":17}","true","ArrowUp,ArrowLeft","false","","","revaluation","1","96","","",""
"html-keyboard-response","211","934400","0.0-4.0-2.0-1.48","spark_pilot_2","7113","8","8","Male","","","","","","","null","<div style=""font-size:60px;"">+</div>","null","fixation","","","","","","","","","","","97","","",""
"revaluation","212","940426","0.0-4.0-2.0-0.49","spark_pilot_2","7113","8","8","Male","","false","","","","","[615,716.0999999940395]","./assets/img/canyon/memory/26.jpg","[""ArrowUp"",""ArrowLeft""]","value training","canyon","26","{""ArrowUp,ArrowLeft"":26,""ArrowUp,ArrowRight"":10,""ArrowDown,ArrowLeft"":5,""ArrowDown,ArrowRight"":17}","true","ArrowUp,ArrowLeft","false","","","revaluation","1","98","","",""
"html-keyboard-response","213","940937","0.0-4.0-2.0-1.49","spark_pilot_2","7113","8","8","Male","","","","","","","null","<div style=""font-size:60px;"">+</div>","null","fixation","","","","","","","","","","","99","","",""
"learning-instructions","214","955639","0.0-4.0-3.0-0.0","spark_pilot_2","7113","8","8","Male","","","","","","","1653.9000000059605","<p> Now, you will travel with a friend who will choose whether you go up or down first. </p>
            <p> On these turns, you will just see the animal that they found. You will still get to choose which chest to search for treasure.</p>","","instructions","","","","","","","","","","","","","",""
"revaluation","215","959655","0.0-4.0-4.0-0.0","spark_pilot_2","7113","8","8","Male","","false","","","","","[738.7999999821186]","./assets/img/canyon/animals/giraffe.jpg","[""ArrowLeft""]","revaluation","canyon","2","{""ArrowUp,ArrowLeft"":2,""ArrowUp,ArrowRight"":11,""ArrowDown,ArrowLeft"":8,""ArrowDown,ArrowRight"":27}","false","ArrowUp,ArrowLeft","","","","revaluation","1","0","","",""
"html-keyboard-response","216","960167","0.0-4.0-4.0-1.0","spark_pilot_2","7113","8","8","Male","","","","","","","null","<div style=""font-size:60px;"">+</div>","null","fixation","","","","","","","","","","","1","","",""
"revaluation","217","964184","0.0-4.0-4.0-0.1","spark_pilot_2","7113","8","8","Male","","false","","","","","[630.7999999821186]","./assets/img/canyon/animals/giraffe.jpg","[""ArrowRight""]","revaluation","canyon","11","{""ArrowUp,ArrowLeft"":2,""ArrowUp,ArrowRight"":11,""ArrowDown,ArrowLeft"":8,""ArrowDown,ArrowRight"":27}","true","ArrowUp,ArrowRight","","","","revaluation","1","2","","",""
"html-keyboard-response","218","964695","0.0-4.0-4.0-1.1","spark_pilot_2","7113","8","8","Male","","","","","","","null","<div style=""font-size:60px;"">+</div>","null","fixation","","","","","","","","","","","3","","",""
"revaluation","219","968712","0.0-4.0-4.0-0.2","spark_pilot_2","7113","8","8","Male","","false","","","","","[786.5]","./assets/img/canyon/animals/giraffe.jpg","[""ArrowRight""]","revaluation","canyon","11","{""ArrowUp,ArrowLeft"":2,""ArrowUp,ArrowRight"":11,""ArrowDown,ArrowLeft"":8,""ArrowDown,ArrowRight"":27}","true","ArrowUp,ArrowRight","","","","revaluation","1","4","","",""
"html-keyboard-response","220","969222","0.0-4.0-4.0-1.2","spark_pilot_2","7113","8","8","Male","","","","","","","null","<div style=""font-size:60px;"">+</div>","null","fixation","","","","","","","","","","","5","","",""
"revaluation","221","973240","0.0-4.0-4.0-0.3","spark_pilot_2","7113","8","8","Male","","false","","","","","[1538]","./assets/img/canyon/animals/lion.jpg","[""ArrowLeft""]","revaluation","canyon","8","{""ArrowUp,ArrowLeft"":2,""ArrowUp,ArrowRight"":11,""ArrowDown,ArrowLeft"":8,""ArrowDown,ArrowRight"":27}","false","ArrowDown,ArrowLeft","","","","revaluation","1","6","","",""
"html-keyboard-response","222","973745","0.0-4.0-4.0-1.3","spark_pilot_2","7113","8","8","Male","","","","","","","null","<div style=""font-size:60px;"">+</div>","null","fixation","","","","","","","","","","","7","","",""
"revaluation","223","977762","0.0-4.0-4.0-0.4","spark_pilot_2","7113","8","8","Male","","false","","","","","[483.80000001192093]","./assets/img/canyon/animals/lion.jpg","[""ArrowRight""]","revaluation","canyon","27","{""ArrowUp,ArrowLeft"":2,""ArrowUp,ArrowRight"":11,""ArrowDown,ArrowLeft"":8,""ArrowDown,ArrowRight"":27}","true","ArrowDown,ArrowRight","","","","revaluation","1","8","","",""
"html-keyboard-response","224","978273","0.0-4.0-4.0-1.4","spark_pilot_2","7113","8","8","Male","","","","","","","null","<div style=""font-size:60px;"">+</div>","null","fixation","","","","","","","","","","","9","","",""
"revaluation","225","982290","0.0-4.0-4.0-0.5","spark_pilot_2","7113","8","8","Male","","false","","","","","[688.4000000059605]","./assets/img/canyon/animals/lion.jpg","[""ArrowRight""]","revaluation","canyon","27","{""ArrowUp,ArrowLeft"":2,""ArrowUp,ArrowRight"":11,""ArrowDown,ArrowLeft"":8,""ArrowDown,ArrowRight"":27}","true","ArrowDown,ArrowRight","","","","revaluation","1","10","","",""
"html-keyboard-response","226","982800","0.0-4.0-4.0-1.5","spark_pilot_2","7113","8","8","Male","","","","","","","null","<div style=""font-size:60px;"">+</div>","null","fixation","","","","","","","","","","","11","","",""
"revaluation","227","986818","0.0-4.0-4.0-0.6","spark_pilot_2","7113","8","8","Male","","false","","","","","[1817.4000000059605]","./assets/img/canyon/animals/giraffe.jpg","[""ArrowRight""]","revaluation","canyon","11","{""ArrowUp,ArrowLeft"":2,""ArrowUp,ArrowRight"":11,""ArrowDown,ArrowLeft"":8,""ArrowDown,ArrowRight"":27}","true","ArrowUp,ArrowRight","","","","revaluation","1","12","","",""
"html-keyboard-response","228","987330","0.0-4.0-4.0-1.6","spark_pilot_2","7113","8","8","Male","","","","","","","null","<div style=""font-size:60px;"">+</div>","null","fixation","","","","","","","","","","","13","","",""
"revaluation","229","991347","0.0-4.0-4.0-0.7","spark_pilot_2","7113","8","8","Male","","false","","","","","[368.09999999403954]","./assets/img/canyon/animals/lion.jpg","[""ArrowRight""]","revaluation","canyon","27","{""ArrowUp,ArrowLeft"":2,""ArrowUp,ArrowRight"":11,""ArrowDown,ArrowLeft"":8,""ArrowDown,ArrowRight"":27}","true","ArrowDown,ArrowRight","","","","revaluation","1","14","","",""
"html-keyboard-response","230","991858","0.0-4.0-4.0-1.7","spark_pilot_2","7113","8","8","Male","","","","","","","null","<div style=""font-size:60px;"">+</div>","null","fixation","","","","","","","","","","","15","","",""
"revaluation","231","995875","0.0-4.0-4.0-0.8","spark_pilot_2","7113","8","8","Male","","false","","","","","[484.5]","./assets/img/canyon/animals/lion.jpg","[""ArrowRight""]","revaluation","canyon","27","{""ArrowUp,ArrowLeft"":2,""ArrowUp,ArrowRight"":11,""ArrowDown,ArrowLeft"":8,""ArrowDown,ArrowRight"":27}","true","ArrowDown,ArrowRight","","","","revaluation","1","16","","",""
"html-keyboard-response","232","996385","0.0-4.0-4.0-1.8","spark_pilot_2","7113","8","8","Male","","","","","","","null","<div style=""font-size:60px;"">+</div>","null","fixation","","","","","","","","","","","17","","",""
"revaluation","233","1000397","0.0-4.0-4.0-0.9","spark_pilot_2","7113","8","8","Male","","false","","","","","[545]","./assets/img/canyon/animals/giraffe.jpg","[""ArrowRight""]","revaluation","canyon","11","{""ArrowUp,ArrowLeft"":2,""ArrowUp,ArrowRight"":11,""ArrowDown,ArrowLeft"":8,""ArrowDown,ArrowRight"":27}","true","ArrowUp,ArrowRight","","","","revaluation","1","18","","",""
"html-keyboard-response","234","1000902","0.0-4.0-4.0-1.9","spark_pilot_2","7113","8","8","Male","","","","","","","null","<div style=""font-size:60px;"">+</div>","null","fixation","","","","","","","","","","","19","","",""
"revaluation","235","1004919","0.0-4.0-4.0-0.10","spark_pilot_2","7113","8","8","Male","","false","","","","","[411.5]","./assets/img/canyon/animals/giraffe.jpg","[""ArrowRight""]","revaluation","canyon","11","{""ArrowUp,ArrowLeft"":2,""ArrowUp,ArrowRight"":11,""ArrowDown,ArrowLeft"":8,""ArrowDown,ArrowRight"":27}","true","ArrowUp,ArrowRight","","","","revaluation","1","20","","",""
"html-keyboard-response","236","1005424","0.0-4.0-4.0-1.10","spark_pilot_2","7113","8","8","Male","","","","","","","null","<div style=""font-size:60px;"">+</div>","null","fixation","","","","","","","","","","","21","","",""
"revaluation","237","1009441","0.0-4.0-4.0-0.11","spark_pilot_2","7113","8","8","Male","","false","","","","","[575.3999999761581]","./assets/img/canyon/animals/giraffe.jpg","[""ArrowRight""]","revaluation","canyon","11","{""ArrowUp,ArrowLeft"":2,""ArrowUp,ArrowRight"":11,""ArrowDown,ArrowLeft"":8,""ArrowDown,ArrowRight"":27}","true","ArrowUp,ArrowRight","","","","revaluation","1","22","","",""
"html-keyboard-response","238","1009952","0.0-4.0-4.0-1.11","spark_pilot_2","7113","8","8","Male","","","","","","","null","<div style=""font-size:60px;"">+</div>","null","fixation","","","","","","","","","","","23","","",""
"revaluation","239","1013969","0.0-4.0-4.0-0.12","spark_pilot_2","7113","8","8","Male","","false","","","","","[555.8000000119209]","./assets/img/canyon/animals/lion.jpg","[""ArrowRight""]","revaluation","canyon","27","{""ArrowUp,ArrowLeft"":2,""ArrowUp,ArrowRight"":11,""ArrowDown,ArrowLeft"":8,""ArrowDown,ArrowRight"":27}","true","ArrowDown,ArrowRight","","","","revaluation","1","24","","",""
"html-keyboard-response","240","1014480","0.0-4.0-4.0-1.12","spark_pilot_2","7113","8","8","Male","","","","","","","null","<div style=""font-size:60px;"">+</div>","null","fixation","","","","","","","","","","","25","","",""
"revaluation","241","1018497","0.0-4.0-4.0-0.13","spark_pilot_2","7113","8","8","Male","","false","","","","","[415.80000001192093]","./assets/img/canyon/animals/lion.jpg","[""ArrowRight""]","revaluation","canyon","27","{""ArrowUp,ArrowLeft"":2,""ArrowUp,ArrowRight"":11,""ArrowDown,ArrowLeft"":8,""ArrowDown,ArrowRight"":27}","true","ArrowDown,ArrowRight","","","","revaluation","1","26","","",""
"html-keyboard-response","242","1019008","0.0-4.0-4.0-1.13","spark_pilot_2","7113","8","8","Male","","","","","","","null","<div style=""font-size:60px;"">+</div>","null","fixation","","","","","","","","","","","27","","",""
"revaluation","243","1023025","0.0-4.0-4.0-0.14","spark_pilot_2","7113","8","8","Male","","false","","","","","[458.40000000596046]","./assets/img/canyon/animals/lion.jpg","[""ArrowRight""]","revaluation","canyon","27","{""ArrowUp,ArrowLeft"":2,""ArrowUp,ArrowRight"":11,""ArrowDown,ArrowLeft"":8,""ArrowDown,ArrowRight"":27}","true","ArrowDown,ArrowRight","","","","revaluation","1","28","","",""
"html-keyboard-response","244","1023535","0.0-4.0-4.0-1.14","spark_pilot_2","7113","8","8","Male","","","","","","","null","<div style=""font-size:60px;"">+</div>","null","fixation","","","","","","","","","","","29","","",""
"revaluation","245","1027553","0.0-4.0-4.0-0.15","spark_pilot_2","7113","8","8","Male","","false","","","","","[406]","./assets/img/canyon/animals/giraffe.jpg","[""ArrowRight""]","revaluation","canyon","11","{""ArrowUp,ArrowLeft"":2,""ArrowUp,ArrowRight"":11,""ArrowDown,ArrowLeft"":8,""ArrowDown,ArrowRight"":27}","true","ArrowUp,ArrowRight","","","","revaluation","1","30","","",""
"html-keyboard-response","246","1028064","0.0-4.0-4.0-1.15","spark_pilot_2","7113","8","8","Male","","","","","","","null","<div style=""font-size:60px;"">+</div>","null","fixation","","","","","","","","","","","31","","",""
"revaluation","247","1032081","0.0-4.0-4.0-0.16","spark_pilot_2","7113","8","8","Male","","false","","","","","[671.0999999940395]","./assets/img/canyon/animals/giraffe.jpg","[""ArrowRight""]","revaluation","canyon","11","{""ArrowUp,ArrowLeft"":2,""ArrowUp,ArrowRight"":11,""ArrowDown,ArrowLeft"":8,""ArrowDown,ArrowRight"":27}","true","ArrowUp,ArrowRight","","","","revaluation","1","32","","",""
"html-keyboard-response","248","1032591","0.0-4.0-4.0-1.16","spark_pilot_2","7113","8","8","Male","","","","","","","null","<div style=""font-size:60px;"">+</div>","null","fixation","","","","","","","","","","","33","","",""
"revaluation","249","1036608","0.0-4.0-4.0-0.17","spark_pilot_2","7113","8","8","Male","","false","","","","","[489.59999999403954]","./assets/img/canyon/animals/lion.jpg","[""ArrowRight""]","revaluation","canyon","27","{""ArrowUp,ArrowLeft"":2,""ArrowUp,ArrowRight"":11,""ArrowDown,ArrowLeft"":8,""ArrowDown,ArrowRight"":27}","true","ArrowDown,ArrowRight","","","","revaluation","1","34","","",""
"html-keyboard-response","250","1037113","0.0-4.0-4.0-1.17","spark_pilot_2","7113","8","8","Male","","","","","","","null","<div style=""font-size:60px;"">+</div>","null","fixation","","","","","","","","","","","35","","",""
"learning-instructions","251","1049985","0.0-4.0-5.0-0.0","spark_pilot_2","7113","8","8","Male","","","","","","","1300.5999999940395","<p> Time to play the dot game! </p>
            <p> For one minute, click the red dots on the following screen as they appear. </p>
            <p><b> Don't look away, as you will earn bonus for clicking dots</b>. </p>","","instructions","","","","","","","","","","","","","",""
"revaluation","252","1109991","0.0-4.0-6.0-0.0","spark_pilot_2","7113","8","8","Male","","","","","","","[121,93,138,166,123,228]","","","rest","","60","","","","","0","60000","","","","","",""
"learning-instructions","253","1117958","0.0-4.0-7.0-0.0","spark_pilot_2","7113","8","8","Male","","","","","","","1708.7999999821186","<p> You have almost finished this part of the game! </p>
            <p> We are going to ask you to make a few more choices. </p>","","instructions","","","","","","","","","","","","","",""
"learning-instructions","254","1133903","0.0-4.0-7.0-0.1","spark_pilot_2","7113","8","8","Male","","","","","","","1974.4000000059605","<p> First, you need to decide whether to go up or down. When you see each picture, use the arrow keys to make your choice. </p>
            <p><b>You will not see which animal you found, but try to get to the one that will give you the most treasure.</b></p>","","instructions","","","","","","","","","","","","","",""
"revaluation","255","1135023","0.0-4.0-8.0-0.0","spark_pilot_2","7113","8","8","Male","","false","","","","","[1118.199999988079]","./assets/img/canyon/test/2.jpg","[""ArrowUp""]","first stage test","canyon","0","{""ArrowUp,ArrowLeft"":2,""ArrowUp,ArrowRight"":11,""ArrowDown,ArrowLeft"":8,""ArrowDown,ArrowRight"":27}","false","ArrowUp","false","","","revaluation","1","","","",""
"html-keyboard-response","256","1135528","0.0-4.0-8.0-1.0","spark_pilot_2","7113","8","8","Male","","","","","","","null","<div style=""font-size:60px;"">+</div>","null","fixation","","","","","","","","","","","","","",""
"revaluation","257","1137495","0.0-4.0-8.0-0.1","spark_pilot_2","7113","8","8","Male","","false","","","","","[1964.7999999821186]","./assets/img/canyon/test/3.jpg","[""ArrowUp""]","first stage test","canyon","0","{""ArrowUp,ArrowLeft"":2,""ArrowUp,ArrowRight"":11,""ArrowDown,ArrowLeft"":8,""ArrowDown,ArrowRight"":27}","false","ArrowUp","false","","","revaluation","1","","","",""
"html-keyboard-response","258","1138000","0.0-4.0-8.0-1.1","spark_pilot_2","7113","8","8","Male","","","","","","","null","<div style=""font-size:60px;"">+</div>","null","fixation","","","","","","","","","","","","","",""
"revaluation","259","1138908","0.0-4.0-8.0-0.2","spark_pilot_2","7113","8","8","Male","","false","","","","","[905.9000000059605]","./assets/img/canyon/test/0.jpg","[""ArrowUp""]","first stage test","canyon","0","{""ArrowUp,ArrowLeft"":2,""ArrowUp,ArrowRight"":11,""ArrowDown,ArrowLeft"":8,""ArrowDown,ArrowRight"":27}","false","ArrowUp","false","","","revaluation","1","","","",""
"html-keyboard-response","260","1139417","0.0-4.0-8.0-1.2","spark_pilot_2","7113","8","8","Male","","","","","","","null","<div style=""font-size:60px;"">+</div>","null","fixation","","","","","","","","","","","","","",""
"revaluation","261","1139988","0.0-4.0-8.0-0.3","spark_pilot_2","7113","8","8","Male","","false","","","","","[568.5]","./assets/img/canyon/test/1.jpg","[""ArrowUp""]","first stage test","canyon","0","{""ArrowUp,ArrowLeft"":2,""ArrowUp,ArrowRight"":11,""ArrowDown,ArrowLeft"":8,""ArrowDown,ArrowRight"":27}","false","ArrowUp","false","","","revaluation","1","","","",""
"html-keyboard-response","262","1140496","0.0-4.0-8.0-1.3","spark_pilot_2","7113","8","8","Male","","","","","","","null","<div style=""font-size:60px;"">+</div>","null","fixation","","","","","","","","","","","","","",""
"learning-instructions","263","1155912","0.0-4.0-9.0-0.0","spark_pilot_2","7113","8","8","Male","","","","","","","4072","<p> Now you will see the animals again and can search their chests for treasure. </p>
            <p> This time, you will not see how much treasure you earned, but you will earn more bonus money for making better choices. </p>","","instructions","","","","","","","","","","","","","",""
"revaluation","264","1156702","0.0-4.0-10.0-0.0","spark_pilot_2","7113","8","8","Male","","false","","","","","[788]","./assets/img/canyon/animals/giraffe.jpg","[""ArrowRight""]","second stage test","canyon","0","{""ArrowUp,ArrowLeft"":2,""ArrowUp,ArrowRight"":11,""ArrowDown,ArrowLeft"":8,""ArrowDown,ArrowRight"":27}","true","ArrowUp,ArrowRight","","","","revaluation","1","","","",""
"html-keyboard-response","265","1157209","0.0-4.0-10.0-1.0","spark_pilot_2","7113","8","8","Male","","","","","","","null","<div style=""font-size:60px;"">+</div>","null","fixation","","","","","","","","","","","","","",""
"revaluation","266","1157717","0.0-4.0-10.0-0.1","spark_pilot_2","7113","8","8","Male","","false","","","","","[504.7999999821186]","./assets/img/canyon/animals/giraffe.jpg","[""ArrowRight""]","second stage test","canyon","0","{""ArrowUp,ArrowLeft"":2,""ArrowUp,ArrowRight"":11,""ArrowDown,ArrowLeft"":8,""ArrowDown,ArrowRight"":27}","true","ArrowUp,ArrowRight","","","","revaluation","1","","","",""
"html-keyboard-response","267","1158225","0.0-4.0-10.0-1.1","spark_pilot_2","7113","8","8","Male","","","","","","","null","<div style=""font-size:60px;"">+</div>","null","fixation","","","","","","","","","","","","","",""
"revaluation","268","1158808","0.0-4.0-10.0-0.2","spark_pilot_2","7113","8","8","Male","","false","","","","","[580.0999999940395]","./assets/img/canyon/animals/giraffe.jpg","[""ArrowRight""]","second stage test","canyon","0","{""ArrowUp,ArrowLeft"":2,""ArrowUp,ArrowRight"":11,""ArrowDown,ArrowLeft"":8,""ArrowDown,ArrowRight"":27}","true","ArrowUp,ArrowRight","","","","revaluation","1","","","",""
"html-keyboard-response","269","1159311","0.0-4.0-10.0-1.2","spark_pilot_2","7113","8","8","Male","","","","","","","null","<div style=""font-size:60px;"">+</div>","null","fixation","","","","","","","","","","","","","",""
"revaluation","270","1159732","0.0-4.0-10.0-0.3","spark_pilot_2","7113","8","8","Male","","false","","","","","[419.30000001192093]","./assets/img/canyon/animals/giraffe.jpg","[""ArrowRight""]","second stage test","canyon","0","{""ArrowUp,ArrowLeft"":2,""ArrowUp,ArrowRight"":11,""ArrowDown,ArrowLeft"":8,""ArrowDown,ArrowRight"":27}","true","ArrowUp,ArrowRight","","","","revaluation","1","","","",""
"html-keyboard-response","271","1160239","0.0-4.0-10.0-1.3","spark_pilot_2","7113","8","8","Male","","","","","","","null","<div style=""font-size:60px;"">+</div>","null","fixation","","","","","","","","","","","","","",""
"revaluation","272","1161250","0.0-4.0-10.0-0.4","spark_pilot_2","7113","8","8","Male","","false","","","","","[1008.6999999880791]","./assets/img/canyon/animals/lion.jpg","[""ArrowLeft""]","second stage test","canyon","0","{""ArrowUp,ArrowLeft"":2,""ArrowUp,ArrowRight"":11,""ArrowDown,ArrowLeft"":8,""ArrowDown,ArrowRight"":27}","false","ArrowDown,ArrowLeft","","","","revaluation","1","","","",""
"html-keyboard-response","273","1161755","0.0-4.0-10.0-1.4","spark_pilot_2","7113","8","8","Male","","","","","","","null","<div style=""font-size:60px;"">+</div>","null","fixation","","","","","","","","","","","","","",""
"revaluation","274","1162233","0.0-4.0-10.0-0.5","spark_pilot_2","7113","8","8","Male","","false","","","","","[476.09999999403954]","./assets/img/canyon/animals/lion.jpg","[""ArrowLeft""]","second stage test","canyon","0","{""ArrowUp,ArrowLeft"":2,""ArrowUp,ArrowRight"":11,""ArrowDown,ArrowLeft"":8,""ArrowDown,ArrowRight"":27}","false","ArrowDown,ArrowLeft","","","","revaluation","1","","","",""
"html-keyboard-response","275","1162736","0.0-4.0-10.0-1.5","spark_pilot_2","7113","8","8","Male","","","","","","","null","<div style=""font-size:60px;"">+</div>","null","fixation","","","","","","","","","","","","","",""
"revaluation","276","1163090","0.0-4.0-10.0-0.6","spark_pilot_2","7113","8","8","Male","","false","","","","","[352.09999999403954]","./assets/img/canyon/animals/lion.jpg","[""ArrowLeft""]","second stage test","canyon","0","{""ArrowUp,ArrowLeft"":2,""ArrowUp,ArrowRight"":11,""ArrowDown,ArrowLeft"":8,""ArrowDown,ArrowRight"":27}","false","ArrowDown,ArrowLeft","","","","revaluation","1","","","",""
"html-keyboard-response","277","1163595","0.0-4.0-10.0-1.6","spark_pilot_2","7113","8","8","Male","","","","","","","null","<div style=""font-size:60px;"">+</div>","null","fixation","","","","","","","","","","","","","",""
"revaluation","278","1164325","0.0-4.0-10.0-0.7","spark_pilot_2","7113","8","8","Male","","false","","","","","[728]","./assets/img/canyon/animals/lion.jpg","[""ArrowRight""]","second stage test","canyon","0","{""ArrowUp,ArrowLeft"":2,""ArrowUp,ArrowRight"":11,""ArrowDown,ArrowLeft"":8,""ArrowDown,ArrowRight"":27}","true","ArrowDown,ArrowRight","","","","revaluation","1","","","",""
"html-keyboard-response","279","1164831","0.0-4.0-10.0-1.7","spark_pilot_2","7113","8","8","Male","","","","","","","null","<div style=""font-size:60px;"">+</div>","null","fixation","","","","","","","","","","","","","",""
"learning-instructions","280","1168475","0.0-4.0-0.1-0.2","spark_pilot_2","7113","8","8","Male","","","","","","","931.5999999940395","<p> This time you are searching for treasure in the <b>ocean</b>.</p>","","instructions","","","","","","","","","","","","","",""
"learning-instructions","281","1187475","0.0-4.0-0.1-0.3","spark_pilot_2","7113","8","8","Male","","","","","","","1751.199999988079","<p><b>New</b> animals with <b>new</b> treasure chests live here. You need to explore to discover where the animal with the best treasure chest is.</p>
                    <p> Like before, once you figure out which animal has the chest with the most treasure, you should try to get to that animal and select that chest! </p>","","instructions","","","","","","","","","","","","","",""
"learning-instructions","282","1204124","0.0-4.0-1.1-0.1","spark_pilot_2","7113","8","8","Male","","","","","","","1919.5999999940395","<p> Remember, when you see a picture of the place, use the up and down keys to <b>find an animal</b>.</p>
            <p> When you encounter an animal, you should use the left and right keys to <b>select a treasure chest</b>.</p>
            <p> Don't forget to look out for the robber! </p>","","instructions","","","","","","","","","","","","","",""
"revaluation","283","1210146","0.0-4.0-2.1-0.50","spark_pilot_2","7113","8","8","Male","","false","","","","","[1682,1044]","./assets/img/ocean/memory/34.jpg","[""ArrowUp"",""ArrowRight""]","value training","ocean","10","{""ArrowUp,ArrowLeft"":23,""ArrowUp,ArrowRight"":10,""ArrowDown,ArrowLeft"":8,""ArrowDown,ArrowRight"":30}","false","ArrowUp,ArrowRight","false","","","original","2","0","","",""
"html-keyboard-response","284","1210650","0.0-4.0-2.1-1.50","spark_pilot_2","7113","8","8","Male","","","","","","","null","<div style=""font-size:60px;"">+</div>","null","fixation","","","","","","","","","","","1","","",""
"revaluation","285","1216676","0.0-4.0-2.1-0.51","spark_pilot_2","7113","8","8","Male","","false","","","","","[363.90000000596046,375.09999999403954]","./assets/img/ocean/memory/40.jpg","[""ArrowUp"",""ArrowLeft""]","value training","ocean","23","{""ArrowUp,ArrowLeft"":23,""ArrowUp,ArrowRight"":10,""ArrowDown,ArrowLeft"":8,""ArrowDown,ArrowRight"":30}","false","ArrowUp,ArrowLeft","false","","","original","2","2","","",""
"html-keyboard-response","286","1217187","0.0-4.0-2.1-1.51","spark_pilot_2","7113","8","8","Male","","","","","","","null","<div style=""font-size:60px;"">+</div>","null","fixation","","","","","","","","","","","3","","",""
"revaluation","287","1223213","0.0-4.0-2.1-0.52","spark_pilot_2","7113","8","8","Male","","false","","","","","[549.1999999880791,650.6000000238419]","./assets/img/ocean/memory/27.jpg","[""ArrowDown"",""ArrowLeft""]","value training","ocean","8","{""ArrowUp,ArrowLeft"":23,""ArrowUp,ArrowRight"":10,""ArrowDown,ArrowLeft"":8,""ArrowDown,ArrowRight"":30}","false","ArrowDown,ArrowLeft","false","","","original","2","4","","",""
"html-keyboard-response","288","1223719","0.0-4.0-2.1-1.52","spark_pilot_2","7113","8","8","Male","","","","","","","null","<div style=""font-size:60px;"">+</div>","null","fixation","","","","","","","","","","","5","","",""
"revaluation","289","1229743","0.0-4.0-2.1-0.53","spark_pilot_2","7113","8","8","Male","","false","","","","","[472.59999999403954,371.69999998807907]","./assets/img/ocean/memory/31.jpg","[""ArrowDown"",""ArrowRight""]","value training","ocean","30","{""ArrowUp,ArrowLeft"":23,""ArrowUp,ArrowRight"":10,""ArrowDown,ArrowLeft"":8,""ArrowDown,ArrowRight"":30}","true","ArrowDown,ArrowRight","false","","","original","2","6","","",""
"html-keyboard-response","290","1230248","0.0-4.0-2.1-1.53","spark_pilot_2","7113","8","8","Male","","","","","","","null","<div style=""font-size:60px;"">+</div>","null","fixation","","","","","","","","","","","7","","",""
"revaluation","291","1234267","0.0-4.0-2.1-0.54","spark_pilot_2","7113","8","8","Male","","false","","","","","[384.40000000596046]","./assets/img/ocean/catch/6.jpg","[""ArrowDown""]","value training","ocean","-10","{""ArrowUp,ArrowLeft"":23,""ArrowUp,ArrowRight"":10,""ArrowDown,ArrowLeft"":8,""ArrowDown,ArrowRight"":30}","false","ArrowDown","true","","","original","2","8","","",""
"html-keyboard-response","292","1234777","0.0-4.0-2.1-1.54","spark_pilot_2","7113","8","8","Male","","","","","","","null","<div style=""font-size:60px;"">+</div>","null","fixation","","","","","","","","","","","9","","",""
"revaluation","293","1240803","0.0-4.0-2.1-0.55","spark_pilot_2","7113","8","8","Male","","false","","","","","[1224.0999999940395,468.90000000596046]","./assets/img/ocean/memory/2.jpg","[""ArrowDown"",""ArrowRight""]","value training","ocean","30","{""ArrowUp,ArrowLeft"":23,""ArrowUp,ArrowRight"":10,""ArrowDown,ArrowLeft"":8,""ArrowDown,ArrowRight"":30}","true","ArrowDown,ArrowRight","false","","","original","2","10","","",""
"html-keyboard-response","294","1241314","0.0-4.0-2.1-1.55","spark_pilot_2","7113","8","8","Male","","","","","","","null","<div style=""font-size:60px;"">+</div>","null","fixation","","","","","","","","","","","11","","",""
"revaluation","295","1247340","0.0-4.0-2.1-0.56","spark_pilot_2","7113","8","8","Male","","false","","","","","[511.59999999403954,545.5]","./assets/img/ocean/memory/26.jpg","[""ArrowDown"",""ArrowRight""]","value training","ocean","30","{""ArrowUp,ArrowLeft"":23,""ArrowUp,ArrowRight"":10,""ArrowDown,ArrowLeft"":8,""ArrowDown,ArrowRight"":30}","true","ArrowDown,ArrowRight","false","","","original","2","12","","",""
"html-keyboard-response","296","1247850","0.0-4.0-2.1-1.56","spark_pilot_2","7113","8","8","Male","","","","","","","null","<div style=""font-size:60px;"">+</div>","null","fixation","","","","","","","","","","","13","","",""
"revaluation","297","1253876","0.0-4.0-2.1-0.57","spark_pilot_2","7113","8","8","Male","","false","","","","","[598.2999999821186,623]","./assets/img/ocean/memory/8.jpg","[""ArrowDown"",""ArrowRight""]","value training","ocean","30","{""ArrowUp,ArrowLeft"":23,""ArrowUp,ArrowRight"":10,""ArrowDown,ArrowLeft"":8,""ArrowDown,ArrowRight"":30}","true","ArrowDown,ArrowRight","false","","","original","2","14","","",""
"html-keyboard-response","298","1254387","0.0-4.0-2.1-1.57","spark_pilot_2","7113","8","8","Male","","","","","","","null","<div style=""font-size:60px;"">+</div>","null","fixation","","","","","","","","","","","15","","",""
"revaluation","299","1260412","0.0-4.0-2.1-0.58","spark_pilot_2","7113","8","8","Male","","false","","","","","[540.6999999880791,1044]","./assets/img/ocean/memory/5.jpg","[""ArrowDown"",""ArrowRight""]","value training","ocean","30","{""ArrowUp,ArrowLeft"":23,""ArrowUp,ArrowRight"":10,""ArrowDown,ArrowLeft"":8,""ArrowDown,ArrowRight"":30}","true","ArrowDown,ArrowRight","false","","","original","2","16","","",""
"html-keyboard-response","300","1260923","0.0-4.0-2.1-1.58","spark_pilot_2","7113","8","8","Male","","","","","","","null","<div style=""font-size:60px;"">+</div>","null","fixation","","","","","","","","","","","17","","",""
"revaluation","301","1266949","0.0-4.0-2.1-0.59","spark_pilot_2","7113","8","8","Male","","false","","","","","[595.3999999761581,461.40000000596046]","./assets/img/ocean/memory/34.jpg","[""ArrowDown"",""ArrowRight""]","value training","ocean","30","{""ArrowUp,ArrowLeft"":23,""ArrowUp,ArrowRight"":10,""ArrowDown,ArrowLeft"":8,""ArrowDown,ArrowRight"":30}","true","ArrowDown,ArrowRight","false","","","original","2","18","","",""
"html-keyboard-response","302","1267460","0.0-4.0-2.1-1.59","spark_pilot_2","7113","8","8","Male","","","","","","","null","<div style=""font-size:60px;"">+</div>","null","fixation","","","","","","","","","","","19","","",""
"revaluation","303","1273480","0.0-4.0-2.1-0.60","spark_pilot_2","7113","8","8","Male","","false","","","","","[765.8999999761581,582.6999999880791]","./assets/img/ocean/memory/21.jpg","[""ArrowDown"",""ArrowRight""]","value training","ocean","30","{""ArrowUp,ArrowLeft"":23,""ArrowUp,ArrowRight"":10,""ArrowDown,ArrowLeft"":8,""ArrowDown,ArrowRight"":30}","true","ArrowDown,ArrowRight","false","","","original","2","20","","",""
"html-keyboard-response","304","1273985","0.0-4.0-2.1-1.60","spark_pilot_2","7113","8","8","Male","","","","","","","null","<div style=""font-size:60px;"">+</div>","null","fixation","","","","","","","","","","","21","","",""
"revaluation","305","1280010","0.0-4.0-2.1-0.61","spark_pilot_2","7113","8","8","Male","","false","","","","","[471.09999999403954,403.7999999821186]","./assets/img/ocean/memory/1.jpg","[""ArrowDown"",""ArrowRight""]","value training","ocean","30","{""ArrowUp,ArrowLeft"":23,""ArrowUp,ArrowRight"":10,""ArrowDown,ArrowLeft"":8,""ArrowDown,ArrowRight"":30}","true","ArrowDown,ArrowRight","false","","","original","2","22","","",""
"html-keyboard-response","306","1280521","0.0-4.0-2.1-1.61","spark_pilot_2","7113","8","8","Male","","","","","","","null","<div style=""font-size:60px;"">+</div>","null","fixation","","","","","","","","","","","23","","",""
