"trial_type","trial_index","time_elapsed","internal_node_id","task_version","subject_id","assigned_condition","age","gender","success","timeout","failed_images","failed_audio","failed_video","browser_interaction","rt","stimulus","response","task_part","environment","score","rewardMap","correct","fullState","isCatch","numberMissed","duration","condition","order","trial_num","key_press","ground_truth","bonus"
"pavlovia","0","3681","0.0-0.0","spark_pilot_2","7791","8","22","Female","","","","","","","","","","","","","","","","","","","","","","","",""
"preload","1","51408","0.0-1.0","spark_pilot_2","7791","8","22","Female","true","false","[]","[]","[]","[{""event"":""fullscreenenter"",""trial"":2,""time"":55592}]","","","","","","","","","","","","","","","","","",""
"fullscreen","2","56338","0.0-2.0","spark_pilot_2","7791","8","22","Female","true","","","","","","","","","","","","","","","","","","","","","","",""
"audio-button-response","3","60445","0.0-3.0-0.0-0.0","spark_pilot_2","7791","8","22","Female","","","","","","","731","./assets/audio/audiotest/turtle.mp3","2","audio_test","","","","","","","","","","","","","",""
"learning-instructions","4","76871","0.0-3.0-1.0-0.0","spark_pilot_2","7791","8","22","Female","","","","","","","9370.699999988079","<p> Welcome! Please remember to stay in fullscreen mode and don't click away from the experiment. </p>","","instructions","","","","","","","","","","","","","",""
"learning-instructions","5","86674","0.0-3.0-1.0-0.1","spark_pilot_2","7791","8","22","Female","","","","","","","1309.0999999642372","<p> Today you will be playing a game to earn treasure. </p>
            <p> At the end of the experiment, you will earn a bonus based on how much treasure you find. </p>
            <img src='./assets/img/instructions/treasure.jpg' class='instructions-image'>","","instructions","","","","","","","","","","","","","",""
"learning-instructions","6","96218","0.0-3.0-1.0-0.2","spark_pilot_2","7791","8","22","Female","","","","","","","1232.5999999642372","<p> Animals have hidden treasure in treasure chests. </p>
            <p> You need to first find an animal and then choose which of their treasure chests to search. </p>
            <img src='./assets/img/space/animals/cat.jpg' class='instructions-image'>","","instructions","","","","","","","","","","","","","",""
"learning-instructions","7","110842","0.0-3.0-1.0-0.3","spark_pilot_2","7791","8","22","Female","","","","","","","1387.5","<p> In each round, you will search for treasure in a different place. In the real game, there will be two rounds. </p>
            <p> You will begin with a separate, practice round where you will search for treasure in outer space. </p>
            <img src='./assets/img/space/0.jpg' class='instructions-image'>","","instructions","","","","","","","","","","","","","",""
"learning-instructions","8","123320","0.0-3.0-1.0-0.4","spark_pilot_2","7791","8","22","Female","","","","","","","981.8000000119209","<p> On every turn, you will see a picture of the place that you are in, but the specific image may be different each time. </p>
            <p> For example, both of these images mean you are in outer space. </p>
            <img src='./assets/img/instructions/outerspace.jpg' class='instructions-image'>","","instructions","","","","","","","","","","","","","",""
"learning-instructions","9","132149","0.0-3.0-1.0-0.5","spark_pilot_2","7791","8","22","Female","","","","","","","948.5","<p> You need to decide which direction to travel in. </p>
            <p> You can choose between going <b>up or down</b> by using the arrow keys. </p>
            <img src='./assets/img/instructions/updown.jpg' class='instructions-image'>","","instructions","","","","","","","","","","","","","",""
"learning-instructions","10","142079","0.0-3.0-1.0-0.6","spark_pilot_2","7791","8","22","Female","","","","","","","1060.199999988079","<p> You will have <b>2 seconds</b> to make your choice. </p>
            <p> If you do not make a choice within 2 seconds, you will not find an animal or earn treasure. </p>
            <img src='./assets/img/instructions/2seconds.jpg' class='instructions-image'>","","instructions","","","","","","","","","","","","","",""
"learning-instructions","11","151459","0.0-3.0-1.0-0.7","spark_pilot_2","7791","8","22","Female","","","","","","","2290.199999988079","<p> Let’s try practicing that now! </p>
            <p> When you see a picture of the place you are in, press the <b>up</b> key to travel up. </p>
            <img src='./assets/img/instructions/pressUp.jpg' class='instructions-image'>","","instructions","","","","","","","","","","","","","",""
"revaluation","12","155509","0.0-3.0-2.0-0.0","spark_pilot_2","7791","8","22","Female","","false","","","","","[1340]","./assets/img/space/0.jpg","[""ArrowUp""]","first stage practice","space","0","null","null","ArrowUp","false","","","","","","","",""
"html-keyboard-response","13","156023","0.0-3.0-2.0-1.0","spark_pilot_2","7791","8","22","Female","","","","","","","null","<div style=""font-size:60px;"">+</div>","null","fixation","","","","","","","","","","","","","",""
"revaluation","14","160055","0.0-3.0-2.0-0.1","spark_pilot_2","7791","8","22","Female","","true","","","","","[]","./assets/img/space/1.jpg","[]","first stage practice","space","-5","null","null","","false","","","","","","","",""
"html-keyboard-response","15","160567","0.0-3.0-2.0-1.1","spark_pilot_2","7791","8","22","Female","","","","","","","null","<div style=""font-size:60px;"">+</div>","null","fixation","","","","","","","","","","","","","",""
"revaluation","16","164591","0.0-3.0-2.0-0.2","spark_pilot_2","7791","8","22","Female","","false","","","","","[845.8999999761581]","./assets/img/space/2.jpg","[""ArrowUp""]","first stage practice","space","0","null","null","ArrowUp","false","","","","","","","",""
"html-keyboard-response","17","165105","0.0-3.0-2.0-1.2","spark_pilot_2","7791","8","22","Female","","","","","","","null","<div style=""font-size:60px;"">+</div>","null","fixation","","","","","","","","","","","","","",""
"learning-instructions","18","171745","0.0-3.0-3.0-0.0","spark_pilot_2","7791","8","22","Female","","","","","","","1895.8999999761581","<p> Great job! Now try pressing the <b>down</b> key to travel down. </p>
            <img src='./assets/img/instructions/pressDown.jpg' class='instructions-image'>","","instructions","","","","","","","","","","","","","",""
"revaluation","19","175770","0.0-3.0-4.0-0.0","spark_pilot_2","7791","8","22","Female","","false","","","","","[1017.8999999761581]","./assets/img/space/3.jpg","[""ArrowDown""]","first stage practice","space","0","null","null","ArrowDown","false","","","","","","","",""
"html-keyboard-response","20","176280","0.0-3.0-4.0-1.0","spark_pilot_2","7791","8","22","Female","","","","","","","null","<div style=""font-size:60px;"">+</div>","null","fixation","","","","","","","","","","","","","",""
"revaluation","21","180310","0.0-3.0-4.0-0.1","spark_pilot_2","7791","8","22","Female","","false","","","","","[918]","./assets/img/space/4.jpg","[""ArrowDown""]","first stage practice","space","0","null","null","ArrowDown","false","","","","","","","",""
"html-keyboard-response","22","180820","0.0-3.0-4.0-1.1","spark_pilot_2","7791","8","22","Female","","","","","","","null","<div style=""font-size:60px;"">+</div>","null","fixation","","","","","","","","","","","","","",""
"revaluation","23","184838","0.0-3.0-4.0-0.2","spark_pilot_2","7791","8","22","Female","","false","","","","","[544]","./assets/img/space/5.jpg","[""ArrowDown""]","first stage practice","space","0","null","null","ArrowDown","false","","","","","","","",""
"html-keyboard-response","24","185344","0.0-3.0-4.0-1.2","spark_pilot_2","7791","8","22","Female","","","","","","","null","<div style=""font-size:60px;"">+</div>","null","fixation","","","","","","","","","","","","","",""
"learning-instructions","25","197508","0.0-3.0-5.0-0.0","spark_pilot_2","7791","8","22","Female","","","","","","","2250.2999999523163","<p> The animals don’t move, so the animal in the upper part of a place will stay in the upper part of a place, and the animal in the lower part of a place will stay in the lower part of a place. </p>","","instructions","","","","","","","","","","","","","",""
"learning-instructions","26","209412","0.0-3.0-5.0-0.1","spark_pilot_2","7791","8","22","Female","","","","","","","2714.5","<p> Each animal has two treasure chests for you to choose from. </p>
            <p> The amount of treasure in each chest can range from <b> 0 to 40 pieces.</b></p>","","instructions","","","","","","","","","","","","","",""
"learning-instructions","27","222121","0.0-3.0-5.0-0.2","spark_pilot_2","7791","8","22","Female","","","","","","","1432.800000011921","<p> You should decide which chest to search for treasure by using the <b>left</b> and <b>right</b> arrow keys. </p>
            <p><b> Pay attention to which animal is on the screen, as the animals have different treasure chests. </b></p>
            <img src='./assets/img/instructions/leftright.jpg' class='instructions-image'>","","instructions","","","","","","","","","","","","","",""
"learning-instructions","28","230507","0.0-3.0-5.0-0.3","spark_pilot_2","7791","8","22","Female","","","","","","","1968.800000011921","<p> Let’s try practicing that now. </p>
            <p> When you see an animal, choose which chest to search for treasure. </p>
            <img src='./assets/img/instructions/chooseChest.jpg' class='instructions-image'>","","instructions","","","","","","","","","","","","","",""
"revaluation","29","234532","0.0-3.0-6.0-0.0","spark_pilot_2","7791","8","22","Female","","false","","","","","[1303]","./assets/img/space/animals/rabbit.jpg","[""ArrowLeft""]","second stage practice","space","15","{""ArrowUp,ArrowLeft"":3,""ArrowUp,ArrowRight"":36,""ArrowDown,ArrowLeft"":15,""ArrowDown,ArrowRight"":23}","false","ArrowDown,ArrowLeft","","","","","","","","",""
"html-keyboard-response","30","235041","0.0-3.0-6.0-1.0","spark_pilot_2","7791","8","22","Female","","","","","","","null","<div style=""font-size:60px;"">+</div>","null","fixation","","","","","","","","","","","","","",""
"revaluation","31","239064","0.0-3.0-6.0-0.1","spark_pilot_2","7791","8","22","Female","","false","","","","","[1046.5999999642372]","./assets/img/space/animals/cat.jpg","[""ArrowRight""]","second stage practice","space","36","{""ArrowUp,ArrowLeft"":3,""ArrowUp,ArrowRight"":36,""ArrowDown,ArrowLeft"":15,""ArrowDown,ArrowRight"":23}","true","ArrowUp,ArrowRight","","","","","","","","",""
"html-keyboard-response","32","239568","0.0-3.0-6.0-1.1","spark_pilot_2","7791","8","22","Female","","","","","","","null","<div style=""font-size:60px;"">+</div>","null","fixation","","","","","","","","","","","","","",""
"revaluation","33","243596","0.0-3.0-6.0-0.2","spark_pilot_2","7791","8","22","Female","","false","","","","","[940.2000000476837]","./assets/img/space/animals/rabbit.jpg","[""ArrowLeft""]","second stage practice","space","15","{""ArrowUp,ArrowLeft"":3,""ArrowUp,ArrowRight"":36,""ArrowDown,ArrowLeft"":15,""ArrowDown,ArrowRight"":23}","false","ArrowDown,ArrowLeft","","","","","","","","",""
"html-keyboard-response","34","244102","0.0-3.0-6.0-1.2","spark_pilot_2","7791","8","22","Female","","","","","","","null","<div style=""font-size:60px;"">+</div>","null","fixation","","","","","","","","","","","","","",""
"revaluation","35","248133","0.0-3.0-6.0-0.3","spark_pilot_2","7791","8","22","Female","","false","","","","","[1268.199999988079]","./assets/img/space/animals/cat.jpg","[""ArrowLeft""]","second stage practice","space","3","{""ArrowUp,ArrowLeft"":3,""ArrowUp,ArrowRight"":36,""ArrowDown,ArrowLeft"":15,""ArrowDown,ArrowRight"":23}","false","ArrowUp,ArrowLeft","","","","","","","","",""
"html-keyboard-response","36","248636","0.0-3.0-6.0-1.3","spark_pilot_2","7791","8","22","Female","","","","","","","null","<div style=""font-size:60px;"">+</div>","null","fixation","","","","","","","","","","","","","",""
"learning-instructions","37","272658","0.0-3.0-7.0-0.0","spark_pilot_2","7791","8","22","Female","","","","","","","7109.800000011921","<p> Great job. Now let’s try putting it together. </p>
            <p> On each turn, you will first see a picture to remind you of the place you are in, and you need to choose whether to go up or down. </p>
            <p> Then you will see an animal and choose which of its chests to search for treasure. </p>","","instructions","","","","","","","","","","","","","",""
"learning-instructions","38","282187","0.0-3.0-7.0-0.1","spark_pilot_2","7791","8","22","Female","","","","","","","1198.2999999523163","<p> When you choose whether to go up or down, try to go to the animal with the chest with the most treasure. </p>
            <p> Try practicing that now! </p>","","instructions","","","","","","","","","","","","","",""
"revaluation","39","286218","0.0-3.0-8.0-0.0","spark_pilot_2","7791","8","22","Female","","true","","","","","[]","./assets/img/space/6.jpg","[]","full practice","space","-5","{""ArrowUp,ArrowLeft"":3,""ArrowUp,ArrowRight"":36,""ArrowDown,ArrowLeft"":15,""ArrowDown,ArrowRight"":23}","false","","false","","","","","","","",""
"html-keyboard-response","40","286733","0.0-3.0-8.0-1.0","spark_pilot_2","7791","8","22","Female","","","","","","","null","<div style=""font-size:60px;"">+</div>","null","fixation","","","","","","","","","","","","","",""
"revaluation","41","290763","0.0-3.0-8.0-0.1","spark_pilot_2","7791","8","22","Female","","true","","","","","[]","./assets/img/space/7.jpg","[]","full practice","space","-5","{""ArrowUp,ArrowLeft"":3,""ArrowUp,ArrowRight"":36,""ArrowDown,ArrowLeft"":15,""ArrowDown,ArrowRight"":23}","false","","false","","","","","","","",""
"html-keyboard-response","42","291271","0.0-3.0-8.0-1.1","spark_pilot_2","7791","8","22","Female","","","","","","","null","<div style=""font-size:60px;"">+</div>","null","fixation","","","","","","","","","","","","","",""
"revaluation","43","297323","0.0-3.0-8.0-0.2","spark_pilot_2","7791","8","22","Female","","false","","","","","[1358.800000011921,1152.9000000357628]","./assets/img/space/8.jpg","[""ArrowUp"",""ArrowRight""]","full practice","space","36","{""ArrowUp,ArrowLeft"":3,""ArrowUp,ArrowRight"":36,""ArrowDown,ArrowLeft"":15,""ArrowDown,ArrowRight"":23}","true","ArrowUp,ArrowRight","false","","","","","","","",""
"html-keyboard-response","44","297835","0.0-3.0-8.0-1.2","spark_pilot_2","7791","8","22","Female","","","","","","","null","<div style=""font-size:60px;"">+</div>","null","fixation","","","","","","","","","","","","","",""
"revaluation","45","303871","0.0-3.0-8.0-0.3","spark_pilot_2","7791","8","22","Female","","false","","","","","[1047.4000000357628,954]","./assets/img/space/9.jpg","[""ArrowUp"",""ArrowRight""]","full practice","space","36","{""ArrowUp,ArrowLeft"":3,""ArrowUp,ArrowRight"":36,""ArrowDown,ArrowLeft"":15,""ArrowDown,ArrowRight"":23}","true","ArrowUp,ArrowRight","false","","","","","","","",""
"html-keyboard-response","46","304378","0.0-3.0-8.0-1.3","spark_pilot_2","7791","8","22","Female","","","","","","","null","<div style=""font-size:60px;"">+</div>","null","fixation","","","","","","","","","","","","","",""
"revaluation","47","310420","0.0-3.0-8.0-0.4","spark_pilot_2","7791","8","22","Female","","false","","","","","[1035.199999988079,567.0999999642372]","./assets/img/space/10.jpg","[""ArrowUp"",""ArrowRight""]","full practice","space","36","{""ArrowUp,ArrowLeft"":3,""ArrowUp,ArrowRight"":36,""ArrowDown,ArrowLeft"":15,""ArrowDown,ArrowRight"":23}","true","ArrowUp,ArrowRight","false","","","","","","","",""
"html-keyboard-response","48","310925","0.0-3.0-8.0-1.4","spark_pilot_2","7791","8","22","Female","","","","","","","null","<div style=""font-size:60px;"">+</div>","null","fixation","","","","","","","","","","","","","",""
"learning-instructions","49","323417","0.0-3.0-9.0-0.0","spark_pilot_2","7791","8","22","Female","","","","","","","1426.5","<p> One last thing: sometimes, you will see a robber. The robber can be anywhere in the picture. </p>
            <p> If you do not stop them, you will lose treasure. </p>
            <img src='./assets/img/instructions/robber.jpg' class='instructions-image'>","","instructions","","","","","","","","","","","","","",""
"learning-instructions","50","331614","0.0-3.0-9.0-0.1","spark_pilot_2","7791","8","22","Female","","","","","","","964.1999999880791","<p> If you see the robber, you should <b>press the space bar</b> rather than using the arrow keys. </p>
            <p> Try practicing that now! </p>","","instructions","","","","","","","","","","","","","",""
"revaluation","51","335643","0.0-3.0-10.0-0.0","spark_pilot_2","7791","8","22","Female","","false","","","","","[1032.699999988079]","./assets/img/space/catch/0.jpg","[""spaceBar""]","catch practice","space","0","{""ArrowUp,ArrowLeft"":3,""ArrowUp,ArrowRight"":36,""ArrowDown,ArrowLeft"":15,""ArrowDown,ArrowRight"":23}","true","spaceBar","true","","","","","","","",""
"html-keyboard-response","52","336152","0.0-3.0-10.0-1.0","spark_pilot_2","7791","8","22","Female","","","","","","","null","<div style=""font-size:60px;"">+</div>","null","fixation","","","","","","","","","","","","","",""
"revaluation","53","340172","0.0-3.0-10.0-0.1","spark_pilot_2","7791","8","22","Female","","false","","","","","[839.8000000119209]","./assets/img/space/catch/1.jpg","[""spaceBar""]","catch practice","space","0","{""ArrowUp,ArrowLeft"":3,""ArrowUp,ArrowRight"":36,""ArrowDown,ArrowLeft"":15,""ArrowDown,ArrowRight"":23}","true","spaceBar","true","","","","","","","",""
"html-keyboard-response","54","340686","0.0-3.0-10.0-1.1","spark_pilot_2","7791","8","22","Female","","","","","","","null","<div style=""font-size:60px;"">+</div>","null","fixation","","","","","","","","","","","","","",""
"revaluation","55","344708","0.0-3.0-10.0-0.2","spark_pilot_2","7791","8","22","Female","","false","","","","","[879.5]","./assets/img/space/catch/2.jpg","[""spaceBar""]","catch practice","space","0","{""ArrowUp,ArrowLeft"":3,""ArrowUp,ArrowRight"":36,""ArrowDown,ArrowLeft"":15,""ArrowDown,ArrowRight"":23}","true","spaceBar","true","","","","","","","",""
"html-keyboard-response","56","345222","0.0-3.0-10.0-1.2","spark_pilot_2","7791","8","22","Female","","","","","","","null","<div style=""font-size:60px;"">+</div>","null","fixation","","","","","","","","","","","","","",""
"learning-instructions","57","361231","0.0-3.0-11.0-0.0","spark_pilot_2","7791","8","22","Female","","","","","","","2331.100000023842","<p> After you explore a place to find treasure, it will be time to play a different game. </p>
            <p> During this game, red dots will appear on the screen and fall down slowly. </p>
            <p><b> You must click on them before they reach the bottom. </b></p>
            <img src='./assets/img/instructions/dotGame.jpg' class='instructions-image'>","","instructions","","","","","","","","","","","","","",""
"learning-instructions","58","368020","0.0-3.0-11.0-0.1","spark_pilot_2","7791","8","22","Female","","","","","","","1049.5","<p> For every dot you click, you will earn additional treasure. </p>
            <p> Let’s try practicing that now. </p>","","instructions","","","","","","","","","","","","","",""
"revaluation","59","383030","0.0-3.0-12.0-0.0","spark_pilot_2","7791","8","22","Female","","","","","","","[-1]","","","rest practice","","10","","","","","1","15000","","","","","",""
"learning-instructions","60","390131","0.0-3.0-13.0-0.0-0.0","spark_pilot_2","7791","8","22","Female","","","","","","","1771.5","<p> Now, you will practice a shortened version of the game to get a sense of how it all fits together. </p>","","instructions","","","","","","","","","","","","","",""
"learning-instructions","61","395274","0.0-3.0-13.0-0.0-0.1","spark_pilot_2","7791","8","22","Female","","","","","","","1914.4000000357628","<p>This time you are searching for treasure in outer space.</p>","","instructions","","","","","","","","","","","","","",""
"learning-instructions","62","411867","0.0-3.0-13.0-1.0-0.0","spark_pilot_2","7791","8","22","Female","","","","","","","1737.699999988079","<p> Remember, when you see a picture of the place, use the up and down keys to <b>find an animal</b>.</p>
            <p> When you encounter an animal, you should use the left and right keys to <b>select a treasure chest</b>.</p>
            <p> Don't forget to look out for the robber! </p>","","instructions","","","","","","","","","","","","","",""
"revaluation","63","415903","0.0-3.0-13.0-2.0-0.0","spark_pilot_2","7791","8","22","Female","","true","","","","","[]","./assets/img/space/11.jpg","[]","practice block","space","-5","{""ArrowUp,ArrowLeft"":3,""ArrowUp,ArrowRight"":36,""ArrowDown,ArrowLeft"":15,""ArrowDown,ArrowRight"":23}","false","","false","","","","","","","",""
"html-keyboard-response","64","416410","0.0-3.0-13.0-2.0-1.0","spark_pilot_2","7791","8","22","Female","","","","","","","null","<div style=""font-size:60px;"">+</div>","null","fixation","","","","","","","","","","","","","",""
"revaluation","65","422447","0.0-3.0-13.0-2.0-0.1","spark_pilot_2","7791","8","22","Female","","false","","","","","[482.80000001192093,1701.5999999642372]","./assets/img/space/12.jpg","[""ArrowUp"",""ArrowRight""]","practice block","space","36","{""ArrowUp,ArrowLeft"":3,""ArrowUp,ArrowRight"":36,""ArrowDown,ArrowLeft"":15,""ArrowDown,ArrowRight"":23}","true","ArrowUp,ArrowRight","false","","","","","","","",""
"html-keyboard-response","66","422951","0.0-3.0-13.0-2.0-1.1","spark_pilot_2","7791","8","22","Female","","","","","","","null","<div style=""font-size:60px;"">+</div>","null","fixation","","","","","","","","","","","","","",""
"revaluation","67","428995","0.0-3.0-13.0-2.0-0.2","spark_pilot_2","7791","8","22","Female","","false","","","","","[1764.1000000238419,642.6000000238419]","./assets/img/space/13.jpg","[""ArrowUp"",""ArrowRight""]","practice block","space","36","{""ArrowUp,ArrowLeft"":3,""ArrowUp,ArrowRight"":36,""ArrowDown,ArrowLeft"":15,""ArrowDown,ArrowRight"":23}","true","ArrowUp,ArrowRight","false","","","","","","","",""
"html-keyboard-response","68","429504","0.0-3.0-13.0-2.0-1.2","spark_pilot_2","7791","8","22","Female","","","","","","","null","<div style=""font-size:60px;"">+</div>","null","fixation","","","","","","","","","","","","","",""
"revaluation","69","435517","0.0-3.0-13.0-2.0-0.3","spark_pilot_2","7791","8","22","Female","","false","","","","","[576.8999999761581,609.3999999761581]","./assets/img/space/14.jpg","[""ArrowUp"",""ArrowRight""]","practice block","space","36","{""ArrowUp,ArrowLeft"":3,""ArrowUp,ArrowRight"":36,""ArrowDown,ArrowLeft"":15,""ArrowDown,ArrowRight"":23}","true","ArrowUp,ArrowRight","false","","","","","","","",""
"html-keyboard-response","70","436024","0.0-3.0-13.0-2.0-1.3","spark_pilot_2","7791","8","22","Female","","","","","","","null","<div style=""font-size:60px;"">+</div>","null","fixation","","","","","","","","","","","","","",""
"revaluation","71","442044","0.0-3.0-13.0-2.0-0.4","spark_pilot_2","7791","8","22","Female","","false","","","","","[1036.199999988079,652.8999999761581]","./assets/img/space/11.jpg","[""ArrowUp"",""ArrowRight""]","practice block","space","36","{""ArrowUp,ArrowLeft"":3,""ArrowUp,ArrowRight"":36,""ArrowDown,ArrowLeft"":15,""ArrowDown,ArrowRight"":23}","true","ArrowUp,ArrowRight","false","","","","","","","",""
"html-keyboard-response","72","442549","0.0-3.0-13.0-2.0-1.4","spark_pilot_2","7791","8","22","Female","","","","","","","null","<div style=""font-size:60px;"">+</div>","null","fixation","","","","","","","","","","","","","",""
"revaluation","73","448559","0.0-3.0-13.0-2.0-0.5","spark_pilot_2","7791","8","22","Female","","false","","","","","[1576.699999988079,609.8999999761581]","./assets/img/space/12.jpg","[""ArrowUp"",""ArrowRight""]","practice block","space","36","{""ArrowUp,ArrowLeft"":3,""ArrowUp,ArrowRight"":36,""ArrowDown,ArrowLeft"":15,""ArrowDown,ArrowRight"":23}","true","ArrowUp,ArrowRight","false","","","","","","","",""
"html-keyboard-response","74","449069","0.0-3.0-13.0-2.0-1.5","spark_pilot_2","7791","8","22","Female","","","","","","","null","<div style=""font-size:60px;"">+</div>","null","fixation","","","","","","","","","","","","","",""
"revaluation","75","455076","0.0-3.0-13.0-2.0-0.6","spark_pilot_2","7791","8","22","Female","","false","","","","","[726.8000000119209,437.5]","./assets/img/space/13.jpg","[""ArrowUp"",""ArrowRight""]","practice block","space","36","{""ArrowUp,ArrowLeft"":3,""ArrowUp,ArrowRight"":36,""ArrowDown,ArrowLeft"":15,""ArrowDown,ArrowRight"":23}","true","ArrowUp,ArrowRight","false","","","","","","","",""
"html-keyboard-response","76","455579","0.0-3.0-13.0-2.0-1.6","spark_pilot_2","7791","8","22","Female","","","","","","","null","<div style=""font-size:60px;"">+</div>","null","fixation","","","","","","","","","","","","","",""
"revaluation","77","461598","0.0-3.0-13.0-2.0-0.7","spark_pilot_2","7791","8","22","Female","","false","","","","","[764.3999999761581,434.80000001192093]","./assets/img/space/14.jpg","[""ArrowUp"",""ArrowRight""]","practice block","space","36","{""ArrowUp,ArrowLeft"":3,""ArrowUp,ArrowRight"":36,""ArrowDown,ArrowLeft"":15,""ArrowDown,ArrowRight"":23}","true","ArrowUp,ArrowRight","false","","","","","","","",""
"html-keyboard-response","78","462102","0.0-3.0-13.0-2.0-1.7","spark_pilot_2","7791","8","22","Female","","","","","","","null","<div style=""font-size:60px;"">+</div>","null","fixation","","","","","","","","","","","","","",""
"revaluation","79","466111","0.0-3.0-13.0-2.0-0.8","spark_pilot_2","7791","8","22","Female","","false","","","","","[1130.699999988079]","./assets/img/space/catch/3.jpg","[""spaceBar""]","practice block","space","0","{""ArrowUp,ArrowLeft"":3,""ArrowUp,ArrowRight"":36,""ArrowDown,ArrowLeft"":15,""ArrowDown,ArrowRight"":23}","true","spaceBar","true","","","","","","","",""
"html-keyboard-response","80","466615","0.0-3.0-13.0-2.0-1.8","spark_pilot_2","7791","8","22","Female","","","","","","","null","<div style=""font-size:60px;"">+</div>","null","fixation","","","","","","","","","","","","","",""
"learning-instructions","81","482948","0.0-3.0-13.0-3.0-0.0","spark_pilot_2","7791","8","22","Female","","","","","","","2892.400000035763","<p> Now, you will travel with a friend who will choose whether you go up or down first. </p>
            <p> On these turns, you will just see the animal that they found. You will still get to choose which chest to search for treasure.</p>","","instructions","","","","","","","","","","","","","",""
"revaluation","82","486968","0.0-3.0-13.0-4.0-0.0","spark_pilot_2","7791","8","22","Female","","false","","","","","[978.1999999880791]","./assets/img/space/animals/cat.jpg","[""ArrowRight""]","practice block","space","36","{""ArrowUp,ArrowLeft"":3,""ArrowUp,ArrowRight"":36,""ArrowDown,ArrowLeft"":15,""ArrowDown,ArrowRight"":23}","true","ArrowUp,ArrowRight","","","","","","","","",""
"html-keyboard-response","83","487485","0.0-3.0-13.0-4.0-1.0","spark_pilot_2","7791","8","22","Female","","","","","","","null","<div style=""font-size:60px;"">+</div>","null","fixation","","","","","","","","","","","","","",""
"revaluation","84","491508","0.0-3.0-13.0-4.0-0.1","spark_pilot_2","7791","8","22","Female","","false","","","","","[1772.7999999523163]","./assets/img/space/animals/rabbit.jpg","[""ArrowRight""]","practice block","space","23","{""ArrowUp,ArrowLeft"":3,""ArrowUp,ArrowRight"":36,""ArrowDown,ArrowLeft"":15,""ArrowDown,ArrowRight"":23}","true","ArrowDown,ArrowRight","","","","","","","","",""
"html-keyboard-response","85","492014","0.0-3.0-13.0-4.0-1.1","spark_pilot_2","7791","8","22","Female","","","","","","","null","<div style=""font-size:60px;"">+</div>","null","fixation","","","","","","","","","","","","","",""
"revaluation","86","496037","0.0-3.0-13.0-4.0-0.2","spark_pilot_2","7791","8","22","Female","","false","","","","","[923.0999999642372]","./assets/img/space/animals/rabbit.jpg","[""ArrowRight""]","practice block","space","23","{""ArrowUp,ArrowLeft"":3,""ArrowUp,ArrowRight"":36,""ArrowDown,ArrowLeft"":15,""ArrowDown,ArrowRight"":23}","true","ArrowDown,ArrowRight","","","","","","","","",""
"html-keyboard-response","87","496542","0.0-3.0-13.0-4.0-1.2","spark_pilot_2","7791","8","22","Female","","","","","","","null","<div style=""font-size:60px;"">+</div>","null","fixation","","","","","","","","","","","","","",""
"revaluation","88","500559","0.0-3.0-13.0-4.0-0.3","spark_pilot_2","7791","8","22","Female","","false","","","","","[998.9000000357628]","./assets/img/space/animals/cat.jpg","[""ArrowRight""]","practice block","space","36","{""ArrowUp,ArrowLeft"":3,""ArrowUp,ArrowRight"":36,""ArrowDown,ArrowLeft"":15,""ArrowDown,ArrowRight"":23}","true","ArrowUp,ArrowRight","","","","","","","","",""
"html-keyboard-response","89","501064","0.0-3.0-13.0-4.0-1.3","spark_pilot_2","7791","8","22","Female","","","","","","","null","<div style=""font-size:60px;"">+</div>","null","fixation","","","","","","","","","","","","","",""
"learning-instructions","90","511136","0.0-3.0-13.0-5.0-0.0","spark_pilot_2","7791","8","22","Female","","","","","","","2660.5","<p> Time to play the dot game! </p>
            <p> For 15 seconds, click the red dots on the following screen as they appear. </p>","","instructions","","","","","","","","","","","","","",""
"revaluation","91","526141","0.0-3.0-13.0-6.0-0.0","spark_pilot_2","7791","8","22","Female","","","","","","","[-1]","","","rest practice","","10","","","","","1","15000","","","","","",""
"learning-instructions","92","535152","0.0-3.0-13.0-7.0-0.0","spark_pilot_2","7791","8","22","Female","","","","","","","2837.300000011921","<p> You have almost finished this part of the game! </p>
            <p> We are going to ask you to make a few more choices. </p>","","instructions","","","","","","","","","","","","","",""
"learning-instructions","93","551447","0.0-3.0-13.0-7.0-0.1","spark_pilot_2","7791","8","22","Female","","","","","","","2181.699999988079","<p> First, you need to decide whether to go up or down. When you see each picture, use the arrow keys to make your choice. </p>
            <p><b>You will not see which animal you found, but try to get to the one that will give you the most treasure.</b></p>","","instructions","","","","","","","","","","","","","",""
"revaluation","94","553509","0.0-3.0-13.0-8.0","spark_pilot_2","7791","8","22","Female","","false","","","","","[2055.900000035763]","./assets/img/space/15.jpg","[""ArrowUp""]","practice block","space","0","{""ArrowUp,ArrowLeft"":3,""ArrowUp,ArrowRight"":36,""ArrowDown,ArrowLeft"":15,""ArrowDown,ArrowRight"":23}","true","ArrowUp","false","","","","","","","",""
"html-keyboard-response","95","554013","0.0-3.0-13.0-9.0","spark_pilot_2","7791","8","22","Female","","","","","","","null","<div style=""font-size:60px;"">+</div>","null","fixation","","","","","","","","","","","","","",""
"learning-instructions","96","566987","0.0-3.0-13.0-10.0-0.0","spark_pilot_2","7791","8","22","Female","","","","","","","1542.699999988079","<p> Now you will see the animals again and can search their chests for treasure. </p>
            <p> This time, you will not see how much treasure you earned, but you will earn more bonus money for making better choices. </p>","","instructions","","","","","","","","","","","","","",""
"revaluation","97","567762","0.0-3.0-13.0-11.0-0.0","spark_pilot_2","7791","8","22","Female","","false","","","","","[769.8999999761581]","./assets/img/space/animals/cat.jpg","[""ArrowRight""]","practice block","space","0","{""ArrowUp,ArrowLeft"":3,""ArrowUp,ArrowRight"":36,""ArrowDown,ArrowLeft"":15,""ArrowDown,ArrowRight"":23}","true","ArrowUp,ArrowRight","","","","","","","","",""
"html-keyboard-response","98","568272","0.0-3.0-13.0-11.0-1.0","spark_pilot_2","7791","8","22","Female","","","","","","","null","<div style=""font-size:60px;"">+</div>","null","fixation","","","","","","","","","","","","","",""
"revaluation","99","569536","0.0-3.0-13.0-11.0-0.1","spark_pilot_2","7791","8","22","Female","","false","","","","","[1259.3999999761581]","./assets/img/space/animals/rabbit.jpg","[""ArrowRight""]","practice block","space","0","{""ArrowUp,ArrowLeft"":3,""ArrowUp,ArrowRight"":36,""ArrowDown,ArrowLeft"":15,""ArrowDown,ArrowRight"":23}","true","ArrowDown,ArrowRight","","","","","","","","",""
"html-keyboard-response","100","570043","0.0-3.0-13.0-11.0-1.1","spark_pilot_2","7791","8","22","Female","","","","","","","null","<div style=""font-size:60px;"">+</div>","null","fixation","","","","","","","","","","","","","",""
"learning-instructions","101","576291","0.0-3.0-14.0-0.0","spark_pilot_2","7791","8","22","Female","","","","","","","1636.199999988079","<p> Before you start, we're going to ask you a few questions about how the game works. </p>","","instructions","","","","","","","","","","","","","",""
"comp-q","102","584845","0.0-3.0-15.0-0.0-0.0","spark_pilot_2","7791","8","22","Female","","","","","","","2915","<p> <b> True or False? </b> </p>
            <p> There can be 50 pieces of treasure in a given animal's chest. </p>","1","comp_question","","","","true","","","","","","","","","",""
"comp-q","103","593666","0.0-3.0-15.0-0.0-1.0","spark_pilot_2","7791","8","22","Female","","","","","","","2111.199999988079","<p> <b> That's right! </b> The amount of treasure in each chest can range from 0 to 40 pieces. </p>","0","comp_answer","","","","","","","","","","","","","",""
"comp-q","104","602353","0.0-3.0-15.0-0.1-0.1","spark_pilot_2","7791","8","22","Female","","","","","","","1517.6000000238419","<p> <b> True or False? </b> </p><p> In this game, all animals have the same amount of treasure in their left and right chests. </p>","1","comp_question","","","","true","","","","","","","","","",""
"comp-q","105","609496","0.0-3.0-15.0-0.1-1.1","spark_pilot_2","7791","8","22","Female","","","","","","","1867.8999999761581","<p> <b> That's right! </b> Animals have different amounts of treasure in their treasure chests. </p>","0","comp_answer","","","","","","","","","","","","","",""
"comp-q","106","617112","0.0-3.0-15.0-0.2-0.2","spark_pilot_2","7791","8","22","Female","","","","","","","1727.3999999761581","<p> <b> True or False? </b> </p><p> The same animal will always be there if you go up in the same place. </p>","1","comp_question","","","","false","","","","","","","","","",""
"comp-q","107","626012","0.0-3.0-15.0-0.2-1.2","spark_pilot_2","7791","8","22","Female","","","","","","","1916.699999988079","<p> <b>Incorrect.</b> One animal lives in the upper part and one lives in the lower part of every place. </p>","0","comp_answer","","","","","","","","","","","","","",""
"comp-q","108","633179","0.0-3.0-15.0-0.3-0.3","spark_pilot_2","7791","8","22","Female","","","","","","","1343.800000011921","<p> <b> True or False? </b> </p><p> The same animal will always be there if you go up in the same place. </p>","0","comp_question","","","","true","","","","","","","","","",""
"comp-q","109","641124","0.0-3.0-15.0-0.3-1.3","spark_pilot_2","7791","8","22","Female","","","","","","","1449","<p> <b> That's right! </b> One animal lives in the upper part and one lives in the lower part of every place. </p>","0","comp_answer","","","","","","","","","","","","","",""
"comp-q","110","648176","0.0-3.0-15.0-0.4-0.4","spark_pilot_2","7791","8","22","Female","","","","","","","1470.800000011921","<p> <b> True or False? </b> </p><p> If you see a different picture, it means you are in a new place. </p>","0","comp_question","","","","false","","","","","","","","","",""
"comp-q","111","661552","0.0-3.0-15.0-0.4-1.4","spark_pilot_2","7791","8","22","Female","","","","","","","2207","<p> <b>Incorrect.</b> Lots of different images may show the same place. For example,  you may see three different images that all remind you that you are in outer space. </p>","0","comp_answer","","","","","","","","","","","","","",""
"comp-q","112","669799","0.0-3.0-15.0-0.5-0.5","spark_pilot_2","7791","8","22","Female","","","","","","","2732.899999976158","<p> <b> True or False? </b> </p><p> If you see a different picture, it means you are in a new place. </p>","1","comp_question","","","","true","","","","","","","","","",""
"comp-q","113","682271","0.0-3.0-15.0-0.5-1.5","spark_pilot_2","7791","8","22","Female","","","","","","","1185.300000011921","<p> <b> That's right! </b> Lots of different images may show the same place. For example,  you may see three different images that all remind you that you are in outer space. </p>","0","comp_answer","","","","","","","","","","","","","",""
"learning-instructions","114","693988","0.0-3.0-16.0-0.0","spark_pilot_2","7791","8","22","Female","","","","","","","1792.7999999523163","<p> Good job. Remember to do your best because the amount of treasure you earn will be converted into bonus money. </p>
            <p> It’s time to start the real game! </p>","","instructions","","","","","","","","","","","","","",""
"learning-instructions","115","698375","0.0-4.0-0.0-0.0","spark_pilot_2","7791","8","22","Female","","","","","","","1570.5","<p> This time you are searching for treasure in the <b>canyon</b>.</p>","","instructions","","","","","","","","","","","","","",""
"learning-instructions","116","717698","0.0-4.0-0.0-0.1","spark_pilot_2","7791","8","22","Female","","","","","","","1912.5","<p><b>New</b> animals with <b>new</b> treasure chests live here. You need to explore to discover where the animal with the best treasure chest is.</p>
                    <p> Like before, once you figure out which animal has the chest with the most treasure, you should try to get to that animal and select that chest! </p>","","instructions","","","","","","","","","","","","","",""
"learning-instructions","117","733199","0.0-4.0-1.0-0.0","spark_pilot_2","7791","8","22","Female","","","","","","","774","<p> Remember, when you see a picture of the place, use the up and down keys to <b>find an animal</b>.</p>
            <p> When you encounter an animal, you should use the left and right keys to <b>select a treasure chest</b>.</p>
            <p> Don't forget to look out for the robber! </p>","","instructions","","","","","","","","","","","","","",""
"revaluation","118","739232","0.0-4.0-2.0-0.0","spark_pilot_2","7791","8","22","Female","","false","","","","","[1775.4000000357628,1178.199999988079]","./assets/img/canyon/memory/14.jpg","[""ArrowDown"",""ArrowRight""]","value training","canyon","17","{""ArrowUp,ArrowLeft"":26,""ArrowUp,ArrowRight"":10,""ArrowDown,ArrowLeft"":5,""ArrowDown,ArrowRight"":17}","false","ArrowDown,ArrowRight","false","","","revaluation","1","0","","",""
"html-keyboard-response","119","739747","0.0-4.0-2.0-1.0","spark_pilot_2","7791","8","22","Female","","","","","","","null","<div style=""font-size:60px;"">+</div>","null","fixation","","","","","","","","","","","1","","",""
"revaluation","120","743762","0.0-4.0-2.0-0.1","spark_pilot_2","7791","8","22","Female","","false","","","","","[1741.4000000357628]","./assets/img/canyon/catch/7.jpg","[""spaceBar""]","value training","canyon","0","{""ArrowUp,ArrowLeft"":26,""ArrowUp,ArrowRight"":10,""ArrowDown,ArrowLeft"":5,""ArrowDown,ArrowRight"":17}","true","spaceBar","true","","","revaluation","1","2","","",""
"html-keyboard-response","121","744272","0.0-4.0-2.0-1.1","spark_pilot_2","7791","8","22","Female","","","","","","","null","<div style=""font-size:60px;"">+</div>","null","fixation","","","","","","","","","","","3","","",""
"revaluation","122","750296","0.0-4.0-2.0-0.2","spark_pilot_2","7791","8","22","Female","","false","","","","","[1184.3999999761581,1324.3999999761581]","./assets/img/canyon/memory/14.jpg","[""ArrowDown"",""ArrowLeft""]","value training","canyon","5","{""ArrowUp,ArrowLeft"":26,""ArrowUp,ArrowRight"":10,""ArrowDown,ArrowLeft"":5,""ArrowDown,ArrowRight"":17}","false","ArrowDown,ArrowLeft","false","","","revaluation","1","4","","",""
"html-keyboard-response","123","750812","0.0-4.0-2.0-1.2","spark_pilot_2","7791","8","22","Female","","","","","","","null","<div style=""font-size:60px;"">+</div>","null","fixation","","","","","","","","","","","5","","",""
"revaluation","124","756852","0.0-4.0-2.0-0.3","spark_pilot_2","7791","8","22","Female","","false","","","","","[1632.699999988079,712.7999999523163]","./assets/img/canyon/memory/0.jpg","[""ArrowDown"",""ArrowRight""]","value training","canyon","17","{""ArrowUp,ArrowLeft"":26,""ArrowUp,ArrowRight"":10,""ArrowDown,ArrowLeft"":5,""ArrowDown,ArrowRight"":17}","false","ArrowDown,ArrowRight","false","","","revaluation","1","6","","",""
"html-keyboard-response","125","757358","0.0-4.0-2.0-1.3","spark_pilot_2","7791","8","22","Female","","","","","","","null","<div style=""font-size:60px;"">+</div>","null","fixation","","","","","","","","","","","7","","",""
"revaluation","126","763385","0.0-4.0-2.0-0.4","spark_pilot_2","7791","8","22","Female","","false","","","","","[1141.0999999642372,661.4000000357628]","./assets/img/canyon/memory/4.jpg","[""ArrowDown"",""ArrowRight""]","value training","canyon","17","{""ArrowUp,ArrowLeft"":26,""ArrowUp,ArrowRight"":10,""ArrowDown,ArrowLeft"":5,""ArrowDown,ArrowRight"":17}","false","ArrowDown,ArrowRight","false","","","revaluation","1","8","","",""
"html-keyboard-response","127","763889","0.0-4.0-2.0-1.4","spark_pilot_2","7791","8","22","Female","","","","","","","null","<div style=""font-size:60px;"">+</div>","null","fixation","","","","","","","","","","","9","","",""
"revaluation","128","769900","0.0-4.0-2.0-0.5","spark_pilot_2","7791","8","22","Female","","false","","","","","[710.4000000357628,578.3000000119209]","./assets/img/canyon/memory/11.jpg","[""ArrowDown"",""ArrowRight""]","value training","canyon","17","{""ArrowUp,ArrowLeft"":26,""ArrowUp,ArrowRight"":10,""ArrowDown,ArrowLeft"":5,""ArrowDown,ArrowRight"":17}","false","ArrowDown,ArrowRight","false","","","revaluation","1","10","","",""
"html-keyboard-response","129","770404","0.0-4.0-2.0-1.5","spark_pilot_2","7791","8","22","Female","","","","","","","null","<div style=""font-size:60px;"">+</div>","null","fixation","","","","","","","","","","","11","","",""
"revaluation","130","776412","0.0-4.0-2.0-0.6","spark_pilot_2","7791","8","22","Female","","false","","","","","[1425.199999988079,580.8999999761581]","./assets/img/canyon/memory/9.jpg","[""ArrowDown"",""ArrowRight""]","value training","canyon","17","{""ArrowUp,ArrowLeft"":26,""ArrowUp,ArrowRight"":10,""ArrowDown,ArrowLeft"":5,""ArrowDown,ArrowRight"":17}","false","ArrowDown,ArrowRight","false","","","revaluation","1","12","","",""
"html-keyboard-response","131","776916","0.0-4.0-2.0-1.6","spark_pilot_2","7791","8","22","Female","","","","","","","null","<div style=""font-size:60px;"">+</div>","null","fixation","","","","","","","","","","","13","","",""
"revaluation","132","780928","0.0-4.0-2.0-0.7","spark_pilot_2","7791","8","22","Female","","false","","","","","[1042.800000011921]","./assets/img/canyon/catch/5.jpg","[""spaceBar""]","value training","canyon","0","{""ArrowUp,ArrowLeft"":26,""ArrowUp,ArrowRight"":10,""ArrowDown,ArrowLeft"":5,""ArrowDown,ArrowRight"":17}","true","spaceBar","true","","","revaluation","1","14","","",""
"html-keyboard-response","133","781433","0.0-4.0-2.0-1.7","spark_pilot_2","7791","8","22","Female","","","","","","","null","<div style=""font-size:60px;"">+</div>","null","fixation","","","","","","","","","","","15","","",""
"revaluation","134","787452","0.0-4.0-2.0-0.8","spark_pilot_2","7791","8","22","Female","","false","","","","","[696.6000000238419,556.1000000238419]","./assets/img/canyon/memory/1.jpg","[""ArrowDown"",""ArrowRight""]","value training","canyon","17","{""ArrowUp,ArrowLeft"":26,""ArrowUp,ArrowRight"":10,""ArrowDown,ArrowLeft"":5,""ArrowDown,ArrowRight"":17}","false","ArrowDown,ArrowRight","false","","","revaluation","1","16","","",""
"html-keyboard-response","135","787956","0.0-4.0-2.0-1.8","spark_pilot_2","7791","8","22","Female","","","","","","","null","<div style=""font-size:60px;"">+</div>","null","fixation","","","","","","","","","","","17","","",""
"revaluation","136","793975","0.0-4.0-2.0-0.9","spark_pilot_2","7791","8","22","Female","","false","","","","","[811.1999999880791,449.80000001192093]","./assets/img/canyon/memory/28.jpg","[""ArrowDown"",""ArrowRight""]","value training","canyon","17","{""ArrowUp,ArrowLeft"":26,""ArrowUp,ArrowRight"":10,""ArrowDown,ArrowLeft"":5,""ArrowDown,ArrowRight"":17}","false","ArrowDown,ArrowRight","false","","","revaluation","1","18","","",""
"html-keyboard-response","137","794477","0.0-4.0-2.0-1.9","spark_pilot_2","7791","8","22","Female","","","","","","","null","<div style=""font-size:60px;"">+</div>","null","fixation","","","","","","","","","","","19","","",""
"revaluation","138","800484","0.0-4.0-2.0-0.10","spark_pilot_2","7791","8","22","Female","","false","","","","","[728.1999999880791,555.8000000119209]","./assets/img/canyon/memory/7.jpg","[""ArrowDown"",""ArrowRight""]","value training","canyon","17","{""ArrowUp,ArrowLeft"":26,""ArrowUp,ArrowRight"":10,""ArrowDown,ArrowLeft"":5,""ArrowDown,ArrowRight"":17}","false","ArrowDown,ArrowRight","false","","","revaluation","1","20","","",""
"html-keyboard-response","139","800986","0.0-4.0-2.0-1.10","spark_pilot_2","7791","8","22","Female","","","","","","","null","<div style=""font-size:60px;"">+</div>","null","fixation","","","","","","","","","","","21","","",""
"revaluation","140","806995","0.0-4.0-2.0-0.11","spark_pilot_2","7791","8","22","Female","","false","","","","","[950.0999999642372,772.6000000238419]","./assets/img/canyon/memory/18.jpg","[""ArrowDown"",""ArrowRight""]","value training","canyon","17","{""ArrowUp,ArrowLeft"":26,""ArrowUp,ArrowRight"":10,""ArrowDown,ArrowLeft"":5,""ArrowDown,ArrowRight"":17}","false","ArrowDown,ArrowRight","false","","","revaluation","1","22","","",""
"html-keyboard-response","141","807498","0.0-4.0-2.0-1.11","spark_pilot_2","7791","8","22","Female","","","","","","","null","<div style=""font-size:60px;"">+</div>","null","fixation","","","","","","","","","","","23","","",""
"revaluation","142","813506","0.0-4.0-2.0-0.12","spark_pilot_2","7791","8","22","Female","","false","","","","","[718.4000000357628,851.3000000119209]","./assets/img/canyon/memory/11.jpg","[""ArrowDown"",""ArrowRight""]","value training","canyon","17","{""ArrowUp,ArrowLeft"":26,""ArrowUp,ArrowRight"":10,""ArrowDown,ArrowLeft"":5,""ArrowDown,ArrowRight"":17}","false","ArrowDown,ArrowRight","false","","","revaluation","1","24","","",""
"html-keyboard-response","143","814009","0.0-4.0-2.0-1.12","spark_pilot_2","7791","8","22","Female","","","","","","","null","<div style=""font-size:60px;"">+</div>","null","fixation","","","","","","","","","","","25","","",""
"revaluation","144","820018","0.0-4.0-2.0-0.13","spark_pilot_2","7791","8","22","Female","","false","","","","","[683.4000000357628,517.6999999880791]","./assets/img/canyon/memory/32.jpg","[""ArrowDown"",""ArrowRight""]","value training","canyon","17","{""ArrowUp,ArrowLeft"":26,""ArrowUp,ArrowRight"":10,""ArrowDown,ArrowLeft"":5,""ArrowDown,ArrowRight"":17}","false","ArrowDown,ArrowRight","false","","","revaluation","1","26","","",""
"html-keyboard-response","145","820521","0.0-4.0-2.0-1.13","spark_pilot_2","7791","8","22","Female","","","","","","","null","<div style=""font-size:60px;"">+</div>","null","fixation","","","","","","","","","","","27","","",""
"revaluation","146","826534","0.0-4.0-2.0-0.14","spark_pilot_2","7791","8","22","Female","","false","","","","","[626.1000000238419,492]","./assets/img/canyon/memory/18.jpg","[""ArrowDown"",""ArrowRight""]","value training","canyon","17","{""ArrowUp,ArrowLeft"":26,""ArrowUp,ArrowRight"":10,""ArrowDown,ArrowLeft"":5,""ArrowDown,ArrowRight"":17}","false","ArrowDown,ArrowRight","false","","","revaluation","1","28","","",""
"html-keyboard-response","147","827041","0.0-4.0-2.0-1.14","spark_pilot_2","7791","8","22","Female","","","","","","","null","<div style=""font-size:60px;"">+</div>","null","fixation","","","","","","","","","","","29","","",""
"revaluation","148","833065","0.0-4.0-2.0-0.15","spark_pilot_2","7791","8","22","Female","","false","","","","","[763.8000000119209,768.1999999880791]","./assets/img/canyon/memory/40.jpg","[""ArrowDown"",""ArrowRight""]","value training","canyon","17","{""ArrowUp,ArrowLeft"":26,""ArrowUp,ArrowRight"":10,""ArrowDown,ArrowLeft"":5,""ArrowDown,ArrowRight"":17}","false","ArrowDown,ArrowRight","false","","","revaluation","1","30","","",""
"html-keyboard-response","149","833569","0.0-4.0-2.0-1.15","spark_pilot_2","7791","8","22","Female","","","","","","","null","<div style=""font-size:60px;"">+</div>","null","fixation","","","","","","","","","","","31","","",""
"revaluation","150","839585","0.0-4.0-2.0-0.16","spark_pilot_2","7791","8","22","Female","","false","","","","","[757.1999999880791,575.5]","./assets/img/canyon/memory/32.jpg","[""ArrowDown"",""ArrowRight""]","value training","canyon","17","{""ArrowUp,ArrowLeft"":26,""ArrowUp,ArrowRight"":10,""ArrowDown,ArrowLeft"":5,""ArrowDown,ArrowRight"":17}","false","ArrowDown,ArrowRight","false","","","revaluation","1","32","","",""
"html-keyboard-response","151","840088","0.0-4.0-2.0-1.16","spark_pilot_2","7791","8","22","Female","","","","","","","null","<div style=""font-size:60px;"">+</div>","null","fixation","","","","","","","","","","","33","","",""
"revaluation","152","844100","0.0-4.0-2.0-0.17","spark_pilot_2","7791","8","22","Female","","false","","","","","[788]","./assets/img/canyon/catch/6.jpg","[""spaceBar""]","value training","canyon","0","{""ArrowUp,ArrowLeft"":26,""ArrowUp,ArrowRight"":10,""ArrowDown,ArrowLeft"":5,""ArrowDown,ArrowRight"":17}","true","spaceBar","true","","","revaluation","1","34","","",""
"html-keyboard-response","153","844603","0.0-4.0-2.0-1.17","spark_pilot_2","7791","8","22","Female","","","","","","","null","<div style=""font-size:60px;"">+</div>","null","fixation","","","","","","","","","","","35","","",""
"revaluation","154","850630","0.0-4.0-2.0-0.18","spark_pilot_2","7791","8","22","Female","","false","","","","","[709.5,479.7000000476837]","./assets/img/canyon/memory/15.jpg","[""ArrowDown"",""ArrowRight""]","value training","canyon","17","{""ArrowUp,ArrowLeft"":26,""ArrowUp,ArrowRight"":10,""ArrowDown,ArrowLeft"":5,""ArrowDown,ArrowRight"":17}","false","ArrowDown,ArrowRight","false","","","revaluation","1","36","","",""
"html-keyboard-response","155","851134","0.0-4.0-2.0-1.18","spark_pilot_2","7791","8","22","Female","","","","","","","null","<div style=""font-size:60px;"">+</div>","null","fixation","","","","","","","","","","","37","","",""
"revaluation","156","857156","0.0-4.0-2.0-0.19","spark_pilot_2","7791","8","22","Female","","false","","","","","[1024.800000011921,484.7000000476837]","./assets/img/canyon/memory/41.jpg","[""ArrowDown"",""ArrowRight""]","value training","canyon","17","{""ArrowUp,ArrowLeft"":26,""ArrowUp,ArrowRight"":10,""ArrowDown,ArrowLeft"":5,""ArrowDown,ArrowRight"":17}","false","ArrowDown,ArrowRight","false","","","revaluation","1","38","","",""
"html-keyboard-response","157","857659","0.0-4.0-2.0-1.19","spark_pilot_2","7791","8","22","Female","","","","","","","null","<div style=""font-size:60px;"">+</div>","null","fixation","","","","","","","","","","","39","","",""
"revaluation","158","863668","0.0-4.0-2.0-0.20","spark_pilot_2","7791","8","22","Female","","false","","","","","[1150.5,588.3000000119209]","./assets/img/canyon/memory/4.jpg","[""ArrowDown"",""ArrowRight""]","value training","canyon","17","{""ArrowUp,ArrowLeft"":26,""ArrowUp,ArrowRight"":10,""ArrowDown,ArrowLeft"":5,""ArrowDown,ArrowRight"":17}","false","ArrowDown,ArrowRight","false","","","revaluation","1","40","","",""
"html-keyboard-response","159","864169","0.0-4.0-2.0-1.20","spark_pilot_2","7791","8","22","Female","","","","","","","null","<div style=""font-size:60px;"">+</div>","null","fixation","","","","","","","","","","","41","","",""
"revaluation","160","870179","0.0-4.0-2.0-0.21","spark_pilot_2","7791","8","22","Female","","false","","","","","[563.6000000238419,557.7999999523163]","./assets/img/canyon/memory/1.jpg","[""ArrowDown"",""ArrowRight""]","value training","canyon","17","{""ArrowUp,ArrowLeft"":26,""ArrowUp,ArrowRight"":10,""ArrowDown,ArrowLeft"":5,""ArrowDown,ArrowRight"":17}","false","ArrowDown,ArrowRight","false","","","revaluation","1","42","","",""
"html-keyboard-response","161","870682","0.0-4.0-2.0-1.21","spark_pilot_2","7791","8","22","Female","","","","","","","null","<div style=""font-size:60px;"">+</div>","null","fixation","","","","","","","","","","","43","","",""
"revaluation","162","876690","0.0-4.0-2.0-0.22","spark_pilot_2","7791","8","22","Female","","false","","","","","[1049.199999988079,921.3999999761581]","./assets/img/canyon/memory/16.jpg","[""ArrowDown"",""ArrowLeft""]","value training","canyon","5","{""ArrowUp,ArrowLeft"":26,""ArrowUp,ArrowRight"":10,""ArrowDown,ArrowLeft"":5,""ArrowDown,ArrowRight"":17}","false","ArrowDown,ArrowLeft","false","","","revaluation","1","44","","",""
"html-keyboard-response","163","877193","0.0-4.0-2.0-1.22","spark_pilot_2","7791","8","22","Female","","","","","","","null","<div style=""font-size:60px;"">+</div>","null","fixation","","","","","","","","","","","45","","",""
"revaluation","164","881201","0.0-4.0-2.0-0.23","spark_pilot_2","7791","8","22","Female","","false","","","","","[934.3000000119209]","./assets/img/canyon/catch/0.jpg","[""spaceBar""]","value training","canyon","0","{""ArrowUp,ArrowLeft"":26,""ArrowUp,ArrowRight"":10,""ArrowDown,ArrowLeft"":5,""ArrowDown,ArrowRight"":17}","true","spaceBar","true","","","revaluation","1","46","","",""
"html-keyboard-response","165","881710","0.0-4.0-2.0-1.23","spark_pilot_2","7791","8","22","Female","","","","","","","null","<div style=""font-size:60px;"">+</div>","null","fixation","","","","","","","","","","","47","","",""
"revaluation","166","887733","0.0-4.0-2.0-0.24","spark_pilot_2","7791","8","22","Female","","false","","","","","[728.3000000119209,536.5999999642372]","./assets/img/canyon/memory/0.jpg","[""ArrowDown"",""ArrowRight""]","value training","canyon","17","{""ArrowUp,ArrowLeft"":26,""ArrowUp,ArrowRight"":10,""ArrowDown,ArrowLeft"":5,""ArrowDown,ArrowRight"":17}","false","ArrowDown,ArrowRight","false","","","revaluation","1","48","","",""
"html-keyboard-response","167","888237","0.0-4.0-2.0-1.24","spark_pilot_2","7791","8","22","Female","","","","","","","null","<div style=""font-size:60px;"">+</div>","null","fixation","","","","","","","","","","","49","","",""
"revaluation","168","894255","0.0-4.0-2.0-0.25","spark_pilot_2","7791","8","22","Female","","false","","","","","[924.3999999761581,656.9000000357628]","./assets/img/canyon/memory/2.jpg","[""ArrowDown"",""ArrowRight""]","value training","canyon","17","{""ArrowUp,ArrowLeft"":26,""ArrowUp,ArrowRight"":10,""ArrowDown,ArrowLeft"":5,""ArrowDown,ArrowRight"":17}","false","ArrowDown,ArrowRight","false","","","revaluation","1","50","","",""
"html-keyboard-response","169","894760","0.0-4.0-2.0-1.25","spark_pilot_2","7791","8","22","Female","","","","","","","null","<div style=""font-size:60px;"">+</div>","null","fixation","","","","","","","","","","","51","","",""
"revaluation","170","898783","0.0-4.0-2.0-0.26","spark_pilot_2","7791","8","22","Female","","false","","","","","[883.9000000357628]","./assets/img/canyon/catch/1.jpg","[""spaceBar""]","value training","canyon","0","{""ArrowUp,ArrowLeft"":26,""ArrowUp,ArrowRight"":10,""ArrowDown,ArrowLeft"":5,""ArrowDown,ArrowRight"":17}","true","spaceBar","true","","","revaluation","1","52","","",""
"html-keyboard-response","171","899286","0.0-4.0-2.0-1.26","spark_pilot_2","7791","8","22","Female","","","","","","","null","<div style=""font-size:60px;"">+</div>","null","fixation","","","","","","","","","","","53","","",""
"revaluation","172","905330","0.0-4.0-2.0-0.27","spark_pilot_2","7791","8","22","Female","","false","","","","","[792.6999999880791,446.10000002384186]","./assets/img/canyon/memory/40.jpg","[""ArrowDown"",""ArrowRight""]","value training","canyon","17","{""ArrowUp,ArrowLeft"":26,""ArrowUp,ArrowRight"":10,""ArrowDown,ArrowLeft"":5,""ArrowDown,ArrowRight"":17}","false","ArrowDown,ArrowRight","false","","","revaluation","1","54","","",""
"html-keyboard-response","173","905835","0.0-4.0-2.0-1.27","spark_pilot_2","7791","8","22","Female","","","","","","","null","<div style=""font-size:60px;"">+</div>","null","fixation","","","","","","","","","","","55","","",""
"revaluation","174","911853","0.0-4.0-2.0-0.28","spark_pilot_2","7791","8","22","Female","","false","","","","","[918.4000000357628,553.9000000357628]","./assets/img/canyon/memory/39.jpg","[""ArrowDown"",""ArrowRight""]","value training","canyon","17","{""ArrowUp,ArrowLeft"":26,""ArrowUp,ArrowRight"":10,""ArrowDown,ArrowLeft"":5,""ArrowDown,ArrowRight"":17}","false","ArrowDown,ArrowRight","false","","","revaluation","1","56","","",""
"html-keyboard-response","175","912358","0.0-4.0-2.0-1.28","spark_pilot_2","7791","8","22","Female","","","","","","","null","<div style=""font-size:60px;"">+</div>","null","fixation","","","","","","","","","","","57","","",""
"revaluation","176","918367","0.0-4.0-2.0-0.29","spark_pilot_2","7791","8","22","Female","","false","","","","","[767.3000000119209,713.4000000357628]","./assets/img/canyon/memory/7.jpg","[""ArrowDown"",""ArrowRight""]","value training","canyon","17","{""ArrowUp,ArrowLeft"":26,""ArrowUp,ArrowRight"":10,""ArrowDown,ArrowLeft"":5,""ArrowDown,ArrowRight"":17}","false","ArrowDown,ArrowRight","false","","","revaluation","1","58","","",""
"html-keyboard-response","177","918870","0.0-4.0-2.0-1.29","spark_pilot_2","7791","8","22","Female","","","","","","","null","<div style=""font-size:60px;"">+</div>","null","fixation","","","","","","","","","","","59","","",""
"revaluation","178","924878","0.0-4.0-2.0-0.30","spark_pilot_2","7791","8","22","Female","","false","","","","","[554.5,505.2999999523163]","./assets/img/canyon/memory/31.jpg","[""ArrowDown"",""ArrowRight""]","value training","canyon","17","{""ArrowUp,ArrowLeft"":26,""ArrowUp,ArrowRight"":10,""ArrowDown,ArrowLeft"":5,""ArrowDown,ArrowRight"":17}","false","ArrowDown,ArrowRight","false","","","revaluation","1","60","","",""
"html-keyboard-response","179","925381","0.0-4.0-2.0-1.30","spark_pilot_2","7791","8","22","Female","","","","","","","null","<div style=""font-size:60px;"">+</div>","null","fixation","","","","","","","","","","","61","","",""
"revaluation","180","931390","0.0-4.0-2.0-0.31","spark_pilot_2","7791","8","22","Female","","false","","","","","[667.9000000357628,476.5]","./assets/img/canyon/memory/16.jpg","[""ArrowDown"",""ArrowRight""]","value training","canyon","17","{""ArrowUp,ArrowLeft"":26,""ArrowUp,ArrowRight"":10,""ArrowDown,ArrowLeft"":5,""ArrowDown,ArrowRight"":17}","false","ArrowDown,ArrowRight","false","","","revaluation","1","62","","",""
"html-keyboard-response","181","931892","0.0-4.0-2.0-1.31","spark_pilot_2","7791","8","22","Female","","","","","","","null","<div style=""font-size:60px;"">+</div>","null","fixation","","","","","","","","","","","63","","",""
"revaluation","182","937903","0.0-4.0-2.0-0.32","spark_pilot_2","7791","8","22","Female","","false","","","","","[579.3000000119209,497.19999998807907]","./assets/img/canyon/memory/28.jpg","[""ArrowDown"",""ArrowRight""]","value training","canyon","17","{""ArrowUp,ArrowLeft"":26,""ArrowUp,ArrowRight"":10,""ArrowDown,ArrowLeft"":5,""ArrowDown,ArrowRight"":17}","false","ArrowDown,ArrowRight","false","","","revaluation","1","64","","",""
"html-keyboard-response","183","938406","0.0-4.0-2.0-1.32","spark_pilot_2","7791","8","22","Female","","","","","","","null","<div style=""font-size:60px;"">+</div>","null","fixation","","","","","","","","","","","65","","",""
"revaluation","184","944420","0.0-4.0-2.0-0.33","spark_pilot_2","7791","8","22","Female","","false","","","","","[678.8999999761581,502.30000001192093]","./assets/img/canyon/memory/15.jpg","[""ArrowDown"",""ArrowRight""]","value training","canyon","17","{""ArrowUp,ArrowLeft"":26,""ArrowUp,ArrowRight"":10,""ArrowDown,ArrowLeft"":5,""ArrowDown,ArrowRight"":17}","false","ArrowDown,ArrowRight","false","","","revaluation","1","66","","",""
"html-keyboard-response","185","944924","0.0-4.0-2.0-1.33","spark_pilot_2","7791","8","22","Female","","","","","","","null","<div style=""font-size:60px;"">+</div>","null","fixation","","","","","","","","","","","67","","",""
"revaluation","186","950939","0.0-4.0-2.0-0.34","spark_pilot_2","7791","8","22","Female","","false","","","","","[878.5,633.2000000476837]","./assets/img/canyon/memory/19.jpg","[""ArrowDown"",""ArrowRight""]","value training","canyon","17","{""ArrowUp,ArrowLeft"":26,""ArrowUp,ArrowRight"":10,""ArrowDown,ArrowLeft"":5,""ArrowDown,ArrowRight"":17}","false","ArrowDown,ArrowRight","false","","","revaluation","1","68","","",""
"html-keyboard-response","187","951444","0.0-4.0-2.0-1.34","spark_pilot_2","7791","8","22","Female","","","","","","","null","<div style=""font-size:60px;"">+</div>","null","fixation","","","","","","","","","","","69","","",""
"revaluation","188","957462","0.0-4.0-2.0-0.35","spark_pilot_2","7791","8","22","Female","","false","","","","","[1202.0999999642372,597]","./assets/img/canyon/memory/38.jpg","[""ArrowDown"",""ArrowRight""]","value training","canyon","17","{""ArrowUp,ArrowLeft"":26,""ArrowUp,ArrowRight"":10,""ArrowDown,ArrowLeft"":5,""ArrowDown,ArrowRight"":17}","false","ArrowDown,ArrowRight","false","","","revaluation","1","70","","",""
"html-keyboard-response","189","957967","0.0-4.0-2.0-1.35","spark_pilot_2","7791","8","22","Female","","","","","","","null","<div style=""font-size:60px;"">+</div>","null","fixation","","","","","","","","","","","71","","",""
"revaluation","190","963983","0.0-4.0-2.0-0.36","spark_pilot_2","7791","8","22","Female","","false","","","","","[822.7999999523163,1007.9000000357628]","./assets/img/canyon/memory/19.jpg","[""ArrowDown"",""ArrowLeft""]","value training","canyon","5","{""ArrowUp,ArrowLeft"":26,""ArrowUp,ArrowRight"":10,""ArrowDown,ArrowLeft"":5,""ArrowDown,ArrowRight"":17}","false","ArrowDown,ArrowLeft","false","","","revaluation","1","72","","",""
"html-keyboard-response","191","964487","0.0-4.0-2.0-1.36","spark_pilot_2","7791","8","22","Female","","","","","","","null","<div style=""font-size:60px;"">+</div>","null","fixation","","","","","","","","","","","73","","",""
"revaluation","192","970502","0.0-4.0-2.0-0.37","spark_pilot_2","7791","8","22","Female","","false","","","","","[1202.7000000476837,615.2999999523163]","./assets/img/canyon/memory/2.jpg","[""ArrowDown"",""ArrowRight""]","value training","canyon","17","{""ArrowUp,ArrowLeft"":26,""ArrowUp,ArrowRight"":10,""ArrowDown,ArrowLeft"":5,""ArrowDown,ArrowRight"":17}","false","ArrowDown,ArrowRight","false","","","revaluation","1","74","","",""
"html-keyboard-response","193","971004","0.0-4.0-2.0-1.37","spark_pilot_2","7791","8","22","Female","","","","","","","null","<div style=""font-size:60px;"">+</div>","null","fixation","","","","","","","","","","","75","","",""
"revaluation","194","975026","0.0-4.0-2.0-0.38","spark_pilot_2","7791","8","22","Female","","false","","","","","[590.1000000238419]","./assets/img/canyon/catch/2.jpg","[""ArrowDown""]","value training","canyon","-10","{""ArrowUp,ArrowLeft"":26,""ArrowUp,ArrowRight"":10,""ArrowDown,ArrowLeft"":5,""ArrowDown,ArrowRight"":17}","false","ArrowDown","true","","","revaluation","1","76","","",""
"html-keyboard-response","195","975530","0.0-4.0-2.0-1.38","spark_pilot_2","7791","8","22","Female","","","","","","","null","<div style=""font-size:60px;"">+</div>","null","fixation","","","","","","","","","","","77","","",""
"revaluation","196","981540","0.0-4.0-2.0-0.39","spark_pilot_2","7791","8","22","Female","","false","","","","","[811,517.1999999880791]","./assets/img/canyon/memory/41.jpg","[""ArrowDown"",""ArrowRight""]","value training","canyon","17","{""ArrowUp,ArrowLeft"":26,""ArrowUp,ArrowRight"":10,""ArrowDown,ArrowLeft"":5,""ArrowDown,ArrowRight"":17}","false","ArrowDown,ArrowRight","false","","","revaluation","1","78","","",""
"html-keyboard-response","197","982043","0.0-4.0-2.0-1.39","spark_pilot_2","7791","8","22","Female","","","","","","","null","<div style=""font-size:60px;"">+</div>","null","fixation","","","","","","","","","","","79","","",""
"revaluation","198","988050","0.0-4.0-2.0-0.40","spark_pilot_2","7791","8","22","Female","","false","","","","","[672.3999999761581,552.3000000119209]","./assets/img/canyon/memory/13.jpg","[""ArrowDown"",""ArrowRight""]","value training","canyon","17","{""ArrowUp,ArrowLeft"":26,""ArrowUp,ArrowRight"":10,""ArrowDown,ArrowLeft"":5,""ArrowDown,ArrowRight"":17}","false","ArrowDown,ArrowRight","false","","","revaluation","1","80","","",""
"html-keyboard-response","199","988553","0.0-4.0-2.0-1.40","spark_pilot_2","7791","8","22","Female","","","","","","","null","<div style=""font-size:60px;"">+</div>","null","fixation","","","","","","","","","","","81","","",""
"revaluation","200","994562","0.0-4.0-2.0-0.41","spark_pilot_2","7791","8","22","Female","","false","","","","","[694.6000000238419,464.69999998807907]","./assets/img/canyon/memory/31.jpg","[""ArrowDown"",""ArrowRight""]","value training","canyon","17","{""ArrowUp,ArrowLeft"":26,""ArrowUp,ArrowRight"":10,""ArrowDown,ArrowLeft"":5,""ArrowDown,ArrowRight"":17}","false","ArrowDown,ArrowRight","false","","","revaluation","1","82","","",""
"html-keyboard-response","201","995063","0.0-4.0-2.0-1.41","spark_pilot_2","7791","8","22","Female","","","","","","","null","<div style=""font-size:60px;"">+</div>","null","fixation","","","","","","","","","","","83","","",""
"revaluation","202","999070","0.0-4.0-2.0-0.42","spark_pilot_2","7791","8","22","Female","","false","","","","","[604.5]","./assets/img/canyon/catch/3.jpg","[""spaceBar""]","value training","canyon","0","{""ArrowUp,ArrowLeft"":26,""ArrowUp,ArrowRight"":10,""ArrowDown,ArrowLeft"":5,""ArrowDown,ArrowRight"":17}","true","spaceBar","true","","","revaluation","1","84","","",""
"html-keyboard-response","203","999572","0.0-4.0-2.0-1.42","spark_pilot_2","7791","8","22","Female","","","","","","","null","<div style=""font-size:60px;"">+</div>","null","fixation","","","","","","","","","","","85","","",""
"revaluation","204","1005584","0.0-4.0-2.0-0.43","spark_pilot_2","7791","8","22","Female","","false","","","","","[1478.2999999523163,770]","./assets/img/canyon/memory/36.jpg","[""ArrowDown"",""ArrowRight""]","value training","canyon","17","{""ArrowUp,ArrowLeft"":26,""ArrowUp,ArrowRight"":10,""ArrowDown,ArrowLeft"":5,""ArrowDown,ArrowRight"":17}","false","ArrowDown,ArrowRight","false","","","revaluation","1","86","","",""
"html-keyboard-response","205","1006104","0.0-4.0-2.0-1.43","spark_pilot_2","7791","8","22","Female","","","","","","","null","<div style=""font-size:60px;"">+</div>","null","fixation","","","","","","","","","","","87","","",""
"revaluation","206","1012118","0.0-4.0-2.0-0.44","spark_pilot_2","7791","8","22","Female","","false","","","","","[627.5999999642372,487.60000002384186]","./assets/img/canyon/memory/38.jpg","[""ArrowDown"",""ArrowRight""]","value training","canyon","17","{""ArrowUp,ArrowLeft"":26,""ArrowUp,ArrowRight"":10,""ArrowDown,ArrowLeft"":5,""ArrowDown,ArrowRight"":17}","false","ArrowDown,ArrowRight","false","","","revaluation","1","88","","",""
"html-keyboard-response","207","1012625","0.0-4.0-2.0-1.44","spark_pilot_2","7791","8","22","Female","","","","","","","null","<div style=""font-size:60px;"">+</div>","null","fixation","","","","","","","","","","","89","","",""
"revaluation","208","1016649","0.0-4.0-2.0-0.45","spark_pilot_2","7791","8","22","Female","","false","","","","","[572.8000000119209]","./assets/img/canyon/catch/4.jpg","[""spaceBar""]","value training","canyon","0","{""ArrowUp,ArrowLeft"":26,""ArrowUp,ArrowRight"":10,""ArrowDown,ArrowLeft"":5,""ArrowDown,ArrowRight"":17}","true","spaceBar","true","","","revaluation","1","90","","",""
"html-keyboard-response","209","1017154","0.0-4.0-2.0-1.45","spark_pilot_2","7791","8","22","Female","","","","","","","null","<div style=""font-size:60px;"">+</div>","null","fixation","","","","","","","","","","","91","","",""
"revaluation","210","1023173","0.0-4.0-2.0-0.46","spark_pilot_2","7791","8","22","Female","","false","","","","","[869.1000000238419,1139.0999999642372]","./assets/img/canyon/memory/39.jpg","[""ArrowDown"",""ArrowRight""]","value training","canyon","17","{""ArrowUp,ArrowLeft"":26,""ArrowUp,ArrowRight"":10,""ArrowDown,ArrowLeft"":5,""ArrowDown,ArrowRight"":17}","false","ArrowDown,ArrowRight","false","","","revaluation","1","92","","",""
"html-keyboard-response","211","1023676","0.0-4.0-2.0-1.46","spark_pilot_2","7791","8","22","Female","","","","","","","null","<div style=""font-size:60px;"">+</div>","null","fixation","","","","","","","","","","","93","","",""
"revaluation","212","1029691","0.0-4.0-2.0-0.47","spark_pilot_2","7791","8","22","Female","","false","","","","","[628.9000000357628,445.89999997615814]","./assets/img/canyon/memory/13.jpg","[""ArrowDown"",""ArrowRight""]","value training","canyon","17","{""ArrowUp,ArrowLeft"":26,""ArrowUp,ArrowRight"":10,""ArrowDown,ArrowLeft"":5,""ArrowDown,ArrowRight"":17}","false","ArrowDown,ArrowRight","false","","","revaluation","1","94","","",""
"html-keyboard-response","213","1030195","0.0-4.0-2.0-1.47","spark_pilot_2","7791","8","22","Female","","","","","","","null","<div style=""font-size:60px;"">+</div>","null","fixation","","","","","","","","","","","95","","",""
"revaluation","214","1036215","0.0-4.0-2.0-0.48","spark_pilot_2","7791","8","22","Female","","false","","","","","[867.9000000357628,490.5999999642372]","./assets/img/canyon/memory/36.jpg","[""ArrowDown"",""ArrowRight""]","value training","canyon","17","{""ArrowUp,ArrowLeft"":26,""ArrowUp,ArrowRight"":10,""ArrowDown,ArrowLeft"":5,""ArrowDown,ArrowRight"":17}","false","ArrowDown,ArrowRight","false","","","revaluation","1","96","","",""
"html-keyboard-response","215","1036717","0.0-4.0-2.0-1.48","spark_pilot_2","7791","8","22","Female","","","","","","","null","<div style=""font-size:60px;"">+</div>","null","fixation","","","","","","","","","","","97","","",""
"revaluation","216","1042726","0.0-4.0-2.0-0.49","spark_pilot_2","7791","8","22","Female","","false","","","","","[584.4000000357628,575.8000000119209]","./assets/img/canyon/memory/9.jpg","[""ArrowDown"",""ArrowRight""]","value training","canyon","17","{""ArrowUp,ArrowLeft"":26,""ArrowUp,ArrowRight"":10,""ArrowDown,ArrowLeft"":5,""ArrowDown,ArrowRight"":17}","false","ArrowDown,ArrowRight","false","","","revaluation","1","98","","",""
"html-keyboard-response","217","1043229","0.0-4.0-2.0-1.49","spark_pilot_2","7791","8","22","Female","","","","","","","null","<div style=""font-size:60px;"">+</div>","null","fixation","","","","","","","","","","","99","","",""
"learning-instructions","218","1059160","0.0-4.0-3.0-0.0","spark_pilot_2","7791","8","22","Female","","","","","","","2633.600000023842","<p> Now, you will travel with a friend who will choose whether you go up or down first. </p>
            <p> On these turns, you will just see the animal that they found. You will still get to choose which chest to search for treasure.</p>","","instructions","","","","","","","","","","","","","",""
"revaluation","219","1063179","0.0-4.0-4.0-0.0","spark_pilot_2","7791","8","22","Female","","false","","","","","[1528.5]","./assets/img/canyon/animals/lion.jpg","[""ArrowRight""]","revaluation","canyon","11","{""ArrowUp,ArrowLeft"":2,""ArrowUp,ArrowRight"":11,""ArrowDown,ArrowLeft"":8,""ArrowDown,ArrowRight"":27}","true","ArrowUp,ArrowRight","","","","revaluation","1","0","","",""
"html-keyboard-response","220","1063712","0.0-4.0-4.0-1.0","spark_pilot_2","7791","8","22","Female","","","","","","","null","<div style=""font-size:60px;"">+</div>","null","fixation","","","","","","","","","","","1","","",""
"revaluation","221","1067734","0.0-4.0-4.0-0.1","spark_pilot_2","7791","8","22","Female","","false","","","","","[1124.699999988079]","./assets/img/canyon/animals/giraffe.jpg","[""ArrowRight""]","revaluation","canyon","27","{""ArrowUp,ArrowLeft"":2,""ArrowUp,ArrowRight"":11,""ArrowDown,ArrowLeft"":8,""ArrowDown,ArrowRight"":27}","true","ArrowDown,ArrowRight","","","","revaluation","1","2","","",""
"html-keyboard-response","222","1068239","0.0-4.0-4.0-1.1","spark_pilot_2","7791","8","22","Female","","","","","","","null","<div style=""font-size:60px;"">+</div>","null","fixation","","","","","","","","","","","3","","",""
"revaluation","223","1072259","0.0-4.0-4.0-0.2","spark_pilot_2","7791","8","22","Female","","false","","","","","[1075.5]","./assets/img/canyon/animals/lion.jpg","[""ArrowLeft""]","revaluation","canyon","2","{""ArrowUp,ArrowLeft"":2,""ArrowUp,ArrowRight"":11,""ArrowDown,ArrowLeft"":8,""ArrowDown,ArrowRight"":27}","false","ArrowUp,ArrowLeft","","","","revaluation","1","4","","",""
"html-keyboard-response","224","1072771","0.0-4.0-4.0-1.2","spark_pilot_2","7791","8","22","Female","","","","","","","null","<div style=""font-size:60px;"">+</div>","null","fixation","","","","","","","","","","","5","","",""
"revaluation","225","1076799","0.0-4.0-4.0-0.3","spark_pilot_2","7791","8","22","Female","","false","","","","","[542.6999999880791]","./assets/img/canyon/animals/giraffe.jpg","[""ArrowRight""]","revaluation","canyon","27","{""ArrowUp,ArrowLeft"":2,""ArrowUp,ArrowRight"":11,""ArrowDown,ArrowLeft"":8,""ArrowDown,ArrowRight"":27}","true","ArrowDown,ArrowRight","","","","revaluation","1","6","","",""
"html-keyboard-response","226","1077303","0.0-4.0-4.0-1.3","spark_pilot_2","7791","8","22","Female","","","","","","","null","<div style=""font-size:60px;"">+</div>","null","fixation","","","","","","","","","","","7","","",""
"revaluation","227","1081324","0.0-4.0-4.0-0.4","spark_pilot_2","7791","8","22","Female","","false","","","","","[461.5999999642372]","./assets/img/canyon/animals/lion.jpg","[""ArrowRight""]","revaluation","canyon","11","{""ArrowUp,ArrowLeft"":2,""ArrowUp,ArrowRight"":11,""ArrowDown,ArrowLeft"":8,""ArrowDown,ArrowRight"":27}","true","ArrowUp,ArrowRight","","","","revaluation","1","8","","",""
"html-keyboard-response","228","1081828","0.0-4.0-4.0-1.4","spark_pilot_2","7791","8","22","Female","","","","","","","null","<div style=""font-size:60px;"">+</div>","null","fixation","","","","","","","","","","","9","","",""
"revaluation","229","1085841","0.0-4.0-4.0-0.5","spark_pilot_2","7791","8","22","Female","","false","","","","","[460.7000000476837]","./assets/img/canyon/animals/giraffe.jpg","[""ArrowRight""]","revaluation","canyon","27","{""ArrowUp,ArrowLeft"":2,""ArrowUp,ArrowRight"":11,""ArrowDown,ArrowLeft"":8,""ArrowDown,ArrowRight"":27}","true","ArrowDown,ArrowRight","","","","revaluation","1","10","","",""
"html-keyboard-response","230","1086353","0.0-4.0-4.0-1.5","spark_pilot_2","7791","8","22","Female","","","","","","","null","<div style=""font-size:60px;"">+</div>","null","fixation","","","","","","","","","","","11","","",""
"revaluation","231","1090361","0.0-4.0-4.0-0.6","spark_pilot_2","7791","8","22","Female","","false","","","","","[562.1000000238419]","./assets/img/canyon/animals/lion.jpg","[""ArrowRight""]","revaluation","canyon","11","{""ArrowUp,ArrowLeft"":2,""ArrowUp,ArrowRight"":11,""ArrowDown,ArrowLeft"":8,""ArrowDown,ArrowRight"":27}","true","ArrowUp,ArrowRight","","","","revaluation","1","12","","",""
"html-keyboard-response","232","1090863","0.0-4.0-4.0-1.6","spark_pilot_2","7791","8","22","Female","","","","","","","null","<div style=""font-size:60px;"">+</div>","null","fixation","","","","","","","","","","","13","","",""
"revaluation","233","1094875","0.0-4.0-4.0-0.7","spark_pilot_2","7791","8","22","Female","","false","","","","","[605]","./assets/img/canyon/animals/lion.jpg","[""ArrowRight""]","revaluation","canyon","11","{""ArrowUp,ArrowLeft"":2,""ArrowUp,ArrowRight"":11,""ArrowDown,ArrowLeft"":8,""ArrowDown,ArrowRight"":27}","true","ArrowUp,ArrowRight","","","","revaluation","1","14","","",""
"html-keyboard-response","234","1095377","0.0-4.0-4.0-1.7","spark_pilot_2","7791","8","22","Female","","","","","","","null","<div style=""font-size:60px;"">+</div>","null","fixation","","","","","","","","","","","15","","",""
"revaluation","235","1099385","0.0-4.0-4.0-0.8","spark_pilot_2","7791","8","22","Female","","false","","","","","[573.1999999880791]","./assets/img/canyon/animals/giraffe.jpg","[""ArrowRight""]","revaluation","canyon","27","{""ArrowUp,ArrowLeft"":2,""ArrowUp,ArrowRight"":11,""ArrowDown,ArrowLeft"":8,""ArrowDown,ArrowRight"":27}","true","ArrowDown,ArrowRight","","","","revaluation","1","16","","",""
"html-keyboard-response","236","1099887","0.0-4.0-4.0-1.8","spark_pilot_2","7791","8","22","Female","","","","","","","null","<div style=""font-size:60px;"">+</div>","null","fixation","","","","","","","","","","","17","","",""
"revaluation","237","1103893","0.0-4.0-4.0-0.9","spark_pilot_2","7791","8","22","Female","","false","","","","","[686.5]","./assets/img/canyon/animals/giraffe.jpg","[""ArrowRight""]","revaluation","canyon","27","{""ArrowUp,ArrowLeft"":2,""ArrowUp,ArrowRight"":11,""ArrowDown,ArrowLeft"":8,""ArrowDown,ArrowRight"":27}","true","ArrowDown,ArrowRight","","","","revaluation","1","18","","",""
"html-keyboard-response","238","1104395","0.0-4.0-4.0-1.9","spark_pilot_2","7791","8","22","Female","","","","","","","null","<div style=""font-size:60px;"">+</div>","null","fixation","","","","","","","","","","","19","","",""
"revaluation","239","1108404","0.0-4.0-4.0-0.10","spark_pilot_2","7791","8","22","Female","","false","","","","","[429.2000000476837]","./assets/img/canyon/animals/lion.jpg","[""ArrowRight""]","revaluation","canyon","11","{""ArrowUp,ArrowLeft"":2,""ArrowUp,ArrowRight"":11,""ArrowDown,ArrowLeft"":8,""ArrowDown,ArrowRight"":27}","true","ArrowUp,ArrowRight","","","","revaluation","1","20","","",""
"html-keyboard-response","240","1108907","0.0-4.0-4.0-1.10","spark_pilot_2","7791","8","22","Female","","","","","","","null","<div style=""font-size:60px;"">+</div>","null","fixation","","","","","","","","","","","21","","",""
"revaluation","241","1112915","0.0-4.0-4.0-0.11","spark_pilot_2","7791","8","22","Female","","false","","","","","[566.5]","./assets/img/canyon/animals/lion.jpg","[""ArrowRight""]","revaluation","canyon","11","{""ArrowUp,ArrowLeft"":2,""ArrowUp,ArrowRight"":11,""ArrowDown,ArrowLeft"":8,""ArrowDown,ArrowRight"":27}","true","ArrowUp,ArrowRight","","","","revaluation","1","22","","",""
"html-keyboard-response","242","1113418","0.0-4.0-4.0-1.11","spark_pilot_2","7791","8","22","Female","","","","","","","null","<div style=""font-size:60px;"">+</div>","null","fixation","","","","","","","","","","","23","","",""
"revaluation","243","1117424","0.0-4.0-4.0-0.12","spark_pilot_2","7791","8","22","Female","","false","","","","","[449.2999999523163]","./assets/img/canyon/animals/giraffe.jpg","[""ArrowRight""]","revaluation","canyon","27","{""ArrowUp,ArrowLeft"":2,""ArrowUp,ArrowRight"":11,""ArrowDown,ArrowLeft"":8,""ArrowDown,ArrowRight"":27}","true","ArrowDown,ArrowRight","","","","revaluation","1","24","","",""
"html-keyboard-response","244","1117927","0.0-4.0-4.0-1.12","spark_pilot_2","7791","8","22","Female","","","","","","","null","<div style=""font-size:60px;"">+</div>","null","fixation","","","","","","","","","","","25","","",""
"revaluation","245","1121935","0.0-4.0-4.0-0.13","spark_pilot_2","7791","8","22","Female","","false","","","","","[525]","./assets/img/canyon/animals/lion.jpg","[""ArrowLeft""]","revaluation","canyon","2","{""ArrowUp,ArrowLeft"":2,""ArrowUp,ArrowRight"":11,""ArrowDown,ArrowLeft"":8,""ArrowDown,ArrowRight"":27}","false","ArrowUp,ArrowLeft","","","","revaluation","1","26","","",""
"html-keyboard-response","246","1122438","0.0-4.0-4.0-1.13","spark_pilot_2","7791","8","22","Female","","","","","","","null","<div style=""font-size:60px;"">+</div>","null","fixation","","","","","","","","","","","27","","",""
"revaluation","247","1126448","0.0-4.0-4.0-0.14","spark_pilot_2","7791","8","22","Female","","false","","","","","[566.8000000119209]","./assets/img/canyon/animals/giraffe.jpg","[""ArrowRight""]","revaluation","canyon","27","{""ArrowUp,ArrowLeft"":2,""ArrowUp,ArrowRight"":11,""ArrowDown,ArrowLeft"":8,""ArrowDown,ArrowRight"":27}","true","ArrowDown,ArrowRight","","","","revaluation","1","28","","",""
"html-keyboard-response","248","1126952","0.0-4.0-4.0-1.14","spark_pilot_2","7791","8","22","Female","","","","","","","null","<div style=""font-size:60px;"">+</div>","null","fixation","","","","","","","","","","","29","","",""
"revaluation","249","1130966","0.0-4.0-4.0-0.15","spark_pilot_2","7791","8","22","Female","","false","","","","","[501.19999998807907]","./assets/img/canyon/animals/lion.jpg","[""ArrowRight""]","revaluation","canyon","11","{""ArrowUp,ArrowLeft"":2,""ArrowUp,ArrowRight"":11,""ArrowDown,ArrowLeft"":8,""ArrowDown,ArrowRight"":27}","true","ArrowUp,ArrowRight","","","","revaluation","1","30","","",""
"html-keyboard-response","250","1131470","0.0-4.0-4.0-1.15","spark_pilot_2","7791","8","22","Female","","","","","","","null","<div style=""font-size:60px;"">+</div>","null","fixation","","","","","","","","","","","31","","",""
"revaluation","251","1135498","0.0-4.0-4.0-0.16","spark_pilot_2","7791","8","22","Female","","false","","","","","[664.3999999761581]","./assets/img/canyon/animals/giraffe.jpg","[""ArrowRight""]","revaluation","canyon","27","{""ArrowUp,ArrowLeft"":2,""ArrowUp,ArrowRight"":11,""ArrowDown,ArrowLeft"":8,""ArrowDown,ArrowRight"":27}","true","ArrowDown,ArrowRight","","","","revaluation","1","32","","",""
"html-keyboard-response","252","1136003","0.0-4.0-4.0-1.16","spark_pilot_2","7791","8","22","Female","","","","","","","null","<div style=""font-size:60px;"">+</div>","null","fixation","","","","","","","","","","","33","","",""
"revaluation","253","1140020","0.0-4.0-4.0-0.17","spark_pilot_2","7791","8","22","Female","","false","","","","","[526.8000000119209]","./assets/img/canyon/animals/giraffe.jpg","[""ArrowRight""]","revaluation","canyon","27","{""ArrowUp,ArrowLeft"":2,""ArrowUp,ArrowRight"":11,""ArrowDown,ArrowLeft"":8,""ArrowDown,ArrowRight"":27}","true","ArrowDown,ArrowRight","","","","revaluation","1","34","","",""
"html-keyboard-response","254","1140523","0.0-4.0-4.0-1.17","spark_pilot_2","7791","8","22","Female","","","","","","","null","<div style=""font-size:60px;"">+</div>","null","fixation","","","","","","","","","","","35","","",""
"learning-instructions","255","1154416","0.0-4.0-5.0-0.0","spark_pilot_2","7791","8","22","Female","","","","","","","1332.1000000238419","<p> Time to play the dot game! </p>
            <p> For one minute, click the red dots on the following screen as they appear. </p>
            <p><b> Don't look away, as you will earn bonus for clicking dots</b>. </p>","","instructions","","","","","","","","","","","","","",""
"revaluation","256","1214419","0.0-4.0-6.0-0.0","spark_pilot_2","7791","8","22","Female","","","","","","","[136,87,91,103,170,102,92]","","","rest","","70","","","","","0","60000","","","","","",""
"learning-instructions","257","1223039","0.0-4.0-7.0-0.0","spark_pilot_2","7791","8","22","Female","","","","","","","2094.899999976158","<p> You have almost finished this part of the game! </p>
            <p> We are going to ask you to make a few more choices. </p>","","instructions","","","","","","","","","","","","","",""
"learning-instructions","258","1239369","0.0-4.0-7.0-0.1","spark_pilot_2","7791","8","22","Female","","","","","","","2364.199999988079","<p> First, you need to decide whether to go up or down. When you see each picture, use the arrow keys to make your choice. </p>
            <p><b>You will not see which animal you found, but try to get to the one that will give you the most treasure.</b></p>","","instructions","","","","","","","","","","","","","",""
"revaluation","259","1241097","0.0-4.0-8.0-0.0","spark_pilot_2","7791","8","22","Female","","false","","","","","[1723.8999999761581]","./assets/img/canyon/test/1.jpg","[""ArrowDown""]","first stage test","canyon","0","{""ArrowUp,ArrowLeft"":2,""ArrowUp,ArrowRight"":11,""ArrowDown,ArrowLeft"":8,""ArrowDown,ArrowRight"":27}","true","ArrowDown","false","","","revaluation","1","","","",""
"html-keyboard-response","260","1241611","0.0-4.0-8.0-1.0","spark_pilot_2","7791","8","22","Female","","","","","","","null","<div style=""font-size:60px;"">+</div>","null","fixation","","","","","","","","","","","","","",""
"revaluation","261","1242425","0.0-4.0-8.0-0.1","spark_pilot_2","7791","8","22","Female","","false","","","","","[807.9000000357628]","./assets/img/canyon/test/0.jpg","[""ArrowDown""]","first stage test","canyon","0","{""ArrowUp,ArrowLeft"":2,""ArrowUp,ArrowRight"":11,""ArrowDown,ArrowLeft"":8,""ArrowDown,ArrowRight"":27}","true","ArrowDown","false","","","revaluation","1","","","",""
"html-keyboard-response","262","1242929","0.0-4.0-8.0-1.1","spark_pilot_2","7791","8","22","Female","","","","","","","null","<div style=""font-size:60px;"">+</div>","null","fixation","","","","","","","","","","","","","",""
"revaluation","263","1243705","0.0-4.0-8.0-0.2","spark_pilot_2","7791","8","22","Female","","false","","","","","[767.6000000238419]","./assets/img/canyon/test/3.jpg","[""ArrowDown""]","first stage test","canyon","0","{""ArrowUp,ArrowLeft"":2,""ArrowUp,ArrowRight"":11,""ArrowDown,ArrowLeft"":8,""ArrowDown,ArrowRight"":27}","true","ArrowDown","false","","","revaluation","1","","","",""
"html-keyboard-response","264","1244207","0.0-4.0-8.0-1.2","spark_pilot_2","7791","8","22","Female","","","","","","","null","<div style=""font-size:60px;"">+</div>","null","fixation","","","","","","","","","","","","","",""
"revaluation","265","1244825","0.0-4.0-8.0-0.3","spark_pilot_2","7791","8","22","Female","","false","","","","","[612]","./assets/img/canyon/test/2.jpg","[""ArrowDown""]","first stage test","canyon","0","{""ArrowUp,ArrowLeft"":2,""ArrowUp,ArrowRight"":11,""ArrowDown,ArrowLeft"":8,""ArrowDown,ArrowRight"":27}","true","ArrowDown","false","","","revaluation","1","","","",""
"html-keyboard-response","266","1245337","0.0-4.0-8.0-1.3","spark_pilot_2","7791","8","22","Female","","","","","","","null","<div style=""font-size:60px;"">+</div>","null","fixation","","","","","","","","","","","","","",""
"learning-instructions","267","1257663","0.0-4.0-9.0-0.0","spark_pilot_2","7791","8","22","Female","","","","","","","987.9000000357628","<p> Now you will see the animals again and can search their chests for treasure. </p>
            <p> This time, you will not see how much treasure you earned, but you will earn more bonus money for making better choices. </p>","","instructions","","","","","","","","","","","","","",""
"revaluation","268","1258511","0.0-4.0-10.0-0.0","spark_pilot_2","7791","8","22","Female","","false","","","","","[843.6999999880791]","./assets/img/canyon/animals/lion.jpg","[""ArrowRight""]","second stage test","canyon","0","{""ArrowUp,ArrowLeft"":2,""ArrowUp,ArrowRight"":11,""ArrowDown,ArrowLeft"":8,""ArrowDown,ArrowRight"":27}","true","ArrowUp,ArrowRight","","","","revaluation","1","","","",""
"html-keyboard-response","269","1259014","0.0-4.0-10.0-1.0","spark_pilot_2","7791","8","22","Female","","","","","","","null","<div style=""font-size:60px;"">+</div>","null","fixation","","","","","","","","","","","","","",""
"revaluation","270","1259772","0.0-4.0-10.0-0.1","spark_pilot_2","7791","8","22","Female","","false","","","","","[751.6000000238419]","./assets/img/canyon/animals/lion.jpg","[""ArrowRight""]","second stage test","canyon","0","{""ArrowUp,ArrowLeft"":2,""ArrowUp,ArrowRight"":11,""ArrowDown,ArrowLeft"":8,""ArrowDown,ArrowRight"":27}","true","ArrowUp,ArrowRight","","","","revaluation","1","","","",""
"html-keyboard-response","271","1260285","0.0-4.0-10.0-1.1","spark_pilot_2","7791","8","22","Female","","","","","","","null","<div style=""font-size:60px;"">+</div>","null","fixation","","","","","","","","","","","","","",""
"revaluation","272","1260930","0.0-4.0-10.0-0.2","spark_pilot_2","7791","8","22","Female","","false","","","","","[640.2999999523163]","./assets/img/canyon/animals/lion.jpg","[""ArrowRight""]","second stage test","canyon","0","{""ArrowUp,ArrowLeft"":2,""ArrowUp,ArrowRight"":11,""ArrowDown,ArrowLeft"":8,""ArrowDown,ArrowRight"":27}","true","ArrowUp,ArrowRight","","","","revaluation","1","","","",""
"html-keyboard-response","273","1261442","0.0-4.0-10.0-1.2","spark_pilot_2","7791","8","22","Female","","","","","","","null","<div style=""font-size:60px;"">+</div>","null","fixation","","","","","","","","","","","","","",""
"revaluation","274","1262218","0.0-4.0-10.0-0.3","spark_pilot_2","7791","8","22","Female","","false","","","","","[768.8000000119209]","./assets/img/canyon/animals/lion.jpg","[""ArrowRight""]","second stage test","canyon","0","{""ArrowUp,ArrowLeft"":2,""ArrowUp,ArrowRight"":11,""ArrowDown,ArrowLeft"":8,""ArrowDown,ArrowRight"":27}","true","ArrowUp,ArrowRight","","","","revaluation","1","","","",""
"html-keyboard-response","275","1262727","0.0-4.0-10.0-1.3","spark_pilot_2","7791","8","22","Female","","","","","","","null","<div style=""font-size:60px;"">+</div>","null","fixation","","","","","","","","","","","","","",""
"revaluation","276","1263357","0.0-4.0-10.0-0.4","spark_pilot_2","7791","8","22","Female","","false","","","","","[624.2999999523163]","./assets/img/canyon/animals/giraffe.jpg","[""ArrowRight""]","second stage test","canyon","0","{""ArrowUp,ArrowLeft"":2,""ArrowUp,ArrowRight"":11,""ArrowDown,ArrowLeft"":8,""ArrowDown,ArrowRight"":27}","true","ArrowDown,ArrowRight","","","","revaluation","1","","","",""
"html-keyboard-response","277","1263868","0.0-4.0-10.0-1.4","spark_pilot_2","7791","8","22","Female","","","","","","","null","<div style=""font-size:60px;"">+</div>","null","fixation","","","","","","","","","","","","","",""
"revaluation","278","1264416","0.0-4.0-10.0-0.5","spark_pilot_2","7791","8","22","Female","","false","","","","","[542.4000000357628]","./assets/img/canyon/animals/giraffe.jpg","[""ArrowRight""]","second stage test","canyon","0","{""ArrowUp,ArrowLeft"":2,""ArrowUp,ArrowRight"":11,""ArrowDown,ArrowLeft"":8,""ArrowDown,ArrowRight"":27}","true","ArrowDown,ArrowRight","","","","revaluation","1","","","",""
"html-keyboard-response","279","1264923","0.0-4.0-10.0-1.5","spark_pilot_2","7791","8","22","Female","","","","","","","null","<div style=""font-size:60px;"">+</div>","null","fixation","","","","","","","","","","","","","",""
"revaluation","280","1265408","0.0-4.0-10.0-0.6","spark_pilot_2","7791","8","22","Female","","false","","","","","[479]","./assets/img/canyon/animals/giraffe.jpg","[""ArrowRight""]","second stage test","canyon","0","{""ArrowUp,ArrowLeft"":2,""ArrowUp,ArrowRight"":11,""ArrowDown,ArrowLeft"":8,""ArrowDown,ArrowRight"":27}","true","ArrowDown,ArrowRight","","","","revaluation","1","","","",""
"html-keyboard-response","281","1265919","0.0-4.0-10.0-1.6","spark_pilot_2","7791","8","22","Female","","","","","","","null","<div style=""font-size:60px;"">+</div>","null","fixation","","","","","","","","","","","","","",""
"revaluation","282","1266463","0.0-4.0-10.0-0.7","spark_pilot_2","7791","8","22","Female","","false","","","","","[538.1999999880791]","./assets/img/canyon/animals/giraffe.jpg","[""ArrowRight""]","second stage test","canyon","0","{""ArrowUp,ArrowLeft"":2,""ArrowUp,ArrowRight"":11,""ArrowDown,ArrowLeft"":8,""ArrowDown,ArrowRight"":27}","true","ArrowDown,ArrowRight","","","","revaluation","1","","","",""
"html-keyboard-response","283","1266967","0.0-4.0-10.0-1.7","spark_pilot_2","7791","8","22","Female","","","","","","","null","<div style=""font-size:60px;"">+</div>","null","fixation","","","","","","","","","","","","","",""
"learning-instructions","284","1271290","0.0-4.0-0.1-0.2","spark_pilot_2","7791","8","22","Female","","","","","","","1584.800000011921","<p> This time you are searching for treasure in the <b>ocean</b>.</p>","","instructions","","","","","","","","","","","","","",""
"learning-instructions","285","1289971","0.0-4.0-0.1-0.3","spark_pilot_2","7791","8","22","Female","","","","","","","1426.699999988079","<p><b>New</b> animals with <b>new</b> treasure chests live here. You need to explore to discover where the animal with the best treasure chest is.</p>
                    <p> Like before, once you figure out which animal has the chest with the most treasure, you should try to get to that animal and select that chest! </p>","","instructions","","","","","","","","","","","","","",""
"learning-instructions","286","1315656","0.0-4.0-1.1-0.1","spark_pilot_2","7791","8","22","Female","","","","","","","10949.199999988079","<p> Remember, when you see a picture of the place, use the up and down keys to <b>find an animal</b>.</p>
            <p> When you encounter an animal, you should use the left and right keys to <b>select a treasure chest</b>.</p>
            <p> Don't forget to look out for the robber! </p>","","instructions","","","","","","","","","","","","","",""
"revaluation","287","1321683","0.0-4.0-2.1-0.50","spark_pilot_2","7791","8","22","Female","","false","","","","","[1446.5,1127.6000000238419]","./assets/img/ocean/memory/31.jpg","[""ArrowDown"",""ArrowRight""]","value training","ocean","30","{""ArrowUp,ArrowLeft"":23,""ArrowUp,ArrowRight"":10,""ArrowDown,ArrowLeft"":8,""ArrowDown,ArrowRight"":30}","true","ArrowDown,ArrowRight","false","","","original","2","0","","",""
"html-keyboard-response","288","1322194","0.0-4.0-2.1-1.50","spark_pilot_2","7791","8","22","Female","","","","","","","null","<div style=""font-size:60px;"">+</div>","null","fixation","","","","","","","","","","","1","","",""
"revaluation","289","1328219","0.0-4.0-2.1-0.51","spark_pilot_2","7791","8","22","Female","","false","","","","","[673.8000000119209,462.5999999642372]","./assets/img/ocean/memory/40.jpg","[""ArrowDown"",""ArrowRight""]","value training","ocean","30","{""ArrowUp,ArrowLeft"":23,""ArrowUp,ArrowRight"":10,""ArrowDown,ArrowLeft"":8,""ArrowDown,ArrowRight"":30}","true","ArrowDown,ArrowRight","false","","","original","2","2","","",""
"html-keyboard-response","290","1328736","0.0-4.0-2.1-1.51","spark_pilot_2","7791","8","22","Female","","","","","","","null","<div style=""font-size:60px;"">+</div>","null","fixation","","","","","","","","","","","3","","",""
"revaluation","291","1332758","0.0-4.0-2.1-0.52","spark_pilot_2","7791","8","22","Female","","false","","","","","[1661]","./assets/img/ocean/catch/3.jpg","[""spaceBar""]","value training","ocean","0","{""ArrowUp,ArrowLeft"":23,""ArrowUp,ArrowRight"":10,""ArrowDown,ArrowLeft"":8,""ArrowDown,ArrowRight"":30}","true","spaceBar","true","","","original","2","4","","",""
"html-keyboard-response","292","1333269","0.0-4.0-2.1-1.52","spark_pilot_2","7791","8","22","Female","","","","","","","null","<div style=""font-size:60px;"">+</div>","null","fixation","","","","","","","","","","","5","","",""
"revaluation","293","1339278","0.0-4.0-2.1-0.53","spark_pilot_2","7791","8","22","Female","","false","","","","","[864.2999999523163,578.5]","./assets/img/ocean/memory/1.jpg","[""ArrowDown"",""ArrowRight""]","value training","ocean","30","{""ArrowUp,ArrowLeft"":23,""ArrowUp,ArrowRight"":10,""ArrowDown,ArrowLeft"":8,""ArrowDown,ArrowRight"":30}","true","ArrowDown,ArrowRight","false","","","original","2","6","","",""
"html-keyboard-response","294","1339781","0.0-4.0-2.1-1.53","spark_pilot_2","7791","8","22","Female","","","","","","","null","<div style=""font-size:60px;"">+</div>","null","fixation","","","","","","","","","","","7","","",""
"revaluation","295","1345789","0.0-4.0-2.1-0.54","spark_pilot_2","7791","8","22","Female","","false","","","","","[883.4000000357628,636.6999999880791]","./assets/img/ocean/memory/4.jpg","[""ArrowDown"",""ArrowRight""]","value training","ocean","30","{""ArrowUp,ArrowLeft"":23,""ArrowUp,ArrowRight"":10,""ArrowDown,ArrowLeft"":8,""ArrowDown,ArrowRight"":30}","true","ArrowDown,ArrowRight","false","","","original","2","8","","",""
"html-keyboard-response","296","1346293","0.0-4.0-2.1-1.54","spark_pilot_2","7791","8","22","Female","","","","","","","null","<div style=""font-size:60px;"">+</div>","null","fixation","","","","","","","","","","","9","","",""
"revaluation","297","1352304","0.0-4.0-2.1-0.55","spark_pilot_2","7791","8","22","Female","","false","","","","","[630.5,1014.9000000357628]","./assets/img/ocean/memory/31.jpg","[""ArrowDown"",""ArrowRight""]","value training","ocean","30","{""ArrowUp,ArrowLeft"":23,""ArrowUp,ArrowRight"":10,""ArrowDown,ArrowLeft"":8,""ArrowDown,ArrowRight"":30}","true","ArrowDown,ArrowRight","false","","","original","2","10","","",""
"html-keyboard-response","298","1352807","0.0-4.0-2.1-1.55","spark_pilot_2","7791","8","22","Female","","","","","","","null","<div style=""font-size:60px;"">+</div>","null","fixation","","","","","","","","","","","11","","",""
"revaluation","299","1356814","0.0-4.0-2.1-0.56","spark_pilot_2","7791","8","22","Female","","false","","","","","[526.7999999523163]","./assets/img/ocean/catch/0.jpg","[""spaceBar""]","value training","ocean","0","{""ArrowUp,ArrowLeft"":23,""ArrowUp,ArrowRight"":10,""ArrowDown,ArrowLeft"":8,""ArrowDown,ArrowRight"":30}","true","spaceBar","true","","","original","2","12","","",""
"html-keyboard-response","300","1357315","0.0-4.0-2.1-1.56","spark_pilot_2","7791","8","22","Female","","","","","","","null","<div style=""font-size:60px;"">+</div>","null","fixation","","","","","","","","","","","13","","",""
"revaluation","301","1363323","0.0-4.0-2.1-0.57","spark_pilot_2","7791","8","22","Female","","false","","","","","[637.1999999880791,503.89999997615814]","./assets/img/ocean/memory/39.jpg","[""ArrowDown"",""ArrowRight""]","value training","ocean","30","{""ArrowUp,ArrowLeft"":23,""ArrowUp,ArrowRight"":10,""ArrowDown,ArrowLeft"":8,""ArrowDown,ArrowRight"":30}","true","ArrowDown,ArrowRight","false","","","original","2","14","","",""
"html-keyboard-response","302","1363828","0.0-4.0-2.1-1.57","spark_pilot_2","7791","8","22","Female","","","","","","","null","<div style=""font-size:60px;"">+</div>","null","fixation","","","","","","","","","","","15","","",""
"revaluation","303","1367837","0.0-4.0-2.1-0.58","spark_pilot_2","7791","8","22","Female","","false","","","","","[546.5]","./assets/img/ocean/catch/7.jpg","[""ArrowDown""]","value training","ocean","-10","{""ArrowUp,ArrowLeft"":23,""ArrowUp,ArrowRight"":10,""ArrowDown,ArrowLeft"":8,""ArrowDown,ArrowRight"":30}","false","ArrowDown","true","","","original","2","16","","",""
"html-keyboard-response","304","1368348","0.0-4.0-2.1-1.58","spark_pilot_2","7791","8","22","Female","","","","","","","null","<div style=""font-size:60px;"">+</div>","null","fixation","","","","","","","","","","","17","","",""
"revaluation","305","1374357","0.0-4.0-2.1-0.59","spark_pilot_2","7791","8","22","Female","","false","","","","","[889.1000000238419,644.5]","./assets/img/ocean/memory/13.jpg","[""ArrowDown"",""ArrowRight""]","value training","ocean","30","{""ArrowUp,ArrowLeft"":23,""ArrowUp,ArrowRight"":10,""ArrowDown,ArrowLeft"":8,""ArrowDown,ArrowRight"":30}","true","ArrowDown,ArrowRight","false","","","original","2","18","","",""
