"trial_type","trial_index","time_elapsed","internal_node_id","task_version","subject_id","assigned_condition","age","gender","success","timeout","failed_images","failed_audio","failed_video","browser_interaction","rt","stimulus","response","task_part","environment","score","rewardMap","correct","fullState","isCatch","numberMissed","duration","condition","order","trial_num","key_press","ground_truth","bonus"
"pavlovia","0","936","0.0-0.0","spark_pilot_2","7535","8","14","Female","","","","","","","","","","","","","","","","","","","","","","","",""
"preload","1","48533","0.0-1.0","spark_pilot_2","7535","8","14","Female","true","false","[]","[]","[]","[{""event"":""fullscreenenter"",""trial"":2,""time"":52624}]","","","","","","","","","","","","","","","","","",""
"fullscreen","2","53607","0.0-2.0","spark_pilot_2","7535","8","14","Female","true","","","","","","","","","","","","","","","","","","","","","","",""
"audio-button-response","3","56144","0.0-3.0-0.0-0.0","spark_pilot_2","7535","8","14","Female","","","","","","","1771","./assets/audio/audiotest/turtle.mp3","2","audio_test","","","","","","","","","","","","","",""
"learning-instructions","4","67386","0.0-3.0-1.0-0.0","spark_pilot_2","7535","8","14","Female","","","","","","","4255","<p> Welcome! Please remember to stay in fullscreen mode and don't click away from the experiment. </p>","","instructions","","","","","","","","","","","","","",""
"learning-instructions","5","78683","0.0-3.0-1.0-0.1","spark_pilot_2","7535","8","14","Female","","","","","","","2884.6999999955297","<p> Today you will be playing a game to earn treasure. </p>
            <p> At the end of the experiment, you will earn a bonus based on how much treasure you find. </p>
            <img src='./assets/img/instructions/treasure.jpg' class='instructions-image'>","","instructions","","","","","","","","","","","","","",""
"learning-instructions","6","88403","0.0-3.0-1.0-0.2","spark_pilot_2","7535","8","14","Female","","","","","","","1464.3000000044703","<p> Animals have hidden treasure in treasure chests. </p>
            <p> You need to first find an animal and then choose which of their treasure chests to search. </p>
            <img src='./assets/img/space/animals/cat.jpg' class='instructions-image'>","","instructions","","","","","","","","","","","","","",""
"learning-instructions","7","102804","0.0-3.0-1.0-0.3","spark_pilot_2","7535","8","14","Female","","","","","","","1245.8999999985099","<p> In each round, you will search for treasure in a different place. In the real game, there will be two rounds. </p>
            <p> You will begin with a separate, practice round where you will search for treasure in outer space. </p>
            <img src='./assets/img/space/0.jpg' class='instructions-image'>","","instructions","","","","","","","","","","","","","",""
"learning-instructions","8","115399","0.0-3.0-1.0-0.4","spark_pilot_2","7535","8","14","Female","","","","","","","1190.2000000029802","<p> On every turn, you will see a picture of the place that you are in, but the specific image may be different each time. </p>
            <p> For example, both of these images mean you are in outer space. </p>
            <img src='./assets/img/instructions/outerspace.jpg' class='instructions-image'>","","instructions","","","","","","","","","","","","","",""
"learning-instructions","9","125208","0.0-3.0-1.0-0.5","spark_pilot_2","7535","8","14","Female","","","","","","","1989.2999999970198","<p> You need to decide which direction to travel in. </p>
            <p> You can choose between going <b>up or down</b> by using the arrow keys. </p>
            <img src='./assets/img/instructions/updown.jpg' class='instructions-image'>","","instructions","","","","","","","","","","","","","",""
"learning-instructions","10","135544","0.0-3.0-1.0-0.6","spark_pilot_2","7535","8","14","Female","","","","","","","1535.5","<p> You will have <b>2 seconds</b> to make your choice. </p>
            <p> If you do not make a choice within 2 seconds, you will not find an animal or earn treasure. </p>
            <img src='./assets/img/instructions/2seconds.jpg' class='instructions-image'>","","instructions","","","","","","","","","","","","","",""
"learning-instructions","11","143603","0.0-3.0-1.0-0.7","spark_pilot_2","7535","8","14","Female","","","","","","","1024.5","<p> Let’s try practicing that now! </p>
            <p> When you see a picture of the place you are in, press the <b>up</b> key to travel up. </p>
            <img src='./assets/img/instructions/pressUp.jpg' class='instructions-image'>","","instructions","","","","","","","","","","","","","",""
"revaluation","12","147638","0.0-3.0-2.0-0.0","spark_pilot_2","7535","8","14","Female","","false","","","","","[1092.9000000059605]","./assets/img/space/0.jpg","[""ArrowUp""]","first stage practice","space","0","null","null","ArrowUp","false","","","","","","","",""
"html-keyboard-response","13","148151","0.0-3.0-2.0-1.0","spark_pilot_2","7535","8","14","Female","","","","","","","null","<div style=""font-size:60px;"">+</div>","null","fixation","","","","","","","","","","","","","",""
"revaluation","14","152180","0.0-3.0-2.0-0.1","spark_pilot_2","7535","8","14","Female","","false","","","","","[807]","./assets/img/space/1.jpg","[""ArrowUp""]","first stage practice","space","0","null","null","ArrowUp","false","","","","","","","",""
"html-keyboard-response","15","152682","0.0-3.0-2.0-1.1","spark_pilot_2","7535","8","14","Female","","","","","","","null","<div style=""font-size:60px;"">+</div>","null","fixation","","","","","","","","","","","","","",""
"revaluation","16","156703","0.0-3.0-2.0-0.2","spark_pilot_2","7535","8","14","Female","","false","","","","","[593.2000000029802]","./assets/img/space/2.jpg","[""ArrowUp""]","first stage practice","space","0","null","null","ArrowUp","false","","","","","","","",""
"html-keyboard-response","17","157217","0.0-3.0-2.0-1.2","spark_pilot_2","7535","8","14","Female","","","","","","","null","<div style=""font-size:60px;"">+</div>","null","fixation","","","","","","","","","","","","","",""
"learning-instructions","18","164553","0.0-3.0-3.0-0.0","spark_pilot_2","7535","8","14","Female","","","","","","","2644.4000000059605","<p> Great job! Now try pressing the <b>down</b> key to travel down. </p>
            <img src='./assets/img/instructions/pressDown.jpg' class='instructions-image'>","","instructions","","","","","","","","","","","","","",""
"revaluation","19","168563","0.0-3.0-4.0-0.0","spark_pilot_2","7535","8","14","Female","","false","","","","","[941.2999999970198]","./assets/img/space/3.jpg","[""ArrowDown""]","first stage practice","space","0","null","null","ArrowDown","false","","","","","","","",""
"html-keyboard-response","20","169076","0.0-3.0-4.0-1.0","spark_pilot_2","7535","8","14","Female","","","","","","","null","<div style=""font-size:60px;"">+</div>","null","fixation","","","","","","","","","","","","","",""
"revaluation","21","173103","0.0-3.0-4.0-0.1","spark_pilot_2","7535","8","14","Female","","false","","","","","[654.6000000014901]","./assets/img/space/4.jpg","[""ArrowDown""]","first stage practice","space","0","null","null","ArrowDown","false","","","","","","","",""
"html-keyboard-response","22","173617","0.0-3.0-4.0-1.1","spark_pilot_2","7535","8","14","Female","","","","","","","null","<div style=""font-size:60px;"">+</div>","null","fixation","","","","","","","","","","","","","",""
"revaluation","23","177640","0.0-3.0-4.0-0.2","spark_pilot_2","7535","8","14","Female","","false","","","","","[605.3000000044703]","./assets/img/space/5.jpg","[""ArrowDown""]","first stage practice","space","0","null","null","ArrowDown","false","","","","","","","",""
"html-keyboard-response","24","178154","0.0-3.0-4.0-1.2","spark_pilot_2","7535","8","14","Female","","","","","","","null","<div style=""font-size:60px;"">+</div>","null","fixation","","","","","","","","","","","","","",""
"learning-instructions","25","189575","0.0-3.0-5.0-0.0","spark_pilot_2","7535","8","14","Female","","","","","","","1567.1999999955297","<p> The animals don’t move, so the animal in the upper part of a place will stay in the upper part of a place, and the animal in the lower part of a place will stay in the lower part of a place. </p>","","instructions","","","","","","","","","","","","","",""
"learning-instructions","26","200201","0.0-3.0-5.0-0.1","spark_pilot_2","7535","8","14","Female","","","","","","","1404.2000000029802","<p> Each animal has two treasure chests for you to choose from. </p>
            <p> The amount of treasure in each chest can range from <b> 0 to 40 pieces.</b></p>","","instructions","","","","","","","","","","","","","",""
"learning-instructions","27","212838","0.0-3.0-5.0-0.2","spark_pilot_2","7535","8","14","Female","","","","","","","1440.6999999955297","<p> You should decide which chest to search for treasure by using the <b>left</b> and <b>right</b> arrow keys. </p>
            <p><b> Pay attention to which animal is on the screen, as the animals have different treasure chests. </b></p>
            <img src='./assets/img/instructions/leftright.jpg' class='instructions-image'>","","instructions","","","","","","","","","","","","","",""
"learning-instructions","28","220493","0.0-3.0-5.0-0.3","spark_pilot_2","7535","8","14","Female","","","","","","","1285.3999999985099","<p> Let’s try practicing that now. </p>
            <p> When you see an animal, choose which chest to search for treasure. </p>
            <img src='./assets/img/instructions/chooseChest.jpg' class='instructions-image'>","","instructions","","","","","","","","","","","","","",""
"revaluation","29","224527","0.0-3.0-6.0-0.0","spark_pilot_2","7535","8","14","Female","","false","","","","","[922.7000000029802]","./assets/img/space/animals/rabbit.jpg","[""ArrowLeft""]","second stage practice","space","15","{""ArrowUp,ArrowLeft"":3,""ArrowUp,ArrowRight"":36,""ArrowDown,ArrowLeft"":15,""ArrowDown,ArrowRight"":23}","false","ArrowDown,ArrowLeft","","","","","","","","",""
"html-keyboard-response","30","225043","0.0-3.0-6.0-1.0","spark_pilot_2","7535","8","14","Female","","","","","","","null","<div style=""font-size:60px;"">+</div>","null","fixation","","","","","","","","","","","","","",""
"revaluation","31","229068","0.0-3.0-6.0-0.1","spark_pilot_2","7535","8","14","Female","","false","","","","","[687.7000000029802]","./assets/img/space/animals/cat.jpg","[""ArrowRight""]","second stage practice","space","36","{""ArrowUp,ArrowLeft"":3,""ArrowUp,ArrowRight"":36,""ArrowDown,ArrowLeft"":15,""ArrowDown,ArrowRight"":23}","true","ArrowUp,ArrowRight","","","","","","","","",""
"html-keyboard-response","32","229579","0.0-3.0-6.0-1.1","spark_pilot_2","7535","8","14","Female","","","","","","","null","<div style=""font-size:60px;"">+</div>","null","fixation","","","","","","","","","","","","","",""
"revaluation","33","233608","0.0-3.0-6.0-0.2","spark_pilot_2","7535","8","14","Female","","false","","","","","[575.8999999985099]","./assets/img/space/animals/cat.jpg","[""ArrowRight""]","second stage practice","space","36","{""ArrowUp,ArrowLeft"":3,""ArrowUp,ArrowRight"":36,""ArrowDown,ArrowLeft"":15,""ArrowDown,ArrowRight"":23}","true","ArrowUp,ArrowRight","","","","","","","","",""
"html-keyboard-response","34","234119","0.0-3.0-6.0-1.2","spark_pilot_2","7535","8","14","Female","","","","","","","null","<div style=""font-size:60px;"">+</div>","null","fixation","","","","","","","","","","","","","",""
"revaluation","35","238143","0.0-3.0-6.0-0.3","spark_pilot_2","7535","8","14","Female","","false","","","","","[553.5999999940395]","./assets/img/space/animals/rabbit.jpg","[""ArrowRight""]","second stage practice","space","23","{""ArrowUp,ArrowLeft"":3,""ArrowUp,ArrowRight"":36,""ArrowDown,ArrowLeft"":15,""ArrowDown,ArrowRight"":23}","true","ArrowDown,ArrowRight","","","","","","","","",""
"html-keyboard-response","36","238659","0.0-3.0-6.0-1.3","spark_pilot_2","7535","8","14","Female","","","","","","","null","<div style=""font-size:60px;"">+</div>","null","fixation","","","","","","","","","","","","","",""
"learning-instructions","37","256898","0.0-3.0-7.0-0.0","spark_pilot_2","7535","8","14","Female","","","","","","","1420.7999999970198","<p> Great job. Now let’s try putting it together. </p>
            <p> On each turn, you will first see a picture to remind you of the place you are in, and you need to choose whether to go up or down. </p>
            <p> Then you will see an animal and choose which of its chests to search for treasure. </p>","","instructions","","","","","","","","","","","","","",""
"learning-instructions","38","267457","0.0-3.0-7.0-0.1","spark_pilot_2","7535","8","14","Female","","","","","","","2289.5","<p> When you choose whether to go up or down, try to go to the animal with the chest with the most treasure. </p>
            <p> Try practicing that now! </p>","","instructions","","","","","","","","","","","","","",""
"revaluation","39","273492","0.0-3.0-8.0-0.0","spark_pilot_2","7535","8","14","Female","","false","","","","","[1348.8999999985099,976.6000000014901]","./assets/img/space/6.jpg","[""ArrowUp"",""ArrowRight""]","full practice","space","36","{""ArrowUp,ArrowLeft"":3,""ArrowUp,ArrowRight"":36,""ArrowDown,ArrowLeft"":15,""ArrowDown,ArrowRight"":23}","true","ArrowUp,ArrowRight","false","","","","","","","",""
"html-keyboard-response","40","274008","0.0-3.0-8.0-1.0","spark_pilot_2","7535","8","14","Female","","","","","","","null","<div style=""font-size:60px;"">+</div>","null","fixation","","","","","","","","","","","","","",""
"revaluation","41","280041","0.0-3.0-8.0-0.1","spark_pilot_2","7535","8","14","Female","","false","","","","","[778.3999999985099,792.3999999985099]","./assets/img/space/7.jpg","[""ArrowDown"",""ArrowLeft""]","full practice","space","15","{""ArrowUp,ArrowLeft"":3,""ArrowUp,ArrowRight"":36,""ArrowDown,ArrowLeft"":15,""ArrowDown,ArrowRight"":23}","false","ArrowDown,ArrowLeft","false","","","","","","","",""
"html-keyboard-response","42","280556","0.0-3.0-8.0-1.1","spark_pilot_2","7535","8","14","Female","","","","","","","null","<div style=""font-size:60px;"">+</div>","null","fixation","","","","","","","","","","","","","",""
"revaluation","43","286584","0.0-3.0-8.0-0.2","spark_pilot_2","7535","8","14","Female","","false","","","","","[1290.7999999970198,1356.5999999940395]","./assets/img/space/8.jpg","[""ArrowDown"",""ArrowLeft""]","full practice","space","15","{""ArrowUp,ArrowLeft"":3,""ArrowUp,ArrowRight"":36,""ArrowDown,ArrowLeft"":15,""ArrowDown,ArrowRight"":23}","false","ArrowDown,ArrowLeft","false","","","","","","","",""
"html-keyboard-response","44","287094","0.0-3.0-8.0-1.2","spark_pilot_2","7535","8","14","Female","","","","","","","null","<div style=""font-size:60px;"">+</div>","null","fixation","","","","","","","","","","","","","",""
"revaluation","45","293131","0.0-3.0-8.0-0.3","spark_pilot_2","7535","8","14","Female","","false","","","","","[760.5,616.1000000014901]","./assets/img/space/9.jpg","[""ArrowUp"",""ArrowRight""]","full practice","space","36","{""ArrowUp,ArrowLeft"":3,""ArrowUp,ArrowRight"":36,""ArrowDown,ArrowLeft"":15,""ArrowDown,ArrowRight"":23}","true","ArrowUp,ArrowRight","false","","","","","","","",""
"html-keyboard-response","46","293642","0.0-3.0-8.0-1.3","spark_pilot_2","7535","8","14","Female","","","","","","","null","<div style=""font-size:60px;"">+</div>","null","fixation","","","","","","","","","","","","","",""
"revaluation","47","299649","0.0-3.0-8.0-0.4","spark_pilot_2","7535","8","14","Female","","false","","","","","[710.6999999955297,614.7000000029802]","./assets/img/space/10.jpg","[""ArrowDown"",""ArrowLeft""]","full practice","space","15","{""ArrowUp,ArrowLeft"":3,""ArrowUp,ArrowRight"":36,""ArrowDown,ArrowLeft"":15,""ArrowDown,ArrowRight"":23}","false","ArrowDown,ArrowLeft","false","","","","","","","",""
"html-keyboard-response","48","300151","0.0-3.0-8.0-1.4","spark_pilot_2","7535","8","14","Female","","","","","","","null","<div style=""font-size:60px;"">+</div>","null","fixation","","","","","","","","","","","","","",""
"learning-instructions","49","312999","0.0-3.0-9.0-0.0","spark_pilot_2","7535","8","14","Female","","","","","","","2560.10000000149","<p> One last thing: sometimes, you will see a robber. The robber can be anywhere in the picture. </p>
            <p> If you do not stop them, you will lose treasure. </p>
            <img src='./assets/img/instructions/robber.jpg' class='instructions-image'>","","instructions","","","","","","","","","","","","","",""
"learning-instructions","50","321475","0.0-3.0-9.0-0.1","spark_pilot_2","7535","8","14","Female","","","","","","","1316.2999999970198","<p> If you see the robber, you should <b>press the space bar</b> rather than using the arrow keys. </p>
            <p> Try practicing that now! </p>","","instructions","","","","","","","","","","","","","",""
"revaluation","51","325494","0.0-3.0-10.0-0.0","spark_pilot_2","7535","8","14","Female","","false","","","","","[1608]","./assets/img/space/catch/0.jpg","[""spaceBar""]","catch practice","space","0","{""ArrowUp,ArrowLeft"":3,""ArrowUp,ArrowRight"":36,""ArrowDown,ArrowLeft"":15,""ArrowDown,ArrowRight"":23}","true","spaceBar","true","","","","","","","",""
"html-keyboard-response","52","326008","0.0-3.0-10.0-1.0","spark_pilot_2","7535","8","14","Female","","","","","","","null","<div style=""font-size:60px;"">+</div>","null","fixation","","","","","","","","","","","","","",""
"revaluation","53","330038","0.0-3.0-10.0-0.1","spark_pilot_2","7535","8","14","Female","","false","","","","","[889.6000000014901]","./assets/img/space/catch/1.jpg","[""spaceBar""]","catch practice","space","0","{""ArrowUp,ArrowLeft"":3,""ArrowUp,ArrowRight"":36,""ArrowDown,ArrowLeft"":15,""ArrowDown,ArrowRight"":23}","true","spaceBar","true","","","","","","","",""
"html-keyboard-response","54","330540","0.0-3.0-10.0-1.1","spark_pilot_2","7535","8","14","Female","","","","","","","null","<div style=""font-size:60px;"">+</div>","null","fixation","","","","","","","","","","","","","",""
"revaluation","55","334567","0.0-3.0-10.0-0.2","spark_pilot_2","7535","8","14","Female","","false","","","","","[956.2999999970198]","./assets/img/space/catch/2.jpg","[""spaceBar""]","catch practice","space","0","{""ArrowUp,ArrowLeft"":3,""ArrowUp,ArrowRight"":36,""ArrowDown,ArrowLeft"":15,""ArrowDown,ArrowRight"":23}","true","spaceBar","true","","","","","","","",""
"html-keyboard-response","56","335080","0.0-3.0-10.0-1.2","spark_pilot_2","7535","8","14","Female","","","","","","","null","<div style=""font-size:60px;"">+</div>","null","fixation","","","","","","","","","","","","","",""
"learning-instructions","57","350301","0.0-3.0-11.0-0.0","spark_pilot_2","7535","8","14","Female","","","","","","","1621.8999999985099","<p> After you explore a place to find treasure, it will be time to play a different game. </p>
            <p> During this game, red dots will appear on the screen and fall down slowly. </p>
            <p><b> You must click on them before they reach the bottom. </b></p>
            <img src='./assets/img/instructions/dotGame.jpg' class='instructions-image'>","","instructions","","","","","","","","","","","","","",""
"learning-instructions","58","357920","0.0-3.0-11.0-0.1","spark_pilot_2","7535","8","14","Female","","","","","","","1941.7000000029802","<p> For every dot you click, you will earn additional treasure. </p>
            <p> Let’s try practicing that now. </p>","","instructions","","","","","","","","","","","","","",""
"revaluation","59","372926","0.0-3.0-12.0-0.0","spark_pilot_2","7535","8","14","Female","","","","","","","[103]","","","rest practice","","10","","","","","0","15000","","","","","",""
"learning-instructions","60","379674","0.0-3.0-13.0-0.0-0.0","spark_pilot_2","7535","8","14","Female","","","","","","","1495.2000000029802","<p> Now, you will practice a shortened version of the game to get a sense of how it all fits together. </p>","","instructions","","","","","","","","","","","","","",""
"learning-instructions","61","384348","0.0-3.0-13.0-0.0-0.1","spark_pilot_2","7535","8","14","Female","","","","","","","1478.7999999970198","<p>This time you are searching for treasure in outer space.</p>","","instructions","","","","","","","","","","","","","",""
"learning-instructions","62","401610","0.0-3.0-13.0-1.0-0.0","spark_pilot_2","7535","8","14","Female","","","","","","","2491","<p> Remember, when you see a picture of the place, use the up and down keys to <b>find an animal</b>.</p>
            <p> When you encounter an animal, you should use the left and right keys to <b>select a treasure chest</b>.</p>
            <p> Don't forget to look out for the robber! </p>","","instructions","","","","","","","","","","","","","",""
"revaluation","63","405637","0.0-3.0-13.0-2.0-0.0","spark_pilot_2","7535","8","14","Female","","true","","","","","[]","./assets/img/space/11.jpg","[]","practice block","space","-5","{""ArrowUp,ArrowLeft"":3,""ArrowUp,ArrowRight"":36,""ArrowDown,ArrowLeft"":15,""ArrowDown,ArrowRight"":23}","false","","false","","","","","","","",""
"html-keyboard-response","64","406151","0.0-3.0-13.0-2.0-1.0","spark_pilot_2","7535","8","14","Female","","","","","","","null","<div style=""font-size:60px;"">+</div>","null","fixation","","","","","","","","","","","","","",""
"revaluation","65","412182","0.0-3.0-13.0-2.0-0.1","spark_pilot_2","7535","8","14","Female","","false","","","","","[852.7999999970198,753.2000000029802]","./assets/img/space/12.jpg","[""ArrowDown"",""ArrowRight""]","practice block","space","23","{""ArrowUp,ArrowLeft"":3,""ArrowUp,ArrowRight"":36,""ArrowDown,ArrowLeft"":15,""ArrowDown,ArrowRight"":23}","false","ArrowDown,ArrowRight","false","","","","","","","",""
"html-keyboard-response","66","412696","0.0-3.0-13.0-2.0-1.1","spark_pilot_2","7535","8","14","Female","","","","","","","null","<div style=""font-size:60px;"">+</div>","null","fixation","","","","","","","","","","","","","",""
"revaluation","67","418724","0.0-3.0-13.0-2.0-0.2","spark_pilot_2","7535","8","14","Female","","false","","","","","[707.3999999985099,757.2000000029802]","./assets/img/space/13.jpg","[""ArrowUp"",""ArrowRight""]","practice block","space","36","{""ArrowUp,ArrowLeft"":3,""ArrowUp,ArrowRight"":36,""ArrowDown,ArrowLeft"":15,""ArrowDown,ArrowRight"":23}","true","ArrowUp,ArrowRight","false","","","","","","","",""
"html-keyboard-response","68","419236","0.0-3.0-13.0-2.0-1.2","spark_pilot_2","7535","8","14","Female","","","","","","","null","<div style=""font-size:60px;"">+</div>","null","fixation","","","","","","","","","","","","","",""
"revaluation","69","425257","0.0-3.0-13.0-2.0-0.3","spark_pilot_2","7535","8","14","Female","","false","","","","","[928.3999999985099,653.8999999985099]","./assets/img/space/14.jpg","[""ArrowDown"",""ArrowLeft""]","practice block","space","15","{""ArrowUp,ArrowLeft"":3,""ArrowUp,ArrowRight"":36,""ArrowDown,ArrowLeft"":15,""ArrowDown,ArrowRight"":23}","false","ArrowDown,ArrowLeft","false","","","","","","","",""
"html-keyboard-response","70","425774","0.0-3.0-13.0-2.0-1.3","spark_pilot_2","7535","8","14","Female","","","","","","","null","<div style=""font-size:60px;"">+</div>","null","fixation","","","","","","","","","","","","","",""
"revaluation","71","431780","0.0-3.0-13.0-2.0-0.4","spark_pilot_2","7535","8","14","Female","","false","","","","","[861.1000000014901,711.2999999970198]","./assets/img/space/11.jpg","[""ArrowUp"",""ArrowRight""]","practice block","space","36","{""ArrowUp,ArrowLeft"":3,""ArrowUp,ArrowRight"":36,""ArrowDown,ArrowLeft"":15,""ArrowDown,ArrowRight"":23}","true","ArrowUp,ArrowRight","false","","","","","","","",""
"html-keyboard-response","72","432281","0.0-3.0-13.0-2.0-1.4","spark_pilot_2","7535","8","14","Female","","","","","","","null","<div style=""font-size:60px;"">+</div>","null","fixation","","","","","","","","","","","","","",""
"revaluation","73","438287","0.0-3.0-13.0-2.0-0.5","spark_pilot_2","7535","8","14","Female","","false","","","","","[757.5,609.6999999955297]","./assets/img/space/12.jpg","[""ArrowUp"",""ArrowLeft""]","practice block","space","3","{""ArrowUp,ArrowLeft"":3,""ArrowUp,ArrowRight"":36,""ArrowDown,ArrowLeft"":15,""ArrowDown,ArrowRight"":23}","false","ArrowUp,ArrowLeft","false","","","","","","","",""
"html-keyboard-response","74","438789","0.0-3.0-13.0-2.0-1.5","spark_pilot_2","7535","8","14","Female","","","","","","","null","<div style=""font-size:60px;"">+</div>","null","fixation","","","","","","","","","","","","","",""
"revaluation","75","444793","0.0-3.0-13.0-2.0-0.6","spark_pilot_2","7535","8","14","Female","","false","","","","","[815.6000000014901,605]","./assets/img/space/13.jpg","[""ArrowUp"",""ArrowRight""]","practice block","space","36","{""ArrowUp,ArrowLeft"":3,""ArrowUp,ArrowRight"":36,""ArrowDown,ArrowLeft"":15,""ArrowDown,ArrowRight"":23}","true","ArrowUp,ArrowRight","false","","","","","","","",""
"html-keyboard-response","76","445295","0.0-3.0-13.0-2.0-1.6","spark_pilot_2","7535","8","14","Female","","","","","","","null","<div style=""font-size:60px;"">+</div>","null","fixation","","","","","","","","","","","","","",""
"revaluation","77","451314","0.0-3.0-13.0-2.0-0.7","spark_pilot_2","7535","8","14","Female","","false","","","","","[566.8999999985099,685]","./assets/img/space/14.jpg","[""ArrowUp"",""ArrowRight""]","practice block","space","36","{""ArrowUp,ArrowLeft"":3,""ArrowUp,ArrowRight"":36,""ArrowDown,ArrowLeft"":15,""ArrowDown,ArrowRight"":23}","true","ArrowUp,ArrowRight","false","","","","","","","",""
"html-keyboard-response","78","451816","0.0-3.0-13.0-2.0-1.7","spark_pilot_2","7535","8","14","Female","","","","","","","null","<div style=""font-size:60px;"">+</div>","null","fixation","","","","","","","","","","","","","",""
"revaluation","79","455820","0.0-3.0-13.0-2.0-0.8","spark_pilot_2","7535","8","14","Female","","false","","","","","[607.2999999970198]","./assets/img/space/catch/3.jpg","[""ArrowUp""]","practice block","space","-10","{""ArrowUp,ArrowLeft"":3,""ArrowUp,ArrowRight"":36,""ArrowDown,ArrowLeft"":15,""ArrowDown,ArrowRight"":23}","false","ArrowUp","true","","","","","","","",""
"html-keyboard-response","80","456322","0.0-3.0-13.0-2.0-1.8","spark_pilot_2","7535","8","14","Female","","","","","","","null","<div style=""font-size:60px;"">+</div>","null","fixation","","","","","","","","","","","","","",""
"learning-instructions","81","471687","0.0-3.0-13.0-3.0-0.0","spark_pilot_2","7535","8","14","Female","","","","","","","1723.3000000044703","<p> Now, you will travel with a friend who will choose whether you go up or down first. </p>
            <p> On these turns, you will just see the animal that they found. You will still get to choose which chest to search for treasure.</p>","","instructions","","","","","","","","","","","","","",""
"revaluation","82","475706","0.0-3.0-13.0-4.0-0.0","spark_pilot_2","7535","8","14","Female","","false","","","","","[1473.0999999940395]","./assets/img/space/animals/cat.jpg","[""ArrowRight""]","practice block","space","36","{""ArrowUp,ArrowLeft"":3,""ArrowUp,ArrowRight"":36,""ArrowDown,ArrowLeft"":15,""ArrowDown,ArrowRight"":23}","true","ArrowUp,ArrowRight","","","","","","","","",""
"html-keyboard-response","83","476219","0.0-3.0-13.0-4.0-1.0","spark_pilot_2","7535","8","14","Female","","","","","","","null","<div style=""font-size:60px;"">+</div>","null","fixation","","","","","","","","","","","","","",""
"revaluation","84","480245","0.0-3.0-13.0-4.0-0.1","spark_pilot_2","7535","8","14","Female","","false","","","","","[895.5]","./assets/img/space/animals/rabbit.jpg","[""ArrowLeft""]","practice block","space","15","{""ArrowUp,ArrowLeft"":3,""ArrowUp,ArrowRight"":36,""ArrowDown,ArrowLeft"":15,""ArrowDown,ArrowRight"":23}","false","ArrowDown,ArrowLeft","","","","","","","","",""
"html-keyboard-response","85","480759","0.0-3.0-13.0-4.0-1.1","spark_pilot_2","7535","8","14","Female","","","","","","","null","<div style=""font-size:60px;"">+</div>","null","fixation","","","","","","","","","","","","","",""
"revaluation","86","484776","0.0-3.0-13.0-4.0-0.2","spark_pilot_2","7535","8","14","Female","","false","","","","","[498.59999999403954]","./assets/img/space/animals/rabbit.jpg","[""ArrowRight""]","practice block","space","23","{""ArrowUp,ArrowLeft"":3,""ArrowUp,ArrowRight"":36,""ArrowDown,ArrowLeft"":15,""ArrowDown,ArrowRight"":23}","true","ArrowDown,ArrowRight","","","","","","","","",""
"html-keyboard-response","87","485291","0.0-3.0-13.0-4.0-1.2","spark_pilot_2","7535","8","14","Female","","","","","","","null","<div style=""font-size:60px;"">+</div>","null","fixation","","","","","","","","","","","","","",""
"revaluation","88","489316","0.0-3.0-13.0-4.0-0.3","spark_pilot_2","7535","8","14","Female","","false","","","","","[704.6999999955297]","./assets/img/space/animals/cat.jpg","[""ArrowRight""]","practice block","space","36","{""ArrowUp,ArrowLeft"":3,""ArrowUp,ArrowRight"":36,""ArrowDown,ArrowLeft"":15,""ArrowDown,ArrowRight"":23}","true","ArrowUp,ArrowRight","","","","","","","","",""
"html-keyboard-response","89","489831","0.0-3.0-13.0-4.0-1.3","spark_pilot_2","7535","8","14","Female","","","","","","","null","<div style=""font-size:60px;"">+</div>","null","fixation","","","","","","","","","","","","","",""
"learning-instructions","90","498955","0.0-3.0-13.0-5.0-0.0","spark_pilot_2","7535","8","14","Female","","","","","","","1681.3000000044703","<p> Time to play the dot game! </p>
            <p> For 15 seconds, click the red dots on the following screen as they appear. </p>","","instructions","","","","","","","","","","","","","",""
"revaluation","91","513956","0.0-3.0-13.0-6.0-0.0","spark_pilot_2","7535","8","14","Female","","","","","","","[100,99]","","","rest practice","","20","","","","","0","15000","","","","","",""
"learning-instructions","92","521525","0.0-3.0-13.0-7.0-0.0","spark_pilot_2","7535","8","14","Female","","","","","","","1452.1000000014901","<p> You have almost finished this part of the game! </p>
            <p> We are going to ask you to make a few more choices. </p>","","instructions","","","","","","","","","","","","","",""
"learning-instructions","93","537778","0.0-3.0-13.0-7.0-0.1","spark_pilot_2","7535","8","14","Female","","","","","","","2244.7999999970198","<p> First, you need to decide whether to go up or down. When you see each picture, use the arrow keys to make your choice. </p>
            <p><b>You will not see which animal you found, but try to get to the one that will give you the most treasure.</b></p>","","instructions","","","","","","","","","","","","","",""
"revaluation","94","538724","0.0-3.0-13.0-8.0","spark_pilot_2","7535","8","14","Female","","false","","","","","[944.5]","./assets/img/space/15.jpg","[""ArrowUp""]","practice block","space","0","{""ArrowUp,ArrowLeft"":3,""ArrowUp,ArrowRight"":36,""ArrowDown,ArrowLeft"":15,""ArrowDown,ArrowRight"":23}","true","ArrowUp","false","","","","","","","",""
"html-keyboard-response","95","539232","0.0-3.0-13.0-9.0","spark_pilot_2","7535","8","14","Female","","","","","","","null","<div style=""font-size:60px;"">+</div>","null","fixation","","","","","","","","","","","","","",""
"learning-instructions","96","551807","0.0-3.0-13.0-10.0-0.0","spark_pilot_2","7535","8","14","Female","","","","","","","1194","<p> Now you will see the animals again and can search their chests for treasure. </p>
            <p> This time, you will not see how much treasure you earned, but you will earn more bonus money for making better choices. </p>","","instructions","","","","","","","","","","","","","",""
"revaluation","97","552928","0.0-3.0-13.0-11.0-0.0","spark_pilot_2","7535","8","14","Female","","false","","","","","[1119.6999999955297]","./assets/img/space/animals/cat.jpg","[""ArrowRight""]","practice block","space","0","{""ArrowUp,ArrowLeft"":3,""ArrowUp,ArrowRight"":36,""ArrowDown,ArrowLeft"":15,""ArrowDown,ArrowRight"":23}","true","ArrowUp,ArrowRight","","","","","","","","",""
"html-keyboard-response","98","553441","0.0-3.0-13.0-11.0-1.0","spark_pilot_2","7535","8","14","Female","","","","","","","null","<div style=""font-size:60px;"">+</div>","null","fixation","","","","","","","","","","","","","",""
"revaluation","99","554297","0.0-3.0-13.0-11.0-0.1","spark_pilot_2","7535","8","14","Female","","false","","","","","[854.3000000044703]","./assets/img/space/animals/rabbit.jpg","[""ArrowRight""]","practice block","space","0","{""ArrowUp,ArrowLeft"":3,""ArrowUp,ArrowRight"":36,""ArrowDown,ArrowLeft"":15,""ArrowDown,ArrowRight"":23}","true","ArrowDown,ArrowRight","","","","","","","","",""
"html-keyboard-response","100","554799","0.0-3.0-13.0-11.0-1.1","spark_pilot_2","7535","8","14","Female","","","","","","","null","<div style=""font-size:60px;"">+</div>","null","fixation","","","","","","","","","","","","","",""
"learning-instructions","101","560560","0.0-3.0-14.0-0.0","spark_pilot_2","7535","8","14","Female","","","","","","","1187.4000000059605","<p> Before you start, we're going to ask you a few questions about how the game works. </p>","","instructions","","","","","","","","","","","","","",""
"comp-q","102","567789","0.0-3.0-15.0-0.0-0.0","spark_pilot_2","7535","8","14","Female","","","","","","","1643","<p> <b> True or False? </b> </p>
            <p> There can be 50 pieces of treasure in a given animal's chest. </p>","1","comp_question","","","","true","","","","","","","","","",""
"comp-q","103","575781","0.0-3.0-15.0-0.0-1.0","spark_pilot_2","7535","8","14","Female","","","","","","","1347","<p> <b> That's right! </b> The amount of treasure in each chest can range from 0 to 40 pieces. </p>","0","comp_answer","","","","","","","","","","","","","",""
"comp-q","104","584399","0.0-3.0-15.0-0.1-0.1","spark_pilot_2","7535","8","14","Female","","","","","","","1506","<p> <b> True or False? </b> </p><p> In this game, all animals have the same amount of treasure in their left and right chests. </p>","1","comp_question","","","","true","","","","","","","","","",""
"comp-q","105","591475","0.0-3.0-15.0-0.1-1.1","spark_pilot_2","7535","8","14","Female","","","","","","","1851","<p> <b> That's right! </b> Animals have different amounts of treasure in their treasure chests. </p>","0","comp_answer","","","","","","","","","","","","","",""
"comp-q","106","598169","0.0-3.0-15.0-0.2-0.2","spark_pilot_2","7535","8","14","Female","","","","","","","855.4000000059605","<p> <b> True or False? </b> </p><p> The same animal will always be there if you go up in the same place. </p>","0","comp_question","","","","true","","","","","","","","","",""
"comp-q","107","606617","0.0-3.0-15.0-0.2-1.2","spark_pilot_2","7535","8","14","Female","","","","","","","2003.2000000029802","<p> <b> That's right! </b> One animal lives in the upper part and one lives in the lower part of every place. </p>","0","comp_answer","","","","","","","","","","","","","",""
"comp-q","108","613597","0.0-3.0-15.0-0.3-0.3","spark_pilot_2","7535","8","14","Female","","","","","","","1453.6000000014901","<p> <b> True or False? </b> </p><p> If you see a different picture, it means you are in a new place. </p>","1","comp_question","","","","true","","","","","","","","","",""
"comp-q","109","627565","0.0-3.0-15.0-0.3-1.3","spark_pilot_2","7535","8","14","Female","","","","","","","2741.60000000149","<p> <b> That's right! </b> Lots of different images may show the same place. For example,  you may see three different images that all remind you that you are in outer space. </p>","0","comp_answer","","","","","","","","","","","","","",""
"learning-instructions","110","639855","0.0-3.0-16.0-0.0","spark_pilot_2","7535","8","14","Female","","","","","","","2431.10000000149","<p> Good job. Remember to do your best because the amount of treasure you earn will be converted into bonus money. </p>
            <p> It’s time to start the real game! </p>","","instructions","","","","","","","","","","","","","",""
"learning-instructions","111","644392","0.0-4.0-0.0-0.0","spark_pilot_2","7535","8","14","Female","","","","","","","1768.8000000044703","<p> This time you are searching for treasure in the <b>canyon</b>.</p>","","instructions","","","","","","","","","","","","","",""
"learning-instructions","112","663045","0.0-4.0-0.0-0.1","spark_pilot_2","7535","8","14","Female","","","","","","","1351.2999999970198","<p><b>New</b> animals with <b>new</b> treasure chests live here. You need to explore to discover where the animal with the best treasure chest is.</p>
                    <p> Like before, once you figure out which animal has the chest with the most treasure, you should try to get to that animal and select that chest! </p>","","instructions","","","","","","","","","","","","","",""
"learning-instructions","113","679075","0.0-4.0-1.0-0.0","spark_pilot_2","7535","8","14","Female","","","","","","","1301.6000000014901","<p> Remember, when you see a picture of the place, use the up and down keys to <b>find an animal</b>.</p>
            <p> When you encounter an animal, you should use the left and right keys to <b>select a treasure chest</b>.</p>
            <p> Don't forget to look out for the robber! </p>","","instructions","","","","","","","","","","","","","",""
"revaluation","114","685091","0.0-4.0-2.0-0.0","spark_pilot_2","7535","8","14","Female","","false","","","","","[1451.6000000014901,876.1999999955297]","./assets/img/canyon/memory/2.jpg","[""ArrowUp"",""ArrowLeft""]","value training","canyon","26","{""ArrowUp,ArrowLeft"":26,""ArrowUp,ArrowRight"":10,""ArrowDown,ArrowLeft"":5,""ArrowDown,ArrowRight"":17}","true","ArrowUp,ArrowLeft","false","","","revaluation","1","0","","",""
"html-keyboard-response","115","685603","0.0-4.0-2.0-1.0","spark_pilot_2","7535","8","14","Female","","","","","","","null","<div style=""font-size:60px;"">+</div>","null","fixation","","","","","","","","","","","1","","",""
"revaluation","116","691621","0.0-4.0-2.0-0.1","spark_pilot_2","7535","8","14","Female","","false","","","","","[533,846.1000000014901]","./assets/img/canyon/memory/14.jpg","[""ArrowDown"",""ArrowRight""]","value training","canyon","17","{""ArrowUp,ArrowLeft"":26,""ArrowUp,ArrowRight"":10,""ArrowDown,ArrowLeft"":5,""ArrowDown,ArrowRight"":17}","false","ArrowDown,ArrowRight","false","","","revaluation","1","2","","",""
"html-keyboard-response","117","692124","0.0-4.0-2.0-1.1","spark_pilot_2","7535","8","14","Female","","","","","","","null","<div style=""font-size:60px;"">+</div>","null","fixation","","","","","","","","","","","3","","",""
"revaluation","118","698150","0.0-4.0-2.0-0.2","spark_pilot_2","7535","8","14","Female","","false","","","","","[586.3999999985099,931.8999999985099]","./assets/img/canyon/memory/25.jpg","[""ArrowUp"",""ArrowRight""]","value training","canyon","10","{""ArrowUp,ArrowLeft"":26,""ArrowUp,ArrowRight"":10,""ArrowDown,ArrowLeft"":5,""ArrowDown,ArrowRight"":17}","false","ArrowUp,ArrowRight","false","","","revaluation","1","4","","",""
"html-keyboard-response","119","698666","0.0-4.0-2.0-1.2","spark_pilot_2","7535","8","14","Female","","","","","","","null","<div style=""font-size:60px;"">+</div>","null","fixation","","","","","","","","","","","5","","",""
"revaluation","120","704699","0.0-4.0-2.0-0.3","spark_pilot_2","7535","8","14","Female","","false","","","","","[609.5,1174.5]","./assets/img/canyon/memory/38.jpg","[""ArrowDown"",""ArrowLeft""]","value training","canyon","5","{""ArrowUp,ArrowLeft"":26,""ArrowUp,ArrowRight"":10,""ArrowDown,ArrowLeft"":5,""ArrowDown,ArrowRight"":17}","false","ArrowDown,ArrowLeft","false","","","revaluation","1","6","","",""
"html-keyboard-response","121","705213","0.0-4.0-2.0-1.3","spark_pilot_2","7535","8","14","Female","","","","","","","null","<div style=""font-size:60px;"">+</div>","null","fixation","","","","","","","","","","","7","","",""
"revaluation","122","711226","0.0-4.0-2.0-0.4","spark_pilot_2","7535","8","14","Female","","false","","","","","[676.1999999955297,712.8999999985099]","./assets/img/canyon/memory/1.jpg","[""ArrowUp"",""ArrowRight""]","value training","canyon","10","{""ArrowUp,ArrowLeft"":26,""ArrowUp,ArrowRight"":10,""ArrowDown,ArrowLeft"":5,""ArrowDown,ArrowRight"":17}","false","ArrowUp,ArrowRight","false","","","revaluation","1","8","","",""
"html-keyboard-response","123","711728","0.0-4.0-2.0-1.4","spark_pilot_2","7535","8","14","Female","","","","","","","null","<div style=""font-size:60px;"">+</div>","null","fixation","","","","","","","","","","","9","","",""
"revaluation","124","717733","0.0-4.0-2.0-0.5","spark_pilot_2","7535","8","14","Female","","false","","","","","[1278.8000000044703,873.3999999985099]","./assets/img/canyon/memory/30.jpg","[""ArrowDown"",""ArrowRight""]","value training","canyon","17","{""ArrowUp,ArrowLeft"":26,""ArrowUp,ArrowRight"":10,""ArrowDown,ArrowLeft"":5,""ArrowDown,ArrowRight"":17}","false","ArrowDown,ArrowRight","false","","","revaluation","1","10","","",""
"html-keyboard-response","125","718234","0.0-4.0-2.0-1.5","spark_pilot_2","7535","8","14","Female","","","","","","","null","<div style=""font-size:60px;"">+</div>","null","fixation","","","","","","","","","","","11","","",""
"revaluation","126","724239","0.0-4.0-2.0-0.6","spark_pilot_2","7535","8","14","Female","","false","","","","","[834.0999999940395,812.5]","./assets/img/canyon/memory/28.jpg","[""ArrowUp"",""ArrowLeft""]","value training","canyon","26","{""ArrowUp,ArrowLeft"":26,""ArrowUp,ArrowRight"":10,""ArrowDown,ArrowLeft"":5,""ArrowDown,ArrowRight"":17}","true","ArrowUp,ArrowLeft","false","","","revaluation","1","12","","",""
"html-keyboard-response","127","724741","0.0-4.0-2.0-1.6","spark_pilot_2","7535","8","14","Female","","","","","","","null","<div style=""font-size:60px;"">+</div>","null","fixation","","","","","","","","","","","13","","",""
"revaluation","128","730750","0.0-4.0-2.0-0.7","spark_pilot_2","7535","8","14","Female","","false","","","","","[720.9000000059605,677.6000000014901]","./assets/img/canyon/memory/13.jpg","[""ArrowDown"",""ArrowRight""]","value training","canyon","17","{""ArrowUp,ArrowLeft"":26,""ArrowUp,ArrowRight"":10,""ArrowDown,ArrowLeft"":5,""ArrowDown,ArrowRight"":17}","false","ArrowDown,ArrowRight","false","","","revaluation","1","14","","",""
"html-keyboard-response","129","731251","0.0-4.0-2.0-1.7","spark_pilot_2","7535","8","14","Female","","","","","","","null","<div style=""font-size:60px;"">+</div>","null","fixation","","","","","","","","","","","15","","",""
"revaluation","130","737256","0.0-4.0-2.0-0.8","spark_pilot_2","7535","8","14","Female","","false","","","","","[675.5,801.3000000044703]","./assets/img/canyon/memory/31.jpg","[""ArrowDown"",""ArrowLeft""]","value training","canyon","5","{""ArrowUp,ArrowLeft"":26,""ArrowUp,ArrowRight"":10,""ArrowDown,ArrowLeft"":5,""ArrowDown,ArrowRight"":17}","false","ArrowDown,ArrowLeft","false","","","revaluation","1","16","","",""
"html-keyboard-response","131","737757","0.0-4.0-2.0-1.8","spark_pilot_2","7535","8","14","Female","","","","","","","null","<div style=""font-size:60px;"">+</div>","null","fixation","","","","","","","","","","","17","","",""
"revaluation","132","743763","0.0-4.0-2.0-0.9","spark_pilot_2","7535","8","14","Female","","false","","","","","[624.2000000029802,796.4000000059605]","./assets/img/canyon/memory/29.jpg","[""ArrowUp"",""ArrowLeft""]","value training","canyon","26","{""ArrowUp,ArrowLeft"":26,""ArrowUp,ArrowRight"":10,""ArrowDown,ArrowLeft"":5,""ArrowDown,ArrowRight"":17}","true","ArrowUp,ArrowLeft","false","","","revaluation","1","18","","",""
"html-keyboard-response","133","744265","0.0-4.0-2.0-1.9","spark_pilot_2","7535","8","14","Female","","","","","","","null","<div style=""font-size:60px;"">+</div>","null","fixation","","","","","","","","","","","19","","",""
"revaluation","134","748269","0.0-4.0-2.0-0.10","spark_pilot_2","7535","8","14","Female","","false","","","","","[648.1999999955297]","./assets/img/canyon/catch/0.jpg","[""ArrowUp""]","value training","canyon","-10","{""ArrowUp,ArrowLeft"":26,""ArrowUp,ArrowRight"":10,""ArrowDown,ArrowLeft"":5,""ArrowDown,ArrowRight"":17}","false","ArrowUp","true","","","revaluation","1","20","","",""
"html-keyboard-response","135","748770","0.0-4.0-2.0-1.10","spark_pilot_2","7535","8","14","Female","","","","","","","null","<div style=""font-size:60px;"">+</div>","null","fixation","","","","","","","","","","","21","","",""
"revaluation","136","754791","0.0-4.0-2.0-0.11","spark_pilot_2","7535","8","14","Female","","false","","","","","[1170,1092.3999999985099]","./assets/img/canyon/memory/20.jpg","[""ArrowDown"",""ArrowRight""]","value training","canyon","17","{""ArrowUp,ArrowLeft"":26,""ArrowUp,ArrowRight"":10,""ArrowDown,ArrowLeft"":5,""ArrowDown,ArrowRight"":17}","false","ArrowDown,ArrowRight","false","","","revaluation","1","22","","",""
"html-keyboard-response","137","755292","0.0-4.0-2.0-1.11","spark_pilot_2","7535","8","14","Female","","","","","","","null","<div style=""font-size:60px;"">+</div>","null","fixation","","","","","","","","","","","23","","",""
"revaluation","138","761297","0.0-4.0-2.0-0.12","spark_pilot_2","7535","8","14","Female","","false","","","","","[571.8000000044703,662.1000000014901]","./assets/img/canyon/memory/27.jpg","[""ArrowUp"",""ArrowLeft""]","value training","canyon","26","{""ArrowUp,ArrowLeft"":26,""ArrowUp,ArrowRight"":10,""ArrowDown,ArrowLeft"":5,""ArrowDown,ArrowRight"":17}","true","ArrowUp,ArrowLeft","false","","","revaluation","1","24","","",""
"html-keyboard-response","139","761798","0.0-4.0-2.0-1.12","spark_pilot_2","7535","8","14","Female","","","","","","","null","<div style=""font-size:60px;"">+</div>","null","fixation","","","","","","","","","","","25","","",""
"revaluation","140","767805","0.0-4.0-2.0-0.13","spark_pilot_2","7535","8","14","Female","","false","","","","","[1003.8999999985099,487.40000000596046]","./assets/img/canyon/memory/38.jpg","[""ArrowDown"",""ArrowRight""]","value training","canyon","17","{""ArrowUp,ArrowLeft"":26,""ArrowUp,ArrowRight"":10,""ArrowDown,ArrowLeft"":5,""ArrowDown,ArrowRight"":17}","false","ArrowDown,ArrowRight","false","","","revaluation","1","26","","",""
"html-keyboard-response","141","768306","0.0-4.0-2.0-1.13","spark_pilot_2","7535","8","14","Female","","","","","","","null","<div style=""font-size:60px;"">+</div>","null","fixation","","","","","","","","","","","27","","",""
"revaluation","142","774315","0.0-4.0-2.0-0.14","spark_pilot_2","7535","8","14","Female","","false","","","","","[874.8999999985099,1450.1000000014901]","./assets/img/canyon/memory/3.jpg","[""ArrowUp"",""ArrowLeft""]","value training","canyon","26","{""ArrowUp,ArrowLeft"":26,""ArrowUp,ArrowRight"":10,""ArrowDown,ArrowLeft"":5,""ArrowDown,ArrowRight"":17}","true","ArrowUp,ArrowLeft","false","","","revaluation","1","28","","",""
"html-keyboard-response","143","774816","0.0-4.0-2.0-1.14","spark_pilot_2","7535","8","14","Female","","","","","","","null","<div style=""font-size:60px;"">+</div>","null","fixation","","","","","","","","","","","29","","",""
"revaluation","144","780821","0.0-4.0-2.0-0.15","spark_pilot_2","7535","8","14","Female","","false","","","","","[743.6000000014901,624.7000000029802]","./assets/img/canyon/memory/30.jpg","[""ArrowUp"",""ArrowLeft""]","value training","canyon","26","{""ArrowUp,ArrowLeft"":26,""ArrowUp,ArrowRight"":10,""ArrowDown,ArrowLeft"":5,""ArrowDown,ArrowRight"":17}","true","ArrowUp,ArrowLeft","false","","","revaluation","1","30","","",""
"html-keyboard-response","145","781325","0.0-4.0-2.0-1.15","spark_pilot_2","7535","8","14","Female","","","","","","","null","<div style=""font-size:60px;"">+</div>","null","fixation","","","","","","","","","","","31","","",""
"revaluation","146","787330","0.0-4.0-2.0-0.16","spark_pilot_2","7535","8","14","Female","","false","","","","","[596,607.1999999955297]","./assets/img/canyon/memory/31.jpg","[""ArrowUp"",""ArrowLeft""]","value training","canyon","26","{""ArrowUp,ArrowLeft"":26,""ArrowUp,ArrowRight"":10,""ArrowDown,ArrowLeft"":5,""ArrowDown,ArrowRight"":17}","true","ArrowUp,ArrowLeft","false","","","revaluation","1","32","","",""
"html-keyboard-response","147","787831","0.0-4.0-2.0-1.16","spark_pilot_2","7535","8","14","Female","","","","","","","null","<div style=""font-size:60px;"">+</div>","null","fixation","","","","","","","","","","","33","","",""
"revaluation","148","791836","0.0-4.0-2.0-0.17","spark_pilot_2","7535","8","14","Female","","false","","","","","[549.3999999985099]","./assets/img/canyon/catch/3.jpg","[""spaceBar""]","value training","canyon","0","{""ArrowUp,ArrowLeft"":26,""ArrowUp,ArrowRight"":10,""ArrowDown,ArrowLeft"":5,""ArrowDown,ArrowRight"":17}","true","spaceBar","true","","","revaluation","1","34","","",""
"html-keyboard-response","149","792337","0.0-4.0-2.0-1.17","spark_pilot_2","7535","8","14","Female","","","","","","","null","<div style=""font-size:60px;"">+</div>","null","fixation","","","","","","","","","","","35","","",""
"revaluation","150","796342","0.0-4.0-2.0-0.18","spark_pilot_2","7535","8","14","Female","","false","","","","","[850.3999999985099]","./assets/img/canyon/catch/4.jpg","[""spaceBar""]","value training","canyon","0","{""ArrowUp,ArrowLeft"":26,""ArrowUp,ArrowRight"":10,""ArrowDown,ArrowLeft"":5,""ArrowDown,ArrowRight"":17}","true","spaceBar","true","","","revaluation","1","36","","",""
"html-keyboard-response","151","796844","0.0-4.0-2.0-1.18","spark_pilot_2","7535","8","14","Female","","","","","","","null","<div style=""font-size:60px;"">+</div>","null","fixation","","","","","","","","","","","37","","",""
"revaluation","152","802849","0.0-4.0-2.0-0.19","spark_pilot_2","7535","8","14","Female","","false","","","","","[1221.7000000029802,417.29999999701977]","./assets/img/canyon/memory/0.jpg","[""ArrowUp"",""ArrowLeft""]","value training","canyon","26","{""ArrowUp,ArrowLeft"":26,""ArrowUp,ArrowRight"":10,""ArrowDown,ArrowLeft"":5,""ArrowDown,ArrowRight"":17}","true","ArrowUp,ArrowLeft","false","","","revaluation","1","38","","",""
"html-keyboard-response","153","803351","0.0-4.0-2.0-1.19","spark_pilot_2","7535","8","14","Female","","","","","","","null","<div style=""font-size:60px;"">+</div>","null","fixation","","","","","","","","","","","39","","",""
"revaluation","154","807355","0.0-4.0-2.0-0.20","spark_pilot_2","7535","8","14","Female","","false","","","","","[839.6999999955297]","./assets/img/canyon/catch/5.jpg","[""spaceBar""]","value training","canyon","0","{""ArrowUp,ArrowLeft"":26,""ArrowUp,ArrowRight"":10,""ArrowDown,ArrowLeft"":5,""ArrowDown,ArrowRight"":17}","true","spaceBar","true","","","revaluation","1","40","","",""
"html-keyboard-response","155","807855","0.0-4.0-2.0-1.20","spark_pilot_2","7535","8","14","Female","","","","","","","null","<div style=""font-size:60px;"">+</div>","null","fixation","","","","","","","","","","","41","","",""
"revaluation","156","813859","0.0-4.0-2.0-0.21","spark_pilot_2","7535","8","14","Female","","false","","","","","[618,580.1000000014901]","./assets/img/canyon/memory/26.jpg","[""ArrowUp"",""ArrowLeft""]","value training","canyon","26","{""ArrowUp,ArrowLeft"":26,""ArrowUp,ArrowRight"":10,""ArrowDown,ArrowLeft"":5,""ArrowDown,ArrowRight"":17}","true","ArrowUp,ArrowLeft","false","","","revaluation","1","42","","",""
"html-keyboard-response","157","814367","0.0-4.0-2.0-1.21","spark_pilot_2","7535","8","14","Female","","","","","","","null","<div style=""font-size:60px;"">+</div>","null","fixation","","","","","","","","","","","43","","",""
"revaluation","158","818372","0.0-4.0-2.0-0.22","spark_pilot_2","7535","8","14","Female","","false","","","","","[935.6999999955297]","./assets/img/canyon/catch/1.jpg","[""spaceBar""]","value training","canyon","0","{""ArrowUp,ArrowLeft"":26,""ArrowUp,ArrowRight"":10,""ArrowDown,ArrowLeft"":5,""ArrowDown,ArrowRight"":17}","true","spaceBar","true","","","revaluation","1","44","","",""
"html-keyboard-response","159","818873","0.0-4.0-2.0-1.22","spark_pilot_2","7535","8","14","Female","","","","","","","null","<div style=""font-size:60px;"">+</div>","null","fixation","","","","","","","","","","","45","","",""
"revaluation","160","824878","0.0-4.0-2.0-0.23","spark_pilot_2","7535","8","14","Female","","false","","","","","[727.2999999970198,643.1999999955297]","./assets/img/canyon/memory/14.jpg","[""ArrowUp"",""ArrowLeft""]","value training","canyon","26","{""ArrowUp,ArrowLeft"":26,""ArrowUp,ArrowRight"":10,""ArrowDown,ArrowLeft"":5,""ArrowDown,ArrowRight"":17}","true","ArrowUp,ArrowLeft","false","","","revaluation","1","46","","",""
"html-keyboard-response","161","825379","0.0-4.0-2.0-1.23","spark_pilot_2","7535","8","14","Female","","","","","","","null","<div style=""font-size:60px;"">+</div>","null","fixation","","","","","","","","","","","47","","",""
"revaluation","162","831383","0.0-4.0-2.0-0.24","spark_pilot_2","7535","8","14","Female","","false","","","","","[455.30000000447035,1537.3999999985099]","./assets/img/canyon/memory/32.jpg","[""ArrowUp"",""ArrowLeft""]","value training","canyon","26","{""ArrowUp,ArrowLeft"":26,""ArrowUp,ArrowRight"":10,""ArrowDown,ArrowLeft"":5,""ArrowDown,ArrowRight"":17}","true","ArrowUp,ArrowLeft","false","","","revaluation","1","48","","",""
"html-keyboard-response","163","831885","0.0-4.0-2.0-1.24","spark_pilot_2","7535","8","14","Female","","","","","","","null","<div style=""font-size:60px;"">+</div>","null","fixation","","","","","","","","","","","49","","",""
"revaluation","164","837892","0.0-4.0-2.0-0.25","spark_pilot_2","7535","8","14","Female","","false","","","","","[720.2000000029802,750.5]","./assets/img/canyon/memory/11.jpg","[""ArrowUp"",""ArrowLeft""]","value training","canyon","26","{""ArrowUp,ArrowLeft"":26,""ArrowUp,ArrowRight"":10,""ArrowDown,ArrowLeft"":5,""ArrowDown,ArrowRight"":17}","true","ArrowUp,ArrowLeft","false","","","revaluation","1","50","","",""
"html-keyboard-response","165","838393","0.0-4.0-2.0-1.25","spark_pilot_2","7535","8","14","Female","","","","","","","null","<div style=""font-size:60px;"">+</div>","null","fixation","","","","","","","","","","","51","","",""
"revaluation","166","844399","0.0-4.0-2.0-0.26","spark_pilot_2","7535","8","14","Female","","false","","","","","[693.2000000029802,549.2000000029802]","./assets/img/canyon/memory/20.jpg","[""ArrowUp"",""ArrowLeft""]","value training","canyon","26","{""ArrowUp,ArrowLeft"":26,""ArrowUp,ArrowRight"":10,""ArrowDown,ArrowLeft"":5,""ArrowDown,ArrowRight"":17}","true","ArrowUp,ArrowLeft","false","","","revaluation","1","52","","",""
"html-keyboard-response","167","844900","0.0-4.0-2.0-1.26","spark_pilot_2","7535","8","14","Female","","","","","","","null","<div style=""font-size:60px;"">+</div>","null","fixation","","","","","","","","","","","53","","",""
"revaluation","168","850905","0.0-4.0-2.0-0.27","spark_pilot_2","7535","8","14","Female","","false","","","","","[657,905.7000000029802]","./assets/img/canyon/memory/41.jpg","[""ArrowUp"",""ArrowRight""]","value training","canyon","10","{""ArrowUp,ArrowLeft"":26,""ArrowUp,ArrowRight"":10,""ArrowDown,ArrowLeft"":5,""ArrowDown,ArrowRight"":17}","false","ArrowUp,ArrowRight","false","","","revaluation","1","54","","",""
"html-keyboard-response","169","851406","0.0-4.0-2.0-1.27","spark_pilot_2","7535","8","14","Female","","","","","","","null","<div style=""font-size:60px;"">+</div>","null","fixation","","","","","","","","","","","55","","",""
"revaluation","170","857412","0.0-4.0-2.0-0.28","spark_pilot_2","7535","8","14","Female","","false","","","","","[941,539.1999999955297]","./assets/img/canyon/memory/24.jpg","[""ArrowUp"",""ArrowLeft""]","value training","canyon","26","{""ArrowUp,ArrowLeft"":26,""ArrowUp,ArrowRight"":10,""ArrowDown,ArrowLeft"":5,""ArrowDown,ArrowRight"":17}","true","ArrowUp,ArrowLeft","false","","","revaluation","1","56","","",""
"html-keyboard-response","171","857913","0.0-4.0-2.0-1.28","spark_pilot_2","7535","8","14","Female","","","","","","","null","<div style=""font-size:60px;"">+</div>","null","fixation","","","","","","","","","","","57","","",""
"revaluation","172","863920","0.0-4.0-2.0-0.29","spark_pilot_2","7535","8","14","Female","","false","","","","","[580.5,472]","./assets/img/canyon/memory/2.jpg","[""ArrowUp"",""ArrowLeft""]","value training","canyon","26","{""ArrowUp,ArrowLeft"":26,""ArrowUp,ArrowRight"":10,""ArrowDown,ArrowLeft"":5,""ArrowDown,ArrowRight"":17}","true","ArrowUp,ArrowLeft","false","","","revaluation","1","58","","",""
"html-keyboard-response","173","864422","0.0-4.0-2.0-1.29","spark_pilot_2","7535","8","14","Female","","","","","","","null","<div style=""font-size:60px;"">+</div>","null","fixation","","","","","","","","","","","59","","",""
"revaluation","174","870441","0.0-4.0-2.0-0.30","spark_pilot_2","7535","8","14","Female","","false","","","","","[847.5,737.2999999970198]","./assets/img/canyon/memory/18.jpg","[""ArrowUp"",""ArrowLeft""]","value training","canyon","26","{""ArrowUp,ArrowLeft"":26,""ArrowUp,ArrowRight"":10,""ArrowDown,ArrowLeft"":5,""ArrowDown,ArrowRight"":17}","true","ArrowUp,ArrowLeft","false","","","revaluation","1","60","","",""
"html-keyboard-response","175","870943","0.0-4.0-2.0-1.30","spark_pilot_2","7535","8","14","Female","","","","","","","null","<div style=""font-size:60px;"">+</div>","null","fixation","","","","","","","","","","","61","","",""
"revaluation","176","876958","0.0-4.0-2.0-0.31","spark_pilot_2","7535","8","14","Female","","false","","","","","[517.6000000014901,627.3000000044703]","./assets/img/canyon/memory/25.jpg","[""ArrowDown"",""ArrowRight""]","value training","canyon","17","{""ArrowUp,ArrowLeft"":26,""ArrowUp,ArrowRight"":10,""ArrowDown,ArrowLeft"":5,""ArrowDown,ArrowRight"":17}","false","ArrowDown,ArrowRight","false","","","revaluation","1","62","","",""
"html-keyboard-response","177","877459","0.0-4.0-2.0-1.31","spark_pilot_2","7535","8","14","Female","","","","","","","null","<div style=""font-size:60px;"">+</div>","null","fixation","","","","","","","","","","","63","","",""
"revaluation","178","883464","0.0-4.0-2.0-0.32","spark_pilot_2","7535","8","14","Female","","false","","","","","[587.5,670.5]","./assets/img/canyon/memory/29.jpg","[""ArrowUp"",""ArrowLeft""]","value training","canyon","26","{""ArrowUp,ArrowLeft"":26,""ArrowUp,ArrowRight"":10,""ArrowDown,ArrowLeft"":5,""ArrowDown,ArrowRight"":17}","true","ArrowUp,ArrowLeft","false","","","revaluation","1","64","","",""
"html-keyboard-response","179","883965","0.0-4.0-2.0-1.32","spark_pilot_2","7535","8","14","Female","","","","","","","null","<div style=""font-size:60px;"">+</div>","null","fixation","","","","","","","","","","","65","","",""
"revaluation","180","887971","0.0-4.0-2.0-0.33","spark_pilot_2","7535","8","14","Female","","false","","","","","[919.7000000029802]","./assets/img/canyon/catch/7.jpg","[""spaceBar""]","value training","canyon","0","{""ArrowUp,ArrowLeft"":26,""ArrowUp,ArrowRight"":10,""ArrowDown,ArrowLeft"":5,""ArrowDown,ArrowRight"":17}","true","spaceBar","true","","","revaluation","1","66","","",""
"html-keyboard-response","181","888480","0.0-4.0-2.0-1.33","spark_pilot_2","7535","8","14","Female","","","","","","","null","<div style=""font-size:60px;"">+</div>","null","fixation","","","","","","","","","","","67","","",""
"revaluation","182","894485","0.0-4.0-2.0-0.34","spark_pilot_2","7535","8","14","Female","","false","","","","","[553.2999999970198,515.2999999970198]","./assets/img/canyon/memory/18.jpg","[""ArrowUp"",""ArrowLeft""]","value training","canyon","26","{""ArrowUp,ArrowLeft"":26,""ArrowUp,ArrowRight"":10,""ArrowDown,ArrowLeft"":5,""ArrowDown,ArrowRight"":17}","true","ArrowUp,ArrowLeft","false","","","revaluation","1","68","","",""
"html-keyboard-response","183","894986","0.0-4.0-2.0-1.34","spark_pilot_2","7535","8","14","Female","","","","","","","null","<div style=""font-size:60px;"">+</div>","null","fixation","","","","","","","","","","","69","","",""
"revaluation","184","900992","0.0-4.0-2.0-0.35","spark_pilot_2","7535","8","14","Female","","false","","","","","[653.2000000029802,614.7000000029802]","./assets/img/canyon/memory/0.jpg","[""ArrowUp"",""ArrowLeft""]","value training","canyon","26","{""ArrowUp,ArrowLeft"":26,""ArrowUp,ArrowRight"":10,""ArrowDown,ArrowLeft"":5,""ArrowDown,ArrowRight"":17}","true","ArrowUp,ArrowLeft","false","","","revaluation","1","70","","",""
"html-keyboard-response","185","901494","0.0-4.0-2.0-1.35","spark_pilot_2","7535","8","14","Female","","","","","","","null","<div style=""font-size:60px;"">+</div>","null","fixation","","","","","","","","","","","71","","",""
"revaluation","186","907500","0.0-4.0-2.0-0.36","spark_pilot_2","7535","8","14","Female","","false","","","","","[609.8000000044703,737.2999999970198]","./assets/img/canyon/memory/41.jpg","[""ArrowUp"",""ArrowLeft""]","value training","canyon","26","{""ArrowUp,ArrowLeft"":26,""ArrowUp,ArrowRight"":10,""ArrowDown,ArrowLeft"":5,""ArrowDown,ArrowRight"":17}","true","ArrowUp,ArrowLeft","false","","","revaluation","1","72","","",""
"html-keyboard-response","187","908002","0.0-4.0-2.0-1.36","spark_pilot_2","7535","8","14","Female","","","","","","","null","<div style=""font-size:60px;"">+</div>","null","fixation","","","","","","","","","","","73","","",""
"revaluation","188","914006","0.0-4.0-2.0-0.37","spark_pilot_2","7535","8","14","Female","","false","","","","","[444.5,459.5]","./assets/img/canyon/memory/28.jpg","[""ArrowUp"",""ArrowLeft""]","value training","canyon","26","{""ArrowUp,ArrowLeft"":26,""ArrowUp,ArrowRight"":10,""ArrowDown,ArrowLeft"":5,""ArrowDown,ArrowRight"":17}","true","ArrowUp,ArrowLeft","false","","","revaluation","1","74","","",""
"html-keyboard-response","189","914507","0.0-4.0-2.0-1.37","spark_pilot_2","7535","8","14","Female","","","","","","","null","<div style=""font-size:60px;"">+</div>","null","fixation","","","","","","","","","","","75","","",""
"revaluation","190","918512","0.0-4.0-2.0-0.38","spark_pilot_2","7535","8","14","Female","","false","","","","","[663.8000000044703]","./assets/img/canyon/catch/6.jpg","[""spaceBar""]","value training","canyon","0","{""ArrowUp,ArrowLeft"":26,""ArrowUp,ArrowRight"":10,""ArrowDown,ArrowLeft"":5,""ArrowDown,ArrowRight"":17}","true","spaceBar","true","","","revaluation","1","76","","",""
"html-keyboard-response","191","919028","0.0-4.0-2.0-1.38","spark_pilot_2","7535","8","14","Female","","","","","","","null","<div style=""font-size:60px;"">+</div>","null","fixation","","","","","","","","","","","77","","",""
"revaluation","192","923033","0.0-4.0-2.0-0.39","spark_pilot_2","7535","8","14","Female","","false","","","","","[951.1000000014901]","./assets/img/canyon/catch/2.jpg","[""spaceBar""]","value training","canyon","0","{""ArrowUp,ArrowLeft"":26,""ArrowUp,ArrowRight"":10,""ArrowDown,ArrowLeft"":5,""ArrowDown,ArrowRight"":17}","true","spaceBar","true","","","revaluation","1","78","","",""
"html-keyboard-response","193","923535","0.0-4.0-2.0-1.39","spark_pilot_2","7535","8","14","Female","","","","","","","null","<div style=""font-size:60px;"">+</div>","null","fixation","","","","","","","","","","","79","","",""
"revaluation","194","929541","0.0-4.0-2.0-0.40","spark_pilot_2","7535","8","14","Female","","false","","","","","[635.8999999985099,884.8999999985099]","./assets/img/canyon/memory/24.jpg","[""ArrowUp"",""ArrowLeft""]","value training","canyon","26","{""ArrowUp,ArrowLeft"":26,""ArrowUp,ArrowRight"":10,""ArrowDown,ArrowLeft"":5,""ArrowDown,ArrowRight"":17}","true","ArrowUp,ArrowLeft","false","","","revaluation","1","80","","",""
"html-keyboard-response","195","930042","0.0-4.0-2.0-1.40","spark_pilot_2","7535","8","14","Female","","","","","","","null","<div style=""font-size:60px;"">+</div>","null","fixation","","","","","","","","","","","81","","",""
"revaluation","196","936046","0.0-4.0-2.0-0.41","spark_pilot_2","7535","8","14","Female","","false","","","","","[775.6000000014901,525.8000000044703]","./assets/img/canyon/memory/26.jpg","[""ArrowUp"",""ArrowLeft""]","value training","canyon","26","{""ArrowUp,ArrowLeft"":26,""ArrowUp,ArrowRight"":10,""ArrowDown,ArrowLeft"":5,""ArrowDown,ArrowRight"":17}","true","ArrowUp,ArrowLeft","false","","","revaluation","1","82","","",""
"html-keyboard-response","197","936549","0.0-4.0-2.0-1.41","spark_pilot_2","7535","8","14","Female","","","","","","","null","<div style=""font-size:60px;"">+</div>","null","fixation","","","","","","","","","","","83","","",""
"revaluation","198","942552","0.0-4.0-2.0-0.42","spark_pilot_2","7535","8","14","Female","","false","","","","","[629.6000000014901,688.5]","./assets/img/canyon/memory/13.jpg","[""ArrowUp"",""ArrowLeft""]","value training","canyon","26","{""ArrowUp,ArrowLeft"":26,""ArrowUp,ArrowRight"":10,""ArrowDown,ArrowLeft"":5,""ArrowDown,ArrowRight"":17}","true","ArrowUp,ArrowLeft","false","","","revaluation","1","84","","",""
"html-keyboard-response","199","943053","0.0-4.0-2.0-1.42","spark_pilot_2","7535","8","14","Female","","","","","","","null","<div style=""font-size:60px;"">+</div>","null","fixation","","","","","","","","","","","85","","",""
"revaluation","200","949070","0.0-4.0-2.0-0.43","spark_pilot_2","7535","8","14","Female","","false","","","","","[938.5,1156.5]","./assets/img/canyon/memory/11.jpg","[""ArrowUp"",""ArrowLeft""]","value training","canyon","26","{""ArrowUp,ArrowLeft"":26,""ArrowUp,ArrowRight"":10,""ArrowDown,ArrowLeft"":5,""ArrowDown,ArrowRight"":17}","true","ArrowUp,ArrowLeft","false","","","revaluation","1","86","","",""
"html-keyboard-response","201","949572","0.0-4.0-2.0-1.43","spark_pilot_2","7535","8","14","Female","","","","","","","null","<div style=""font-size:60px;"">+</div>","null","fixation","","","","","","","","","","","87","","",""
"revaluation","202","955577","0.0-4.0-2.0-0.44","spark_pilot_2","7535","8","14","Female","","false","","","","","[433.1000000014901,827]","./assets/img/canyon/memory/27.jpg","[""ArrowUp"",""ArrowLeft""]","value training","canyon","26","{""ArrowUp,ArrowLeft"":26,""ArrowUp,ArrowRight"":10,""ArrowDown,ArrowLeft"":5,""ArrowDown,ArrowRight"":17}","true","ArrowUp,ArrowLeft","false","","","revaluation","1","88","","",""
"html-keyboard-response","203","956079","0.0-4.0-2.0-1.44","spark_pilot_2","7535","8","14","Female","","","","","","","null","<div style=""font-size:60px;"">+</div>","null","fixation","","","","","","","","","","","89","","",""
"revaluation","204","962084","0.0-4.0-2.0-0.45","spark_pilot_2","7535","8","14","Female","","false","","","","","[552,860]","./assets/img/canyon/memory/3.jpg","[""ArrowUp"",""ArrowLeft""]","value training","canyon","26","{""ArrowUp,ArrowLeft"":26,""ArrowUp,ArrowRight"":10,""ArrowDown,ArrowLeft"":5,""ArrowDown,ArrowRight"":17}","true","ArrowUp,ArrowLeft","false","","","revaluation","1","90","","",""
"html-keyboard-response","205","962586","0.0-4.0-2.0-1.45","spark_pilot_2","7535","8","14","Female","","","","","","","null","<div style=""font-size:60px;"">+</div>","null","fixation","","","","","","","","","","","91","","",""
"revaluation","206","968605","0.0-4.0-2.0-0.46","spark_pilot_2","7535","8","14","Female","","false","","","","","[358.1000000014901,602.8000000044703]","./assets/img/canyon/memory/1.jpg","[""ArrowUp"",""ArrowLeft""]","value training","canyon","26","{""ArrowUp,ArrowLeft"":26,""ArrowUp,ArrowRight"":10,""ArrowDown,ArrowLeft"":5,""ArrowDown,ArrowRight"":17}","true","ArrowUp,ArrowLeft","false","","","revaluation","1","92","","",""
"html-keyboard-response","207","969107","0.0-4.0-2.0-1.46","spark_pilot_2","7535","8","14","Female","","","","","","","null","<div style=""font-size:60px;"">+</div>","null","fixation","","","","","","","","","","","93","","",""
"revaluation","208","975111","0.0-4.0-2.0-0.47","spark_pilot_2","7535","8","14","Female","","false","","","","","[475.6000000014901,803.2999999970198]","./assets/img/canyon/memory/21.jpg","[""ArrowUp"",""ArrowLeft""]","value training","canyon","26","{""ArrowUp,ArrowLeft"":26,""ArrowUp,ArrowRight"":10,""ArrowDown,ArrowLeft"":5,""ArrowDown,ArrowRight"":17}","true","ArrowUp,ArrowLeft","false","","","revaluation","1","94","","",""
"html-keyboard-response","209","975612","0.0-4.0-2.0-1.47","spark_pilot_2","7535","8","14","Female","","","","","","","null","<div style=""font-size:60px;"">+</div>","null","fixation","","","","","","","","","","","95","","",""
"revaluation","210","981617","0.0-4.0-2.0-0.48","spark_pilot_2","7535","8","14","Female","","false","","","","","[845,785.7999999970198]","./assets/img/canyon/memory/32.jpg","[""ArrowUp"",""ArrowLeft""]","value training","canyon","26","{""ArrowUp,ArrowLeft"":26,""ArrowUp,ArrowRight"":10,""ArrowDown,ArrowLeft"":5,""ArrowDown,ArrowRight"":17}","true","ArrowUp,ArrowLeft","false","","","revaluation","1","96","","",""
"html-keyboard-response","211","982118","0.0-4.0-2.0-1.48","spark_pilot_2","7535","8","14","Female","","","","","","","null","<div style=""font-size:60px;"">+</div>","null","fixation","","","","","","","","","","","97","","",""
"revaluation","212","988123","0.0-4.0-2.0-0.49","spark_pilot_2","7535","8","14","Female","","false","","","","","[695.6000000014901,624.1000000014901]","./assets/img/canyon/memory/21.jpg","[""ArrowUp"",""ArrowLeft""]","value training","canyon","26","{""ArrowUp,ArrowLeft"":26,""ArrowUp,ArrowRight"":10,""ArrowDown,ArrowLeft"":5,""ArrowDown,ArrowRight"":17}","true","ArrowUp,ArrowLeft","false","","","revaluation","1","98","","",""
"html-keyboard-response","213","988625","0.0-4.0-2.0-1.49","spark_pilot_2","7535","8","14","Female","","","","","","","null","<div style=""font-size:60px;"">+</div>","null","fixation","","","","","","","","","","","99","","",""
"learning-instructions","214","1004445","0.0-4.0-3.0-0.0","spark_pilot_2","7535","8","14","Female","","","","","","","2238.7999999970198","<p> Now, you will travel with a friend who will choose whether you go up or down first. </p>
            <p> On these turns, you will just see the animal that they found. You will still get to choose which chest to search for treasure.</p>","","instructions","","","","","","","","","","","","","",""
"revaluation","215","1008466","0.0-4.0-4.0-0.0","spark_pilot_2","7535","8","14","Female","","false","","","","","[1252.6999999955297]","./assets/img/canyon/animals/giraffe.jpg","[""ArrowRight""]","revaluation","canyon","27","{""ArrowUp,ArrowLeft"":2,""ArrowUp,ArrowRight"":11,""ArrowDown,ArrowLeft"":8,""ArrowDown,ArrowRight"":27}","true","ArrowDown,ArrowRight","","","","revaluation","1","0","","",""
"html-keyboard-response","216","1008981","0.0-4.0-4.0-1.0","spark_pilot_2","7535","8","14","Female","","","","","","","null","<div style=""font-size:60px;"">+</div>","null","fixation","","","","","","","","","","","1","","",""
"revaluation","217","1013005","0.0-4.0-4.0-0.1","spark_pilot_2","7535","8","14","Female","","false","","","","","[551.2999999970198]","./assets/img/canyon/animals/lion.jpg","[""ArrowLeft""]","revaluation","canyon","2","{""ArrowUp,ArrowLeft"":2,""ArrowUp,ArrowRight"":11,""ArrowDown,ArrowLeft"":8,""ArrowDown,ArrowRight"":27}","false","ArrowUp,ArrowLeft","","","","revaluation","1","2","","",""
"html-keyboard-response","218","1013509","0.0-4.0-4.0-1.1","spark_pilot_2","7535","8","14","Female","","","","","","","null","<div style=""font-size:60px;"">+</div>","null","fixation","","","","","","","","","","","3","","",""
"revaluation","219","1017528","0.0-4.0-4.0-0.2","spark_pilot_2","7535","8","14","Female","","false","","","","","[801.6000000014901]","./assets/img/canyon/animals/lion.jpg","[""ArrowRight""]","revaluation","canyon","11","{""ArrowUp,ArrowLeft"":2,""ArrowUp,ArrowRight"":11,""ArrowDown,ArrowLeft"":8,""ArrowDown,ArrowRight"":27}","true","ArrowUp,ArrowRight","","","","revaluation","1","4","","",""
"html-keyboard-response","220","1018045","0.0-4.0-4.0-1.2","spark_pilot_2","7535","8","14","Female","","","","","","","null","<div style=""font-size:60px;"">+</div>","null","fixation","","","","","","","","","","","5","","",""
"revaluation","221","1022057","0.0-4.0-4.0-0.3","spark_pilot_2","7535","8","14","Female","","false","","","","","[566.1999999955297]","./assets/img/canyon/animals/giraffe.jpg","[""ArrowRight""]","revaluation","canyon","27","{""ArrowUp,ArrowLeft"":2,""ArrowUp,ArrowRight"":11,""ArrowDown,ArrowLeft"":8,""ArrowDown,ArrowRight"":27}","true","ArrowDown,ArrowRight","","","","revaluation","1","6","","",""
"html-keyboard-response","222","1022569","0.0-4.0-4.0-1.3","spark_pilot_2","7535","8","14","Female","","","","","","","null","<div style=""font-size:60px;"">+</div>","null","fixation","","","","","","","","","","","7","","",""
"revaluation","223","1026596","0.0-4.0-4.0-0.4","spark_pilot_2","7535","8","14","Female","","false","","","","","[1348.5999999940395]","./assets/img/canyon/animals/lion.jpg","[""ArrowRight""]","revaluation","canyon","11","{""ArrowUp,ArrowLeft"":2,""ArrowUp,ArrowRight"":11,""ArrowDown,ArrowLeft"":8,""ArrowDown,ArrowRight"":27}","true","ArrowUp,ArrowRight","","","","revaluation","1","8","","",""
"html-keyboard-response","224","1027099","0.0-4.0-4.0-1.4","spark_pilot_2","7535","8","14","Female","","","","","","","null","<div style=""font-size:60px;"">+</div>","null","fixation","","","","","","","","","","","9","","",""
"revaluation","225","1031119","0.0-4.0-4.0-0.5","spark_pilot_2","7535","8","14","Female","","false","","","","","[849.8999999985099]","./assets/img/canyon/animals/lion.jpg","[""ArrowRight""]","revaluation","canyon","11","{""ArrowUp,ArrowLeft"":2,""ArrowUp,ArrowRight"":11,""ArrowDown,ArrowLeft"":8,""ArrowDown,ArrowRight"":27}","true","ArrowUp,ArrowRight","","","","revaluation","1","10","","",""
"html-keyboard-response","226","1031632","0.0-4.0-4.0-1.5","spark_pilot_2","7535","8","14","Female","","","","","","","null","<div style=""font-size:60px;"">+</div>","null","fixation","","","","","","","","","","","11","","",""
"revaluation","227","1035638","0.0-4.0-4.0-0.6","spark_pilot_2","7535","8","14","Female","","false","","","","","[653.8999999985099]","./assets/img/canyon/animals/giraffe.jpg","[""ArrowLeft""]","revaluation","canyon","8","{""ArrowUp,ArrowLeft"":2,""ArrowUp,ArrowRight"":11,""ArrowDown,ArrowLeft"":8,""ArrowDown,ArrowRight"":27}","false","ArrowDown,ArrowLeft","","","","revaluation","1","12","","",""
"html-keyboard-response","228","1036140","0.0-4.0-4.0-1.6","spark_pilot_2","7535","8","14","Female","","","","","","","null","<div style=""font-size:60px;"">+</div>","null","fixation","","","","","","","","","","","13","","",""
"revaluation","229","1040143","0.0-4.0-4.0-0.7","spark_pilot_2","7535","8","14","Female","","false","","","","","[719.1000000014901]","./assets/img/canyon/animals/giraffe.jpg","[""ArrowRight""]","revaluation","canyon","27","{""ArrowUp,ArrowLeft"":2,""ArrowUp,ArrowRight"":11,""ArrowDown,ArrowLeft"":8,""ArrowDown,ArrowRight"":27}","true","ArrowDown,ArrowRight","","","","revaluation","1","14","","",""
"html-keyboard-response","230","1040645","0.0-4.0-4.0-1.7","spark_pilot_2","7535","8","14","Female","","","","","","","null","<div style=""font-size:60px;"">+</div>","null","fixation","","","","","","","","","","","15","","",""
"revaluation","231","1044649","0.0-4.0-4.0-0.8","spark_pilot_2","7535","8","14","Female","","false","","","","","[568.9000000059605]","./assets/img/canyon/animals/lion.jpg","[""ArrowRight""]","revaluation","canyon","11","{""ArrowUp,ArrowLeft"":2,""ArrowUp,ArrowRight"":11,""ArrowDown,ArrowLeft"":8,""ArrowDown,ArrowRight"":27}","true","ArrowUp,ArrowRight","","","","revaluation","1","16","","",""
"html-keyboard-response","232","1045149","0.0-4.0-4.0-1.8","spark_pilot_2","7535","8","14","Female","","","","","","","null","<div style=""font-size:60px;"">+</div>","null","fixation","","","","","","","","","","","17","","",""
"revaluation","233","1049154","0.0-4.0-4.0-0.9","spark_pilot_2","7535","8","14","Female","","false","","","","","[736.3999999985099]","./assets/img/canyon/animals/giraffe.jpg","[""ArrowRight""]","revaluation","canyon","27","{""ArrowUp,ArrowLeft"":2,""ArrowUp,ArrowRight"":11,""ArrowDown,ArrowLeft"":8,""ArrowDown,ArrowRight"":27}","true","ArrowDown,ArrowRight","","","","revaluation","1","18","","",""
"html-keyboard-response","234","1049656","0.0-4.0-4.0-1.9","spark_pilot_2","7535","8","14","Female","","","","","","","null","<div style=""font-size:60px;"">+</div>","null","fixation","","","","","","","","","","","19","","",""
"revaluation","235","1053660","0.0-4.0-4.0-0.10","spark_pilot_2","7535","8","14","Female","","false","","","","","[497.6000000014901]","./assets/img/canyon/animals/lion.jpg","[""ArrowRight""]","revaluation","canyon","11","{""ArrowUp,ArrowLeft"":2,""ArrowUp,ArrowRight"":11,""ArrowDown,ArrowLeft"":8,""ArrowDown,ArrowRight"":27}","true","ArrowUp,ArrowRight","","","","revaluation","1","20","","",""
"html-keyboard-response","236","1054161","0.0-4.0-4.0-1.10","spark_pilot_2","7535","8","14","Female","","","","","","","null","<div style=""font-size:60px;"">+</div>","null","fixation","","","","","","","","","","","21","","",""
"revaluation","237","1058166","0.0-4.0-4.0-0.11","spark_pilot_2","7535","8","14","Female","","false","","","","","[712]","./assets/img/canyon/animals/lion.jpg","[""ArrowRight""]","revaluation","canyon","11","{""ArrowUp,ArrowLeft"":2,""ArrowUp,ArrowRight"":11,""ArrowDown,ArrowLeft"":8,""ArrowDown,ArrowRight"":27}","true","ArrowUp,ArrowRight","","","","revaluation","1","22","","",""
"html-keyboard-response","238","1058668","0.0-4.0-4.0-1.11","spark_pilot_2","7535","8","14","Female","","","","","","","null","<div style=""font-size:60px;"">+</div>","null","fixation","","","","","","","","","","","23","","",""
"revaluation","239","1062673","0.0-4.0-4.0-0.12","spark_pilot_2","7535","8","14","Female","","false","","","","","[642.7999999970198]","./assets/img/canyon/animals/lion.jpg","[""ArrowRight""]","revaluation","canyon","11","{""ArrowUp,ArrowLeft"":2,""ArrowUp,ArrowRight"":11,""ArrowDown,ArrowLeft"":8,""ArrowDown,ArrowRight"":27}","true","ArrowUp,ArrowRight","","","","revaluation","1","24","","",""
"html-keyboard-response","240","1063173","0.0-4.0-4.0-1.12","spark_pilot_2","7535","8","14","Female","","","","","","","null","<div style=""font-size:60px;"">+</div>","null","fixation","","","","","","","","","","","25","","",""
"revaluation","241","1067179","0.0-4.0-4.0-0.13","spark_pilot_2","7535","8","14","Female","","false","","","","","[492.3999999985099]","./assets/img/canyon/animals/giraffe.jpg","[""ArrowRight""]","revaluation","canyon","27","{""ArrowUp,ArrowLeft"":2,""ArrowUp,ArrowRight"":11,""ArrowDown,ArrowLeft"":8,""ArrowDown,ArrowRight"":27}","true","ArrowDown,ArrowRight","","","","revaluation","1","26","","",""
"html-keyboard-response","242","1067680","0.0-4.0-4.0-1.13","spark_pilot_2","7535","8","14","Female","","","","","","","null","<div style=""font-size:60px;"">+</div>","null","fixation","","","","","","","","","","","27","","",""
"revaluation","243","1071684","0.0-4.0-4.0-0.14","spark_pilot_2","7535","8","14","Female","","false","","","","","[503.6000000014901]","./assets/img/canyon/animals/giraffe.jpg","[""ArrowRight""]","revaluation","canyon","27","{""ArrowUp,ArrowLeft"":2,""ArrowUp,ArrowRight"":11,""ArrowDown,ArrowLeft"":8,""ArrowDown,ArrowRight"":27}","true","ArrowDown,ArrowRight","","","","revaluation","1","28","","",""
"html-keyboard-response","244","1072185","0.0-4.0-4.0-1.14","spark_pilot_2","7535","8","14","Female","","","","","","","null","<div style=""font-size:60px;"">+</div>","null","fixation","","","","","","","","","","","29","","",""
"revaluation","245","1076189","0.0-4.0-4.0-0.15","spark_pilot_2","7535","8","14","Female","","false","","","","","[718.1999999955297]","./assets/img/canyon/animals/giraffe.jpg","[""ArrowRight""]","revaluation","canyon","27","{""ArrowUp,ArrowLeft"":2,""ArrowUp,ArrowRight"":11,""ArrowDown,ArrowLeft"":8,""ArrowDown,ArrowRight"":27}","true","ArrowDown,ArrowRight","","","","revaluation","1","30","","",""
"html-keyboard-response","246","1076691","0.0-4.0-4.0-1.15","spark_pilot_2","7535","8","14","Female","","","","","","","null","<div style=""font-size:60px;"">+</div>","null","fixation","","","","","","","","","","","31","","",""
"revaluation","247","1080695","0.0-4.0-4.0-0.16","spark_pilot_2","7535","8","14","Female","","false","","","","","[458.6000000014901]","./assets/img/canyon/animals/giraffe.jpg","[""ArrowRight""]","revaluation","canyon","27","{""ArrowUp,ArrowLeft"":2,""ArrowUp,ArrowRight"":11,""ArrowDown,ArrowLeft"":8,""ArrowDown,ArrowRight"":27}","true","ArrowDown,ArrowRight","","","","revaluation","1","32","","",""
"html-keyboard-response","248","1081197","0.0-4.0-4.0-1.16","spark_pilot_2","7535","8","14","Female","","","","","","","null","<div style=""font-size:60px;"">+</div>","null","fixation","","","","","","","","","","","33","","",""
"revaluation","249","1085209","0.0-4.0-4.0-0.17","spark_pilot_2","7535","8","14","Female","","false","","","","","[511.1000000014901]","./assets/img/canyon/animals/lion.jpg","[""ArrowRight""]","revaluation","canyon","11","{""ArrowUp,ArrowLeft"":2,""ArrowUp,ArrowRight"":11,""ArrowDown,ArrowLeft"":8,""ArrowDown,ArrowRight"":27}","true","ArrowUp,ArrowRight","","","","revaluation","1","34","","",""
"html-keyboard-response","250","1085711","0.0-4.0-4.0-1.17","spark_pilot_2","7535","8","14","Female","","","","","","","null","<div style=""font-size:60px;"">+</div>","null","fixation","","","","","","","","","","","35","","",""
"learning-instructions","251","1099287","0.0-4.0-5.0-0.0","spark_pilot_2","7535","8","14","Female","","","","","","","1447.6000000014901","<p> Time to play the dot game! </p>
            <p> For one minute, click the red dots on the following screen as they appear. </p>
            <p><b> Don't look away, as you will earn bonus for clicking dots</b>. </p>","","instructions","","","","","","","","","","","","","",""
"revaluation","252","1159289","0.0-4.0-6.0-0.0","spark_pilot_2","7535","8","14","Female","","","","","","","[108,112,88,72,84,81,75]","","","rest","","70","","","","","0","60000","","","","","",""
"learning-instructions","253","1167968","0.0-4.0-7.0-0.0","spark_pilot_2","7535","8","14","Female","","","","","","","1862.8999999985099","<p> You have almost finished this part of the game! </p>
            <p> We are going to ask you to make a few more choices. </p>","","instructions","","","","","","","","","","","","","",""
"learning-instructions","254","1183609","0.0-4.0-7.0-0.1","spark_pilot_2","7535","8","14","Female","","","","","","","1673.5","<p> First, you need to decide whether to go up or down. When you see each picture, use the arrow keys to make your choice. </p>
            <p><b>You will not see which animal you found, but try to get to the one that will give you the most treasure.</b></p>","","instructions","","","","","","","","","","","","","",""
"revaluation","255","1184387","0.0-4.0-8.0-0.0","spark_pilot_2","7535","8","14","Female","","false","","","","","[776.5]","./assets/img/canyon/test/0.jpg","[""ArrowDown""]","first stage test","canyon","0","{""ArrowUp,ArrowLeft"":2,""ArrowUp,ArrowRight"":11,""ArrowDown,ArrowLeft"":8,""ArrowDown,ArrowRight"":27}","true","ArrowDown","false","","","revaluation","1","","","",""
"html-keyboard-response","256","1184895","0.0-4.0-8.0-1.0","spark_pilot_2","7535","8","14","Female","","","","","","","null","<div style=""font-size:60px;"">+</div>","null","fixation","","","","","","","","","","","","","",""
"revaluation","257","1185842","0.0-4.0-8.0-0.1","spark_pilot_2","7535","8","14","Female","","false","","","","","[945.3000000044703]","./assets/img/canyon/test/1.jpg","[""ArrowDown""]","first stage test","canyon","0","{""ArrowUp,ArrowLeft"":2,""ArrowUp,ArrowRight"":11,""ArrowDown,ArrowLeft"":8,""ArrowDown,ArrowRight"":27}","true","ArrowDown","false","","","revaluation","1","","","",""
"html-keyboard-response","258","1186344","0.0-4.0-8.0-1.1","spark_pilot_2","7535","8","14","Female","","","","","","","null","<div style=""font-size:60px;"">+</div>","null","fixation","","","","","","","","","","","","","",""
"revaluation","259","1187269","0.0-4.0-8.0-0.2","spark_pilot_2","7535","8","14","Female","","false","","","","","[923.7000000029802]","./assets/img/canyon/test/2.jpg","[""ArrowDown""]","first stage test","canyon","0","{""ArrowUp,ArrowLeft"":2,""ArrowUp,ArrowRight"":11,""ArrowDown,ArrowLeft"":8,""ArrowDown,ArrowRight"":27}","true","ArrowDown","false","","","revaluation","1","","","",""
"html-keyboard-response","260","1187777","0.0-4.0-8.0-1.2","spark_pilot_2","7535","8","14","Female","","","","","","","null","<div style=""font-size:60px;"">+</div>","null","fixation","","","","","","","","","","","","","",""
"revaluation","261","1188759","0.0-4.0-8.0-0.3","spark_pilot_2","7535","8","14","Female","","false","","","","","[980]","./assets/img/canyon/test/3.jpg","[""ArrowDown""]","first stage test","canyon","0","{""ArrowUp,ArrowLeft"":2,""ArrowUp,ArrowRight"":11,""ArrowDown,ArrowLeft"":8,""ArrowDown,ArrowRight"":27}","true","ArrowDown","false","","","revaluation","1","","","",""
"html-keyboard-response","262","1189261","0.0-4.0-8.0-1.3","spark_pilot_2","7535","8","14","Female","","","","","","","null","<div style=""font-size:60px;"">+</div>","null","fixation","","","","","","","","","","","","","",""
"learning-instructions","263","1201700","0.0-4.0-9.0-0.0","spark_pilot_2","7535","8","14","Female","","","","","","","1094.6999999955297","<p> Now you will see the animals again and can search their chests for treasure. </p>
            <p> This time, you will not see how much treasure you earned, but you will earn more bonus money for making better choices. </p>","","instructions","","","","","","","","","","","","","",""
"revaluation","264","1202599","0.0-4.0-10.0-0.0","spark_pilot_2","7535","8","14","Female","","false","","","","","[897.6000000014901]","./assets/img/canyon/animals/lion.jpg","[""ArrowRight""]","second stage test","canyon","0","{""ArrowUp,ArrowLeft"":2,""ArrowUp,ArrowRight"":11,""ArrowDown,ArrowLeft"":8,""ArrowDown,ArrowRight"":27}","true","ArrowUp,ArrowRight","","","","revaluation","1","","","",""
"html-keyboard-response","265","1203104","0.0-4.0-10.0-1.0","spark_pilot_2","7535","8","14","Female","","","","","","","null","<div style=""font-size:60px;"">+</div>","null","fixation","","","","","","","","","","","","","",""
"revaluation","266","1204064","0.0-4.0-10.0-0.1","spark_pilot_2","7535","8","14","Female","","false","","","","","[957.7999999970198]","./assets/img/canyon/animals/lion.jpg","[""ArrowRight""]","second stage test","canyon","0","{""ArrowUp,ArrowLeft"":2,""ArrowUp,ArrowRight"":11,""ArrowDown,ArrowLeft"":8,""ArrowDown,ArrowRight"":27}","true","ArrowUp,ArrowRight","","","","revaluation","1","","","",""
"html-keyboard-response","267","1204571","0.0-4.0-10.0-1.1","spark_pilot_2","7535","8","14","Female","","","","","","","null","<div style=""font-size:60px;"">+</div>","null","fixation","","","","","","","","","","","","","",""
"revaluation","268","1205240","0.0-4.0-10.0-0.2","spark_pilot_2","7535","8","14","Female","","false","","","","","[667.3999999985099]","./assets/img/canyon/animals/lion.jpg","[""ArrowRight""]","second stage test","canyon","0","{""ArrowUp,ArrowLeft"":2,""ArrowUp,ArrowRight"":11,""ArrowDown,ArrowLeft"":8,""ArrowDown,ArrowRight"":27}","true","ArrowUp,ArrowRight","","","","revaluation","1","","","",""
"html-keyboard-response","269","1205745","0.0-4.0-10.0-1.2","spark_pilot_2","7535","8","14","Female","","","","","","","null","<div style=""font-size:60px;"">+</div>","null","fixation","","","","","","","","","","","","","",""
"revaluation","270","1206599","0.0-4.0-10.0-0.3","spark_pilot_2","7535","8","14","Female","","false","","","","","[851.6000000014901]","./assets/img/canyon/animals/lion.jpg","[""ArrowRight""]","second stage test","canyon","0","{""ArrowUp,ArrowLeft"":2,""ArrowUp,ArrowRight"":11,""ArrowDown,ArrowLeft"":8,""ArrowDown,ArrowRight"":27}","true","ArrowUp,ArrowRight","","","","revaluation","1","","","",""
"html-keyboard-response","271","1207103","0.0-4.0-10.0-1.3","spark_pilot_2","7535","8","14","Female","","","","","","","null","<div style=""font-size:60px;"">+</div>","null","fixation","","","","","","","","","","","","","",""
"revaluation","272","1207966","0.0-4.0-10.0-0.4","spark_pilot_2","7535","8","14","Female","","false","","","","","[861.3999999985099]","./assets/img/canyon/animals/giraffe.jpg","[""ArrowRight""]","second stage test","canyon","0","{""ArrowUp,ArrowLeft"":2,""ArrowUp,ArrowRight"":11,""ArrowDown,ArrowLeft"":8,""ArrowDown,ArrowRight"":27}","true","ArrowDown,ArrowRight","","","","revaluation","1","","","",""
"html-keyboard-response","273","1208480","0.0-4.0-10.0-1.4","spark_pilot_2","7535","8","14","Female","","","","","","","null","<div style=""font-size:60px;"">+</div>","null","fixation","","","","","","","","","","","","","",""
"revaluation","274","1209239","0.0-4.0-10.0-0.5","spark_pilot_2","7535","8","14","Female","","false","","","","","[757.2999999970198]","./assets/img/canyon/animals/giraffe.jpg","[""ArrowRight""]","second stage test","canyon","0","{""ArrowUp,ArrowLeft"":2,""ArrowUp,ArrowRight"":11,""ArrowDown,ArrowLeft"":8,""ArrowDown,ArrowRight"":27}","true","ArrowDown,ArrowRight","","","","revaluation","1","","","",""
"html-keyboard-response","275","1209745","0.0-4.0-10.0-1.5","spark_pilot_2","7535","8","14","Female","","","","","","","null","<div style=""font-size:60px;"">+</div>","null","fixation","","","","","","","","","","","","","",""
"revaluation","276","1210576","0.0-4.0-10.0-0.6","spark_pilot_2","7535","8","14","Female","","false","","","","","[828.3999999985099]","./assets/img/canyon/animals/giraffe.jpg","[""ArrowRight""]","second stage test","canyon","0","{""ArrowUp,ArrowLeft"":2,""ArrowUp,ArrowRight"":11,""ArrowDown,ArrowLeft"":8,""ArrowDown,ArrowRight"":27}","true","ArrowDown,ArrowRight","","","","revaluation","1","","","",""
"html-keyboard-response","277","1211085","0.0-4.0-10.0-1.6","spark_pilot_2","7535","8","14","Female","","","","","","","null","<div style=""font-size:60px;"">+</div>","null","fixation","","","","","","","","","","","","","",""
"revaluation","278","1211776","0.0-4.0-10.0-0.7","spark_pilot_2","7535","8","14","Female","","false","","","","","[688.7999999970198]","./assets/img/canyon/animals/giraffe.jpg","[""ArrowRight""]","second stage test","canyon","0","{""ArrowUp,ArrowLeft"":2,""ArrowUp,ArrowRight"":11,""ArrowDown,ArrowLeft"":8,""ArrowDown,ArrowRight"":27}","true","ArrowDown,ArrowRight","","","","revaluation","1","","","",""
"html-keyboard-response","279","1212291","0.0-4.0-10.0-1.7","spark_pilot_2","7535","8","14","Female","","","","","","","null","<div style=""font-size:60px;"">+</div>","null","fixation","","","","","","","","","","","","","",""
"learning-instructions","280","1216173","0.0-4.0-0.1-0.2","spark_pilot_2","7535","8","14","Female","","","","","","","1187.5","<p> This time you are searching for treasure in the <b>ocean</b>.</p>","","instructions","","","","","","","","","","","","","",""
"learning-instructions","281","1234255","0.0-4.0-0.1-0.3","spark_pilot_2","7535","8","14","Female","","","","","","","839.8999999985099","<p><b>New</b> animals with <b>new</b> treasure chests live here. You need to explore to discover where the animal with the best treasure chest is.</p>
                    <p> Like before, once you figure out which animal has the chest with the most treasure, you should try to get to that animal and select that chest! </p>","","instructions","","","","","","","","","","","","","",""
"learning-instructions","282","1251165","0.0-4.0-1.1-0.1","spark_pilot_2","7535","8","14","Female","","","","","","","2179.6999999955297","<p> Remember, when you see a picture of the place, use the up and down keys to <b>find an animal</b>.</p>
            <p> When you encounter an animal, you should use the left and right keys to <b>select a treasure chest</b>.</p>
            <p> Don't forget to look out for the robber! </p>","","instructions","","","","","","","","","","","","","",""
"revaluation","283","1257181","0.0-4.0-2.1-0.50","spark_pilot_2","7535","8","14","Female","","false","","","","","[967.8000000044703,602.2000000029802]","./assets/img/ocean/memory/0.jpg","[""ArrowUp"",""ArrowLeft""]","value training","ocean","23","{""ArrowUp,ArrowLeft"":23,""ArrowUp,ArrowRight"":10,""ArrowDown,ArrowLeft"":8,""ArrowDown,ArrowRight"":30}","false","ArrowUp,ArrowLeft","false","","","original","2","0","","",""
"html-keyboard-response","284","1257694","0.0-4.0-2.1-1.50","spark_pilot_2","7535","8","14","Female","","","","","","","null","<div style=""font-size:60px;"">+</div>","null","fixation","","","","","","","","","","","1","","",""
"revaluation","285","1263734","0.0-4.0-2.1-0.51","spark_pilot_2","7535","8","14","Female","","false","","","","","[704.7999999970198,782.3000000044703]","./assets/img/ocean/memory/13.jpg","[""ArrowDown"",""ArrowRight""]","value training","ocean","30","{""ArrowUp,ArrowLeft"":23,""ArrowUp,ArrowRight"":10,""ArrowDown,ArrowLeft"":8,""ArrowDown,ArrowRight"":30}","true","ArrowDown,ArrowRight","false","","","original","2","2","","",""
"html-keyboard-response","286","1264238","0.0-4.0-2.1-1.51","spark_pilot_2","7535","8","14","Female","","","","","","","null","<div style=""font-size:60px;"">+</div>","null","fixation","","","","","","","","","","","3","","",""
"revaluation","287","1270278","0.0-4.0-2.1-0.52","spark_pilot_2","7535","8","14","Female","","false","","","","","[486,589.5]","./assets/img/ocean/memory/18.jpg","[""ArrowUp"",""ArrowRight""]","value training","ocean","10","{""ArrowUp,ArrowLeft"":23,""ArrowUp,ArrowRight"":10,""ArrowDown,ArrowLeft"":8,""ArrowDown,ArrowRight"":30}","false","ArrowUp,ArrowRight","false","","","original","2","4","","",""
"html-keyboard-response","288","1270779","0.0-4.0-2.1-1.52","spark_pilot_2","7535","8","14","Female","","","","","","","null","<div style=""font-size:60px;"">+</div>","null","fixation","","","","","","","","","","","5","","",""
"revaluation","289","1274790","0.0-4.0-2.1-0.53","spark_pilot_2","7535","8","14","Female","","false","","","","","[596.7000000029802]","./assets/img/ocean/catch/2.jpg","[""ArrowDown""]","value training","ocean","-10","{""ArrowUp,ArrowLeft"":23,""ArrowUp,ArrowRight"":10,""ArrowDown,ArrowLeft"":8,""ArrowDown,ArrowRight"":30}","false","ArrowDown","true","","","original","2","6","","",""
"html-keyboard-response","290","1275302","0.0-4.0-2.1-1.53","spark_pilot_2","7535","8","14","Female","","","","","","","null","<div style=""font-size:60px;"">+</div>","null","fixation","","","","","","","","","","","7","","",""
"revaluation","291","1281317","0.0-4.0-2.1-0.54","spark_pilot_2","7535","8","14","Female","","false","","","","","[877.2999999970198,1198.2000000029802]","./assets/img/ocean/memory/32.jpg","[""ArrowDown"",""ArrowLeft""]","value training","ocean","8","{""ArrowUp,ArrowLeft"":23,""ArrowUp,ArrowRight"":10,""ArrowDown,ArrowLeft"":8,""ArrowDown,ArrowRight"":30}","false","ArrowDown,ArrowLeft","false","","","original","2","8","","",""
"html-keyboard-response","292","1281820","0.0-4.0-2.1-1.54","spark_pilot_2","7535","8","14","Female","","","","","","","null","<div style=""font-size:60px;"">+</div>","null","fixation","","","","","","","","","","","9","","",""
"revaluation","293","1287825","0.0-4.0-2.1-0.55","spark_pilot_2","7535","8","14","Female","","false","","","","","[897.3000000044703,1070.2000000029802]","./assets/img/ocean/memory/38.jpg","[""ArrowUp"",""ArrowRight""]","value training","ocean","10","{""ArrowUp,ArrowLeft"":23,""ArrowUp,ArrowRight"":10,""ArrowDown,ArrowLeft"":8,""ArrowDown,ArrowRight"":30}","false","ArrowUp,ArrowRight","false","","","original","2","10","","",""
"html-keyboard-response","294","1288326","0.0-4.0-2.1-1.55","spark_pilot_2","7535","8","14","Female","","","","","","","null","<div style=""font-size:60px;"">+</div>","null","fixation","","","","","","","","","","","11","","",""
"revaluation","295","1294333","0.0-4.0-2.1-0.56","spark_pilot_2","7535","8","14","Female","","false","","","","","[698.6000000014901,544]","./assets/img/ocean/memory/27.jpg","[""ArrowDown"",""ArrowRight""]","value training","ocean","30","{""ArrowUp,ArrowLeft"":23,""ArrowUp,ArrowRight"":10,""ArrowDown,ArrowLeft"":8,""ArrowDown,ArrowRight"":30}","true","ArrowDown,ArrowRight","false","","","original","2","12","","",""
"html-keyboard-response","296","1294834","0.0-4.0-2.1-1.56","spark_pilot_2","7535","8","14","Female","","","","","","","null","<div style=""font-size:60px;"">+</div>","null","fixation","","","","","","","","","","","13","","",""
"revaluation","297","1300840","0.0-4.0-2.1-0.57","spark_pilot_2","7535","8","14","Female","","false","","","","","[493.29999999701977,569.8999999985099]","./assets/img/ocean/memory/38.jpg","[""ArrowUp"",""ArrowLeft""]","value training","ocean","23","{""ArrowUp,ArrowLeft"":23,""ArrowUp,ArrowRight"":10,""ArrowDown,ArrowLeft"":8,""ArrowDown,ArrowRight"":30}","false","ArrowUp,ArrowLeft","false","","","original","2","14","","",""
"html-keyboard-response","298","1301341","0.0-4.0-2.1-1.57","spark_pilot_2","7535","8","14","Female","","","","","","","null","<div style=""font-size:60px;"">+</div>","null","fixation","","","","","","","","","","","15","","",""
"revaluation","299","1307347","0.0-4.0-2.1-0.58","spark_pilot_2","7535","8","14","Female","","false","","","","","[580.6000000014901,557.6000000014901]","./assets/img/ocean/memory/24.jpg","[""ArrowDown"",""ArrowRight""]","value training","ocean","30","{""ArrowUp,ArrowLeft"":23,""ArrowUp,ArrowRight"":10,""ArrowDown,ArrowLeft"":8,""ArrowDown,ArrowRight"":30}","true","ArrowDown,ArrowRight","false","","","original","2","16","","",""
"html-keyboard-response","300","1307848","0.0-4.0-2.1-1.58","spark_pilot_2","7535","8","14","Female","","","","","","","null","<div style=""font-size:60px;"">+</div>","null","fixation","","","","","","","","","","","17","","",""
"revaluation","301","1313854","0.0-4.0-2.1-0.59","spark_pilot_2","7535","8","14","Female","","false","","","","","[535.7999999970198,537.7000000029802]","./assets/img/ocean/memory/25.jpg","[""ArrowDown"",""ArrowRight""]","value training","ocean","30","{""ArrowUp,ArrowLeft"":23,""ArrowUp,ArrowRight"":10,""ArrowDown,ArrowLeft"":8,""ArrowDown,ArrowRight"":30}","true","ArrowDown,ArrowRight","false","","","original","2","18","","",""
"html-keyboard-response","302","1314356","0.0-4.0-2.1-1.59","spark_pilot_2","7535","8","14","Female","","","","","","","null","<div style=""font-size:60px;"">+</div>","null","fixation","","","","","","","","","","","19","","",""
"revaluation","303","1320362","0.0-4.0-2.1-0.60","spark_pilot_2","7535","8","14","Female","","false","","","","","[489.19999999552965,723.4000000059605]","./assets/img/ocean/memory/1.jpg","[""ArrowDown"",""ArrowRight""]","value training","ocean","30","{""ArrowUp,ArrowLeft"":23,""ArrowUp,ArrowRight"":10,""ArrowDown,ArrowLeft"":8,""ArrowDown,ArrowRight"":30}","true","ArrowDown,ArrowRight","false","","","original","2","20","","",""
"html-keyboard-response","304","1320863","0.0-4.0-2.1-1.60","spark_pilot_2","7535","8","14","Female","","","","","","","null","<div style=""font-size:60px;"">+</div>","null","fixation","","","","","","","","","","","21","","",""
"revaluation","305","1326868","0.0-4.0-2.1-0.61","spark_pilot_2","7535","8","14","Female","","false","","","","","[677.2999999970198,639.5]","./assets/img/ocean/memory/41.jpg","[""ArrowDown"",""ArrowRight""]","value training","ocean","30","{""ArrowUp,ArrowLeft"":23,""ArrowUp,ArrowRight"":10,""ArrowDown,ArrowLeft"":8,""ArrowDown,ArrowRight"":30}","true","ArrowDown,ArrowRight","false","","","original","2","22","","",""
