"trial_type","trial_index","time_elapsed","internal_node_id","task_version","subject_id","assigned_condition","age","gender","success","timeout","failed_images","failed_audio","failed_video","browser_interaction","value","rt","stimulus","response","task_part","environment","score","rewardMap","correct","fullState","isCatch","numberMissed","duration","condition","order","trial_num","key_press","ground_truth","bonus"
"pavlovia","0","1197","0.0-0.0","spark_pilot_2","7348","3","13","Female","","","","","","","","","","","","","","","","","","","","","","","","",""
"preload","1","5841","0.0-1.0","spark_pilot_2","7348","3","13","Female","true","false","[]","[]","[]","[{""event"":""fullscreenenter"",""trial"":2,""time"":11754}]","","","","","","","","","","","","","","","","","","",""
"fullscreen","2","12676","0.0-2.0","spark_pilot_2","7348","3","13","Female","true","","","","","","","","","","","","","","","","","","","","","","","",""
"call-function","3","16401","0.0-3.0","spark_pilot_2","7348","3","13","Female","","","","","","","","","","","","","","","","","","","","","","","","",""
"audio-button-response","4","18127","0.0-4.0-0.0-0.0","spark_pilot_2","7348","3","13","Female","","","","","","","","1553","./assets/audio/audiotest/turtle.mp3","2","audio_test","","","","","","","","","","","","","",""
"learning-instructions","5","29182","0.0-4.0-1.0-0.0","spark_pilot_2","7348","3","13","Female","","","","","","","","4097","<p> Welcome! Please remember to stay in fullscreen mode and don't click away from the experiment. </p>","","instructions","","","","","","","","","","","","","",""
"learning-instructions","6","39185","0.0-4.0-1.0-0.1","spark_pilot_2","7348","3","13","Female","","","","","","","","1611","<p> Today you will be playing a game to earn treasure. </p>
            <p> At the end of the experiment, you will earn a bonus based on how much treasure you find. </p>
            <img src='./assets/img/instructions/treasure.jpg' class='instructions-image'>","","instructions","","","","","","","","","","","","","",""
"learning-instructions","7","48255","0.0-4.0-1.0-0.2","spark_pilot_2","7348","3","13","Female","","","","","","","","829","<p> Animals have hidden treasure in treasure chests. </p>
            <p> You need to first find an animal and then choose which of their treasure chests to search. </p>
            <img src='./assets/img/space/animals/cat.jpg' class='instructions-image'>","","instructions","","","","","","","","","","","","","",""
"learning-instructions","8","62142","0.0-4.0-1.0-0.3","spark_pilot_2","7348","3","13","Female","","","","","","","","759","<p> In each round, you will search for treasure in a different place. In the real game, there will be two rounds. </p>
            <p> You will begin with a separate, practice round where you will search for treasure in outer space. </p>
            <img src='./assets/img/space/0.jpg' class='instructions-image'>","","instructions","","","","","","","","","","","","","",""
"learning-instructions","9","74147","0.0-4.0-1.0-0.4","spark_pilot_2","7348","3","13","Female","","","","","","","","610","<p> On every turn, you will see a picture of the place that you are in, but the specific image may be different each time. </p>
            <p> For example, both of these images mean you are in outer space. </p>
            <img src='./assets/img/instructions/outerspace.jpg' class='instructions-image'>","","instructions","","","","","","","","","","","","","",""
"learning-instructions","10","84518","0.0-4.0-1.0-0.5","spark_pilot_2","7348","3","13","Female","","","","","","","","2560","<p> You need to decide which direction to travel in. </p>
            <p> You can choose between going <b>up or down</b> by using the arrow keys. </p>
            <img src='./assets/img/instructions/updown.jpg' class='instructions-image'>","","instructions","","","","","","","","","","","","","",""
"learning-instructions","11","95189","0.0-4.0-1.0-0.6","spark_pilot_2","7348","3","13","Female","","","","","","","","1882","<p> You will have <b>2 seconds</b> to make your choice. </p>
            <p> If you do not make a choice within 2 seconds, you will not find an animal or earn treasure. </p>
            <img src='./assets/img/instructions/2seconds.jpg' class='instructions-image'>","","instructions","","","","","","","","","","","","","",""
"learning-instructions","12","104409","0.0-4.0-1.0-0.7","spark_pilot_2","7348","3","13","Female","","","","","","","","2200","<p> Let’s try practicing that now! </p>
            <p> When you see a picture of the place you are in, press the <b>up</b> key to travel up. </p>
            <img src='./assets/img/instructions/pressUp.jpg' class='instructions-image'>","","instructions","","","","","","","","","","","","","",""
"revaluation","13","108419","0.0-4.0-2.0-0.0","spark_pilot_2","7348","3","13","Female","","true","","","","","","[]","./assets/img/space/0.jpg","[]","first stage practice","space","-5","null","null","","false","","","","","","","",""
"html-keyboard-response","14","108921","0.0-4.0-2.0-1.0","spark_pilot_2","7348","3","13","Female","","","","","","","","null","<div style=""font-size:60px;"">+</div>","null","fixation","","","","","","","","","","","","","",""
"revaluation","15","112924","0.0-4.0-2.0-0.1","spark_pilot_2","7348","3","13","Female","","true","","","","","","[]","./assets/img/space/1.jpg","[]","first stage practice","space","-5","null","null","","false","","","","","","","",""
"html-keyboard-response","16","113426","0.0-4.0-2.0-1.1","spark_pilot_2","7348","3","13","Female","","","","","","","","null","<div style=""font-size:60px;"">+</div>","null","fixation","","","","","","","","","","","","","",""
"revaluation","17","117430","0.0-4.0-2.0-0.2","spark_pilot_2","7348","3","13","Female","","true","","","","","","[]","./assets/img/space/2.jpg","[]","first stage practice","space","-5","null","null","","false","","","","","","","",""
"html-keyboard-response","18","117932","0.0-4.0-2.0-1.2","spark_pilot_2","7348","3","13","Female","","","","","","","","null","<div style=""font-size:60px;"">+</div>","null","fixation","","","","","","","","","","","","","",""
"learning-instructions","19","125198","0.0-4.0-3.0-0.0","spark_pilot_2","7348","3","13","Female","","","","","","","","2582","<p> Great job! Now try pressing the <b>down</b> key to travel down. </p>
            <img src='./assets/img/instructions/pressDown.jpg' class='instructions-image'>","","instructions","","","","","","","","","","","","","",""
"revaluation","20","129203","0.0-4.0-4.0-0.0","spark_pilot_2","7348","3","13","Female","","false","","","","","","[939]","./assets/img/space/3.jpg","[""ArrowDown""]","first stage practice","space","0","null","null","ArrowDown","false","","","","","","","",""
"html-keyboard-response","21","129704","0.0-4.0-4.0-1.0","spark_pilot_2","7348","3","13","Female","","","","","","","","null","<div style=""font-size:60px;"">+</div>","null","fixation","","","","","","","","","","","","","",""
"revaluation","22","133707","0.0-4.0-4.0-0.1","spark_pilot_2","7348","3","13","Female","","false","","","","","","[479]","./assets/img/space/4.jpg","[""ArrowDown""]","first stage practice","space","0","null","null","ArrowDown","false","","","","","","","",""
"html-keyboard-response","23","134209","0.0-4.0-4.0-1.1","spark_pilot_2","7348","3","13","Female","","","","","","","","null","<div style=""font-size:60px;"">+</div>","null","fixation","","","","","","","","","","","","","",""
"revaluation","24","138212","0.0-4.0-4.0-0.2","spark_pilot_2","7348","3","13","Female","","false","","","","","","[498]","./assets/img/space/5.jpg","[""ArrowDown""]","first stage practice","space","0","null","null","ArrowDown","false","","","","","","","",""
"html-keyboard-response","25","138714","0.0-4.0-4.0-1.2","spark_pilot_2","7348","3","13","Female","","","","","","","","null","<div style=""font-size:60px;"">+</div>","null","fixation","","","","","","","","","","","","","",""
"learning-instructions","26","149790","0.0-4.0-5.0-0.0","spark_pilot_2","7348","3","13","Female","","","","","","","","1246","<p> The animals don’t move, so the animal in the upper part of a place will stay in the upper part of a place, and the animal in the lower part of a place will stay in the lower part of a place. </p>","","instructions","","","","","","","","","","","","","",""
"learning-instructions","27","161161","0.0-4.0-5.0-0.1","spark_pilot_2","7348","3","13","Female","","","","","","","","2258","<p> Each animal has two treasure chests for you to choose from. </p>
            <p> The amount of treasure in each chest can range from <b> 0 to 40 pieces.</b></p>","","instructions","","","","","","","","","","","","","",""
"learning-instructions","28","173615","0.0-4.0-5.0-0.2","spark_pilot_2","7348","3","13","Female","","","","","","","","1287.000000000029","<p> You should decide which chest to search for treasure by using the <b>left</b> and <b>right</b> arrow keys. </p>
            <p><b> Pay attention to which animal is on the screen, as the animals have different treasure chests. </b></p>
            <img src='./assets/img/instructions/leftright.jpg' class='instructions-image'>","","instructions","","","","","","","","","","","","","",""
"learning-instructions","29","180518","0.0-4.0-5.0-0.3","spark_pilot_2","7348","3","13","Female","","","","","","","","554","<p> Let’s try practicing that now. </p>
            <p> When you see an animal, choose which chest to search for treasure. </p>
            <img src='./assets/img/instructions/chooseChest.jpg' class='instructions-image'>","","instructions","","","","","","","","","","","","","",""
"revaluation","30","184523","0.0-4.0-6.0-0.0","spark_pilot_2","7348","3","13","Female","","false","","","","","","[687]","./assets/img/space/animals/rabbit.jpg","[""ArrowRight""]","second stage practice","space","23","{""ArrowUp,ArrowLeft"":3,""ArrowUp,ArrowRight"":36,""ArrowDown,ArrowLeft"":15,""ArrowDown,ArrowRight"":23}","true","ArrowDown,ArrowRight","","","","","","","","",""
"html-keyboard-response","31","185024","0.0-4.0-6.0-1.0","spark_pilot_2","7348","3","13","Female","","","","","","","","null","<div style=""font-size:60px;"">+</div>","null","fixation","","","","","","","","","","","","","",""
"revaluation","32","189028","0.0-4.0-6.0-0.1","spark_pilot_2","7348","3","13","Female","","false","","","","","","[613.9999999999709]","./assets/img/space/animals/cat.jpg","[""ArrowLeft""]","second stage practice","space","3","{""ArrowUp,ArrowLeft"":3,""ArrowUp,ArrowRight"":36,""ArrowDown,ArrowLeft"":15,""ArrowDown,ArrowRight"":23}","false","ArrowUp,ArrowLeft","","","","","","","","",""
"html-keyboard-response","33","189529","0.0-4.0-6.0-1.1","spark_pilot_2","7348","3","13","Female","","","","","","","","null","<div style=""font-size:60px;"">+</div>","null","fixation","","","","","","","","","","","","","",""
"revaluation","34","193533","0.0-4.0-6.0-0.2","spark_pilot_2","7348","3","13","Female","","false","","","","","","[282]","./assets/img/space/animals/rabbit.jpg","[""ArrowRight""]","second stage practice","space","23","{""ArrowUp,ArrowLeft"":3,""ArrowUp,ArrowRight"":36,""ArrowDown,ArrowLeft"":15,""ArrowDown,ArrowRight"":23}","true","ArrowDown,ArrowRight","","","","","","","","",""
"html-keyboard-response","35","194035","0.0-4.0-6.0-1.2","spark_pilot_2","7348","3","13","Female","","","","","","","","null","<div style=""font-size:60px;"">+</div>","null","fixation","","","","","","","","","","","","","",""
"revaluation","36","198040","0.0-4.0-6.0-0.3","spark_pilot_2","7348","3","13","Female","","false","","","","","","[514.0000000000291]","./assets/img/space/animals/cat.jpg","[""ArrowLeft""]","second stage practice","space","3","{""ArrowUp,ArrowLeft"":3,""ArrowUp,ArrowRight"":36,""ArrowDown,ArrowLeft"":15,""ArrowDown,ArrowRight"":23}","false","ArrowUp,ArrowLeft","","","","","","","","",""
"html-keyboard-response","37","198542","0.0-4.0-6.0-1.3","spark_pilot_2","7348","3","13","Female","","","","","","","","null","<div style=""font-size:60px;"">+</div>","null","fixation","","","","","","","","","","","","","",""
"learning-instructions","38","218047","0.0-4.0-7.0-0.0","spark_pilot_2","7348","3","13","Female","","","","","","","","1499","<p> Great job. Now let’s try putting it together. </p>
            <p> On each turn, you will first see a picture to remind you of the place you are in, and you need to choose whether to go up or down. </p>
            <p> Then you will see an animal and choose which of its chests to search for treasure. </p>","","instructions","","","","","","","","","","","","","",""
"learning-instructions","39","227983","0.0-4.0-7.0-0.1","spark_pilot_2","7348","3","13","Female","","","","","","","","1698","<p> When you choose whether to go up or down, try to go to the animal with the chest with the most treasure. </p>
            <p> Try practicing that now! </p>","","instructions","","","","","","","","","","","","","",""
"revaluation","40","233990","0.0-4.0-8.0-0.0","spark_pilot_2","7348","3","13","Female","","false","","","","","","[1305.999999999971,486]","./assets/img/space/6.jpg","[""ArrowDown"",""ArrowRight""]","full practice","space","23","{""ArrowUp,ArrowLeft"":3,""ArrowUp,ArrowRight"":36,""ArrowDown,ArrowLeft"":15,""ArrowDown,ArrowRight"":23}","false","ArrowDown,ArrowRight","false","","","","","","","",""
"html-keyboard-response","41","234491","0.0-4.0-8.0-1.0","spark_pilot_2","7348","3","13","Female","","","","","","","","null","<div style=""font-size:60px;"">+</div>","null","fixation","","","","","","","","","","","","","",""
"revaluation","42","240497","0.0-4.0-8.0-0.1","spark_pilot_2","7348","3","13","Female","","false","","","","","","[829,538]","./assets/img/space/7.jpg","[""ArrowDown"",""ArrowLeft""]","full practice","space","15","{""ArrowUp,ArrowLeft"":3,""ArrowUp,ArrowRight"":36,""ArrowDown,ArrowLeft"":15,""ArrowDown,ArrowRight"":23}","false","ArrowDown,ArrowLeft","false","","","","","","","",""
"html-keyboard-response","43","240999","0.0-4.0-8.0-1.1","spark_pilot_2","7348","3","13","Female","","","","","","","","null","<div style=""font-size:60px;"">+</div>","null","fixation","","","","","","","","","","","","","",""
"revaluation","44","247003","0.0-4.0-8.0-0.2","spark_pilot_2","7348","3","13","Female","","false","","","","","","[578,310]","./assets/img/space/8.jpg","[""ArrowUp"",""ArrowRight""]","full practice","space","36","{""ArrowUp,ArrowLeft"":3,""ArrowUp,ArrowRight"":36,""ArrowDown,ArrowLeft"":15,""ArrowDown,ArrowRight"":23}","true","ArrowUp,ArrowRight","false","","","","","","","",""
"html-keyboard-response","45","247505","0.0-4.0-8.0-1.2","spark_pilot_2","7348","3","13","Female","","","","","","","","null","<div style=""font-size:60px;"">+</div>","null","fixation","","","","","","","","","","","","","",""
"revaluation","46","253508","0.0-4.0-8.0-0.3","spark_pilot_2","7348","3","13","Female","","false","","","","","","[597,373]","./assets/img/space/9.jpg","[""ArrowDown"",""ArrowRight""]","full practice","space","23","{""ArrowUp,ArrowLeft"":3,""ArrowUp,ArrowRight"":36,""ArrowDown,ArrowLeft"":15,""ArrowDown,ArrowRight"":23}","false","ArrowDown,ArrowRight","false","","","","","","","",""
"html-keyboard-response","47","254010","0.0-4.0-8.0-1.3","spark_pilot_2","7348","3","13","Female","","","","","","","","null","<div style=""font-size:60px;"">+</div>","null","fixation","","","","","","","","","","","","","",""
"revaluation","48","260013","0.0-4.0-8.0-0.4","spark_pilot_2","7348","3","13","Female","","false","","","","","","[1122.999999999971,441.0000000000291]","./assets/img/space/10.jpg","[""ArrowDown"",""ArrowLeft""]","full practice","space","15","{""ArrowUp,ArrowLeft"":3,""ArrowUp,ArrowRight"":36,""ArrowDown,ArrowLeft"":15,""ArrowDown,ArrowRight"":23}","false","ArrowDown,ArrowLeft","false","","","","","","","",""
"html-keyboard-response","49","260514","0.0-4.0-8.0-1.4","spark_pilot_2","7348","3","13","Female","","","","","","","","null","<div style=""font-size:60px;"">+</div>","null","fixation","","","","","","","","","","","","","",""
"learning-instructions","50","272566","0.0-4.0-9.0-0.0","spark_pilot_2","7348","3","13","Female","","","","","","","","1762","<p> One last thing: sometimes, you will see a robber. The robber can be anywhere in the picture. </p>
            <p> If you do not stop them, you will lose treasure. </p>
            <img src='./assets/img/instructions/robber.jpg' class='instructions-image'>","","instructions","","","","","","","","","","","","","",""
"learning-instructions","51","280219","0.0-4.0-9.0-0.1","spark_pilot_2","7348","3","13","Female","","","","","","","","504","<p> If you see the robber, you should <b>press the space bar</b> rather than using the arrow keys. </p>
            <p> Try practicing that now! </p>","","instructions","","","","","","","","","","","","","",""
"revaluation","52","284224","0.0-4.0-10.0-0.0","spark_pilot_2","7348","3","13","Female","","false","","","","","","[1025.0000000000582]","./assets/img/space/catch/0.jpg","[""spaceBar""]","catch practice","space","0","{""ArrowUp,ArrowLeft"":3,""ArrowUp,ArrowRight"":36,""ArrowDown,ArrowLeft"":15,""ArrowDown,ArrowRight"":23}","true","spaceBar","true","","","","","","","",""
"html-keyboard-response","53","284725","0.0-4.0-10.0-1.0","spark_pilot_2","7348","3","13","Female","","","","","","","","null","<div style=""font-size:60px;"">+</div>","null","fixation","","","","","","","","","","","","","",""
"revaluation","54","288729","0.0-4.0-10.0-0.1","spark_pilot_2","7348","3","13","Female","","false","","","","","","[470]","./assets/img/space/catch/1.jpg","[""spaceBar""]","catch practice","space","0","{""ArrowUp,ArrowLeft"":3,""ArrowUp,ArrowRight"":36,""ArrowDown,ArrowLeft"":15,""ArrowDown,ArrowRight"":23}","true","spaceBar","true","","","","","","","",""
"html-keyboard-response","55","289231","0.0-4.0-10.0-1.1","spark_pilot_2","7348","3","13","Female","","","","","","","","null","<div style=""font-size:60px;"">+</div>","null","fixation","","","","","","","","","","","","","",""
"revaluation","56","293233","0.0-4.0-10.0-0.2","spark_pilot_2","7348","3","13","Female","","false","","","","","","[464]","./assets/img/space/catch/2.jpg","[""spaceBar""]","catch practice","space","0","{""ArrowUp,ArrowLeft"":3,""ArrowUp,ArrowRight"":36,""ArrowDown,ArrowLeft"":15,""ArrowDown,ArrowRight"":23}","true","spaceBar","true","","","","","","","",""
"html-keyboard-response","57","293734","0.0-4.0-10.0-1.2","spark_pilot_2","7348","3","13","Female","","","","","","","","null","<div style=""font-size:60px;"">+</div>","null","fixation","","","","","","","","","","","","","",""
"learning-instructions","58","310747","0.0-4.0-11.0-0.0","spark_pilot_2","7348","3","13","Female","","","","","","","","2647.000000000058","<p> After you explore a place to find treasure, it will be time to play a different game. </p>
            <p> During this game, red dots will appear on the screen and fall down slowly. </p>
            <p><b> You must click on them before they reach the bottom. </b></p>
            <img src='./assets/img/instructions/dotGame.jpg' class='instructions-image'>","","instructions","","","","","","","","","","","","","",""
"learning-instructions","59","317581","0.0-4.0-11.0-0.1","spark_pilot_2","7348","3","13","Female","","","","","","","","1177.0000000000582","<p> For every dot you click, you will earn additional treasure. </p>
            <p> Let’s try practicing that now. </p>","","instructions","","","","","","","","","","","","","",""
"revaluation","60","332586","0.0-4.0-12.0-0.0","spark_pilot_2","7348","3","13","Female","","","","","","","","[109]","","","rest practice","","10","","","","","0","15000","","","","","",""
"learning-instructions","61","341824","0.0-4.0-13.0-0.0-0.0","spark_pilot_2","7348","3","13","Female","","","","","","","","4014","<p> Now, you will practice a shortened version of the game to get a sense of how it all fits together. </p>","","instructions","","","","","","","","","","","","","",""
"learning-instructions","62","347125","0.0-4.0-13.0-0.0-0.1","spark_pilot_2","7348","3","13","Female","","","","","","","","2125","<p>This time you are searching for treasure in outer space.</p>","","instructions","","","","","","","","","","","","","",""
"learning-instructions","63","362581","0.0-4.0-13.0-1.0-0.0","spark_pilot_2","7348","3","13","Female","","","","","","","","705","<p> Remember, when you see a picture of the place, use the up and down keys to <b>find an animal</b>.</p>
            <p> When you encounter an animal, you should use the left and right keys to <b>select a treasure chest</b>.</p>
            <p> Don't forget to look out for the robber! </p>","","instructions","","","","","","","","","","","","","",""
"revaluation","64","368586","0.0-4.0-13.0-2.0-0.0","spark_pilot_2","7348","3","13","Female","","false","","","","","","[1861.9999999999418,796]","./assets/img/space/11.jpg","[""ArrowDown"",""ArrowRight""]","practice block","space","23","{""ArrowUp,ArrowLeft"":3,""ArrowUp,ArrowRight"":36,""ArrowDown,ArrowLeft"":15,""ArrowDown,ArrowRight"":23}","false","ArrowDown,ArrowRight","false","","","","","","","",""
"html-keyboard-response","65","369088","0.0-4.0-13.0-2.0-1.0","spark_pilot_2","7348","3","13","Female","","","","","","","","null","<div style=""font-size:60px;"">+</div>","null","fixation","","","","","","","","","","","","","",""
"revaluation","66","375094","0.0-4.0-13.0-2.0-0.1","spark_pilot_2","7348","3","13","Female","","false","","","","","","[688,612]","./assets/img/space/12.jpg","[""ArrowDown"",""ArrowLeft""]","practice block","space","15","{""ArrowUp,ArrowLeft"":3,""ArrowUp,ArrowRight"":36,""ArrowDown,ArrowLeft"":15,""ArrowDown,ArrowRight"":23}","false","ArrowDown,ArrowLeft","false","","","","","","","",""
"html-keyboard-response","67","375596","0.0-4.0-13.0-2.0-1.1","spark_pilot_2","7348","3","13","Female","","","","","","","","null","<div style=""font-size:60px;"">+</div>","null","fixation","","","","","","","","","","","","","",""
"revaluation","68","381601","0.0-4.0-13.0-2.0-0.2","spark_pilot_2","7348","3","13","Female","","false","","","","","","[571,381]","./assets/img/space/13.jpg","[""ArrowUp"",""ArrowLeft""]","practice block","space","3","{""ArrowUp,ArrowLeft"":3,""ArrowUp,ArrowRight"":36,""ArrowDown,ArrowLeft"":15,""ArrowDown,ArrowRight"":23}","false","ArrowUp,ArrowLeft","false","","","","","","","",""
"html-keyboard-response","69","382103","0.0-4.0-13.0-2.0-1.2","spark_pilot_2","7348","3","13","Female","","","","","","","","null","<div style=""font-size:60px;"">+</div>","null","fixation","","","","","","","","","","","","","",""
"revaluation","70","388109","0.0-4.0-13.0-2.0-0.3","spark_pilot_2","7348","3","13","Female","","false","","","","","","[544,433]","./assets/img/space/14.jpg","[""ArrowDown"",""ArrowRight""]","practice block","space","23","{""ArrowUp,ArrowLeft"":3,""ArrowUp,ArrowRight"":36,""ArrowDown,ArrowLeft"":15,""ArrowDown,ArrowRight"":23}","false","ArrowDown,ArrowRight","false","","","","","","","",""
"html-keyboard-response","71","388611","0.0-4.0-13.0-2.0-1.3","spark_pilot_2","7348","3","13","Female","","","","","","","","null","<div style=""font-size:60px;"">+</div>","null","fixation","","","","","","","","","","","","","",""
"revaluation","72","394616","0.0-4.0-13.0-2.0-0.4","spark_pilot_2","7348","3","13","Female","","false","","","","","","[697.9999999999418,585]","./assets/img/space/11.jpg","[""ArrowDown"",""ArrowLeft""]","practice block","space","15","{""ArrowUp,ArrowLeft"":3,""ArrowUp,ArrowRight"":36,""ArrowDown,ArrowLeft"":15,""ArrowDown,ArrowRight"":23}","false","ArrowDown,ArrowLeft","false","","","","","","","",""
"html-keyboard-response","73","395117","0.0-4.0-13.0-2.0-1.4","spark_pilot_2","7348","3","13","Female","","","","","","","","null","<div style=""font-size:60px;"">+</div>","null","fixation","","","","","","","","","","","","","",""
"revaluation","74","401122","0.0-4.0-13.0-2.0-0.5","spark_pilot_2","7348","3","13","Female","","false","","","","","","[883.9999999999418,504.0000000000582]","./assets/img/space/12.jpg","[""ArrowDown"",""ArrowRight""]","practice block","space","23","{""ArrowUp,ArrowLeft"":3,""ArrowUp,ArrowRight"":36,""ArrowDown,ArrowLeft"":15,""ArrowDown,ArrowRight"":23}","false","ArrowDown,ArrowRight","false","","","","","","","",""
"html-keyboard-response","75","401623","0.0-4.0-13.0-2.0-1.5","spark_pilot_2","7348","3","13","Female","","","","","","","","null","<div style=""font-size:60px;"">+</div>","null","fixation","","","","","","","","","","","","","",""
"revaluation","76","407629","0.0-4.0-13.0-2.0-0.6","spark_pilot_2","7348","3","13","Female","","false","","","","","","[520.9999999999418,918]","./assets/img/space/13.jpg","[""ArrowUp"",""ArrowLeft""]","practice block","space","3","{""ArrowUp,ArrowLeft"":3,""ArrowUp,ArrowRight"":36,""ArrowDown,ArrowLeft"":15,""ArrowDown,ArrowRight"":23}","false","ArrowUp,ArrowLeft","false","","","","","","","",""
"html-keyboard-response","77","408131","0.0-4.0-13.0-2.0-1.6","spark_pilot_2","7348","3","13","Female","","","","","","","","null","<div style=""font-size:60px;"">+</div>","null","fixation","","","","","","","","","","","","","",""
"revaluation","78","414136","0.0-4.0-13.0-2.0-0.7","spark_pilot_2","7348","3","13","Female","","false","","","","","","[1461.9999999999418,1036]","./assets/img/space/14.jpg","[""ArrowDown"",""ArrowLeft""]","practice block","space","15","{""ArrowUp,ArrowLeft"":3,""ArrowUp,ArrowRight"":36,""ArrowDown,ArrowLeft"":15,""ArrowDown,ArrowRight"":23}","false","ArrowDown,ArrowLeft","false","","","","","","","",""
"html-keyboard-response","79","414638","0.0-4.0-13.0-2.0-1.7","spark_pilot_2","7348","3","13","Female","","","","","","","","null","<div style=""font-size:60px;"">+</div>","null","fixation","","","","","","","","","","","","","",""
"revaluation","80","418643","0.0-4.0-13.0-2.0-0.8","spark_pilot_2","7348","3","13","Female","","false","","","","","","[1097]","./assets/img/space/catch/3.jpg","[""spaceBar""]","practice block","space","0","{""ArrowUp,ArrowLeft"":3,""ArrowUp,ArrowRight"":36,""ArrowDown,ArrowLeft"":15,""ArrowDown,ArrowRight"":23}","true","spaceBar","true","","","","","","","",""
"html-keyboard-response","81","419144","0.0-4.0-13.0-2.0-1.8","spark_pilot_2","7348","3","13","Female","","","","","","","","null","<div style=""font-size:60px;"">+</div>","null","fixation","","","","","","","","","","","","","",""
"learning-instructions","82","433405","0.0-4.0-13.0-3.0-0.0","spark_pilot_2","7348","3","13","Female","","","","","","","","1361.9999999999418","<p> Now, you will travel with a friend who will choose whether you go up or down first. </p>
            <p> On these turns, you will just see the animal that they found. You will still get to choose which chest to search for treasure.</p>","","instructions","","","","","","","","","","","","","",""
"revaluation","83","437409","0.0-4.0-13.0-4.0-0.0","spark_pilot_2","7348","3","13","Female","","false","","","","","","[995]","./assets/img/space/animals/rabbit.jpg","[""ArrowRight""]","practice block","space","23","{""ArrowUp,ArrowLeft"":3,""ArrowUp,ArrowRight"":36,""ArrowDown,ArrowLeft"":15,""ArrowDown,ArrowRight"":23}","true","ArrowDown,ArrowRight","","","","","","","","",""
"html-keyboard-response","84","437911","0.0-4.0-13.0-4.0-1.0","spark_pilot_2","7348","3","13","Female","","","","","","","","null","<div style=""font-size:60px;"">+</div>","null","fixation","","","","","","","","","","","","","",""
"revaluation","85","441914","0.0-4.0-13.0-4.0-0.1","spark_pilot_2","7348","3","13","Female","","false","","","","","","[505]","./assets/img/space/animals/cat.jpg","[""ArrowLeft""]","practice block","space","3","{""ArrowUp,ArrowLeft"":3,""ArrowUp,ArrowRight"":36,""ArrowDown,ArrowLeft"":15,""ArrowDown,ArrowRight"":23}","false","ArrowUp,ArrowLeft","","","","","","","","",""
"html-keyboard-response","86","442416","0.0-4.0-13.0-4.0-1.1","spark_pilot_2","7348","3","13","Female","","","","","","","","null","<div style=""font-size:60px;"">+</div>","null","fixation","","","","","","","","","","","","","",""
"revaluation","87","446420","0.0-4.0-13.0-4.0-0.2","spark_pilot_2","7348","3","13","Female","","false","","","","","","[680]","./assets/img/space/animals/cat.jpg","[""ArrowRight""]","practice block","space","36","{""ArrowUp,ArrowLeft"":3,""ArrowUp,ArrowRight"":36,""ArrowDown,ArrowLeft"":15,""ArrowDown,ArrowRight"":23}","true","ArrowUp,ArrowRight","","","","","","","","",""
"html-keyboard-response","88","446922","0.0-4.0-13.0-4.0-1.2","spark_pilot_2","7348","3","13","Female","","","","","","","","null","<div style=""font-size:60px;"">+</div>","null","fixation","","","","","","","","","","","","","",""
"revaluation","89","450926","0.0-4.0-13.0-4.0-0.3","spark_pilot_2","7348","3","13","Female","","false","","","","","","[651.9999999999418]","./assets/img/space/animals/rabbit.jpg","[""ArrowLeft""]","practice block","space","15","{""ArrowUp,ArrowLeft"":3,""ArrowUp,ArrowRight"":36,""ArrowDown,ArrowLeft"":15,""ArrowDown,ArrowRight"":23}","false","ArrowDown,ArrowLeft","","","","","","","","",""
"html-keyboard-response","90","451428","0.0-4.0-13.0-4.0-1.3","spark_pilot_2","7348","3","13","Female","","","","","","","","null","<div style=""font-size:60px;"">+</div>","null","fixation","","","","","","","","","","","","","",""
"learning-instructions","91","460348","0.0-4.0-13.0-5.0-0.0","spark_pilot_2","7348","3","13","Female","","","","","","","","1570","<p> Time to play the dot game! </p>
            <p> For 15 seconds, click the red dots on the following screen as they appear. </p>","","instructions","","","","","","","","","","","","","",""
"revaluation","92","475351","0.0-4.0-13.0-6.0-0.0","spark_pilot_2","7348","3","13","Female","","","","","","","","[76]","","","rest practice","","10","","","","","0","15000","","","","","",""
"learning-instructions","93","482539","0.0-4.0-13.0-7.0-0.0","spark_pilot_2","7348","3","13","Female","","","","","","","","1074","<p> You have almost finished this part of the game! </p>
            <p> We are going to ask you to make a few more choices. </p>","","instructions","","","","","","","","","","","","","",""
"learning-instructions","94","497561","0.0-4.0-13.0-7.0-0.1","spark_pilot_2","7348","3","13","Female","","","","","","","","1027.9999999999418","<p> First, you need to decide whether to go up or down. When you see each picture, use the arrow keys to make your choice. </p>
            <p><b>You will not see which animal you found, but try to get to the one that will give you the most treasure.</b></p>","","instructions","","","","","","","","","","","","","",""
"revaluation","95","500420","0.0-4.0-13.0-8.0","spark_pilot_2","7348","3","13","Female","","false","","","","","","[2857.000000000058]","./assets/img/space/15.jpg","[""ArrowDown""]","practice block","space","0","{""ArrowUp,ArrowLeft"":3,""ArrowUp,ArrowRight"":36,""ArrowDown,ArrowLeft"":15,""ArrowDown,ArrowRight"":23}","false","ArrowDown","false","","","","","","","",""
"html-keyboard-response","96","500922","0.0-4.0-13.0-9.0","spark_pilot_2","7348","3","13","Female","","","","","","","","null","<div style=""font-size:60px;"">+</div>","null","fixation","","","","","","","","","","","","","",""
"learning-instructions","97","513433","0.0-4.0-13.0-10.0-0.0","spark_pilot_2","7348","3","13","Female","","","","","","","","1154","<p> Now you will see the animals again and can search their chests for treasure. </p>
            <p> This time, you will not see how much treasure you earned, but you will earn more bonus money for making better choices. </p>","","instructions","","","","","","","","","","","","","",""
"revaluation","98","514809","0.0-4.0-13.0-11.0-0.0","spark_pilot_2","7348","3","13","Female","","false","","","","","","[1375]","./assets/img/space/animals/cat.jpg","[""ArrowRight""]","practice block","space","0","{""ArrowUp,ArrowLeft"":3,""ArrowUp,ArrowRight"":36,""ArrowDown,ArrowLeft"":15,""ArrowDown,ArrowRight"":23}","true","ArrowUp,ArrowRight","","","","","","","","",""
"html-keyboard-response","99","515311","0.0-4.0-13.0-11.0-1.0","spark_pilot_2","7348","3","13","Female","","","","","","","","null","<div style=""font-size:60px;"">+</div>","null","fixation","","","","","","","","","","","","","",""
"revaluation","100","516340","0.0-4.0-13.0-11.0-0.1","spark_pilot_2","7348","3","13","Female","","false","","","","","","[1028]","./assets/img/space/animals/rabbit.jpg","[""ArrowLeft""]","practice block","space","0","{""ArrowUp,ArrowLeft"":3,""ArrowUp,ArrowRight"":36,""ArrowDown,ArrowLeft"":15,""ArrowDown,ArrowRight"":23}","false","ArrowDown,ArrowLeft","","","","","","","","",""
"html-keyboard-response","101","516842","0.0-4.0-13.0-11.0-1.1","spark_pilot_2","7348","3","13","Female","","","","","","","","null","<div style=""font-size:60px;"">+</div>","null","fixation","","","","","","","","","","","","","",""
"learning-instructions","102","524438","0.0-4.0-14.0-0.0","spark_pilot_2","7348","3","13","Female","","","","","","","","3026","<p> Before you start, we're going to ask you a few questions about how the game works. </p>","","instructions","","","","","","","","","","","","","",""
"comp-q","103","532141","0.0-4.0-15.0-0.0-0.0","spark_pilot_2","7348","3","13","Female","","","","","","","","1127.0000000001164","<p> <b> True or False? </b> </p>
            <p> There can be 50 pieces of treasure in a given animal's chest. </p>","0","comp_question","","","","false","","","","","","","","","",""
"comp-q","104","540327","0.0-4.0-15.0-0.0-1.0","spark_pilot_2","7348","3","13","Female","","","","","","","","1679","<p> <b>Incorrect.</b> The amount of treasure in each chest can range from 0 to 40 pieces. </p>","0","comp_answer","","","","","","","","","","","","","",""
"comp-q","105","546961","0.0-4.0-15.0-0.1-0.1","spark_pilot_2","7348","3","13","Female","","","","","","","","1071","<p> <b> True or False? </b> </p>
            <p> There can be 50 pieces of treasure in a given animal's chest. </p>","1","comp_question","","","","true","","","","","","","","","",""
"comp-q","106","557132","0.0-4.0-15.0-0.1-1.1","spark_pilot_2","7348","3","13","Female","","","","","","","","3531","<p> <b> That's right! </b> The amount of treasure in each chest can range from 0 to 40 pieces. </p>","0","comp_answer","","","","","","","","","","","","","",""
"comp-q","107","565868","0.0-4.0-15.0-0.2-0.2","spark_pilot_2","7348","3","13","Female","","","","","","","","1640.0000000001164","<p> <b> True or False? </b> </p><p> In this game, all animals have the same amount of treasure in their left and right chests. </p>","1","comp_question","","","","true","","","","","","","","","",""
"comp-q","108","591194","0.0-4.0-15.0-0.2-1.2","spark_pilot_2","7348","3","13","Female","","","","","","","","20106","<p> <b> That's right! </b> Animals have different amounts of treasure in their treasure chests. </p>","0","comp_answer","","","","","","","","","","","","","",""
"comp-q","109","599097","0.0-4.0-15.0-0.3-0.3","spark_pilot_2","7348","3","13","Female","","","","","","","","2075","<p> <b> True or False? </b> </p><p> The same animal will always be there if you go up in the same place. </p>","1","comp_question","","","","false","","","","","","","","","",""
"comp-q","110","606182","0.0-4.0-15.0-0.3-1.3","spark_pilot_2","7348","3","13","Female","","","","","","","","799","<p> <b>Incorrect.</b> One animal lives in the upper part and one lives in the lower part of every place. </p>","0","comp_answer","","","","","","","","","","","","","",""
"comp-q","111","612651","0.0-4.0-15.0-0.4-0.4","spark_pilot_2","7348","3","13","Female","","","","","","","","646","<p> <b> True or False? </b> </p><p> The same animal will always be there if you go up in the same place. </p>","0","comp_question","","","","true","","","","","","","","","",""
"comp-q","112","621888","0.0-4.0-15.0-0.4-1.4","spark_pilot_2","7348","3","13","Female","","","","","","","","2809","<p> <b> That's right! </b> One animal lives in the upper part and one lives in the lower part of every place. </p>","0","comp_answer","","","","","","","","","","","","","",""
"comp-q","113","628156","0.0-4.0-15.0-0.5-0.5","spark_pilot_2","7348","3","13","Female","","","","","","","","759","<p> <b> True or False? </b> </p><p> If you see a different picture, it means you are in a new place. </p>","1","comp_question","","","","true","","","","","","","","","",""
"comp-q","114","640794","0.0-4.0-15.0-0.5-1.5","spark_pilot_2","7348","3","13","Female","","","","","","","","1431","<p> <b> That's right! </b> Lots of different images may show the same place. For example,  you may see three different images that all remind you that you are in outer space. </p>","0","comp_answer","","","","","","","","","","","","","",""
"learning-instructions","115","651699","0.0-4.0-16.0-0.0","spark_pilot_2","7348","3","13","Female","","","","","","","","1072","<p> Good job. Remember to do your best because the amount of treasure you earn will be converted into bonus money. </p>
            <p> It’s time to start the real game! </p>","","instructions","","","","","","","","","","","","","",""
"learning-instructions","116","656434","0.0-5.0-0.0-0.0","spark_pilot_2","7348","3","13","Female","","","","","","","","2041","<p> This time you are searching for treasure in the <b>ocean</b>.</p>","","instructions","","","","","","","","","","","","","",""
"learning-instructions","117","675390","0.0-5.0-0.0-0.1","spark_pilot_2","7348","3","13","Female","","","","","","","","1678.0000000001164","<p><b>New</b> animals with <b>new</b> treasure chests live here. You need to explore to discover where the animal with the best treasure chest is.</p>
                    <p> Like before, once you figure out which animal has the chest with the most treasure, you should try to get to that animal and select that chest! </p>","","instructions","","","","","","","","","","","","","",""
"learning-instructions","118","691430","0.0-5.0-1.0-0.0","spark_pilot_2","7348","3","13","Female","","","","","","","","1307.9999999998836","<p> Remember, when you see a picture of the place, use the up and down keys to <b>find an animal</b>.</p>
            <p> When you encounter an animal, you should use the left and right keys to <b>select a treasure chest</b>.</p>
            <p> Don't forget to look out for the robber! </p>","","instructions","","","","","","","","","","","","","",""
"revaluation","119","697436","0.0-5.0-2.0-0.0","spark_pilot_2","7348","3","13","Female","","false","","","","","","[1868,801]","./assets/img/ocean/memory/40.jpg","[""ArrowDown"",""ArrowRight""]","value training","ocean","30","{""ArrowUp,ArrowLeft"":23,""ArrowUp,ArrowRight"":10,""ArrowDown,ArrowLeft"":8,""ArrowDown,ArrowRight"":30}","true","ArrowDown,ArrowRight","false","","","original","1","0","","",""
"html-keyboard-response","120","697938","0.0-5.0-2.0-1.0","spark_pilot_2","7348","3","13","Female","","","","","","","","null","<div style=""font-size:60px;"">+</div>","null","fixation","","","","","","","","","","","1","","",""
"revaluation","121","703943","0.0-5.0-2.0-0.1","spark_pilot_2","7348","3","13","Female","","false","","","","","","[683,751]","./assets/img/ocean/memory/39.jpg","[""ArrowDown"",""ArrowLeft""]","value training","ocean","8","{""ArrowUp,ArrowLeft"":23,""ArrowUp,ArrowRight"":10,""ArrowDown,ArrowLeft"":8,""ArrowDown,ArrowRight"":30}","false","ArrowDown,ArrowLeft","false","","","original","1","2","","",""
"html-keyboard-response","122","704445","0.0-5.0-2.0-1.1","spark_pilot_2","7348","3","13","Female","","","","","","","","null","<div style=""font-size:60px;"">+</div>","null","fixation","","","","","","","","","","","3","","",""
"revaluation","123","710451","0.0-5.0-2.0-0.2","spark_pilot_2","7348","3","13","Female","","false","","","","","","[757,554.9999999998836]","./assets/img/ocean/memory/2.jpg","[""ArrowDown"",""ArrowRight""]","value training","ocean","30","{""ArrowUp,ArrowLeft"":23,""ArrowUp,ArrowRight"":10,""ArrowDown,ArrowLeft"":8,""ArrowDown,ArrowRight"":30}","true","ArrowDown,ArrowRight","false","","","original","1","4","","",""
"html-keyboard-response","124","710952","0.0-5.0-2.0-1.2","spark_pilot_2","7348","3","13","Female","","","","","","","","null","<div style=""font-size:60px;"">+</div>","null","fixation","","","","","","","","","","","5","","",""
"revaluation","125","714957","0.0-5.0-2.0-0.3","spark_pilot_2","7348","3","13","Female","","false","","","","","","[751]","./assets/img/ocean/catch/5.jpg","[""ArrowDown""]","value training","ocean","-10","{""ArrowUp,ArrowLeft"":23,""ArrowUp,ArrowRight"":10,""ArrowDown,ArrowLeft"":8,""ArrowDown,ArrowRight"":30}","false","ArrowDown","true","","","original","1","6","","",""
"html-keyboard-response","126","715459","0.0-5.0-2.0-1.3","spark_pilot_2","7348","3","13","Female","","","","","","","","null","<div style=""font-size:60px;"">+</div>","null","fixation","","","","","","","","","","","7","","",""
"revaluation","127","719463","0.0-5.0-2.0-0.4","spark_pilot_2","7348","3","13","Female","","false","","","","","","[903]","./assets/img/ocean/catch/3.jpg","[""spaceBar""]","value training","ocean","0","{""ArrowUp,ArrowLeft"":23,""ArrowUp,ArrowRight"":10,""ArrowDown,ArrowLeft"":8,""ArrowDown,ArrowRight"":30}","true","spaceBar","true","","","original","1","8","","",""
"html-keyboard-response","128","719964","0.0-5.0-2.0-1.4","spark_pilot_2","7348","3","13","Female","","","","","","","","null","<div style=""font-size:60px;"">+</div>","null","fixation","","","","","","","","","","","9","","",""
"revaluation","129","725969","0.0-5.0-2.0-0.5","spark_pilot_2","7348","3","13","Female","","false","","","","","","[865,889]","./assets/img/ocean/memory/32.jpg","[""ArrowDown"",""ArrowLeft""]","value training","ocean","8","{""ArrowUp,ArrowLeft"":23,""ArrowUp,ArrowRight"":10,""ArrowDown,ArrowLeft"":8,""ArrowDown,ArrowRight"":30}","false","ArrowDown,ArrowLeft","false","","","original","1","10","","",""
"html-keyboard-response","130","726471","0.0-5.0-2.0-1.5","spark_pilot_2","7348","3","13","Female","","","","","","","","null","<div style=""font-size:60px;"">+</div>","null","fixation","","","","","","","","","","","11","","",""
"revaluation","131","732477","0.0-5.0-2.0-0.6","spark_pilot_2","7348","3","13","Female","","false","","","","","","[1253.9999999998836,794]","./assets/img/ocean/memory/41.jpg","[""ArrowDown"",""ArrowLeft""]","value training","ocean","8","{""ArrowUp,ArrowLeft"":23,""ArrowUp,ArrowRight"":10,""ArrowDown,ArrowLeft"":8,""ArrowDown,ArrowRight"":30}","false","ArrowDown,ArrowLeft","false","","","original","1","12","","",""
"html-keyboard-response","132","732978","0.0-5.0-2.0-1.6","spark_pilot_2","7348","3","13","Female","","","","","","","","null","<div style=""font-size:60px;"">+</div>","null","fixation","","","","","","","","","","","13","","",""
"revaluation","133","738983","0.0-5.0-2.0-0.7","spark_pilot_2","7348","3","13","Female","","false","","","","","","[1465.0000000001164,824]","./assets/img/ocean/memory/29.jpg","[""ArrowDown"",""ArrowLeft""]","value training","ocean","8","{""ArrowUp,ArrowLeft"":23,""ArrowUp,ArrowRight"":10,""ArrowDown,ArrowLeft"":8,""ArrowDown,ArrowRight"":30}","false","ArrowDown,ArrowLeft","false","","","original","1","14","","",""
"html-keyboard-response","134","739485","0.0-5.0-2.0-1.7","spark_pilot_2","7348","3","13","Female","","","","","","","","null","<div style=""font-size:60px;"">+</div>","null","fixation","","","","","","","","","","","15","","",""
"revaluation","135","743489","0.0-5.0-2.0-0.8","spark_pilot_2","7348","3","13","Female","","false","","","","","","[650]","./assets/img/ocean/catch/0.jpg","[""spaceBar""]","value training","ocean","0","{""ArrowUp,ArrowLeft"":23,""ArrowUp,ArrowRight"":10,""ArrowDown,ArrowLeft"":8,""ArrowDown,ArrowRight"":30}","true","spaceBar","true","","","original","1","16","","",""
"html-keyboard-response","136","743990","0.0-5.0-2.0-1.8","spark_pilot_2","7348","3","13","Female","","","","","","","","null","<div style=""font-size:60px;"">+</div>","null","fixation","","","","","","","","","","","17","","",""
"revaluation","137","749997","0.0-5.0-2.0-0.9","spark_pilot_2","7348","3","13","Female","","false","","","","","","[578.0000000001164,613.9999999998836]","./assets/img/ocean/memory/26.jpg","[""ArrowDown"",""ArrowLeft""]","value training","ocean","8","{""ArrowUp,ArrowLeft"":23,""ArrowUp,ArrowRight"":10,""ArrowDown,ArrowLeft"":8,""ArrowDown,ArrowRight"":30}","false","ArrowDown,ArrowLeft","false","","","original","1","18","","",""
"html-keyboard-response","138","750500","0.0-5.0-2.0-1.9","spark_pilot_2","7348","3","13","Female","","","","","","","","null","<div style=""font-size:60px;"">+</div>","null","fixation","","","","","","","","","","","19","","",""
"revaluation","139","756506","0.0-5.0-2.0-0.10","spark_pilot_2","7348","3","13","Female","","false","","","","","","[1210,885]","./assets/img/ocean/memory/37.jpg","[""ArrowUp"",""ArrowLeft""]","value training","ocean","23","{""ArrowUp,ArrowLeft"":23,""ArrowUp,ArrowRight"":10,""ArrowDown,ArrowLeft"":8,""ArrowDown,ArrowRight"":30}","false","ArrowUp,ArrowLeft","false","","","original","1","20","","",""
"html-keyboard-response","140","757008","0.0-5.0-2.0-1.10","spark_pilot_2","7348","3","13","Female","","","","","","","","null","<div style=""font-size:60px;"">+</div>","null","fixation","","","","","","","","","","","21","","",""
"revaluation","141","763013","0.0-5.0-2.0-0.11","spark_pilot_2","7348","3","13","Female","","false","","","","","","[678,836]","./assets/img/ocean/memory/19.jpg","[""ArrowDown"",""ArrowLeft""]","value training","ocean","8","{""ArrowUp,ArrowLeft"":23,""ArrowUp,ArrowRight"":10,""ArrowDown,ArrowLeft"":8,""ArrowDown,ArrowRight"":30}","false","ArrowDown,ArrowLeft","false","","","original","1","22","","",""
"html-keyboard-response","142","763515","0.0-5.0-2.0-1.11","spark_pilot_2","7348","3","13","Female","","","","","","","","null","<div style=""font-size:60px;"">+</div>","null","fixation","","","","","","","","","","","23","","",""
"revaluation","143","769520","0.0-5.0-2.0-0.12","spark_pilot_2","7348","3","13","Female","","false","","","","","","[1125,641]","./assets/img/ocean/memory/40.jpg","[""ArrowDown"",""ArrowRight""]","value training","ocean","30","{""ArrowUp,ArrowLeft"":23,""ArrowUp,ArrowRight"":10,""ArrowDown,ArrowLeft"":8,""ArrowDown,ArrowRight"":30}","true","ArrowDown,ArrowRight","false","","","original","1","24","","",""
"html-keyboard-response","144","770021","0.0-5.0-2.0-1.12","spark_pilot_2","7348","3","13","Female","","","","","","","","null","<div style=""font-size:60px;"">+</div>","null","fixation","","","","","","","","","","","25","","",""
"revaluation","145","776026","0.0-5.0-2.0-0.13","spark_pilot_2","7348","3","13","Female","","false","","","","","","[1491,605]","./assets/img/ocean/memory/41.jpg","[""ArrowUp"",""ArrowRight""]","value training","ocean","10","{""ArrowUp,ArrowLeft"":23,""ArrowUp,ArrowRight"":10,""ArrowDown,ArrowLeft"":8,""ArrowDown,ArrowRight"":30}","false","ArrowUp,ArrowRight","false","","","original","1","26","","",""
"html-keyboard-response","146","776527","0.0-5.0-2.0-1.13","spark_pilot_2","7348","3","13","Female","","","","","","","","null","<div style=""font-size:60px;"">+</div>","null","fixation","","","","","","","","","","","27","","",""
"revaluation","147","782532","0.0-5.0-2.0-0.14","spark_pilot_2","7348","3","13","Female","","false","","","","","","[1219,792]","./assets/img/ocean/memory/36.jpg","[""ArrowDown"",""ArrowLeft""]","value training","ocean","8","{""ArrowUp,ArrowLeft"":23,""ArrowUp,ArrowRight"":10,""ArrowDown,ArrowLeft"":8,""ArrowDown,ArrowRight"":30}","false","ArrowDown,ArrowLeft","false","","","original","1","28","","",""
"html-keyboard-response","148","783034","0.0-5.0-2.0-1.14","spark_pilot_2","7348","3","13","Female","","","","","","","","null","<div style=""font-size:60px;"">+</div>","null","fixation","","","","","","","","","","","29","","",""
"revaluation","149","789039","0.0-5.0-2.0-0.15","spark_pilot_2","7348","3","13","Female","","false","","","","","","[831,901]","./assets/img/ocean/memory/1.jpg","[""ArrowDown"",""ArrowRight""]","value training","ocean","30","{""ArrowUp,ArrowLeft"":23,""ArrowUp,ArrowRight"":10,""ArrowDown,ArrowLeft"":8,""ArrowDown,ArrowRight"":30}","true","ArrowDown,ArrowRight","false","","","original","1","30","","",""
"html-keyboard-response","150","789541","0.0-5.0-2.0-1.15","spark_pilot_2","7348","3","13","Female","","","","","","","","null","<div style=""font-size:60px;"">+</div>","null","fixation","","","","","","","","","","","31","","",""
"revaluation","151","795547","0.0-5.0-2.0-0.16","spark_pilot_2","7348","3","13","Female","","false","","","","","","[1097,851]","./assets/img/ocean/memory/10.jpg","[""ArrowDown"",""ArrowLeft""]","value training","ocean","8","{""ArrowUp,ArrowLeft"":23,""ArrowUp,ArrowRight"":10,""ArrowDown,ArrowLeft"":8,""ArrowDown,ArrowRight"":30}","false","ArrowDown,ArrowLeft","false","","","original","1","32","","",""
"html-keyboard-response","152","796049","0.0-5.0-2.0-1.16","spark_pilot_2","7348","3","13","Female","","","","","","","","null","<div style=""font-size:60px;"">+</div>","null","fixation","","","","","","","","","","","33","","",""
"revaluation","153","802054","0.0-5.0-2.0-0.17","spark_pilot_2","7348","3","13","Female","","false","","","","","","[1362,1306.9999999998836]","./assets/img/ocean/memory/17.jpg","[""ArrowUp"",""ArrowLeft""]","value training","ocean","23","{""ArrowUp,ArrowLeft"":23,""ArrowUp,ArrowRight"":10,""ArrowDown,ArrowLeft"":8,""ArrowDown,ArrowRight"":30}","false","ArrowUp,ArrowLeft","false","","","original","1","34","","",""
"html-keyboard-response","154","802556","0.0-5.0-2.0-1.17","spark_pilot_2","7348","3","13","Female","","","","","","","","null","<div style=""font-size:60px;"">+</div>","null","fixation","","","","","","","","","","","35","","",""
"revaluation","155","808561","0.0-5.0-2.0-0.18","spark_pilot_2","7348","3","13","Female","","false","","","","","","[1167.0000000001164,730]","./assets/img/ocean/memory/38.jpg","[""ArrowDown"",""ArrowRight""]","value training","ocean","30","{""ArrowUp,ArrowLeft"":23,""ArrowUp,ArrowRight"":10,""ArrowDown,ArrowLeft"":8,""ArrowDown,ArrowRight"":30}","true","ArrowDown,ArrowRight","false","","","original","1","36","","",""
"html-keyboard-response","156","809063","0.0-5.0-2.0-1.18","spark_pilot_2","7348","3","13","Female","","","","","","","","null","<div style=""font-size:60px;"">+</div>","null","fixation","","","","","","","","","","","37","","",""
"revaluation","157","815068","0.0-5.0-2.0-0.19","spark_pilot_2","7348","3","13","Female","","false","","","","","","[826,996]","./assets/img/ocean/memory/34.jpg","[""ArrowDown"",""ArrowLeft""]","value training","ocean","8","{""ArrowUp,ArrowLeft"":23,""ArrowUp,ArrowRight"":10,""ArrowDown,ArrowLeft"":8,""ArrowDown,ArrowRight"":30}","false","ArrowDown,ArrowLeft","false","","","original","1","38","","",""
"html-keyboard-response","158","815570","0.0-5.0-2.0-1.19","spark_pilot_2","7348","3","13","Female","","","","","","","","null","<div style=""font-size:60px;"">+</div>","null","fixation","","","","","","","","","","","39","","",""
"revaluation","159","821573","0.0-5.0-2.0-0.20","spark_pilot_2","7348","3","13","Female","","false","","","","","","[921.9999999998836,901]","./assets/img/ocean/memory/2.jpg","[""ArrowUp"",""ArrowRight""]","value training","ocean","10","{""ArrowUp,ArrowLeft"":23,""ArrowUp,ArrowRight"":10,""ArrowDown,ArrowLeft"":8,""ArrowDown,ArrowRight"":30}","false","ArrowUp,ArrowRight","false","","","original","1","40","","",""
"html-keyboard-response","160","822075","0.0-5.0-2.0-1.20","spark_pilot_2","7348","3","13","Female","","","","","","","","null","<div style=""font-size:60px;"">+</div>","null","fixation","","","","","","","","","","","41","","",""
"revaluation","161","826078","0.0-5.0-2.0-0.21","spark_pilot_2","7348","3","13","Female","","false","","","","","","[1055.9999999998836]","./assets/img/ocean/catch/7.jpg","[""spaceBar""]","value training","ocean","0","{""ArrowUp,ArrowLeft"":23,""ArrowUp,ArrowRight"":10,""ArrowDown,ArrowLeft"":8,""ArrowDown,ArrowRight"":30}","true","spaceBar","true","","","original","1","42","","",""
"html-keyboard-response","162","826579","0.0-5.0-2.0-1.21","spark_pilot_2","7348","3","13","Female","","","","","","","","null","<div style=""font-size:60px;"">+</div>","null","fixation","","","","","","","","","","","43","","",""
"revaluation","163","832584","0.0-5.0-2.0-0.22","spark_pilot_2","7348","3","13","Female","","false","","","","","","[1726,851]","./assets/img/ocean/memory/25.jpg","[""ArrowDown"",""ArrowLeft""]","value training","ocean","8","{""ArrowUp,ArrowLeft"":23,""ArrowUp,ArrowRight"":10,""ArrowDown,ArrowLeft"":8,""ArrowDown,ArrowRight"":30}","false","ArrowDown,ArrowLeft","false","","","original","1","44","","",""
"html-keyboard-response","164","833086","0.0-5.0-2.0-1.22","spark_pilot_2","7348","3","13","Female","","","","","","","","null","<div style=""font-size:60px;"">+</div>","null","fixation","","","","","","","","","","","45","","",""
"revaluation","165","839090","0.0-5.0-2.0-0.23","spark_pilot_2","7348","3","13","Female","","false","","","","","","[733,542]","./assets/img/ocean/memory/29.jpg","[""ArrowUp"",""ArrowRight""]","value training","ocean","10","{""ArrowUp,ArrowLeft"":23,""ArrowUp,ArrowRight"":10,""ArrowDown,ArrowLeft"":8,""ArrowDown,ArrowRight"":30}","false","ArrowUp,ArrowRight","false","","","original","1","46","","",""
"html-keyboard-response","166","839592","0.0-5.0-2.0-1.23","spark_pilot_2","7348","3","13","Female","","","","","","","","null","<div style=""font-size:60px;"">+</div>","null","fixation","","","","","","","","","","","47","","",""
"revaluation","167","845597","0.0-5.0-2.0-0.24","spark_pilot_2","7348","3","13","Female","","false","","","","","","[1043,720]","./assets/img/ocean/memory/4.jpg","[""ArrowDown"",""ArrowLeft""]","value training","ocean","8","{""ArrowUp,ArrowLeft"":23,""ArrowUp,ArrowRight"":10,""ArrowDown,ArrowLeft"":8,""ArrowDown,ArrowRight"":30}","false","ArrowDown,ArrowLeft","false","","","original","1","48","","",""
"html-keyboard-response","168","846099","0.0-5.0-2.0-1.24","spark_pilot_2","7348","3","13","Female","","","","","","","","null","<div style=""font-size:60px;"">+</div>","null","fixation","","","","","","","","","","","49","","",""
"revaluation","169","852104","0.0-5.0-2.0-0.25","spark_pilot_2","7348","3","13","Female","","false","","","","","","[466,546]","./assets/img/ocean/memory/18.jpg","[""ArrowUp"",""ArrowRight""]","value training","ocean","10","{""ArrowUp,ArrowLeft"":23,""ArrowUp,ArrowRight"":10,""ArrowDown,ArrowLeft"":8,""ArrowDown,ArrowRight"":30}","false","ArrowUp,ArrowRight","false","","","original","1","50","","",""
"html-keyboard-response","170","852605","0.0-5.0-2.0-1.25","spark_pilot_2","7348","3","13","Female","","","","","","","","null","<div style=""font-size:60px;"">+</div>","null","fixation","","","","","","","","","","","51","","",""
"revaluation","171","856608","0.0-5.0-2.0-0.26","spark_pilot_2","7348","3","13","Female","","false","","","","","","[789]","./assets/img/ocean/catch/1.jpg","[""spaceBar""]","value training","ocean","0","{""ArrowUp,ArrowLeft"":23,""ArrowUp,ArrowRight"":10,""ArrowDown,ArrowLeft"":8,""ArrowDown,ArrowRight"":30}","true","spaceBar","true","","","original","1","52","","",""
"html-keyboard-response","172","857109","0.0-5.0-2.0-1.26","spark_pilot_2","7348","3","13","Female","","","","","","","","null","<div style=""font-size:60px;"">+</div>","null","fixation","","","","","","","","","","","53","","",""
"revaluation","173","861113","0.0-5.0-2.0-0.27","spark_pilot_2","7348","3","13","Female","","false","","","","","","[965]","./assets/img/ocean/catch/6.jpg","[""spaceBar""]","value training","ocean","0","{""ArrowUp,ArrowLeft"":23,""ArrowUp,ArrowRight"":10,""ArrowDown,ArrowLeft"":8,""ArrowDown,ArrowRight"":30}","true","spaceBar","true","","","original","1","54","","",""
"html-keyboard-response","174","861615","0.0-5.0-2.0-1.27","spark_pilot_2","7348","3","13","Female","","","","","","","","null","<div style=""font-size:60px;"">+</div>","null","fixation","","","","","","","","","","","55","","",""
"revaluation","175","867619","0.0-5.0-2.0-0.28","spark_pilot_2","7348","3","13","Female","","false","","","","","","[836.0000000001164,939]","./assets/img/ocean/memory/38.jpg","[""ArrowDown"",""ArrowLeft""]","value training","ocean","8","{""ArrowUp,ArrowLeft"":23,""ArrowUp,ArrowRight"":10,""ArrowDown,ArrowLeft"":8,""ArrowDown,ArrowRight"":30}","false","ArrowDown,ArrowLeft","false","","","original","1","56","","",""
"html-keyboard-response","176","868121","0.0-5.0-2.0-1.28","spark_pilot_2","7348","3","13","Female","","","","","","","","null","<div style=""font-size:60px;"">+</div>","null","fixation","","","","","","","","","","","57","","",""
"revaluation","177","872125","0.0-5.0-2.0-0.29","spark_pilot_2","7348","3","13","Female","","false","","","","","","[743.0000000001164]","./assets/img/ocean/catch/2.jpg","[""spaceBar""]","value training","ocean","0","{""ArrowUp,ArrowLeft"":23,""ArrowUp,ArrowRight"":10,""ArrowDown,ArrowLeft"":8,""ArrowDown,ArrowRight"":30}","true","spaceBar","true","","","original","1","58","","",""
"html-keyboard-response","178","872626","0.0-5.0-2.0-1.29","spark_pilot_2","7348","3","13","Female","","","","","","","","null","<div style=""font-size:60px;"">+</div>","null","fixation","","","","","","","","","","","59","","",""
"revaluation","179","878631","0.0-5.0-2.0-0.30","spark_pilot_2","7348","3","13","Female","","false","","","","","","[1200.0000000001164,964]","./assets/img/ocean/memory/36.jpg","[""ArrowDown"",""ArrowRight""]","value training","ocean","30","{""ArrowUp,ArrowLeft"":23,""ArrowUp,ArrowRight"":10,""ArrowDown,ArrowLeft"":8,""ArrowDown,ArrowRight"":30}","true","ArrowDown,ArrowRight","false","","","original","1","60","","",""
"html-keyboard-response","180","879133","0.0-5.0-2.0-1.30","spark_pilot_2","7348","3","13","Female","","","","","","","","null","<div style=""font-size:60px;"">+</div>","null","fixation","","","","","","","","","","","61","","",""
"revaluation","181","885138","0.0-5.0-2.0-0.31","spark_pilot_2","7348","3","13","Female","","false","","","","","","[1319,836.0000000001164]","./assets/img/ocean/memory/39.jpg","[""ArrowDown"",""ArrowRight""]","value training","ocean","30","{""ArrowUp,ArrowLeft"":23,""ArrowUp,ArrowRight"":10,""ArrowDown,ArrowLeft"":8,""ArrowDown,ArrowRight"":30}","true","ArrowDown,ArrowRight","false","","","original","1","62","","",""
"html-keyboard-response","182","885639","0.0-5.0-2.0-1.31","spark_pilot_2","7348","3","13","Female","","","","","","","","null","<div style=""font-size:60px;"">+</div>","null","fixation","","","","","","","","","","","63","","",""
"revaluation","183","891645","0.0-5.0-2.0-0.32","spark_pilot_2","7348","3","13","Female","","false","","","","","","[820,1080.0000000001164]","./assets/img/ocean/memory/17.jpg","[""ArrowUp"",""ArrowLeft""]","value training","ocean","23","{""ArrowUp,ArrowLeft"":23,""ArrowUp,ArrowRight"":10,""ArrowDown,ArrowLeft"":8,""ArrowDown,ArrowRight"":30}","false","ArrowUp,ArrowLeft","false","","","original","1","64","","",""
"html-keyboard-response","184","892146","0.0-5.0-2.0-1.32","spark_pilot_2","7348","3","13","Female","","","","","","","","null","<div style=""font-size:60px;"">+</div>","null","fixation","","","","","","","","","","","65","","",""
"revaluation","185","898151","0.0-5.0-2.0-0.33","spark_pilot_2","7348","3","13","Female","","false","","","","","","[1459,1021.0000000001164]","./assets/img/ocean/memory/33.jpg","[""ArrowDown"",""ArrowLeft""]","value training","ocean","8","{""ArrowUp,ArrowLeft"":23,""ArrowUp,ArrowRight"":10,""ArrowDown,ArrowLeft"":8,""ArrowDown,ArrowRight"":30}","false","ArrowDown,ArrowLeft","false","","","original","1","66","","",""
"html-keyboard-response","186","898653","0.0-5.0-2.0-1.33","spark_pilot_2","7348","3","13","Female","","","","","","","","null","<div style=""font-size:60px;"">+</div>","null","fixation","","","","","","","","","","","67","","",""
"revaluation","187","904659","0.0-5.0-2.0-0.34","spark_pilot_2","7348","3","13","Female","","false","","","","","","[1026,847.9999999998836]","./assets/img/ocean/memory/4.jpg","[""ArrowDown"",""ArrowRight""]","value training","ocean","30","{""ArrowUp,ArrowLeft"":23,""ArrowUp,ArrowRight"":10,""ArrowDown,ArrowLeft"":8,""ArrowDown,ArrowRight"":30}","true","ArrowDown,ArrowRight","false","","","original","1","68","","",""
"html-keyboard-response","188","905161","0.0-5.0-2.0-1.34","spark_pilot_2","7348","3","13","Female","","","","","","","","null","<div style=""font-size:60px;"">+</div>","null","fixation","","","","","","","","","","","69","","",""
"revaluation","189","911164","0.0-5.0-2.0-0.35","spark_pilot_2","7348","3","13","Female","","false","","","","","","[773,842]","./assets/img/ocean/memory/35.jpg","[""ArrowUp"",""ArrowLeft""]","value training","ocean","23","{""ArrowUp,ArrowLeft"":23,""ArrowUp,ArrowRight"":10,""ArrowDown,ArrowLeft"":8,""ArrowDown,ArrowRight"":30}","false","ArrowUp,ArrowLeft","false","","","original","1","70","","",""
"html-keyboard-response","190","911665","0.0-5.0-2.0-1.35","spark_pilot_2","7348","3","13","Female","","","","","","","","null","<div style=""font-size:60px;"">+</div>","null","fixation","","","","","","","","","","","71","","",""
"revaluation","191","917672","0.0-5.0-2.0-0.36","spark_pilot_2","7348","3","13","Female","","false","","","","","","[308,423]","./assets/img/ocean/memory/37.jpg","[""ArrowUp"",""ArrowRight""]","value training","ocean","10","{""ArrowUp,ArrowLeft"":23,""ArrowUp,ArrowRight"":10,""ArrowDown,ArrowLeft"":8,""ArrowDown,ArrowRight"":30}","false","ArrowUp,ArrowRight","false","","","original","1","72","","",""
"html-keyboard-response","192","918174","0.0-5.0-2.0-1.36","spark_pilot_2","7348","3","13","Female","","","","","","","","null","<div style=""font-size:60px;"">+</div>","null","fixation","","","","","","","","","","","73","","",""
"revaluation","193","922179","0.0-5.0-2.0-0.37","spark_pilot_2","7348","3","13","Female","","false","","","","","","[968]","./assets/img/ocean/catch/4.jpg","[""spaceBar""]","value training","ocean","0","{""ArrowUp,ArrowLeft"":23,""ArrowUp,ArrowRight"":10,""ArrowDown,ArrowLeft"":8,""ArrowDown,ArrowRight"":30}","true","spaceBar","true","","","original","1","74","","",""
"html-keyboard-response","194","922681","0.0-5.0-2.0-1.37","spark_pilot_2","7348","3","13","Female","","","","","","","","null","<div style=""font-size:60px;"">+</div>","null","fixation","","","","","","","","","","","75","","",""
"revaluation","195","928686","0.0-5.0-2.0-0.38","spark_pilot_2","7348","3","13","Female","","false","","","","","","[883,840]","./assets/img/ocean/memory/7.jpg","[""ArrowDown"",""ArrowLeft""]","value training","ocean","8","{""ArrowUp,ArrowLeft"":23,""ArrowUp,ArrowRight"":10,""ArrowDown,ArrowLeft"":8,""ArrowDown,ArrowRight"":30}","false","ArrowDown,ArrowLeft","false","","","original","1","76","","",""
"html-keyboard-response","196","929188","0.0-5.0-2.0-1.38","spark_pilot_2","7348","3","13","Female","","","","","","","","null","<div style=""font-size:60px;"">+</div>","null","fixation","","","","","","","","","","","77","","",""
"revaluation","197","935192","0.0-5.0-2.0-0.39","spark_pilot_2","7348","3","13","Female","","false","","","","","","[1373.9999999998836,823]","./assets/img/ocean/memory/7.jpg","[""ArrowUp"",""ArrowRight""]","value training","ocean","10","{""ArrowUp,ArrowLeft"":23,""ArrowUp,ArrowRight"":10,""ArrowDown,ArrowLeft"":8,""ArrowDown,ArrowRight"":30}","false","ArrowUp,ArrowRight","false","","","original","1","78","","",""
"html-keyboard-response","198","935694","0.0-5.0-2.0-1.39","spark_pilot_2","7348","3","13","Female","","","","","","","","null","<div style=""font-size:60px;"">+</div>","null","fixation","","","","","","","","","","","79","","",""
"revaluation","199","941700","0.0-5.0-2.0-0.40","spark_pilot_2","7348","3","13","Female","","false","","","","","","[1213,842]","./assets/img/ocean/memory/32.jpg","[""ArrowDown"",""ArrowLeft""]","value training","ocean","8","{""ArrowUp,ArrowLeft"":23,""ArrowUp,ArrowRight"":10,""ArrowDown,ArrowLeft"":8,""ArrowDown,ArrowRight"":30}","false","ArrowDown,ArrowLeft","false","","","original","1","80","","",""
"html-keyboard-response","200","942202","0.0-5.0-2.0-1.40","spark_pilot_2","7348","3","13","Female","","","","","","","","null","<div style=""font-size:60px;"">+</div>","null","fixation","","","","","","","","","","","81","","",""
"revaluation","201","948206","0.0-5.0-2.0-0.41","spark_pilot_2","7348","3","13","Female","","false","","","","","","[1693.0000000001164,1188.0000000001164]","./assets/img/ocean/memory/10.jpg","[""ArrowDown"",""ArrowLeft""]","value training","ocean","8","{""ArrowUp,ArrowLeft"":23,""ArrowUp,ArrowRight"":10,""ArrowDown,ArrowLeft"":8,""ArrowDown,ArrowRight"":30}","false","ArrowDown,ArrowLeft","false","","","original","1","82","","",""
"html-keyboard-response","202","948708","0.0-5.0-2.0-1.41","spark_pilot_2","7348","3","13","Female","","","","","","","","null","<div style=""font-size:60px;"">+</div>","null","fixation","","","","","","","","","","","83","","",""
"revaluation","203","954713","0.0-5.0-2.0-0.42","spark_pilot_2","7348","3","13","Female","","false","","","","","","[1385,824]","./assets/img/ocean/memory/35.jpg","[""ArrowDown"",""ArrowRight""]","value training","ocean","30","{""ArrowUp,ArrowLeft"":23,""ArrowUp,ArrowRight"":10,""ArrowDown,ArrowLeft"":8,""ArrowDown,ArrowRight"":30}","true","ArrowDown,ArrowRight","false","","","original","1","84","","",""
"html-keyboard-response","204","955214","0.0-5.0-2.0-1.42","spark_pilot_2","7348","3","13","Female","","","","","","","","null","<div style=""font-size:60px;"">+</div>","null","fixation","","","","","","","","","","","85","","",""
"revaluation","205","961220","0.0-5.0-2.0-0.43","spark_pilot_2","7348","3","13","Female","","false","","","","","","[1044,843]","./assets/img/ocean/memory/25.jpg","[""ArrowUp"",""ArrowLeft""]","value training","ocean","23","{""ArrowUp,ArrowLeft"":23,""ArrowUp,ArrowRight"":10,""ArrowDown,ArrowLeft"":8,""ArrowDown,ArrowRight"":30}","false","ArrowUp,ArrowLeft","false","","","original","1","86","","",""
"html-keyboard-response","206","961722","0.0-5.0-2.0-1.43","spark_pilot_2","7348","3","13","Female","","","","","","","","null","<div style=""font-size:60px;"">+</div>","null","fixation","","","","","","","","","","","87","","",""
"revaluation","207","967727","0.0-5.0-2.0-0.44","spark_pilot_2","7348","3","13","Female","","false","","","","","","[1377,1085.9999999998836]","./assets/img/ocean/memory/33.jpg","[""ArrowUp"",""ArrowRight""]","value training","ocean","10","{""ArrowUp,ArrowLeft"":23,""ArrowUp,ArrowRight"":10,""ArrowDown,ArrowLeft"":8,""ArrowDown,ArrowRight"":30}","false","ArrowUp,ArrowRight","false","","","original","1","88","","",""
"html-keyboard-response","208","968228","0.0-5.0-2.0-1.44","spark_pilot_2","7348","3","13","Female","","","","","","","","null","<div style=""font-size:60px;"">+</div>","null","fixation","","","","","","","","","","","89","","",""
"revaluation","209","974233","0.0-5.0-2.0-0.45","spark_pilot_2","7348","3","13","Female","","false","","","","","","[866.9999999998836,1870]","./assets/img/ocean/memory/34.jpg","[""ArrowDown"",""ArrowRight""]","value training","ocean","30","{""ArrowUp,ArrowLeft"":23,""ArrowUp,ArrowRight"":10,""ArrowDown,ArrowLeft"":8,""ArrowDown,ArrowRight"":30}","true","ArrowDown,ArrowRight","false","","","original","1","90","","",""
"html-keyboard-response","210","974735","0.0-5.0-2.0-1.45","spark_pilot_2","7348","3","13","Female","","","","","","","","null","<div style=""font-size:60px;"">+</div>","null","fixation","","","","","","","","","","","91","","",""
"revaluation","211","980740","0.0-5.0-2.0-0.46","spark_pilot_2","7348","3","13","Female","","false","","","","","","[998,1135]","./assets/img/ocean/memory/1.jpg","[""ArrowDown"",""ArrowLeft""]","value training","ocean","8","{""ArrowUp,ArrowLeft"":23,""ArrowUp,ArrowRight"":10,""ArrowDown,ArrowLeft"":8,""ArrowDown,ArrowRight"":30}","false","ArrowDown,ArrowLeft","false","","","original","1","92","","",""
"html-keyboard-response","212","981241","0.0-5.0-2.0-1.46","spark_pilot_2","7348","3","13","Female","","","","","","","","null","<div style=""font-size:60px;"">+</div>","null","fixation","","","","","","","","","","","93","","",""
"revaluation","213","987246","0.0-5.0-2.0-0.47","spark_pilot_2","7348","3","13","Female","","false","","","","","","[983,1164]","./assets/img/ocean/memory/19.jpg","[""ArrowUp"",""ArrowRight""]","value training","ocean","10","{""ArrowUp,ArrowLeft"":23,""ArrowUp,ArrowRight"":10,""ArrowDown,ArrowLeft"":8,""ArrowDown,ArrowRight"":30}","false","ArrowUp,ArrowRight","false","","","original","1","94","","",""
"html-keyboard-response","214","987748","0.0-5.0-2.0-1.47","spark_pilot_2","7348","3","13","Female","","","","","","","","null","<div style=""font-size:60px;"">+</div>","null","fixation","","","","","","","","","","","95","","",""
"revaluation","215","993753","0.0-5.0-2.0-0.48","spark_pilot_2","7348","3","13","Female","","false","","","","","","[935.9999999998836,1341]","./assets/img/ocean/memory/26.jpg","[""ArrowDown"",""ArrowLeft""]","value training","ocean","8","{""ArrowUp,ArrowLeft"":23,""ArrowUp,ArrowRight"":10,""ArrowDown,ArrowLeft"":8,""ArrowDown,ArrowRight"":30}","false","ArrowDown,ArrowLeft","false","","","original","1","96","","",""
"html-keyboard-response","216","994255","0.0-5.0-2.0-1.48","spark_pilot_2","7348","3","13","Female","","","","","","","","null","<div style=""font-size:60px;"">+</div>","null","fixation","","","","","","","","","","","97","","",""
"revaluation","217","1000262","0.0-5.0-2.0-0.49","spark_pilot_2","7348","3","13","Female","","false","","","","","","[849,1019]","./assets/img/ocean/memory/18.jpg","[""ArrowDown"",""ArrowRight""]","value training","ocean","30","{""ArrowUp,ArrowLeft"":23,""ArrowUp,ArrowRight"":10,""ArrowDown,ArrowLeft"":8,""ArrowDown,ArrowRight"":30}","true","ArrowDown,ArrowRight","false","","","original","1","98","","",""
"html-keyboard-response","218","1000763","0.0-5.0-2.0-1.49","spark_pilot_2","7348","3","13","Female","","","","","","","","null","<div style=""font-size:60px;"">+</div>","null","fixation","","","","","","","","","","","99","","",""
"learning-instructions","219","1015125","0.0-5.0-3.0-0.0","spark_pilot_2","7348","3","13","Female","","","","","","","","1480.0000000001164","<p> Now, you will travel with a friend who will choose whether you go up or down first. </p>
            <p> On these turns, you will just see the animal that they found. You will still get to choose which chest to search for treasure.</p>","","instructions","","","","","","","","","","","","","",""
"revaluation","220","1019129","0.0-5.0-4.0-0.0","spark_pilot_2","7348","3","13","Female","","false","","","","","","[1684]","./assets/img/ocean/animals/seahorse.jpg","[""ArrowRight""]","revaluation","ocean","10","{""ArrowUp,ArrowLeft"":23,""ArrowUp,ArrowRight"":10,""ArrowDown,ArrowLeft"":8,""ArrowDown,ArrowRight"":30}","false","ArrowUp,ArrowRight","","","","original","1","0","","",""
"html-keyboard-response","221","1019632","0.0-5.0-4.0-1.0","spark_pilot_2","7348","3","13","Female","","","","","","","","null","<div style=""font-size:60px;"">+</div>","null","fixation","","","","","","","","","","","1","","",""
"revaluation","222","1023635","0.0-5.0-4.0-0.1","spark_pilot_2","7348","3","13","Female","","false","","","","","","[709]","./assets/img/ocean/animals/seahorse.jpg","[""ArrowRight""]","revaluation","ocean","10","{""ArrowUp,ArrowLeft"":23,""ArrowUp,ArrowRight"":10,""ArrowDown,ArrowLeft"":8,""ArrowDown,ArrowRight"":30}","false","ArrowUp,ArrowRight","","","","original","1","2","","",""
"html-keyboard-response","223","1024136","0.0-5.0-4.0-1.1","spark_pilot_2","7348","3","13","Female","","","","","","","","null","<div style=""font-size:60px;"">+</div>","null","fixation","","","","","","","","","","","3","","",""
"revaluation","224","1028140","0.0-5.0-4.0-0.2","spark_pilot_2","7348","3","13","Female","","false","","","","","","[549]","./assets/img/ocean/animals/octopus.jpg","[""ArrowLeft""]","revaluation","ocean","8","{""ArrowUp,ArrowLeft"":23,""ArrowUp,ArrowRight"":10,""ArrowDown,ArrowLeft"":8,""ArrowDown,ArrowRight"":30}","false","ArrowDown,ArrowLeft","","","","original","1","4","","",""
"html-keyboard-response","225","1028642","0.0-5.0-4.0-1.2","spark_pilot_2","7348","3","13","Female","","","","","","","","null","<div style=""font-size:60px;"">+</div>","null","fixation","","","","","","","","","","","5","","",""
"revaluation","226","1032647","0.0-5.0-4.0-0.3","spark_pilot_2","7348","3","13","Female","","false","","","","","","[1183.9999999998836]","./assets/img/ocean/animals/octopus.jpg","[""ArrowRight""]","revaluation","ocean","30","{""ArrowUp,ArrowLeft"":23,""ArrowUp,ArrowRight"":10,""ArrowDown,ArrowLeft"":8,""ArrowDown,ArrowRight"":30}","true","ArrowDown,ArrowRight","","","","original","1","6","","",""
"html-keyboard-response","227","1033149","0.0-5.0-4.0-1.3","spark_pilot_2","7348","3","13","Female","","","","","","","","null","<div style=""font-size:60px;"">+</div>","null","fixation","","","","","","","","","","","7","","",""
"revaluation","228","1037154","0.0-5.0-4.0-0.4","spark_pilot_2","7348","3","13","Female","","false","","","","","","[670.9999999998836]","./assets/img/ocean/animals/octopus.jpg","[""ArrowLeft""]","revaluation","ocean","8","{""ArrowUp,ArrowLeft"":23,""ArrowUp,ArrowRight"":10,""ArrowDown,ArrowLeft"":8,""ArrowDown,ArrowRight"":30}","false","ArrowDown,ArrowLeft","","","","original","1","8","","",""
"html-keyboard-response","229","1037656","0.0-5.0-4.0-1.4","spark_pilot_2","7348","3","13","Female","","","","","","","","null","<div style=""font-size:60px;"">+</div>","null","fixation","","","","","","","","","","","9","","",""
"revaluation","230","1041660","0.0-5.0-4.0-0.5","spark_pilot_2","7348","3","13","Female","","false","","","","","","[698.0000000001164]","./assets/img/ocean/animals/seahorse.jpg","[""ArrowLeft""]","revaluation","ocean","23","{""ArrowUp,ArrowLeft"":23,""ArrowUp,ArrowRight"":10,""ArrowDown,ArrowLeft"":8,""ArrowDown,ArrowRight"":30}","true","ArrowUp,ArrowLeft","","","","original","1","10","","",""
"html-keyboard-response","231","1042161","0.0-5.0-4.0-1.5","spark_pilot_2","7348","3","13","Female","","","","","","","","null","<div style=""font-size:60px;"">+</div>","null","fixation","","","","","","","","","","","11","","",""
"revaluation","232","1046165","0.0-5.0-4.0-0.6","spark_pilot_2","7348","3","13","Female","","false","","","","","","[1231.9999999998836]","./assets/img/ocean/animals/seahorse.jpg","[""ArrowLeft""]","revaluation","ocean","23","{""ArrowUp,ArrowLeft"":23,""ArrowUp,ArrowRight"":10,""ArrowDown,ArrowLeft"":8,""ArrowDown,ArrowRight"":30}","true","ArrowUp,ArrowLeft","","","","original","1","12","","",""
"html-keyboard-response","233","1046667","0.0-5.0-4.0-1.6","spark_pilot_2","7348","3","13","Female","","","","","","","","null","<div style=""font-size:60px;"">+</div>","null","fixation","","","","","","","","","","","13","","",""
"revaluation","234","1050671","0.0-5.0-4.0-0.7","spark_pilot_2","7348","3","13","Female","","false","","","","","","[665]","./assets/img/ocean/animals/octopus.jpg","[""ArrowRight""]","revaluation","ocean","30","{""ArrowUp,ArrowLeft"":23,""ArrowUp,ArrowRight"":10,""ArrowDown,ArrowLeft"":8,""ArrowDown,ArrowRight"":30}","true","ArrowDown,ArrowRight","","","","original","1","14","","",""
"html-keyboard-response","235","1051173","0.0-5.0-4.0-1.7","spark_pilot_2","7348","3","13","Female","","","","","","","","null","<div style=""font-size:60px;"">+</div>","null","fixation","","","","","","","","","","","15","","",""
"revaluation","236","1055178","0.0-5.0-4.0-0.8","spark_pilot_2","7348","3","13","Female","","false","","","","","","[400]","./assets/img/ocean/animals/octopus.jpg","[""ArrowRight""]","revaluation","ocean","30","{""ArrowUp,ArrowLeft"":23,""ArrowUp,ArrowRight"":10,""ArrowDown,ArrowLeft"":8,""ArrowDown,ArrowRight"":30}","true","ArrowDown,ArrowRight","","","","original","1","16","","",""
"html-keyboard-response","237","1055679","0.0-5.0-4.0-1.8","spark_pilot_2","7348","3","13","Female","","","","","","","","null","<div style=""font-size:60px;"">+</div>","null","fixation","","","","","","","","","","","17","","",""
"revaluation","238","1059684","0.0-5.0-4.0-0.9","spark_pilot_2","7348","3","13","Female","","false","","","","","","[596]","./assets/img/ocean/animals/seahorse.jpg","[""ArrowLeft""]","revaluation","ocean","23","{""ArrowUp,ArrowLeft"":23,""ArrowUp,ArrowRight"":10,""ArrowDown,ArrowLeft"":8,""ArrowDown,ArrowRight"":30}","true","ArrowUp,ArrowLeft","","","","original","1","18","","",""
"html-keyboard-response","239","1060186","0.0-5.0-4.0-1.9","spark_pilot_2","7348","3","13","Female","","","","","","","","null","<div style=""font-size:60px;"">+</div>","null","fixation","","","","","","","","","","","19","","",""
"revaluation","240","1064190","0.0-5.0-4.0-0.10","spark_pilot_2","7348","3","13","Female","","false","","","","","","[512]","./assets/img/ocean/animals/octopus.jpg","[""ArrowRight""]","revaluation","ocean","30","{""ArrowUp,ArrowLeft"":23,""ArrowUp,ArrowRight"":10,""ArrowDown,ArrowLeft"":8,""ArrowDown,ArrowRight"":30}","true","ArrowDown,ArrowRight","","","","original","1","20","","",""
"html-keyboard-response","241","1064692","0.0-5.0-4.0-1.10","spark_pilot_2","7348","3","13","Female","","","","","","","","null","<div style=""font-size:60px;"">+</div>","null","fixation","","","","","","","","","","","21","","",""
"revaluation","242","1068697","0.0-5.0-4.0-0.11","spark_pilot_2","7348","3","13","Female","","false","","","","","","[663]","./assets/img/ocean/animals/seahorse.jpg","[""ArrowLeft""]","revaluation","ocean","23","{""ArrowUp,ArrowLeft"":23,""ArrowUp,ArrowRight"":10,""ArrowDown,ArrowLeft"":8,""ArrowDown,ArrowRight"":30}","true","ArrowUp,ArrowLeft","","","","original","1","22","","",""
"html-keyboard-response","243","1069198","0.0-5.0-4.0-1.11","spark_pilot_2","7348","3","13","Female","","","","","","","","null","<div style=""font-size:60px;"">+</div>","null","fixation","","","","","","","","","","","23","","",""
"revaluation","244","1073202","0.0-5.0-4.0-0.12","spark_pilot_2","7348","3","13","Female","","false","","","","","","[646]","./assets/img/ocean/animals/octopus.jpg","[""ArrowRight""]","revaluation","ocean","30","{""ArrowUp,ArrowLeft"":23,""ArrowUp,ArrowRight"":10,""ArrowDown,ArrowLeft"":8,""ArrowDown,ArrowRight"":30}","true","ArrowDown,ArrowRight","","","","original","1","24","","",""
"html-keyboard-response","245","1073704","0.0-5.0-4.0-1.12","spark_pilot_2","7348","3","13","Female","","","","","","","","null","<div style=""font-size:60px;"">+</div>","null","fixation","","","","","","","","","","","25","","",""
"revaluation","246","1077707","0.0-5.0-4.0-0.13","spark_pilot_2","7348","3","13","Female","","false","","","","","","[797]","./assets/img/ocean/animals/octopus.jpg","[""ArrowLeft""]","revaluation","ocean","8","{""ArrowUp,ArrowLeft"":23,""ArrowUp,ArrowRight"":10,""ArrowDown,ArrowLeft"":8,""ArrowDown,ArrowRight"":30}","false","ArrowDown,ArrowLeft","","","","original","1","26","","",""
"html-keyboard-response","247","1078209","0.0-5.0-4.0-1.13","spark_pilot_2","7348","3","13","Female","","","","","","","","null","<div style=""font-size:60px;"">+</div>","null","fixation","","","","","","","","","","","27","","",""
"revaluation","248","1082212","0.0-5.0-4.0-0.14","spark_pilot_2","7348","3","13","Female","","false","","","","","","[511.99999999976717]","./assets/img/ocean/animals/octopus.jpg","[""ArrowRight""]","revaluation","ocean","30","{""ArrowUp,ArrowLeft"":23,""ArrowUp,ArrowRight"":10,""ArrowDown,ArrowLeft"":8,""ArrowDown,ArrowRight"":30}","true","ArrowDown,ArrowRight","","","","original","1","28","","",""
"html-keyboard-response","249","1082714","0.0-5.0-4.0-1.14","spark_pilot_2","7348","3","13","Female","","","","","","","","null","<div style=""font-size:60px;"">+</div>","null","fixation","","","","","","","","","","","29","","",""
"revaluation","250","1086718","0.0-5.0-4.0-0.15","spark_pilot_2","7348","3","13","Female","","false","","","","","","[801]","./assets/img/ocean/animals/seahorse.jpg","[""ArrowLeft""]","revaluation","ocean","23","{""ArrowUp,ArrowLeft"":23,""ArrowUp,ArrowRight"":10,""ArrowDown,ArrowLeft"":8,""ArrowDown,ArrowRight"":30}","true","ArrowUp,ArrowLeft","","","","original","1","30","","",""
"html-keyboard-response","251","1087219","0.0-5.0-4.0-1.15","spark_pilot_2","7348","3","13","Female","","","","","","","","null","<div style=""font-size:60px;"">+</div>","null","fixation","","","","","","","","","","","31","","",""
"revaluation","252","1091223","0.0-5.0-4.0-0.16","spark_pilot_2","7348","3","13","Female","","false","","","","","","[625.9999999997672]","./assets/img/ocean/animals/seahorse.jpg","[""ArrowRight""]","revaluation","ocean","10","{""ArrowUp,ArrowLeft"":23,""ArrowUp,ArrowRight"":10,""ArrowDown,ArrowLeft"":8,""ArrowDown,ArrowRight"":30}","false","ArrowUp,ArrowRight","","","","original","1","32","","",""
"html-keyboard-response","253","1091725","0.0-5.0-4.0-1.16","spark_pilot_2","7348","3","13","Female","","","","","","","","null","<div style=""font-size:60px;"">+</div>","null","fixation","","","","","","","","","","","33","","",""
"revaluation","254","1095729","0.0-5.0-4.0-0.17","spark_pilot_2","7348","3","13","Female","","false","","","","","","[755]","./assets/img/ocean/animals/seahorse.jpg","[""ArrowLeft""]","revaluation","ocean","23","{""ArrowUp,ArrowLeft"":23,""ArrowUp,ArrowRight"":10,""ArrowDown,ArrowLeft"":8,""ArrowDown,ArrowRight"":30}","true","ArrowUp,ArrowLeft","","","","original","1","34","","",""
"html-keyboard-response","255","1096230","0.0-5.0-4.0-1.17","spark_pilot_2","7348","3","13","Female","","","","","","","","null","<div style=""font-size:60px;"">+</div>","null","fixation","","","","","","","","","","","35","","",""
"learning-instructions","256","1109108","0.0-5.0-5.0-0.0","spark_pilot_2","7348","3","13","Female","","","","","","","","1578","<p> Time to play the dot game! </p>
            <p> For one minute, click the red dots on the following screen as they appear. </p>
            <p><b> Don't look away, as you will earn bonus for clicking dots</b>. </p>","","instructions","","","","","","","","","","","","","",""
"revaluation","257","1169112","0.0-5.0-6.0-0.0","spark_pilot_2","7348","3","13","Female","","","","","","","","[93,105,116,96,91,243]","","","rest","","60","","","","","0","60000","","","","","",""
"learning-instructions","258","1177698","0.0-5.0-7.0-0.0","spark_pilot_2","7348","3","13","Female","","","","","","","","2484","<p> You have almost finished this part of the game! </p>
            <p> We are going to ask you to make a few more choices. </p>","","instructions","","","","","","","","","","","","","",""
"learning-instructions","259","1193619","0.0-5.0-7.0-0.1","spark_pilot_2","7348","3","13","Female","","","","","","","","1948","<p> First, you need to decide whether to go up or down. When you see each picture, use the arrow keys to make your choice. </p>
            <p><b>You will not see which animal you found, but try to get to the one that will give you the most treasure.</b></p>","","instructions","","","","","","","","","","","","","",""
"revaluation","260","1198946","0.0-5.0-8.0-0.0","spark_pilot_2","7348","3","13","Female","","false","","","","","","[5325]","./assets/img/ocean/test/0.jpg","[""ArrowDown""]","first stage test","ocean","0","{""ArrowUp,ArrowLeft"":23,""ArrowUp,ArrowRight"":10,""ArrowDown,ArrowLeft"":8,""ArrowDown,ArrowRight"":30}","true","ArrowDown","false","","","original","1","","","",""
"html-keyboard-response","261","1199448","0.0-5.0-8.0-1.0","spark_pilot_2","7348","3","13","Female","","","","","","","","null","<div style=""font-size:60px;"">+</div>","null","fixation","","","","","","","","","","","","","",""
"revaluation","262","1200961","0.0-5.0-8.0-0.1","spark_pilot_2","7348","3","13","Female","","false","","","","","","[1512]","./assets/img/ocean/test/3.jpg","[""ArrowDown""]","first stage test","ocean","0","{""ArrowUp,ArrowLeft"":23,""ArrowUp,ArrowRight"":10,""ArrowDown,ArrowLeft"":8,""ArrowDown,ArrowRight"":30}","true","ArrowDown","false","","","original","1","","","",""
"html-keyboard-response","263","1201463","0.0-5.0-8.0-1.1","spark_pilot_2","7348","3","13","Female","","","","","","","","null","<div style=""font-size:60px;"">+</div>","null","fixation","","","","","","","","","","","","","",""
"revaluation","264","1202625","0.0-5.0-8.0-0.2","spark_pilot_2","7348","3","13","Female","","false","","","","","","[1161]","./assets/img/ocean/test/1.jpg","[""ArrowDown""]","first stage test","ocean","0","{""ArrowUp,ArrowLeft"":23,""ArrowUp,ArrowRight"":10,""ArrowDown,ArrowLeft"":8,""ArrowDown,ArrowRight"":30}","true","ArrowDown","false","","","original","1","","","",""
"html-keyboard-response","265","1203127","0.0-5.0-8.0-1.2","spark_pilot_2","7348","3","13","Female","","","","","","","","null","<div style=""font-size:60px;"">+</div>","null","fixation","","","","","","","","","","","","","",""
"revaluation","266","1203851","0.0-5.0-8.0-0.3","spark_pilot_2","7348","3","13","Female","","false","","","","","","[723]","./assets/img/ocean/test/2.jpg","[""ArrowUp""]","first stage test","ocean","0","{""ArrowUp,ArrowLeft"":23,""ArrowUp,ArrowRight"":10,""ArrowDown,ArrowLeft"":8,""ArrowDown,ArrowRight"":30}","false","ArrowUp","false","","","original","1","","","",""
"html-keyboard-response","267","1204353","0.0-5.0-8.0-1.3","spark_pilot_2","7348","3","13","Female","","","","","","","","null","<div style=""font-size:60px;"">+</div>","null","fixation","","","","","","","","","","","","","",""
"learning-instructions","268","1216561","0.0-5.0-9.0-0.0","spark_pilot_2","7348","3","13","Female","","","","","","","","868","<p> Now you will see the animals again and can search their chests for treasure. </p>
            <p> This time, you will not see how much treasure you earned, but you will earn more bonus money for making better choices. </p>","","instructions","","","","","","","","","","","","","",""
"revaluation","269","1217903","0.0-5.0-10.0-0.0","spark_pilot_2","7348","3","13","Female","","false","","","","","","[1341]","./assets/img/ocean/animals/seahorse.jpg","[""ArrowLeft""]","second stage test","ocean","0","{""ArrowUp,ArrowLeft"":23,""ArrowUp,ArrowRight"":10,""ArrowDown,ArrowLeft"":8,""ArrowDown,ArrowRight"":30}","true","ArrowUp,ArrowLeft","","","","original","1","","","",""
"html-keyboard-response","270","1218404","0.0-5.0-10.0-1.0","spark_pilot_2","7348","3","13","Female","","","","","","","","null","<div style=""font-size:60px;"">+</div>","null","fixation","","","","","","","","","","","","","",""
"revaluation","271","1219110","0.0-5.0-10.0-0.1","spark_pilot_2","7348","3","13","Female","","false","","","","","","[703]","./assets/img/ocean/animals/seahorse.jpg","[""ArrowLeft""]","second stage test","ocean","0","{""ArrowUp,ArrowLeft"":23,""ArrowUp,ArrowRight"":10,""ArrowDown,ArrowLeft"":8,""ArrowDown,ArrowRight"":30}","true","ArrowUp,ArrowLeft","","","","original","1","","","",""
"html-keyboard-response","272","1219612","0.0-5.0-10.0-1.1","spark_pilot_2","7348","3","13","Female","","","","","","","","null","<div style=""font-size:60px;"">+</div>","null","fixation","","","","","","","","","","","","","",""
"revaluation","273","1220120","0.0-5.0-10.0-0.2","spark_pilot_2","7348","3","13","Female","","false","","","","","","[506]","./assets/img/ocean/animals/seahorse.jpg","[""ArrowRight""]","second stage test","ocean","0","{""ArrowUp,ArrowLeft"":23,""ArrowUp,ArrowRight"":10,""ArrowDown,ArrowLeft"":8,""ArrowDown,ArrowRight"":30}","false","ArrowUp,ArrowRight","","","","original","1","","","",""
"html-keyboard-response","274","1220621","0.0-5.0-10.0-1.2","spark_pilot_2","7348","3","13","Female","","","","","","","","null","<div style=""font-size:60px;"">+</div>","null","fixation","","","","","","","","","","","","","",""
"revaluation","275","1221211","0.0-5.0-10.0-0.3","spark_pilot_2","7348","3","13","Female","","false","","","","","","[588]","./assets/img/ocean/animals/seahorse.jpg","[""ArrowRight""]","second stage test","ocean","0","{""ArrowUp,ArrowLeft"":23,""ArrowUp,ArrowRight"":10,""ArrowDown,ArrowLeft"":8,""ArrowDown,ArrowRight"":30}","false","ArrowUp,ArrowRight","","","","original","1","","","",""
"html-keyboard-response","276","1221712","0.0-5.0-10.0-1.3","spark_pilot_2","7348","3","13","Female","","","","","","","","null","<div style=""font-size:60px;"">+</div>","null","fixation","","","","","","","","","","","","","",""
"revaluation","277","1222258","0.0-5.0-10.0-0.4","spark_pilot_2","7348","3","13","Female","","false","","","","","","[543.9999999997672]","./assets/img/ocean/animals/octopus.jpg","[""ArrowLeft""]","second stage test","ocean","0","{""ArrowUp,ArrowLeft"":23,""ArrowUp,ArrowRight"":10,""ArrowDown,ArrowLeft"":8,""ArrowDown,ArrowRight"":30}","false","ArrowDown,ArrowLeft","","","","original","1","","","",""
"html-keyboard-response","278","1222760","0.0-5.0-10.0-1.4","spark_pilot_2","7348","3","13","Female","","","","","","","","null","<div style=""font-size:60px;"">+</div>","null","fixation","","","","","","","","","","","","","",""
"revaluation","279","1223248","0.0-5.0-10.0-0.5","spark_pilot_2","7348","3","13","Female","","false","","","","","","[485.99999999976717]","./assets/img/ocean/animals/octopus.jpg","[""ArrowLeft""]","second stage test","ocean","0","{""ArrowUp,ArrowLeft"":23,""ArrowUp,ArrowRight"":10,""ArrowDown,ArrowLeft"":8,""ArrowDown,ArrowRight"":30}","false","ArrowDown,ArrowLeft","","","","original","1","","","",""
"html-keyboard-response","280","1223750","0.0-5.0-10.0-1.5","spark_pilot_2","7348","3","13","Female","","","","","","","","null","<div style=""font-size:60px;"">+</div>","null","fixation","","","","","","","","","","","","","",""
"revaluation","281","1224350","0.0-5.0-10.0-0.6","spark_pilot_2","7348","3","13","Female","","false","","","","","","[599]","./assets/img/ocean/animals/octopus.jpg","[""ArrowRight""]","second stage test","ocean","0","{""ArrowUp,ArrowLeft"":23,""ArrowUp,ArrowRight"":10,""ArrowDown,ArrowLeft"":8,""ArrowDown,ArrowRight"":30}","true","ArrowDown,ArrowRight","","","","original","1","","","",""
"html-keyboard-response","282","1224852","0.0-5.0-10.0-1.6","spark_pilot_2","7348","3","13","Female","","","","","","","","null","<div style=""font-size:60px;"">+</div>","null","fixation","","","","","","","","","","","","","",""
"revaluation","283","1225295","0.0-5.0-10.0-0.7","spark_pilot_2","7348","3","13","Female","","false","","","","","","[441]","./assets/img/ocean/animals/octopus.jpg","[""ArrowRight""]","second stage test","ocean","0","{""ArrowUp,ArrowLeft"":23,""ArrowUp,ArrowRight"":10,""ArrowDown,ArrowLeft"":8,""ArrowDown,ArrowRight"":30}","true","ArrowDown,ArrowRight","","","","original","1","","","",""
"html-keyboard-response","284","1225796","0.0-5.0-10.0-1.7","spark_pilot_2","7348","3","13","Female","","","","","","","","null","<div style=""font-size:60px;"">+</div>","null","fixation","","","","","","","","","","","","","",""
"learning-instructions","285","1230666","0.0-5.0-0.1-0.2","spark_pilot_2","7348","3","13","Female","","","","","","","","2108.000000000233","<p> This time you are searching for treasure in the <b>canyon</b>.</p>","","instructions","","","","","","","","","","","","","",""
"learning-instructions","286","1250074","0.0-5.0-0.1-0.3","spark_pilot_2","7348","3","13","Female","","","","","","","","2154","<p><b>New</b> animals with <b>new</b> treasure chests live here. You need to explore to discover where the animal with the best treasure chest is.</p>
                    <p> Like before, once you figure out which animal has the chest with the most treasure, you should try to get to that animal and select that chest! </p>","","instructions","","","","","","","","","","","","","",""
"learning-instructions","287","1267412","0.0-5.0-1.1-0.1","spark_pilot_2","7348","3","13","Female","","","","","","","","2608","<p> Remember, when you see a picture of the place, use the up and down keys to <b>find an animal</b>.</p>
            <p> When you encounter an animal, you should use the left and right keys to <b>select a treasure chest</b>.</p>
            <p> Don't forget to look out for the robber! </p>","","instructions","","","","","","","","","","","","","",""
"revaluation","288","1271416","0.0-5.0-2.1-0.50","spark_pilot_2","7348","3","13","Female","","false","","","","","","[1848]","./assets/img/canyon/catch/7.jpg","[""spaceBar""]","value training","canyon","0","{""ArrowUp,ArrowLeft"":26,""ArrowUp,ArrowRight"":10,""ArrowDown,ArrowLeft"":5,""ArrowDown,ArrowRight"":17}","true","spaceBar","true","","","revaluation","2","0","","",""
"html-keyboard-response","289","1271918","0.0-5.0-2.1-1.50","spark_pilot_2","7348","3","13","Female","","","","","","","","null","<div style=""font-size:60px;"">+</div>","null","fixation","","","","","","","","","","","1","","",""
"revaluation","290","1277923","0.0-5.0-2.1-0.51","spark_pilot_2","7348","3","13","Female","","false","","","","","","[888,1091]","./assets/img/canyon/memory/18.jpg","[""ArrowDown"",""ArrowLeft""]","value training","canyon","5","{""ArrowUp,ArrowLeft"":26,""ArrowUp,ArrowRight"":10,""ArrowDown,ArrowLeft"":5,""ArrowDown,ArrowRight"":17}","false","ArrowDown,ArrowLeft","false","","","revaluation","2","2","","",""
"html-keyboard-response","291","1278425","0.0-5.0-2.1-1.51","spark_pilot_2","7348","3","13","Female","","","","","","","","null","<div style=""font-size:60px;"">+</div>","null","fixation","","","","","","","","","","","3","","",""
"revaluation","292","1284429","0.0-5.0-2.1-0.52","spark_pilot_2","7348","3","13","Female","","false","","","","","","[1411,660]","./assets/img/canyon/memory/19.jpg","[""ArrowDown"",""ArrowRight""]","value training","canyon","17","{""ArrowUp,ArrowLeft"":26,""ArrowUp,ArrowRight"":10,""ArrowDown,ArrowLeft"":5,""ArrowDown,ArrowRight"":17}","false","ArrowDown,ArrowRight","false","","","revaluation","2","4","","",""
"html-keyboard-response","293","1284930","0.0-5.0-2.1-1.52","spark_pilot_2","7348","3","13","Female","","","","","","","","null","<div style=""font-size:60px;"">+</div>","null","fixation","","","","","","","","","","","5","","",""
"revaluation","294","1290935","0.0-5.0-2.1-0.53","spark_pilot_2","7348","3","13","Female","","false","","","","","","[1139,1322]","./assets/img/canyon/memory/4.jpg","[""ArrowDown"",""ArrowRight""]","value training","canyon","17","{""ArrowUp,ArrowLeft"":26,""ArrowUp,ArrowRight"":10,""ArrowDown,ArrowLeft"":5,""ArrowDown,ArrowRight"":17}","false","ArrowDown,ArrowRight","false","","","revaluation","2","6","","",""
"html-keyboard-response","295","1291436","0.0-5.0-2.1-1.53","spark_pilot_2","7348","3","13","Female","","","","","","","","null","<div style=""font-size:60px;"">+</div>","null","fixation","","","","","","","","","","","7","","",""
"revaluation","296","1297440","0.0-5.0-2.1-0.54","spark_pilot_2","7348","3","13","Female","","false","","","","","","[1136,790]","./assets/img/canyon/memory/18.jpg","[""ArrowDown"",""ArrowRight""]","value training","canyon","17","{""ArrowUp,ArrowLeft"":26,""ArrowUp,ArrowRight"":10,""ArrowDown,ArrowLeft"":5,""ArrowDown,ArrowRight"":17}","false","ArrowDown,ArrowRight","false","","","revaluation","2","8","","",""
"html-keyboard-response","297","1297942","0.0-5.0-2.1-1.54","spark_pilot_2","7348","3","13","Female","","","","","","","","null","<div style=""font-size:60px;"">+</div>","null","fixation","","","","","","","","","","","9","","",""
"revaluation","298","1303946","0.0-5.0-2.1-0.55","spark_pilot_2","7348","3","13","Female","","false","","","","","","[998,741]","./assets/img/canyon/memory/26.jpg","[""ArrowDown"",""ArrowLeft""]","value training","canyon","5","{""ArrowUp,ArrowLeft"":26,""ArrowUp,ArrowRight"":10,""ArrowDown,ArrowLeft"":5,""ArrowDown,ArrowRight"":17}","false","ArrowDown,ArrowLeft","false","","","revaluation","2","10","","",""
"html-keyboard-response","299","1304448","0.0-5.0-2.1-1.55","spark_pilot_2","7348","3","13","Female","","","","","","","","null","<div style=""font-size:60px;"">+</div>","null","fixation","","","","","","","","","","","11","","",""
"revaluation","300","1310453","0.0-5.0-2.1-0.56","spark_pilot_2","7348","3","13","Female","","false","","","","","","[1400,749]","./assets/img/canyon/memory/37.jpg","[""ArrowDown"",""ArrowRight""]","value training","canyon","17","{""ArrowUp,ArrowLeft"":26,""ArrowUp,ArrowRight"":10,""ArrowDown,ArrowLeft"":5,""ArrowDown,ArrowRight"":17}","false","ArrowDown,ArrowRight","false","","","revaluation","2","12","","",""
"html-keyboard-response","301","1310954","0.0-5.0-2.1-1.56","spark_pilot_2","7348","3","13","Female","","","","","","","","null","<div style=""font-size:60px;"">+</div>","null","fixation","","","","","","","","","","","13","","",""
"revaluation","302","1316960","0.0-5.0-2.1-0.57","spark_pilot_2","7348","3","13","Female","","false","","","","","","[709.9999999997672,1150]","./assets/img/canyon/memory/25.jpg","[""ArrowDown"",""ArrowRight""]","value training","canyon","17","{""ArrowUp,ArrowLeft"":26,""ArrowUp,ArrowRight"":10,""ArrowDown,ArrowLeft"":5,""ArrowDown,ArrowRight"":17}","false","ArrowDown,ArrowRight","false","","","revaluation","2","14","","",""
"html-keyboard-response","303","1317462","0.0-5.0-2.1-1.57","spark_pilot_2","7348","3","13","Female","","","","","","","","null","<div style=""font-size:60px;"">+</div>","null","fixation","","","","","","","","","","","15","","",""
"revaluation","304","1323466","0.0-5.0-2.1-0.58","spark_pilot_2","7348","3","13","Female","","false","","","","","","[964.0000000002328,831]","./assets/img/canyon/memory/29.jpg","[""ArrowDown"",""ArrowRight""]","value training","canyon","17","{""ArrowUp,ArrowLeft"":26,""ArrowUp,ArrowRight"":10,""ArrowDown,ArrowLeft"":5,""ArrowDown,ArrowRight"":17}","false","ArrowDown,ArrowRight","false","","","revaluation","2","16","","",""
"html-keyboard-response","305","1323968","0.0-5.0-2.1-1.58","spark_pilot_2","7348","3","13","Female","","","","","","","","null","<div style=""font-size:60px;"">+</div>","null","fixation","","","","","","","","","","","17","","",""
"revaluation","306","1329972","0.0-5.0-2.1-0.59","spark_pilot_2","7348","3","13","Female","","false","","","","","","[724,782]","./assets/img/canyon/memory/39.jpg","[""ArrowDown"",""ArrowRight""]","value training","canyon","17","{""ArrowUp,ArrowLeft"":26,""ArrowUp,ArrowRight"":10,""ArrowDown,ArrowLeft"":5,""ArrowDown,ArrowRight"":17}","false","ArrowDown,ArrowRight","false","","","revaluation","2","18","","",""
"html-keyboard-response","307","1330474","0.0-5.0-2.1-1.59","spark_pilot_2","7348","3","13","Female","","","","","","","","null","<div style=""font-size:60px;"">+</div>","null","fixation","","","","","","","","","","","19","","",""
"revaluation","308","1334478","0.0-5.0-2.1-0.60","spark_pilot_2","7348","3","13","Female","","false","","","","","","[992]","./assets/img/canyon/catch/5.jpg","[""spaceBar""]","value training","canyon","0","{""ArrowUp,ArrowLeft"":26,""ArrowUp,ArrowRight"":10,""ArrowDown,ArrowLeft"":5,""ArrowDown,ArrowRight"":17}","true","spaceBar","true","","","revaluation","2","20","","",""
"html-keyboard-response","309","1334979","0.0-5.0-2.1-1.60","spark_pilot_2","7348","3","13","Female","","","","","","","","null","<div style=""font-size:60px;"">+</div>","null","fixation","","","","","","","","","","","21","","",""
