"trial_type","trial_index","time_elapsed","internal_node_id","task_version","subject_id","assigned_condition","age","gender","success","timeout","failed_images","failed_audio","failed_video","browser_interaction","rt","stimulus","response","task_part","environment","score","rewardMap","correct","fullState","isCatch","numberMissed","duration","condition","order","trial_num","key_press","ground_truth","bonus"
"pavlovia","0","1984","0.0-0.0","spark_pilot_2","7505","3","22","Female","","","","","","","","","","","","","","","","","","","","","","","",""
"preload","1","21054","0.0-1.0","spark_pilot_2","7505","3","22","Female","true","false","[]","[]","[]","[{""event"":""fullscreenenter"",""trial"":2,""time"":34735}]","","","","","","","","","","","","","","","","","",""
"fullscreen","2","35717","0.0-2.0","spark_pilot_2","7505","3","22","Female","true","","","","","","","","","","","","","","","","","","","","","","",""
"audio-button-response","3","37226","0.0-3.0-0.0-0.0","spark_pilot_2","7505","3","22","Female","","","","","","","1411","./assets/audio/audiotest/turtle.mp3","2","audio_test","","","","","","","","","","","","","",""
"learning-instructions","4","45423","0.0-3.0-1.0-0.0","spark_pilot_2","7505","3","22","Female","","","","","","","1192","<p> Welcome! Please remember to stay in fullscreen mode and don't click away from the experiment. </p>","","instructions","","","","","","","","","","","","","",""
"learning-instructions","5","55234","0.0-3.0-1.0-0.1","spark_pilot_2","7505","3","22","Female","","","","","","","1358","<p> Today you will be playing a game to earn treasure. </p>
            <p> At the end of the experiment, you will earn a bonus based on how much treasure you find. </p>
            <img src='./assets/img/instructions/treasure.jpg' class='instructions-image'>","","instructions","","","","","","","","","","","","","",""
"learning-instructions","6","65386","0.0-3.0-1.0-0.2","spark_pilot_2","7505","3","22","Female","","","","","","","1853","<p> Animals have hidden treasure in treasure chests. </p>
            <p> You need to first find an animal and then choose which of their treasure chests to search. </p>
            <img src='./assets/img/space/animals/cat.jpg' class='instructions-image'>","","instructions","","","","","","","","","","","","","",""
"learning-instructions","7","80040","0.0-3.0-1.0-0.3","spark_pilot_2","7505","3","22","Female","","","","","","","1449","<p> In each round, you will search for treasure in a different place. In the real game, there will be two rounds. </p>
            <p> You will begin with a separate, practice round where you will search for treasure in outer space. </p>
            <img src='./assets/img/space/0.jpg' class='instructions-image'>","","instructions","","","","","","","","","","","","","",""
"learning-instructions","8","92194","0.0-3.0-1.0-0.4","spark_pilot_2","7505","3","22","Female","","","","","","","682","<p> On every turn, you will see a picture of the place that you are in, but the specific image may be different each time. </p>
            <p> For example, both of these images mean you are in outer space. </p>
            <img src='./assets/img/instructions/outerspace.jpg' class='instructions-image'>","","instructions","","","","","","","","","","","","","",""
"learning-instructions","9","101077","0.0-3.0-1.0-0.5","spark_pilot_2","7505","3","22","Female","","","","","","","1012","<p> You need to decide which direction to travel in. </p>
            <p> You can choose between going <b>up or down</b> by using the arrow keys. </p>
            <img src='./assets/img/instructions/updown.jpg' class='instructions-image'>","","instructions","","","","","","","","","","","","","",""
"learning-instructions","10","110827","0.0-3.0-1.0-0.6","spark_pilot_2","7505","3","22","Female","","","","","","","898","<p> You will have <b>2 seconds</b> to make your choice. </p>
            <p> If you do not make a choice within 2 seconds, you will not find an animal or earn treasure. </p>
            <img src='./assets/img/instructions/2seconds.jpg' class='instructions-image'>","","instructions","","","","","","","","","","","","","",""
"learning-instructions","11","119722","0.0-3.0-1.0-0.7","spark_pilot_2","7505","3","22","Female","","","","","","","1823","<p> Let’s try practicing that now! </p>
            <p> When you see a picture of the place you are in, press the <b>up</b> key to travel up. </p>
            <img src='./assets/img/instructions/pressUp.jpg' class='instructions-image'>","","instructions","","","","","","","","","","","","","",""
"revaluation","12","123730","0.0-3.0-2.0-0.0","spark_pilot_2","7505","3","22","Female","","false","","","","","[889]","./assets/img/space/0.jpg","[""ArrowUp""]","first stage practice","space","0","null","null","ArrowUp","false","","","","","","","",""
"html-keyboard-response","13","124232","0.0-3.0-2.0-1.0","spark_pilot_2","7505","3","22","Female","","","","","","","null","<div style=""font-size:60px;"">+</div>","null","fixation","","","","","","","","","","","","","",""
"revaluation","14","128238","0.0-3.0-2.0-0.1","spark_pilot_2","7505","3","22","Female","","false","","","","","[769]","./assets/img/space/1.jpg","[""ArrowUp""]","first stage practice","space","0","null","null","ArrowUp","false","","","","","","","",""
"html-keyboard-response","15","128740","0.0-3.0-2.0-1.1","spark_pilot_2","7505","3","22","Female","","","","","","","null","<div style=""font-size:60px;"">+</div>","null","fixation","","","","","","","","","","","","","",""
"revaluation","16","132745","0.0-3.0-2.0-0.2","spark_pilot_2","7505","3","22","Female","","false","","","","","[606]","./assets/img/space/2.jpg","[""ArrowUp""]","first stage practice","space","0","null","null","ArrowUp","false","","","","","","","",""
"html-keyboard-response","17","133251","0.0-3.0-2.0-1.2","spark_pilot_2","7505","3","22","Female","","","","","","","null","<div style=""font-size:60px;"">+</div>","null","fixation","","","","","","","","","","","","","",""
"learning-instructions","18","139753","0.0-3.0-3.0-0.0","spark_pilot_2","7505","3","22","Female","","","","","","","1775","<p> Great job! Now try pressing the <b>down</b> key to travel down. </p>
            <img src='./assets/img/instructions/pressDown.jpg' class='instructions-image'>","","instructions","","","","","","","","","","","","","",""
"revaluation","19","143756","0.0-3.0-4.0-0.0","spark_pilot_2","7505","3","22","Female","","false","","","","","[960]","./assets/img/space/3.jpg","[""ArrowDown""]","first stage practice","space","0","null","null","ArrowDown","false","","","","","","","",""
"html-keyboard-response","20","144257","0.0-3.0-4.0-1.0","spark_pilot_2","7505","3","22","Female","","","","","","","null","<div style=""font-size:60px;"">+</div>","null","fixation","","","","","","","","","","","","","",""
"revaluation","21","148263","0.0-3.0-4.0-0.1","spark_pilot_2","7505","3","22","Female","","false","","","","","[605]","./assets/img/space/4.jpg","[""ArrowDown""]","first stage practice","space","0","null","null","ArrowDown","false","","","","","","","",""
"html-keyboard-response","22","148764","0.0-3.0-4.0-1.1","spark_pilot_2","7505","3","22","Female","","","","","","","null","<div style=""font-size:60px;"">+</div>","null","fixation","","","","","","","","","","","","","",""
"revaluation","23","152770","0.0-3.0-4.0-0.2","spark_pilot_2","7505","3","22","Female","","false","","","","","[1321]","./assets/img/space/5.jpg","[""ArrowDown""]","first stage practice","space","0","null","null","ArrowDown","false","","","","","","","",""
"html-keyboard-response","24","153271","0.0-3.0-4.0-1.2","spark_pilot_2","7505","3","22","Female","","","","","","","null","<div style=""font-size:60px;"">+</div>","null","fixation","","","","","","","","","","","","","",""
"learning-instructions","25","164389","0.0-3.0-5.0-0.0","spark_pilot_2","7505","3","22","Female","","","","","","","1221","<p> The animals don’t move, so the animal in the upper part of a place will stay in the upper part of a place, and the animal in the lower part of a place will stay in the lower part of a place. </p>","","instructions","","","","","","","","","","","","","",""
"learning-instructions","26","175372","0.0-3.0-5.0-0.1","spark_pilot_2","7505","3","22","Female","","","","","","","1812","<p> Each animal has two treasure chests for you to choose from. </p>
            <p> The amount of treasure in each chest can range from <b> 0 to 40 pieces.</b></p>","","instructions","","","","","","","","","","","","","",""
"learning-instructions","27","188125","0.0-3.0-5.0-0.2","spark_pilot_2","7505","3","22","Female","","","","","","","1509","<p> You should decide which chest to search for treasure by using the <b>left</b> and <b>right</b> arrow keys. </p>
            <p><b> Pay attention to which animal is on the screen, as the animals have different treasure chests. </b></p>
            <img src='./assets/img/instructions/leftright.jpg' class='instructions-image'>","","instructions","","","","","","","","","","","","","",""
"learning-instructions","28","195709","0.0-3.0-5.0-0.3","spark_pilot_2","7505","3","22","Female","","","","","","","1189","<p> Let’s try practicing that now. </p>
            <p> When you see an animal, choose which chest to search for treasure. </p>
            <img src='./assets/img/instructions/chooseChest.jpg' class='instructions-image'>","","instructions","","","","","","","","","","","","","",""
"revaluation","29","199715","0.0-3.0-6.0-0.0","spark_pilot_2","7505","3","22","Female","","false","","","","","[844]","./assets/img/space/animals/cat.jpg","[""ArrowRight""]","second stage practice","space","36","{""ArrowUp,ArrowLeft"":3,""ArrowUp,ArrowRight"":36,""ArrowDown,ArrowLeft"":15,""ArrowDown,ArrowRight"":23}","true","ArrowUp,ArrowRight","","","","","","","","",""
"html-keyboard-response","30","200216","0.0-3.0-6.0-1.0","spark_pilot_2","7505","3","22","Female","","","","","","","null","<div style=""font-size:60px;"">+</div>","null","fixation","","","","","","","","","","","","","",""
"revaluation","31","204220","0.0-3.0-6.0-0.1","spark_pilot_2","7505","3","22","Female","","false","","","","","[1033]","./assets/img/space/animals/cat.jpg","[""ArrowLeft""]","second stage practice","space","3","{""ArrowUp,ArrowLeft"":3,""ArrowUp,ArrowRight"":36,""ArrowDown,ArrowLeft"":15,""ArrowDown,ArrowRight"":23}","false","ArrowUp,ArrowLeft","","","","","","","","",""
"html-keyboard-response","32","204724","0.0-3.0-6.0-1.1","spark_pilot_2","7505","3","22","Female","","","","","","","null","<div style=""font-size:60px;"">+</div>","null","fixation","","","","","","","","","","","","","",""
"revaluation","33","208731","0.0-3.0-6.0-0.2","spark_pilot_2","7505","3","22","Female","","false","","","","","[895]","./assets/img/space/animals/rabbit.jpg","[""ArrowRight""]","second stage practice","space","23","{""ArrowUp,ArrowLeft"":3,""ArrowUp,ArrowRight"":36,""ArrowDown,ArrowLeft"":15,""ArrowDown,ArrowRight"":23}","true","ArrowDown,ArrowRight","","","","","","","","",""
"html-keyboard-response","34","209232","0.0-3.0-6.0-1.2","spark_pilot_2","7505","3","22","Female","","","","","","","null","<div style=""font-size:60px;"">+</div>","null","fixation","","","","","","","","","","","","","",""
"revaluation","35","213235","0.0-3.0-6.0-0.3","spark_pilot_2","7505","3","22","Female","","false","","","","","[384]","./assets/img/space/animals/rabbit.jpg","[""ArrowLeft""]","second stage practice","space","15","{""ArrowUp,ArrowLeft"":3,""ArrowUp,ArrowRight"":36,""ArrowDown,ArrowLeft"":15,""ArrowDown,ArrowRight"":23}","false","ArrowDown,ArrowLeft","","","","","","","","",""
"html-keyboard-response","36","213739","0.0-3.0-6.0-1.3","spark_pilot_2","7505","3","22","Female","","","","","","","null","<div style=""font-size:60px;"">+</div>","null","fixation","","","","","","","","","","","","","",""
"learning-instructions","37","232342","0.0-3.0-7.0-0.0","spark_pilot_2","7505","3","22","Female","","","","","","","1719","<p> Great job. Now let’s try putting it together. </p>
            <p> On each turn, you will first see a picture to remind you of the place you are in, and you need to choose whether to go up or down. </p>
            <p> Then you will see an animal and choose which of its chests to search for treasure. </p>","","instructions","","","","","","","","","","","","","",""
"learning-instructions","38","242093","0.0-3.0-7.0-0.1","spark_pilot_2","7505","3","22","Female","","","","","","","1453","<p> When you choose whether to go up or down, try to go to the animal with the chest with the most treasure. </p>
            <p> Try practicing that now! </p>","","instructions","","","","","","","","","","","","","",""
"revaluation","39","248099","0.0-3.0-8.0-0.0","spark_pilot_2","7505","3","22","Female","","false","","","","","[1218,569]","./assets/img/space/6.jpg","[""ArrowUp"",""ArrowRight""]","full practice","space","36","{""ArrowUp,ArrowLeft"":3,""ArrowUp,ArrowRight"":36,""ArrowDown,ArrowLeft"":15,""ArrowDown,ArrowRight"":23}","true","ArrowUp,ArrowRight","false","","","","","","","",""
"html-keyboard-response","40","248601","0.0-3.0-8.0-1.0","spark_pilot_2","7505","3","22","Female","","","","","","","null","<div style=""font-size:60px;"">+</div>","null","fixation","","","","","","","","","","","","","",""
"revaluation","41","254610","0.0-3.0-8.0-0.1","spark_pilot_2","7505","3","22","Female","","false","","","","","[1440,521]","./assets/img/space/7.jpg","[""ArrowUp"",""ArrowRight""]","full practice","space","36","{""ArrowUp,ArrowLeft"":3,""ArrowUp,ArrowRight"":36,""ArrowDown,ArrowLeft"":15,""ArrowDown,ArrowRight"":23}","true","ArrowUp,ArrowRight","false","","","","","","","",""
"html-keyboard-response","42","255111","0.0-3.0-8.0-1.1","spark_pilot_2","7505","3","22","Female","","","","","","","null","<div style=""font-size:60px;"">+</div>","null","fixation","","","","","","","","","","","","","",""
"revaluation","43","261118","0.0-3.0-8.0-0.2","spark_pilot_2","7505","3","22","Female","","false","","","","","[960,488]","./assets/img/space/8.jpg","[""ArrowUp"",""ArrowRight""]","full practice","space","36","{""ArrowUp,ArrowLeft"":3,""ArrowUp,ArrowRight"":36,""ArrowDown,ArrowLeft"":15,""ArrowDown,ArrowRight"":23}","true","ArrowUp,ArrowRight","false","","","","","","","",""
"html-keyboard-response","44","261621","0.0-3.0-8.0-1.2","spark_pilot_2","7505","3","22","Female","","","","","","","null","<div style=""font-size:60px;"">+</div>","null","fixation","","","","","","","","","","","","","",""
"revaluation","45","267629","0.0-3.0-8.0-0.3","spark_pilot_2","7505","3","22","Female","","false","","","","","[827,453]","./assets/img/space/9.jpg","[""ArrowUp"",""ArrowRight""]","full practice","space","36","{""ArrowUp,ArrowLeft"":3,""ArrowUp,ArrowRight"":36,""ArrowDown,ArrowLeft"":15,""ArrowDown,ArrowRight"":23}","true","ArrowUp,ArrowRight","false","","","","","","","",""
"html-keyboard-response","46","268130","0.0-3.0-8.0-1.3","spark_pilot_2","7505","3","22","Female","","","","","","","null","<div style=""font-size:60px;"">+</div>","null","fixation","","","","","","","","","","","","","",""
"revaluation","47","274136","0.0-3.0-8.0-0.4","spark_pilot_2","7505","3","22","Female","","false","","","","","[472,463]","./assets/img/space/10.jpg","[""ArrowUp"",""ArrowRight""]","full practice","space","36","{""ArrowUp,ArrowLeft"":3,""ArrowUp,ArrowRight"":36,""ArrowDown,ArrowLeft"":15,""ArrowDown,ArrowRight"":23}","true","ArrowUp,ArrowRight","false","","","","","","","",""
"html-keyboard-response","48","274637","0.0-3.0-8.0-1.4","spark_pilot_2","7505","3","22","Female","","","","","","","null","<div style=""font-size:60px;"">+</div>","null","fixation","","","","","","","","","","","","","",""
"learning-instructions","49","288899","0.0-3.0-9.0-0.0","spark_pilot_2","7505","3","22","Female","","","","","","","3909","<p> One last thing: sometimes, you will see a robber. The robber can be anywhere in the picture. </p>
            <p> If you do not stop them, you will lose treasure. </p>
            <img src='./assets/img/instructions/robber.jpg' class='instructions-image'>","","instructions","","","","","","","","","","","","","",""
"learning-instructions","50","297411","0.0-3.0-9.0-0.1","spark_pilot_2","7505","3","22","Female","","","","","","","1312","<p> If you see the robber, you should <b>press the space bar</b> rather than using the arrow keys. </p>
            <p> Try practicing that now! </p>","","instructions","","","","","","","","","","","","","",""
"revaluation","51","301414","0.0-3.0-10.0-0.0","spark_pilot_2","7505","3","22","Female","","false","","","","","[894]","./assets/img/space/catch/0.jpg","[""spaceBar""]","catch practice","space","0","{""ArrowUp,ArrowLeft"":3,""ArrowUp,ArrowRight"":36,""ArrowDown,ArrowLeft"":15,""ArrowDown,ArrowRight"":23}","true","spaceBar","true","","","","","","","",""
"html-keyboard-response","52","301915","0.0-3.0-10.0-1.0","spark_pilot_2","7505","3","22","Female","","","","","","","null","<div style=""font-size:60px;"">+</div>","null","fixation","","","","","","","","","","","","","",""
"revaluation","53","305921","0.0-3.0-10.0-0.1","spark_pilot_2","7505","3","22","Female","","false","","","","","[592]","./assets/img/space/catch/1.jpg","[""spaceBar""]","catch practice","space","0","{""ArrowUp,ArrowLeft"":3,""ArrowUp,ArrowRight"":36,""ArrowDown,ArrowLeft"":15,""ArrowDown,ArrowRight"":23}","true","spaceBar","true","","","","","","","",""
"html-keyboard-response","54","306422","0.0-3.0-10.0-1.1","spark_pilot_2","7505","3","22","Female","","","","","","","null","<div style=""font-size:60px;"">+</div>","null","fixation","","","","","","","","","","","","","",""
"revaluation","55","310428","0.0-3.0-10.0-0.2","spark_pilot_2","7505","3","22","Female","","false","","","","","[663]","./assets/img/space/catch/2.jpg","[""spaceBar""]","catch practice","space","0","{""ArrowUp,ArrowLeft"":3,""ArrowUp,ArrowRight"":36,""ArrowDown,ArrowLeft"":15,""ArrowDown,ArrowRight"":23}","true","spaceBar","true","","","","","","","",""
"html-keyboard-response","56","310932","0.0-3.0-10.0-1.2","spark_pilot_2","7505","3","22","Female","","","","","","","null","<div style=""font-size:60px;"">+</div>","null","fixation","","","","","","","","","","","","","",""
"learning-instructions","57","326226","0.0-3.0-11.0-0.0","spark_pilot_2","7505","3","22","Female","","","","","","","1523","<p> After you explore a place to find treasure, it will be time to play a different game. </p>
            <p> During this game, red dots will appear on the screen and fall down slowly. </p>
            <p><b> You must click on them before they reach the bottom. </b></p>
            <img src='./assets/img/instructions/dotGame.jpg' class='instructions-image'>","","instructions","","","","","","","","","","","","","",""
"learning-instructions","58","333002","0.0-3.0-11.0-0.1","spark_pilot_2","7505","3","22","Female","","","","","","","1074","<p> For every dot you click, you will earn additional treasure. </p>
            <p> Let’s try practicing that now. </p>","","instructions","","","","","","","","","","","","","",""
"revaluation","59","348005","0.0-3.0-12.0-0.0","spark_pilot_2","7505","3","22","Female","","","","","","","[76]","","","rest practice","","10","","","","","0","15000","","","","","",""
"learning-instructions","60","354303","0.0-3.0-13.0-0.0-0.0","spark_pilot_2","7505","3","22","Female","","","","","","","1025","<p> Now, you will practice a shortened version of the game to get a sense of how it all fits together. </p>","","instructions","","","","","","","","","","","","","",""
"learning-instructions","61","359111","0.0-3.0-13.0-0.0-0.1","spark_pilot_2","7505","3","22","Female","","","","","","","1591","<p>This time you are searching for treasure in outer space.</p>","","instructions","","","","","","","","","","","","","",""
"learning-instructions","62","374762","0.0-3.0-13.0-1.0-0.0","spark_pilot_2","7505","3","22","Female","","","","","","","812","<p> Remember, when you see a picture of the place, use the up and down keys to <b>find an animal</b>.</p>
            <p> When you encounter an animal, you should use the left and right keys to <b>select a treasure chest</b>.</p>
            <p> Don't forget to look out for the robber! </p>","","instructions","","","","","","","","","","","","","",""
"revaluation","63","380768","0.0-3.0-13.0-2.0-0.0","spark_pilot_2","7505","3","22","Female","","false","","","","","[1738,602]","./assets/img/space/11.jpg","[""ArrowUp"",""ArrowRight""]","practice block","space","36","{""ArrowUp,ArrowLeft"":3,""ArrowUp,ArrowRight"":36,""ArrowDown,ArrowLeft"":15,""ArrowDown,ArrowRight"":23}","true","ArrowUp,ArrowRight","false","","","","","","","",""
"html-keyboard-response","64","381270","0.0-3.0-13.0-2.0-1.0","spark_pilot_2","7505","3","22","Female","","","","","","","null","<div style=""font-size:60px;"">+</div>","null","fixation","","","","","","","","","","","","","",""
"revaluation","65","387278","0.0-3.0-13.0-2.0-0.1","spark_pilot_2","7505","3","22","Female","","false","","","","","[950,451]","./assets/img/space/12.jpg","[""ArrowUp"",""ArrowRight""]","practice block","space","36","{""ArrowUp,ArrowLeft"":3,""ArrowUp,ArrowRight"":36,""ArrowDown,ArrowLeft"":15,""ArrowDown,ArrowRight"":23}","true","ArrowUp,ArrowRight","false","","","","","","","",""
"html-keyboard-response","66","387779","0.0-3.0-13.0-2.0-1.1","spark_pilot_2","7505","3","22","Female","","","","","","","null","<div style=""font-size:60px;"">+</div>","null","fixation","","","","","","","","","","","","","",""
"revaluation","67","393787","0.0-3.0-13.0-2.0-0.2","spark_pilot_2","7505","3","22","Female","","false","","","","","[1037,341]","./assets/img/space/13.jpg","[""ArrowUp"",""ArrowRight""]","practice block","space","36","{""ArrowUp,ArrowLeft"":3,""ArrowUp,ArrowRight"":36,""ArrowDown,ArrowLeft"":15,""ArrowDown,ArrowRight"":23}","true","ArrowUp,ArrowRight","false","","","","","","","",""
"html-keyboard-response","68","394289","0.0-3.0-13.0-2.0-1.2","spark_pilot_2","7505","3","22","Female","","","","","","","null","<div style=""font-size:60px;"">+</div>","null","fixation","","","","","","","","","","","","","",""
"revaluation","69","400295","0.0-3.0-13.0-2.0-0.3","spark_pilot_2","7505","3","22","Female","","false","","","","","[858,433]","./assets/img/space/14.jpg","[""ArrowUp"",""ArrowRight""]","practice block","space","36","{""ArrowUp,ArrowLeft"":3,""ArrowUp,ArrowRight"":36,""ArrowDown,ArrowLeft"":15,""ArrowDown,ArrowRight"":23}","true","ArrowUp,ArrowRight","false","","","","","","","",""
"html-keyboard-response","70","400795","0.0-3.0-13.0-2.0-1.3","spark_pilot_2","7505","3","22","Female","","","","","","","null","<div style=""font-size:60px;"">+</div>","null","fixation","","","","","","","","","","","","","",""
"revaluation","71","406804","0.0-3.0-13.0-2.0-0.4","spark_pilot_2","7505","3","22","Female","","false","","","","","[1457,480]","./assets/img/space/11.jpg","[""ArrowUp"",""ArrowRight""]","practice block","space","36","{""ArrowUp,ArrowLeft"":3,""ArrowUp,ArrowRight"":36,""ArrowDown,ArrowLeft"":15,""ArrowDown,ArrowRight"":23}","true","ArrowUp,ArrowRight","false","","","","","","","",""
"html-keyboard-response","72","407305","0.0-3.0-13.0-2.0-1.4","spark_pilot_2","7505","3","22","Female","","","","","","","null","<div style=""font-size:60px;"">+</div>","null","fixation","","","","","","","","","","","","","",""
"revaluation","73","413311","0.0-3.0-13.0-2.0-0.5","spark_pilot_2","7505","3","22","Female","","false","","","","","[1229,445]","./assets/img/space/12.jpg","[""ArrowUp"",""ArrowRight""]","practice block","space","36","{""ArrowUp,ArrowLeft"":3,""ArrowUp,ArrowRight"":36,""ArrowDown,ArrowLeft"":15,""ArrowDown,ArrowRight"":23}","true","ArrowUp,ArrowRight","false","","","","","","","",""
"html-keyboard-response","74","413813","0.0-3.0-13.0-2.0-1.5","spark_pilot_2","7505","3","22","Female","","","","","","","null","<div style=""font-size:60px;"">+</div>","null","fixation","","","","","","","","","","","","","",""
"revaluation","75","419820","0.0-3.0-13.0-2.0-0.6","spark_pilot_2","7505","3","22","Female","","false","","","","","[1246,390]","./assets/img/space/13.jpg","[""ArrowUp"",""ArrowRight""]","practice block","space","36","{""ArrowUp,ArrowLeft"":3,""ArrowUp,ArrowRight"":36,""ArrowDown,ArrowLeft"":15,""ArrowDown,ArrowRight"":23}","true","ArrowUp,ArrowRight","false","","","","","","","",""
"html-keyboard-response","76","420324","0.0-3.0-13.0-2.0-1.6","spark_pilot_2","7505","3","22","Female","","","","","","","null","<div style=""font-size:60px;"">+</div>","null","fixation","","","","","","","","","","","","","",""
"revaluation","77","426332","0.0-3.0-13.0-2.0-0.7","spark_pilot_2","7505","3","22","Female","","false","","","","","[1239,385]","./assets/img/space/14.jpg","[""ArrowUp"",""ArrowRight""]","practice block","space","36","{""ArrowUp,ArrowLeft"":3,""ArrowUp,ArrowRight"":36,""ArrowDown,ArrowLeft"":15,""ArrowDown,ArrowRight"":23}","true","ArrowUp,ArrowRight","false","","","","","","","",""
"html-keyboard-response","78","426833","0.0-3.0-13.0-2.0-1.7","spark_pilot_2","7505","3","22","Female","","","","","","","null","<div style=""font-size:60px;"">+</div>","null","fixation","","","","","","","","","","","","","",""
"revaluation","79","430836","0.0-3.0-13.0-2.0-0.8","spark_pilot_2","7505","3","22","Female","","false","","","","","[1047]","./assets/img/space/catch/3.jpg","[""spaceBar""]","practice block","space","0","{""ArrowUp,ArrowLeft"":3,""ArrowUp,ArrowRight"":36,""ArrowDown,ArrowLeft"":15,""ArrowDown,ArrowRight"":23}","true","spaceBar","true","","","","","","","",""
"html-keyboard-response","80","431337","0.0-3.0-13.0-2.0-1.8","spark_pilot_2","7505","3","22","Female","","","","","","","null","<div style=""font-size:60px;"">+</div>","null","fixation","","","","","","","","","","","","","",""
"learning-instructions","81","446158","0.0-3.0-13.0-3.0-0.0","spark_pilot_2","7505","3","22","Female","","","","","","","1854","<p> Now, you will travel with a friend who will choose whether you go up or down first. </p>
            <p> On these turns, you will just see the animal that they found. You will still get to choose which chest to search for treasure.</p>","","instructions","","","","","","","","","","","","","",""
"revaluation","82","450162","0.0-3.0-13.0-4.0-0.0","spark_pilot_2","7505","3","22","Female","","false","","","","","[1174]","./assets/img/space/animals/rabbit.jpg","[""ArrowRight""]","practice block","space","23","{""ArrowUp,ArrowLeft"":3,""ArrowUp,ArrowRight"":36,""ArrowDown,ArrowLeft"":15,""ArrowDown,ArrowRight"":23}","true","ArrowDown,ArrowRight","","","","","","","","",""
"html-keyboard-response","83","450663","0.0-3.0-13.0-4.0-1.0","spark_pilot_2","7505","3","22","Female","","","","","","","null","<div style=""font-size:60px;"">+</div>","null","fixation","","","","","","","","","","","","","",""
"revaluation","84","454669","0.0-3.0-13.0-4.0-0.1","spark_pilot_2","7505","3","22","Female","","false","","","","","[607]","./assets/img/space/animals/cat.jpg","[""ArrowRight""]","practice block","space","36","{""ArrowUp,ArrowLeft"":3,""ArrowUp,ArrowRight"":36,""ArrowDown,ArrowLeft"":15,""ArrowDown,ArrowRight"":23}","true","ArrowUp,ArrowRight","","","","","","","","",""
"html-keyboard-response","85","455171","0.0-3.0-13.0-4.0-1.1","spark_pilot_2","7505","3","22","Female","","","","","","","null","<div style=""font-size:60px;"">+</div>","null","fixation","","","","","","","","","","","","","",""
"revaluation","86","459176","0.0-3.0-13.0-4.0-0.2","spark_pilot_2","7505","3","22","Female","","false","","","","","[1211]","./assets/img/space/animals/cat.jpg","[""ArrowRight""]","practice block","space","36","{""ArrowUp,ArrowLeft"":3,""ArrowUp,ArrowRight"":36,""ArrowDown,ArrowLeft"":15,""ArrowDown,ArrowRight"":23}","true","ArrowUp,ArrowRight","","","","","","","","",""
"html-keyboard-response","87","459677","0.0-3.0-13.0-4.0-1.2","spark_pilot_2","7505","3","22","Female","","","","","","","null","<div style=""font-size:60px;"">+</div>","null","fixation","","","","","","","","","","","","","",""
"revaluation","88","463681","0.0-3.0-13.0-4.0-0.3","spark_pilot_2","7505","3","22","Female","","false","","","","","[453]","./assets/img/space/animals/rabbit.jpg","[""ArrowRight""]","practice block","space","23","{""ArrowUp,ArrowLeft"":3,""ArrowUp,ArrowRight"":36,""ArrowDown,ArrowLeft"":15,""ArrowDown,ArrowRight"":23}","true","ArrowDown,ArrowRight","","","","","","","","",""
"html-keyboard-response","89","464183","0.0-3.0-13.0-4.0-1.3","spark_pilot_2","7505","3","22","Female","","","","","","","null","<div style=""font-size:60px;"">+</div>","null","fixation","","","","","","","","","","","","","",""
"learning-instructions","90","472696","0.0-3.0-13.0-5.0-0.0","spark_pilot_2","7505","3","22","Female","","","","","","","1110","<p> Time to play the dot game! </p>
            <p> For 15 seconds, click the red dots on the following screen as they appear. </p>","","instructions","","","","","","","","","","","","","",""
"revaluation","91","487699","0.0-3.0-13.0-6.0-0.0","spark_pilot_2","7505","3","22","Female","","","","","","","[71]","","","rest practice","","10","","","","","0","15000","","","","","",""
"learning-instructions","92","494918","0.0-3.0-13.0-7.0-0.0","spark_pilot_2","7505","3","22","Female","","","","","","","1059","<p> You have almost finished this part of the game! </p>
            <p> We are going to ask you to make a few more choices. </p>","","instructions","","","","","","","","","","","","","",""
"learning-instructions","93","510155","0.0-3.0-13.0-7.0-0.1","spark_pilot_2","7505","3","22","Female","","","","","","","1170","<p> First, you need to decide whether to go up or down. When you see each picture, use the arrow keys to make your choice. </p>
            <p><b>You will not see which animal you found, but try to get to the one that will give you the most treasure.</b></p>","","instructions","","","","","","","","","","","","","",""
"revaluation","94","511298","0.0-3.0-13.0-8.0","spark_pilot_2","7505","3","22","Female","","false","","","","","[1140]","./assets/img/space/15.jpg","[""ArrowUp""]","practice block","space","0","{""ArrowUp,ArrowLeft"":3,""ArrowUp,ArrowRight"":36,""ArrowDown,ArrowLeft"":15,""ArrowDown,ArrowRight"":23}","true","ArrowUp","false","","","","","","","",""
"html-keyboard-response","95","511801","0.0-3.0-13.0-9.0","spark_pilot_2","7505","3","22","Female","","","","","","","null","<div style=""font-size:60px;"">+</div>","null","fixation","","","","","","","","","","","","","",""
"learning-instructions","96","524706","0.0-3.0-13.0-10.0-0.0","spark_pilot_2","7505","3","22","Female","","","","","","","1486","<p> Now you will see the animals again and can search their chests for treasure. </p>
            <p> This time, you will not see how much treasure you earned, but you will earn more bonus money for making better choices. </p>","","instructions","","","","","","","","","","","","","",""
"revaluation","97","525667","0.0-3.0-13.0-11.0-0.0","spark_pilot_2","7505","3","22","Female","","false","","","","","[958]","./assets/img/space/animals/cat.jpg","[""ArrowRight""]","practice block","space","0","{""ArrowUp,ArrowLeft"":3,""ArrowUp,ArrowRight"":36,""ArrowDown,ArrowLeft"":15,""ArrowDown,ArrowRight"":23}","true","ArrowUp,ArrowRight","","","","","","","","",""
"html-keyboard-response","98","526170","0.0-3.0-13.0-11.0-1.0","spark_pilot_2","7505","3","22","Female","","","","","","","null","<div style=""font-size:60px;"">+</div>","null","fixation","","","","","","","","","","","","","",""
"revaluation","99","526911","0.0-3.0-13.0-11.0-0.1","spark_pilot_2","7505","3","22","Female","","false","","","","","[740]","./assets/img/space/animals/rabbit.jpg","[""ArrowRight""]","practice block","space","0","{""ArrowUp,ArrowLeft"":3,""ArrowUp,ArrowRight"":36,""ArrowDown,ArrowLeft"":15,""ArrowDown,ArrowRight"":23}","true","ArrowDown,ArrowRight","","","","","","","","",""
"html-keyboard-response","100","527417","0.0-3.0-13.0-11.0-1.1","spark_pilot_2","7505","3","22","Female","","","","","","","null","<div style=""font-size:60px;"">+</div>","null","fixation","","","","","","","","","","","","","",""
"learning-instructions","101","533438","0.0-3.0-14.0-0.0","spark_pilot_2","7505","3","22","Female","","","","","","","1420","<p> Before you start, we're going to ask you a few questions about how the game works. </p>","","instructions","","","","","","","","","","","","","",""
"comp-q","102","541242","0.0-3.0-15.0-0.0-0.0","spark_pilot_2","7505","3","22","Female","","","","","","","2194","<p> <b> True or False? </b> </p>
            <p> There can be 50 pieces of treasure in a given animal's chest. </p>","0","comp_question","","","","false","","","","","","","","","",""
"comp-q","103","549233","0.0-3.0-15.0-0.0-1.0","spark_pilot_2","7505","3","22","Female","","","","","","","1435","<p> <b>Incorrect.</b> The amount of treasure in each chest can range from 0 to 40 pieces. </p>","0","comp_answer","","","","","","","","","","","","","",""
"comp-q","104","555684","0.0-3.0-15.0-0.1-0.1","spark_pilot_2","7505","3","22","Female","","","","","","","886","<p> <b> True or False? </b> </p>
            <p> There can be 50 pieces of treasure in a given animal's chest. </p>","1","comp_question","","","","true","","","","","","","","","",""
"comp-q","105","566693","0.0-3.0-15.0-0.1-1.1","spark_pilot_2","7505","3","22","Female","","","","","","","4325","<p> <b> That's right! </b> The amount of treasure in each chest can range from 0 to 40 pieces. </p>","0","comp_answer","","","","","","","","","","","","","",""
"comp-q","106","574769","0.0-3.0-15.0-0.2-0.2","spark_pilot_2","7505","3","22","Female","","","","","","","931","<p> <b> True or False? </b> </p><p> In this game, all animals have the same amount of treasure in their left and right chests. </p>","1","comp_question","","","","true","","","","","","","","","",""
"comp-q","107","582834","0.0-3.0-15.0-0.2-1.2","spark_pilot_2","7505","3","22","Female","","","","","","","2809","<p> <b> That's right! </b> Animals have different amounts of treasure in their treasure chests. </p>","0","comp_answer","","","","","","","","","","","","","",""
"comp-q","108","590271","0.0-3.0-15.0-0.3-0.3","spark_pilot_2","7505","3","22","Female","","","","","","","1566","<p> <b> True or False? </b> </p><p> The same animal will always be there if you go up in the same place. </p>","0","comp_question","","","","true","","","","","","","","","",""
"comp-q","109","600044","0.0-3.0-15.0-0.3-1.3","spark_pilot_2","7505","3","22","Female","","","","","","","3298","<p> <b> That's right! </b> One animal lives in the upper part and one lives in the lower part of every place. </p>","0","comp_answer","","","","","","","","","","","","","",""
"comp-q","110","608696","0.0-3.0-15.0-0.4-0.4","spark_pilot_2","7505","3","22","Female","","","","","","","3099","<p> <b> True or False? </b> </p><p> If you see a different picture, it means you are in a new place. </p>","1","comp_question","","","","true","","","","","","","","","",""
"comp-q","111","623230","0.0-3.0-15.0-0.4-1.4","spark_pilot_2","7505","3","22","Female","","","","","","","3263","<p> <b> That's right! </b> Lots of different images may show the same place. For example,  you may see three different images that all remind you that you are in outer space. </p>","0","comp_answer","","","","","","","","","","","","","",""
"learning-instructions","112","634858","0.0-3.0-16.0-0.0","spark_pilot_2","7505","3","22","Female","","","","","","","1597","<p> Good job. Remember to do your best because the amount of treasure you earn will be converted into bonus money. </p>
            <p> It’s time to start the real game! </p>","","instructions","","","","","","","","","","","","","",""
"learning-instructions","113","639668","0.0-4.0-0.0-0.0","spark_pilot_2","7505","3","22","Female","","","","","","","2089","<p> This time you are searching for treasure in the <b>ocean</b>.</p>","","instructions","","","","","","","","","","","","","",""
"learning-instructions","114","657910","0.0-4.0-0.0-0.1","spark_pilot_2","7505","3","22","Female","","","","","","","873","<p><b>New</b> animals with <b>new</b> treasure chests live here. You need to explore to discover where the animal with the best treasure chest is.</p>
                    <p> Like before, once you figure out which animal has the chest with the most treasure, you should try to get to that animal and select that chest! </p>","","instructions","","","","","","","","","","","","","",""
"learning-instructions","115","674292","0.0-4.0-1.0-0.0","spark_pilot_2","7505","3","22","Female","","","","","","","1647","<p> Remember, when you see a picture of the place, use the up and down keys to <b>find an animal</b>.</p>
            <p> When you encounter an animal, you should use the left and right keys to <b>select a treasure chest</b>.</p>
            <p> Don't forget to look out for the robber! </p>","","instructions","","","","","","","","","","","","","",""
"revaluation","116","680300","0.0-4.0-2.0-0.0","spark_pilot_2","7505","3","22","Female","","false","","","","","[1051,631]","./assets/img/ocean/memory/8.jpg","[""ArrowUp"",""ArrowRight""]","value training","ocean","10","{""ArrowUp,ArrowLeft"":23,""ArrowUp,ArrowRight"":10,""ArrowDown,ArrowLeft"":8,""ArrowDown,ArrowRight"":30}","false","ArrowUp,ArrowRight","false","","","original","1","0","","",""
"html-keyboard-response","117","680801","0.0-4.0-2.0-1.0","spark_pilot_2","7505","3","22","Female","","","","","","","null","<div style=""font-size:60px;"">+</div>","null","fixation","","","","","","","","","","","1","","",""
"revaluation","118","686809","0.0-4.0-2.0-0.1","spark_pilot_2","7505","3","22","Female","","false","","","","","[1090,489]","./assets/img/ocean/memory/3.jpg","[""ArrowUp"",""ArrowLeft""]","value training","ocean","23","{""ArrowUp,ArrowLeft"":23,""ArrowUp,ArrowRight"":10,""ArrowDown,ArrowLeft"":8,""ArrowDown,ArrowRight"":30}","false","ArrowUp,ArrowLeft","false","","","original","1","2","","",""
"html-keyboard-response","119","687310","0.0-4.0-2.0-1.1","spark_pilot_2","7505","3","22","Female","","","","","","","null","<div style=""font-size:60px;"">+</div>","null","fixation","","","","","","","","","","","3","","",""
"revaluation","120","693317","0.0-4.0-2.0-0.2","spark_pilot_2","7505","3","22","Female","","false","","","","","[544,525]","./assets/img/ocean/memory/4.jpg","[""ArrowDown"",""ArrowRight""]","value training","ocean","30","{""ArrowUp,ArrowLeft"":23,""ArrowUp,ArrowRight"":10,""ArrowDown,ArrowLeft"":8,""ArrowDown,ArrowRight"":30}","true","ArrowDown,ArrowRight","false","","","original","1","4","","",""
"html-keyboard-response","121","693818","0.0-4.0-2.0-1.2","spark_pilot_2","7505","3","22","Female","","","","","","","null","<div style=""font-size:60px;"">+</div>","null","fixation","","","","","","","","","","","5","","",""
"revaluation","122","699826","0.0-4.0-2.0-0.3","spark_pilot_2","7505","3","22","Female","","false","","","","","[504,567]","./assets/img/ocean/memory/20.jpg","[""ArrowDown"",""ArrowLeft""]","value training","ocean","8","{""ArrowUp,ArrowLeft"":23,""ArrowUp,ArrowRight"":10,""ArrowDown,ArrowLeft"":8,""ArrowDown,ArrowRight"":30}","false","ArrowDown,ArrowLeft","false","","","original","1","6","","",""
"html-keyboard-response","123","700326","0.0-4.0-2.0-1.3","spark_pilot_2","7505","3","22","Female","","","","","","","null","<div style=""font-size:60px;"">+</div>","null","fixation","","","","","","","","","","","7","","",""
"revaluation","124","706334","0.0-4.0-2.0-0.4","spark_pilot_2","7505","3","22","Female","","false","","","","","[378,345]","./assets/img/ocean/memory/26.jpg","[""ArrowDown"",""ArrowRight""]","value training","ocean","30","{""ArrowUp,ArrowLeft"":23,""ArrowUp,ArrowRight"":10,""ArrowDown,ArrowLeft"":8,""ArrowDown,ArrowRight"":30}","true","ArrowDown,ArrowRight","false","","","original","1","8","","",""
"html-keyboard-response","125","706834","0.0-4.0-2.0-1.4","spark_pilot_2","7505","3","22","Female","","","","","","","null","<div style=""font-size:60px;"">+</div>","null","fixation","","","","","","","","","","","9","","",""
"revaluation","126","712842","0.0-4.0-2.0-0.5","spark_pilot_2","7505","3","22","Female","","false","","","","","[540,412]","./assets/img/ocean/memory/7.jpg","[""ArrowDown"",""ArrowRight""]","value training","ocean","30","{""ArrowUp,ArrowLeft"":23,""ArrowUp,ArrowRight"":10,""ArrowDown,ArrowLeft"":8,""ArrowDown,ArrowRight"":30}","true","ArrowDown,ArrowRight","false","","","original","1","10","","",""
"html-keyboard-response","127","713344","0.0-4.0-2.0-1.5","spark_pilot_2","7505","3","22","Female","","","","","","","null","<div style=""font-size:60px;"">+</div>","null","fixation","","","","","","","","","","","11","","",""
"revaluation","128","719351","0.0-4.0-2.0-0.6","spark_pilot_2","7505","3","22","Female","","false","","","","","[1128,489]","./assets/img/ocean/memory/28.jpg","[""ArrowDown"",""ArrowRight""]","value training","ocean","30","{""ArrowUp,ArrowLeft"":23,""ArrowUp,ArrowRight"":10,""ArrowDown,ArrowLeft"":8,""ArrowDown,ArrowRight"":30}","true","ArrowDown,ArrowRight","false","","","original","1","12","","",""
"html-keyboard-response","129","719853","0.0-4.0-2.0-1.6","spark_pilot_2","7505","3","22","Female","","","","","","","null","<div style=""font-size:60px;"">+</div>","null","fixation","","","","","","","","","","","13","","",""
"revaluation","130","725862","0.0-4.0-2.0-0.7","spark_pilot_2","7505","3","22","Female","","false","","","","","[582,343]","./assets/img/ocean/memory/16.jpg","[""ArrowDown"",""ArrowRight""]","value training","ocean","30","{""ArrowUp,ArrowLeft"":23,""ArrowUp,ArrowRight"":10,""ArrowDown,ArrowLeft"":8,""ArrowDown,ArrowRight"":30}","true","ArrowDown,ArrowRight","false","","","original","1","14","","",""
"html-keyboard-response","131","726363","0.0-4.0-2.0-1.7","spark_pilot_2","7505","3","22","Female","","","","","","","null","<div style=""font-size:60px;"">+</div>","null","fixation","","","","","","","","","","","15","","",""
"revaluation","132","732371","0.0-4.0-2.0-0.8","spark_pilot_2","7505","3","22","Female","","false","","","","","[967,501]","./assets/img/ocean/memory/30.jpg","[""ArrowDown"",""ArrowRight""]","value training","ocean","30","{""ArrowUp,ArrowLeft"":23,""ArrowUp,ArrowRight"":10,""ArrowDown,ArrowLeft"":8,""ArrowDown,ArrowRight"":30}","true","ArrowDown,ArrowRight","false","","","original","1","16","","",""
"html-keyboard-response","133","732872","0.0-4.0-2.0-1.8","spark_pilot_2","7505","3","22","Female","","","","","","","null","<div style=""font-size:60px;"">+</div>","null","fixation","","","","","","","","","","","17","","",""
"revaluation","134","738880","0.0-4.0-2.0-0.9","spark_pilot_2","7505","3","22","Female","","false","","","","","[648,632]","./assets/img/ocean/memory/1.jpg","[""ArrowDown"",""ArrowRight""]","value training","ocean","30","{""ArrowUp,ArrowLeft"":23,""ArrowUp,ArrowRight"":10,""ArrowDown,ArrowLeft"":8,""ArrowDown,ArrowRight"":30}","true","ArrowDown,ArrowRight","false","","","original","1","18","","",""
"html-keyboard-response","135","739384","0.0-4.0-2.0-1.9","spark_pilot_2","7505","3","22","Female","","","","","","","null","<div style=""font-size:60px;"">+</div>","null","fixation","","","","","","","","","","","19","","",""
"revaluation","136","745392","0.0-4.0-2.0-0.10","spark_pilot_2","7505","3","22","Female","","false","","","","","[600,464]","./assets/img/ocean/memory/10.jpg","[""ArrowDown"",""ArrowRight""]","value training","ocean","30","{""ArrowUp,ArrowLeft"":23,""ArrowUp,ArrowRight"":10,""ArrowDown,ArrowLeft"":8,""ArrowDown,ArrowRight"":30}","true","ArrowDown,ArrowRight","false","","","original","1","20","","",""
"html-keyboard-response","137","745894","0.0-4.0-2.0-1.10","spark_pilot_2","7505","3","22","Female","","","","","","","null","<div style=""font-size:60px;"">+</div>","null","fixation","","","","","","","","","","","21","","",""
"revaluation","138","749899","0.0-4.0-2.0-0.11","spark_pilot_2","7505","3","22","Female","","false","","","","","[1239]","./assets/img/ocean/catch/0.jpg","[""spaceBar""]","value training","ocean","0","{""ArrowUp,ArrowLeft"":23,""ArrowUp,ArrowRight"":10,""ArrowDown,ArrowLeft"":8,""ArrowDown,ArrowRight"":30}","true","spaceBar","true","","","original","1","22","","",""
"html-keyboard-response","139","750400","0.0-4.0-2.0-1.11","spark_pilot_2","7505","3","22","Female","","","","","","","null","<div style=""font-size:60px;"">+</div>","null","fixation","","","","","","","","","","","23","","",""
"revaluation","140","756406","0.0-4.0-2.0-0.12","spark_pilot_2","7505","3","22","Female","","false","","","","","[980,584]","./assets/img/ocean/memory/2.jpg","[""ArrowDown"",""ArrowRight""]","value training","ocean","30","{""ArrowUp,ArrowLeft"":23,""ArrowUp,ArrowRight"":10,""ArrowDown,ArrowLeft"":8,""ArrowDown,ArrowRight"":30}","true","ArrowDown,ArrowRight","false","","","original","1","24","","",""
"html-keyboard-response","141","756910","0.0-4.0-2.0-1.12","spark_pilot_2","7505","3","22","Female","","","","","","","null","<div style=""font-size:60px;"">+</div>","null","fixation","","","","","","","","","","","25","","",""
"revaluation","142","762916","0.0-4.0-2.0-0.13","spark_pilot_2","7505","3","22","Female","","false","","","","","[797,434]","./assets/img/ocean/memory/29.jpg","[""ArrowDown"",""ArrowRight""]","value training","ocean","30","{""ArrowUp,ArrowLeft"":23,""ArrowUp,ArrowRight"":10,""ArrowDown,ArrowLeft"":8,""ArrowDown,ArrowRight"":30}","true","ArrowDown,ArrowRight","false","","","original","1","26","","",""
"html-keyboard-response","143","763417","0.0-4.0-2.0-1.13","spark_pilot_2","7505","3","22","Female","","","","","","","null","<div style=""font-size:60px;"">+</div>","null","fixation","","","","","","","","","","","27","","",""
"revaluation","144","769431","0.0-4.0-2.0-0.14","spark_pilot_2","7505","3","22","Female","","false","","","","","[750,444]","./assets/img/ocean/memory/18.jpg","[""ArrowDown"",""ArrowRight""]","value training","ocean","30","{""ArrowUp,ArrowLeft"":23,""ArrowUp,ArrowRight"":10,""ArrowDown,ArrowLeft"":8,""ArrowDown,ArrowRight"":30}","true","ArrowDown,ArrowRight","false","","","original","1","28","","",""
"html-keyboard-response","145","769932","0.0-4.0-2.0-1.14","spark_pilot_2","7505","3","22","Female","","","","","","","null","<div style=""font-size:60px;"">+</div>","null","fixation","","","","","","","","","","","29","","",""
"revaluation","146","775940","0.0-4.0-2.0-0.15","spark_pilot_2","7505","3","22","Female","","false","","","","","[654,434]","./assets/img/ocean/memory/4.jpg","[""ArrowDown"",""ArrowRight""]","value training","ocean","30","{""ArrowUp,ArrowLeft"":23,""ArrowUp,ArrowRight"":10,""ArrowDown,ArrowLeft"":8,""ArrowDown,ArrowRight"":30}","true","ArrowDown,ArrowRight","false","","","original","1","30","","",""
"html-keyboard-response","147","776441","0.0-4.0-2.0-1.15","spark_pilot_2","7505","3","22","Female","","","","","","","null","<div style=""font-size:60px;"">+</div>","null","fixation","","","","","","","","","","","31","","",""
"revaluation","148","780447","0.0-4.0-2.0-0.16","spark_pilot_2","7505","3","22","Female","","false","","","","","[859]","./assets/img/ocean/catch/2.jpg","[""spaceBar""]","value training","ocean","0","{""ArrowUp,ArrowLeft"":23,""ArrowUp,ArrowRight"":10,""ArrowDown,ArrowLeft"":8,""ArrowDown,ArrowRight"":30}","true","spaceBar","true","","","original","1","32","","",""
"html-keyboard-response","149","780948","0.0-4.0-2.0-1.16","spark_pilot_2","7505","3","22","Female","","","","","","","null","<div style=""font-size:60px;"">+</div>","null","fixation","","","","","","","","","","","33","","",""
"revaluation","150","786956","0.0-4.0-2.0-0.17","spark_pilot_2","7505","3","22","Female","","false","","","","","[685,395]","./assets/img/ocean/memory/10.jpg","[""ArrowDown"",""ArrowRight""]","value training","ocean","30","{""ArrowUp,ArrowLeft"":23,""ArrowUp,ArrowRight"":10,""ArrowDown,ArrowLeft"":8,""ArrowDown,ArrowRight"":30}","true","ArrowDown,ArrowRight","false","","","original","1","34","","",""
"html-keyboard-response","151","787458","0.0-4.0-2.0-1.17","spark_pilot_2","7505","3","22","Female","","","","","","","null","<div style=""font-size:60px;"">+</div>","null","fixation","","","","","","","","","","","35","","",""
"revaluation","152","793466","0.0-4.0-2.0-0.18","spark_pilot_2","7505","3","22","Female","","false","","","","","[1068,555]","./assets/img/ocean/memory/30.jpg","[""ArrowDown"",""ArrowRight""]","value training","ocean","30","{""ArrowUp,ArrowLeft"":23,""ArrowUp,ArrowRight"":10,""ArrowDown,ArrowLeft"":8,""ArrowDown,ArrowRight"":30}","true","ArrowDown,ArrowRight","false","","","original","1","36","","",""
"html-keyboard-response","153","793967","0.0-4.0-2.0-1.18","spark_pilot_2","7505","3","22","Female","","","","","","","null","<div style=""font-size:60px;"">+</div>","null","fixation","","","","","","","","","","","37","","",""
"revaluation","154","799975","0.0-4.0-2.0-0.19","spark_pilot_2","7505","3","22","Female","","false","","","","","[1073,462]","./assets/img/ocean/memory/28.jpg","[""ArrowDown"",""ArrowRight""]","value training","ocean","30","{""ArrowUp,ArrowLeft"":23,""ArrowUp,ArrowRight"":10,""ArrowDown,ArrowLeft"":8,""ArrowDown,ArrowRight"":30}","true","ArrowDown,ArrowRight","false","","","original","1","38","","",""
"html-keyboard-response","155","800477","0.0-4.0-2.0-1.19","spark_pilot_2","7505","3","22","Female","","","","","","","null","<div style=""font-size:60px;"">+</div>","null","fixation","","","","","","","","","","","39","","",""
"revaluation","156","806481","0.0-4.0-2.0-0.20","spark_pilot_2","7505","3","22","Female","","false","","","","","[1018,458]","./assets/img/ocean/memory/19.jpg","[""ArrowDown"",""ArrowRight""]","value training","ocean","30","{""ArrowUp,ArrowLeft"":23,""ArrowUp,ArrowRight"":10,""ArrowDown,ArrowLeft"":8,""ArrowDown,ArrowRight"":30}","true","ArrowDown,ArrowRight","false","","","original","1","40","","",""
"html-keyboard-response","157","806983","0.0-4.0-2.0-1.20","spark_pilot_2","7505","3","22","Female","","","","","","","null","<div style=""font-size:60px;"">+</div>","null","fixation","","","","","","","","","","","41","","",""
"revaluation","158","810986","0.0-4.0-2.0-0.21","spark_pilot_2","7505","3","22","Female","","false","","","","","[770]","./assets/img/ocean/catch/3.jpg","[""spaceBar""]","value training","ocean","0","{""ArrowUp,ArrowLeft"":23,""ArrowUp,ArrowRight"":10,""ArrowDown,ArrowLeft"":8,""ArrowDown,ArrowRight"":30}","true","spaceBar","true","","","original","1","42","","",""
"html-keyboard-response","159","811488","0.0-4.0-2.0-1.21","spark_pilot_2","7505","3","22","Female","","","","","","","null","<div style=""font-size:60px;"">+</div>","null","fixation","","","","","","","","","","","43","","",""
"revaluation","160","817494","0.0-4.0-2.0-0.22","spark_pilot_2","7505","3","22","Female","","false","","","","","[987,353]","./assets/img/ocean/memory/6.jpg","[""ArrowDown"",""ArrowRight""]","value training","ocean","30","{""ArrowUp,ArrowLeft"":23,""ArrowUp,ArrowRight"":10,""ArrowDown,ArrowLeft"":8,""ArrowDown,ArrowRight"":30}","true","ArrowDown,ArrowRight","false","","","original","1","44","","",""
"html-keyboard-response","161","817995","0.0-4.0-2.0-1.22","spark_pilot_2","7505","3","22","Female","","","","","","","null","<div style=""font-size:60px;"">+</div>","null","fixation","","","","","","","","","","","45","","",""
"revaluation","162","822001","0.0-4.0-2.0-0.23","spark_pilot_2","7505","3","22","Female","","false","","","","","[1069]","./assets/img/ocean/catch/1.jpg","[""spaceBar""]","value training","ocean","0","{""ArrowUp,ArrowLeft"":23,""ArrowUp,ArrowRight"":10,""ArrowDown,ArrowLeft"":8,""ArrowDown,ArrowRight"":30}","true","spaceBar","true","","","original","1","46","","",""
"html-keyboard-response","163","822501","0.0-4.0-2.0-1.23","spark_pilot_2","7505","3","22","Female","","","","","","","null","<div style=""font-size:60px;"">+</div>","null","fixation","","","","","","","","","","","47","","",""
"revaluation","164","828507","0.0-4.0-2.0-0.24","spark_pilot_2","7505","3","22","Female","","false","","","","","[1124,504]","./assets/img/ocean/memory/9.jpg","[""ArrowDown"",""ArrowRight""]","value training","ocean","30","{""ArrowUp,ArrowLeft"":23,""ArrowUp,ArrowRight"":10,""ArrowDown,ArrowLeft"":8,""ArrowDown,ArrowRight"":30}","true","ArrowDown,ArrowRight","false","","","original","1","48","","",""
"html-keyboard-response","165","829008","0.0-4.0-2.0-1.24","spark_pilot_2","7505","3","22","Female","","","","","","","null","<div style=""font-size:60px;"">+</div>","null","fixation","","","","","","","","","","","49","","",""
"revaluation","166","835017","0.0-4.0-2.0-0.25","spark_pilot_2","7505","3","22","Female","","false","","","","","[773,392]","./assets/img/ocean/memory/16.jpg","[""ArrowDown"",""ArrowRight""]","value training","ocean","30","{""ArrowUp,ArrowLeft"":23,""ArrowUp,ArrowRight"":10,""ArrowDown,ArrowLeft"":8,""ArrowDown,ArrowRight"":30}","true","ArrowDown,ArrowRight","false","","","original","1","50","","",""
"html-keyboard-response","167","835518","0.0-4.0-2.0-1.25","spark_pilot_2","7505","3","22","Female","","","","","","","null","<div style=""font-size:60px;"">+</div>","null","fixation","","","","","","","","","","","51","","",""
"revaluation","168","841524","0.0-4.0-2.0-0.26","spark_pilot_2","7505","3","22","Female","","false","","","","","[716,381]","./assets/img/ocean/memory/5.jpg","[""ArrowDown"",""ArrowRight""]","value training","ocean","30","{""ArrowUp,ArrowLeft"":23,""ArrowUp,ArrowRight"":10,""ArrowDown,ArrowLeft"":8,""ArrowDown,ArrowRight"":30}","true","ArrowDown,ArrowRight","false","","","original","1","52","","",""
"html-keyboard-response","169","842025","0.0-4.0-2.0-1.26","spark_pilot_2","7505","3","22","Female","","","","","","","null","<div style=""font-size:60px;"">+</div>","null","fixation","","","","","","","","","","","53","","",""
"revaluation","170","848031","0.0-4.0-2.0-0.27","spark_pilot_2","7505","3","22","Female","","false","","","","","[791,446]","./assets/img/ocean/memory/8.jpg","[""ArrowDown"",""ArrowRight""]","value training","ocean","30","{""ArrowUp,ArrowLeft"":23,""ArrowUp,ArrowRight"":10,""ArrowDown,ArrowLeft"":8,""ArrowDown,ArrowRight"":30}","true","ArrowDown,ArrowRight","false","","","original","1","54","","",""
"html-keyboard-response","171","848531","0.0-4.0-2.0-1.27","spark_pilot_2","7505","3","22","Female","","","","","","","null","<div style=""font-size:60px;"">+</div>","null","fixation","","","","","","","","","","","55","","",""
"revaluation","172","854539","0.0-4.0-2.0-0.28","spark_pilot_2","7505","3","22","Female","","false","","","","","[853,422]","./assets/img/ocean/memory/5.jpg","[""ArrowDown"",""ArrowRight""]","value training","ocean","30","{""ArrowUp,ArrowLeft"":23,""ArrowUp,ArrowRight"":10,""ArrowDown,ArrowLeft"":8,""ArrowDown,ArrowRight"":30}","true","ArrowDown,ArrowRight","false","","","original","1","56","","",""
"html-keyboard-response","173","855041","0.0-4.0-2.0-1.28","spark_pilot_2","7505","3","22","Female","","","","","","","null","<div style=""font-size:60px;"">+</div>","null","fixation","","","","","","","","","","","57","","",""
"revaluation","174","861049","0.0-4.0-2.0-0.29","spark_pilot_2","7505","3","22","Female","","false","","","","","[723,340]","./assets/img/ocean/memory/1.jpg","[""ArrowDown"",""ArrowRight""]","value training","ocean","30","{""ArrowUp,ArrowLeft"":23,""ArrowUp,ArrowRight"":10,""ArrowDown,ArrowLeft"":8,""ArrowDown,ArrowRight"":30}","true","ArrowDown,ArrowRight","false","","","original","1","58","","",""
"html-keyboard-response","175","861550","0.0-4.0-2.0-1.29","spark_pilot_2","7505","3","22","Female","","","","","","","null","<div style=""font-size:60px;"">+</div>","null","fixation","","","","","","","","","","","59","","",""
"revaluation","176","867562","0.0-4.0-2.0-0.30","spark_pilot_2","7505","3","22","Female","","false","","","","","[1000,518]","./assets/img/ocean/memory/21.jpg","[""ArrowDown"",""ArrowRight""]","value training","ocean","30","{""ArrowUp,ArrowLeft"":23,""ArrowUp,ArrowRight"":10,""ArrowDown,ArrowLeft"":8,""ArrowDown,ArrowRight"":30}","true","ArrowDown,ArrowRight","false","","","original","1","60","","",""
"html-keyboard-response","177","868062","0.0-4.0-2.0-1.30","spark_pilot_2","7505","3","22","Female","","","","","","","null","<div style=""font-size:60px;"">+</div>","null","fixation","","","","","","","","","","","61","","",""
"revaluation","178","874065","0.0-4.0-2.0-0.31","spark_pilot_2","7505","3","22","Female","","false","","","","","[1003,429]","./assets/img/ocean/memory/17.jpg","[""ArrowDown"",""ArrowRight""]","value training","ocean","30","{""ArrowUp,ArrowLeft"":23,""ArrowUp,ArrowRight"":10,""ArrowDown,ArrowLeft"":8,""ArrowDown,ArrowRight"":30}","true","ArrowDown,ArrowRight","false","","","original","1","62","","",""
"html-keyboard-response","179","874567","0.0-4.0-2.0-1.31","spark_pilot_2","7505","3","22","Female","","","","","","","null","<div style=""font-size:60px;"">+</div>","null","fixation","","","","","","","","","","","63","","",""
"revaluation","180","880574","0.0-4.0-2.0-0.32","spark_pilot_2","7505","3","22","Female","","false","","","","","[1136,608]","./assets/img/ocean/memory/26.jpg","[""ArrowDown"",""ArrowRight""]","value training","ocean","30","{""ArrowUp,ArrowLeft"":23,""ArrowUp,ArrowRight"":10,""ArrowDown,ArrowLeft"":8,""ArrowDown,ArrowRight"":30}","true","ArrowDown,ArrowRight","false","","","original","1","64","","",""
"html-keyboard-response","181","881076","0.0-4.0-2.0-1.32","spark_pilot_2","7505","3","22","Female","","","","","","","null","<div style=""font-size:60px;"">+</div>","null","fixation","","","","","","","","","","","65","","",""
"revaluation","182","885082","0.0-4.0-2.0-0.33","spark_pilot_2","7505","3","22","Female","","false","","","","","[1068]","./assets/img/ocean/catch/6.jpg","[""spaceBar""]","value training","ocean","0","{""ArrowUp,ArrowLeft"":23,""ArrowUp,ArrowRight"":10,""ArrowDown,ArrowLeft"":8,""ArrowDown,ArrowRight"":30}","true","spaceBar","true","","","original","1","66","","",""
"html-keyboard-response","183","885583","0.0-4.0-2.0-1.33","spark_pilot_2","7505","3","22","Female","","","","","","","null","<div style=""font-size:60px;"">+</div>","null","fixation","","","","","","","","","","","67","","",""
"revaluation","184","891591","0.0-4.0-2.0-0.34","spark_pilot_2","7505","3","22","Female","","false","","","","","[1085,513]","./assets/img/ocean/memory/29.jpg","[""ArrowDown"",""ArrowRight""]","value training","ocean","30","{""ArrowUp,ArrowLeft"":23,""ArrowUp,ArrowRight"":10,""ArrowDown,ArrowLeft"":8,""ArrowDown,ArrowRight"":30}","true","ArrowDown,ArrowRight","false","","","original","1","68","","",""
"html-keyboard-response","185","892092","0.0-4.0-2.0-1.34","spark_pilot_2","7505","3","22","Female","","","","","","","null","<div style=""font-size:60px;"">+</div>","null","fixation","","","","","","","","","","","69","","",""
"revaluation","186","898098","0.0-4.0-2.0-0.35","spark_pilot_2","7505","3","22","Female","","false","","","","","[1065,496]","./assets/img/ocean/memory/20.jpg","[""ArrowDown"",""ArrowRight""]","value training","ocean","30","{""ArrowUp,ArrowLeft"":23,""ArrowUp,ArrowRight"":10,""ArrowDown,ArrowLeft"":8,""ArrowDown,ArrowRight"":30}","true","ArrowDown,ArrowRight","false","","","original","1","70","","",""
"html-keyboard-response","187","898599","0.0-4.0-2.0-1.35","spark_pilot_2","7505","3","22","Female","","","","","","","null","<div style=""font-size:60px;"">+</div>","null","fixation","","","","","","","","","","","71","","",""
"revaluation","188","904608","0.0-4.0-2.0-0.36","spark_pilot_2","7505","3","22","Female","","false","","","","","[1261,513]","./assets/img/ocean/memory/17.jpg","[""ArrowDown"",""ArrowRight""]","value training","ocean","30","{""ArrowUp,ArrowLeft"":23,""ArrowUp,ArrowRight"":10,""ArrowDown,ArrowLeft"":8,""ArrowDown,ArrowRight"":30}","true","ArrowDown,ArrowRight","false","","","original","1","72","","",""
"html-keyboard-response","189","905111","0.0-4.0-2.0-1.36","spark_pilot_2","7505","3","22","Female","","","","","","","null","<div style=""font-size:60px;"">+</div>","null","fixation","","","","","","","","","","","73","","",""
"revaluation","190","909120","0.0-4.0-2.0-0.37","spark_pilot_2","7505","3","22","Female","","false","","","","","[909]","./assets/img/ocean/catch/7.jpg","[""spaceBar""]","value training","ocean","0","{""ArrowUp,ArrowLeft"":23,""ArrowUp,ArrowRight"":10,""ArrowDown,ArrowLeft"":8,""ArrowDown,ArrowRight"":30}","true","spaceBar","true","","","original","1","74","","",""
"html-keyboard-response","191","909621","0.0-4.0-2.0-1.37","spark_pilot_2","7505","3","22","Female","","","","","","","null","<div style=""font-size:60px;"">+</div>","null","fixation","","","","","","","","","","","75","","",""
"revaluation","192","915630","0.0-4.0-2.0-0.38","spark_pilot_2","7505","3","22","Female","","false","","","","","[959,440]","./assets/img/ocean/memory/18.jpg","[""ArrowDown"",""ArrowRight""]","value training","ocean","30","{""ArrowUp,ArrowLeft"":23,""ArrowUp,ArrowRight"":10,""ArrowDown,ArrowLeft"":8,""ArrowDown,ArrowRight"":30}","true","ArrowDown,ArrowRight","false","","","original","1","76","","",""
"html-keyboard-response","193","916131","0.0-4.0-2.0-1.38","spark_pilot_2","7505","3","22","Female","","","","","","","null","<div style=""font-size:60px;"">+</div>","null","fixation","","","","","","","","","","","77","","",""
"revaluation","194","922137","0.0-4.0-2.0-0.39","spark_pilot_2","7505","3","22","Female","","false","","","","","[914,472]","./assets/img/ocean/memory/21.jpg","[""ArrowDown"",""ArrowRight""]","value training","ocean","30","{""ArrowUp,ArrowLeft"":23,""ArrowUp,ArrowRight"":10,""ArrowDown,ArrowLeft"":8,""ArrowDown,ArrowRight"":30}","true","ArrowDown,ArrowRight","false","","","original","1","78","","",""
"html-keyboard-response","195","922637","0.0-4.0-2.0-1.39","spark_pilot_2","7505","3","22","Female","","","","","","","null","<div style=""font-size:60px;"">+</div>","null","fixation","","","","","","","","","","","79","","",""
"revaluation","196","928641","0.0-4.0-2.0-0.40","spark_pilot_2","7505","3","22","Female","","false","","","","","[1395,432]","./assets/img/ocean/memory/0.jpg","[""ArrowDown"",""ArrowRight""]","value training","ocean","30","{""ArrowUp,ArrowLeft"":23,""ArrowUp,ArrowRight"":10,""ArrowDown,ArrowLeft"":8,""ArrowDown,ArrowRight"":30}","true","ArrowDown,ArrowRight","false","","","original","1","80","","",""
"html-keyboard-response","197","929144","0.0-4.0-2.0-1.40","spark_pilot_2","7505","3","22","Female","","","","","","","null","<div style=""font-size:60px;"">+</div>","null","fixation","","","","","","","","","","","81","","",""
"revaluation","198","935153","0.0-4.0-2.0-0.41","spark_pilot_2","7505","3","22","Female","","false","","","","","[1006,382]","./assets/img/ocean/memory/19.jpg","[""ArrowDown"",""ArrowRight""]","value training","ocean","30","{""ArrowUp,ArrowLeft"":23,""ArrowUp,ArrowRight"":10,""ArrowDown,ArrowLeft"":8,""ArrowDown,ArrowRight"":30}","true","ArrowDown,ArrowRight","false","","","original","1","82","","",""
"html-keyboard-response","199","935654","0.0-4.0-2.0-1.41","spark_pilot_2","7505","3","22","Female","","","","","","","null","<div style=""font-size:60px;"">+</div>","null","fixation","","","","","","","","","","","83","","",""
"revaluation","200","941663","0.0-4.0-2.0-0.42","spark_pilot_2","7505","3","22","Female","","false","","","","","[962,540]","./assets/img/ocean/memory/2.jpg","[""ArrowDown"",""ArrowRight""]","value training","ocean","30","{""ArrowUp,ArrowLeft"":23,""ArrowUp,ArrowRight"":10,""ArrowDown,ArrowLeft"":8,""ArrowDown,ArrowRight"":30}","true","ArrowDown,ArrowRight","false","","","original","1","84","","",""
"html-keyboard-response","201","942164","0.0-4.0-2.0-1.42","spark_pilot_2","7505","3","22","Female","","","","","","","null","<div style=""font-size:60px;"">+</div>","null","fixation","","","","","","","","","","","85","","",""
"revaluation","202","946169","0.0-4.0-2.0-0.43","spark_pilot_2","7505","3","22","Female","","false","","","","","[1197]","./assets/img/ocean/catch/5.jpg","[""spaceBar""]","value training","ocean","0","{""ArrowUp,ArrowLeft"":23,""ArrowUp,ArrowRight"":10,""ArrowDown,ArrowLeft"":8,""ArrowDown,ArrowRight"":30}","true","spaceBar","true","","","original","1","86","","",""
"html-keyboard-response","203","946670","0.0-4.0-2.0-1.43","spark_pilot_2","7505","3","22","Female","","","","","","","null","<div style=""font-size:60px;"">+</div>","null","fixation","","","","","","","","","","","87","","",""
"revaluation","204","952677","0.0-4.0-2.0-0.44","spark_pilot_2","7505","3","22","Female","","false","","","","","[773,439]","./assets/img/ocean/memory/6.jpg","[""ArrowDown"",""ArrowRight""]","value training","ocean","30","{""ArrowUp,ArrowLeft"":23,""ArrowUp,ArrowRight"":10,""ArrowDown,ArrowLeft"":8,""ArrowDown,ArrowRight"":30}","true","ArrowDown,ArrowRight","false","","","original","1","88","","",""
"html-keyboard-response","205","953177","0.0-4.0-2.0-1.44","spark_pilot_2","7505","3","22","Female","","","","","","","null","<div style=""font-size:60px;"">+</div>","null","fixation","","","","","","","","","","","89","","",""
"revaluation","206","957183","0.0-4.0-2.0-0.45","spark_pilot_2","7505","3","22","Female","","false","","","","","[929]","./assets/img/ocean/catch/4.jpg","[""spaceBar""]","value training","ocean","0","{""ArrowUp,ArrowLeft"":23,""ArrowUp,ArrowRight"":10,""ArrowDown,ArrowLeft"":8,""ArrowDown,ArrowRight"":30}","true","spaceBar","true","","","original","1","90","","",""
"html-keyboard-response","207","957684","0.0-4.0-2.0-1.45","spark_pilot_2","7505","3","22","Female","","","","","","","null","<div style=""font-size:60px;"">+</div>","null","fixation","","","","","","","","","","","91","","",""
"revaluation","208","963690","0.0-4.0-2.0-0.46","spark_pilot_2","7505","3","22","Female","","false","","","","","[1017,583]","./assets/img/ocean/memory/0.jpg","[""ArrowDown"",""ArrowRight""]","value training","ocean","30","{""ArrowUp,ArrowLeft"":23,""ArrowUp,ArrowRight"":10,""ArrowDown,ArrowLeft"":8,""ArrowDown,ArrowRight"":30}","true","ArrowDown,ArrowRight","false","","","original","1","92","","",""
"html-keyboard-response","209","964191","0.0-4.0-2.0-1.46","spark_pilot_2","7505","3","22","Female","","","","","","","null","<div style=""font-size:60px;"">+</div>","null","fixation","","","","","","","","","","","93","","",""
"revaluation","210","968196","0.0-4.0-2.0-0.47","spark_pilot_2","7505","3","22","Female","","true","","","","","[]","./assets/img/ocean/memory/3.jpg","[]","value training","ocean","-5","{""ArrowUp,ArrowLeft"":23,""ArrowUp,ArrowRight"":10,""ArrowDown,ArrowLeft"":8,""ArrowDown,ArrowRight"":30}","false","","false","","","original","1","94","","",""
"html-keyboard-response","211","968697","0.0-4.0-2.0-1.47","spark_pilot_2","7505","3","22","Female","","","","","","","null","<div style=""font-size:60px;"">+</div>","null","fixation","","","","","","","","","","","95","","",""
"revaluation","212","974706","0.0-4.0-2.0-0.48","spark_pilot_2","7505","3","22","Female","","false","","","","","[802,692]","./assets/img/ocean/memory/7.jpg","[""ArrowDown"",""ArrowRight""]","value training","ocean","30","{""ArrowUp,ArrowLeft"":23,""ArrowUp,ArrowRight"":10,""ArrowDown,ArrowLeft"":8,""ArrowDown,ArrowRight"":30}","true","ArrowDown,ArrowRight","false","","","original","1","96","","",""
"html-keyboard-response","213","975207","0.0-4.0-2.0-1.48","spark_pilot_2","7505","3","22","Female","","","","","","","null","<div style=""font-size:60px;"">+</div>","null","fixation","","","","","","","","","","","97","","",""
"revaluation","214","981213","0.0-4.0-2.0-0.49","spark_pilot_2","7505","3","22","Female","","false","","","","","[723,444]","./assets/img/ocean/memory/9.jpg","[""ArrowDown"",""ArrowRight""]","value training","ocean","30","{""ArrowUp,ArrowLeft"":23,""ArrowUp,ArrowRight"":10,""ArrowDown,ArrowLeft"":8,""ArrowDown,ArrowRight"":30}","true","ArrowDown,ArrowRight","false","","","original","1","98","","",""
"html-keyboard-response","215","981714","0.0-4.0-2.0-1.49","spark_pilot_2","7505","3","22","Female","","","","","","","null","<div style=""font-size:60px;"">+</div>","null","fixation","","","","","","","","","","","99","","",""
"learning-instructions","216","1004240","0.0-4.0-3.0-0.0","spark_pilot_2","7505","3","22","Female","","","","","","","9643","<p> Now, you will travel with a friend who will choose whether you go up or down first. </p>
            <p> On these turns, you will just see the animal that they found. You will still get to choose which chest to search for treasure.</p>","","instructions","","","","","","","","","","","","","",""
"revaluation","217","1008249","0.0-4.0-4.0-0.0","spark_pilot_2","7505","3","22","Female","","false","","","","","[820]","./assets/img/ocean/animals/seahorse.jpg","[""ArrowRight""]","revaluation","ocean","30","{""ArrowUp,ArrowLeft"":23,""ArrowUp,ArrowRight"":10,""ArrowDown,ArrowLeft"":8,""ArrowDown,ArrowRight"":30}","true","ArrowDown,ArrowRight","","","","original","1","0","","",""
"html-keyboard-response","218","1008750","0.0-4.0-4.0-1.0","spark_pilot_2","7505","3","22","Female","","","","","","","null","<div style=""font-size:60px;"">+</div>","null","fixation","","","","","","","","","","","1","","",""
"revaluation","219","1012755","0.0-4.0-4.0-0.1","spark_pilot_2","7505","3","22","Female","","false","","","","","[586]","./assets/img/ocean/animals/seahorse.jpg","[""ArrowRight""]","revaluation","ocean","30","{""ArrowUp,ArrowLeft"":23,""ArrowUp,ArrowRight"":10,""ArrowDown,ArrowLeft"":8,""ArrowDown,ArrowRight"":30}","true","ArrowDown,ArrowRight","","","","original","1","2","","",""
"html-keyboard-response","220","1013256","0.0-4.0-4.0-1.1","spark_pilot_2","7505","3","22","Female","","","","","","","null","<div style=""font-size:60px;"">+</div>","null","fixation","","","","","","","","","","","3","","",""
"revaluation","221","1017264","0.0-4.0-4.0-0.2","spark_pilot_2","7505","3","22","Female","","false","","","","","[581]","./assets/img/ocean/animals/seahorse.jpg","[""ArrowRight""]","revaluation","ocean","30","{""ArrowUp,ArrowLeft"":23,""ArrowUp,ArrowRight"":10,""ArrowDown,ArrowLeft"":8,""ArrowDown,ArrowRight"":30}","true","ArrowDown,ArrowRight","","","","original","1","4","","",""
"html-keyboard-response","222","1017766","0.0-4.0-4.0-1.2","spark_pilot_2","7505","3","22","Female","","","","","","","null","<div style=""font-size:60px;"">+</div>","null","fixation","","","","","","","","","","","5","","",""
"revaluation","223","1021771","0.0-4.0-4.0-0.3","spark_pilot_2","7505","3","22","Female","","false","","","","","[956]","./assets/img/ocean/animals/octopus.jpg","[""ArrowLeft""]","revaluation","ocean","23","{""ArrowUp,ArrowLeft"":23,""ArrowUp,ArrowRight"":10,""ArrowDown,ArrowLeft"":8,""ArrowDown,ArrowRight"":30}","true","ArrowUp,ArrowLeft","","","","original","1","6","","",""
"html-keyboard-response","224","1022273","0.0-4.0-4.0-1.3","spark_pilot_2","7505","3","22","Female","","","","","","","null","<div style=""font-size:60px;"">+</div>","null","fixation","","","","","","","","","","","7","","",""
"revaluation","225","1026279","0.0-4.0-4.0-0.4","spark_pilot_2","7505","3","22","Female","","false","","","","","[680]","./assets/img/ocean/animals/seahorse.jpg","[""ArrowRight""]","revaluation","ocean","30","{""ArrowUp,ArrowLeft"":23,""ArrowUp,ArrowRight"":10,""ArrowDown,ArrowLeft"":8,""ArrowDown,ArrowRight"":30}","true","ArrowDown,ArrowRight","","","","original","1","8","","",""
"html-keyboard-response","226","1026779","0.0-4.0-4.0-1.4","spark_pilot_2","7505","3","22","Female","","","","","","","null","<div style=""font-size:60px;"">+</div>","null","fixation","","","","","","","","","","","9","","",""
"revaluation","227","1030783","0.0-4.0-4.0-0.5","spark_pilot_2","7505","3","22","Female","","false","","","","","[611]","./assets/img/ocean/animals/seahorse.jpg","[""ArrowRight""]","revaluation","ocean","30","{""ArrowUp,ArrowLeft"":23,""ArrowUp,ArrowRight"":10,""ArrowDown,ArrowLeft"":8,""ArrowDown,ArrowRight"":30}","true","ArrowDown,ArrowRight","","","","original","1","10","","",""
"html-keyboard-response","228","1031286","0.0-4.0-4.0-1.5","spark_pilot_2","7505","3","22","Female","","","","","","","null","<div style=""font-size:60px;"">+</div>","null","fixation","","","","","","","","","","","11","","",""
"revaluation","229","1035290","0.0-4.0-4.0-0.6","spark_pilot_2","7505","3","22","Female","","false","","","","","[696]","./assets/img/ocean/animals/seahorse.jpg","[""ArrowRight""]","revaluation","ocean","30","{""ArrowUp,ArrowLeft"":23,""ArrowUp,ArrowRight"":10,""ArrowDown,ArrowLeft"":8,""ArrowDown,ArrowRight"":30}","true","ArrowDown,ArrowRight","","","","original","1","12","","",""
"html-keyboard-response","230","1035790","0.0-4.0-4.0-1.6","spark_pilot_2","7505","3","22","Female","","","","","","","null","<div style=""font-size:60px;"">+</div>","null","fixation","","","","","","","","","","","13","","",""
"revaluation","231","1039796","0.0-4.0-4.0-0.7","spark_pilot_2","7505","3","22","Female","","false","","","","","[725]","./assets/img/ocean/animals/octopus.jpg","[""ArrowLeft""]","revaluation","ocean","23","{""ArrowUp,ArrowLeft"":23,""ArrowUp,ArrowRight"":10,""ArrowDown,ArrowLeft"":8,""ArrowDown,ArrowRight"":30}","true","ArrowUp,ArrowLeft","","","","original","1","14","","",""
"html-keyboard-response","232","1040297","0.0-4.0-4.0-1.7","spark_pilot_2","7505","3","22","Female","","","","","","","null","<div style=""font-size:60px;"">+</div>","null","fixation","","","","","","","","","","","15","","",""
"revaluation","233","1044300","0.0-4.0-4.0-0.8","spark_pilot_2","7505","3","22","Female","","false","","","","","[717]","./assets/img/ocean/animals/octopus.jpg","[""ArrowLeft""]","revaluation","ocean","23","{""ArrowUp,ArrowLeft"":23,""ArrowUp,ArrowRight"":10,""ArrowDown,ArrowLeft"":8,""ArrowDown,ArrowRight"":30}","true","ArrowUp,ArrowLeft","","","","original","1","16","","",""
"html-keyboard-response","234","1044802","0.0-4.0-4.0-1.8","spark_pilot_2","7505","3","22","Female","","","","","","","null","<div style=""font-size:60px;"">+</div>","null","fixation","","","","","","","","","","","17","","",""
"revaluation","235","1048806","0.0-4.0-4.0-0.9","spark_pilot_2","7505","3","22","Female","","false","","","","","[630]","./assets/img/ocean/animals/seahorse.jpg","[""ArrowRight""]","revaluation","ocean","30","{""ArrowUp,ArrowLeft"":23,""ArrowUp,ArrowRight"":10,""ArrowDown,ArrowLeft"":8,""ArrowDown,ArrowRight"":30}","true","ArrowDown,ArrowRight","","","","original","1","18","","",""
"html-keyboard-response","236","1049308","0.0-4.0-4.0-1.9","spark_pilot_2","7505","3","22","Female","","","","","","","null","<div style=""font-size:60px;"">+</div>","null","fixation","","","","","","","","","","","19","","",""
"revaluation","237","1053314","0.0-4.0-4.0-0.10","spark_pilot_2","7505","3","22","Female","","false","","","","","[596]","./assets/img/ocean/animals/seahorse.jpg","[""ArrowRight""]","revaluation","ocean","30","{""ArrowUp,ArrowLeft"":23,""ArrowUp,ArrowRight"":10,""ArrowDown,ArrowLeft"":8,""ArrowDown,ArrowRight"":30}","true","ArrowDown,ArrowRight","","","","original","1","20","","",""
"html-keyboard-response","238","1053815","0.0-4.0-4.0-1.10","spark_pilot_2","7505","3","22","Female","","","","","","","null","<div style=""font-size:60px;"">+</div>","null","fixation","","","","","","","","","","","21","","",""
"revaluation","239","1057821","0.0-4.0-4.0-0.11","spark_pilot_2","7505","3","22","Female","","false","","","","","[778]","./assets/img/ocean/animals/octopus.jpg","[""ArrowLeft""]","revaluation","ocean","23","{""ArrowUp,ArrowLeft"":23,""ArrowUp,ArrowRight"":10,""ArrowDown,ArrowLeft"":8,""ArrowDown,ArrowRight"":30}","true","ArrowUp,ArrowLeft","","","","original","1","22","","",""
"html-keyboard-response","240","1058324","0.0-4.0-4.0-1.11","spark_pilot_2","7505","3","22","Female","","","","","","","null","<div style=""font-size:60px;"">+</div>","null","fixation","","","","","","","","","","","23","","",""
"revaluation","241","1062330","0.0-4.0-4.0-0.12","spark_pilot_2","7505","3","22","Female","","false","","","","","[620]","./assets/img/ocean/animals/octopus.jpg","[""ArrowLeft""]","revaluation","ocean","23","{""ArrowUp,ArrowLeft"":23,""ArrowUp,ArrowRight"":10,""ArrowDown,ArrowLeft"":8,""ArrowDown,ArrowRight"":30}","true","ArrowUp,ArrowLeft","","","","original","1","24","","",""
"html-keyboard-response","242","1062831","0.0-4.0-4.0-1.12","spark_pilot_2","7505","3","22","Female","","","","","","","null","<div style=""font-size:60px;"">+</div>","null","fixation","","","","","","","","","","","25","","",""
"revaluation","243","1066839","0.0-4.0-4.0-0.13","spark_pilot_2","7505","3","22","Female","","false","","","","","[495]","./assets/img/ocean/animals/seahorse.jpg","[""ArrowRight""]","revaluation","ocean","30","{""ArrowUp,ArrowLeft"":23,""ArrowUp,ArrowRight"":10,""ArrowDown,ArrowLeft"":8,""ArrowDown,ArrowRight"":30}","true","ArrowDown,ArrowRight","","","","original","1","26","","",""
"html-keyboard-response","244","1067340","0.0-4.0-4.0-1.13","spark_pilot_2","7505","3","22","Female","","","","","","","null","<div style=""font-size:60px;"">+</div>","null","fixation","","","","","","","","","","","27","","",""
"revaluation","245","1071346","0.0-4.0-4.0-0.14","spark_pilot_2","7505","3","22","Female","","false","","","","","[677]","./assets/img/ocean/animals/octopus.jpg","[""ArrowLeft""]","revaluation","ocean","23","{""ArrowUp,ArrowLeft"":23,""ArrowUp,ArrowRight"":10,""ArrowDown,ArrowLeft"":8,""ArrowDown,ArrowRight"":30}","true","ArrowUp,ArrowLeft","","","","original","1","28","","",""
"html-keyboard-response","246","1071851","0.0-4.0-4.0-1.14","spark_pilot_2","7505","3","22","Female","","","","","","","null","<div style=""font-size:60px;"">+</div>","null","fixation","","","","","","","","","","","29","","",""
"revaluation","247","1075858","0.0-4.0-4.0-0.15","spark_pilot_2","7505","3","22","Female","","false","","","","","[671]","./assets/img/ocean/animals/octopus.jpg","[""ArrowLeft""]","revaluation","ocean","23","{""ArrowUp,ArrowLeft"":23,""ArrowUp,ArrowRight"":10,""ArrowDown,ArrowLeft"":8,""ArrowDown,ArrowRight"":30}","true","ArrowUp,ArrowLeft","","","","original","1","30","","",""
"html-keyboard-response","248","1076363","0.0-4.0-4.0-1.15","spark_pilot_2","7505","3","22","Female","","","","","","","null","<div style=""font-size:60px;"">+</div>","null","fixation","","","","","","","","","","","31","","",""
"revaluation","249","1080370","0.0-4.0-4.0-0.16","spark_pilot_2","7505","3","22","Female","","false","","","","","[580]","./assets/img/ocean/animals/octopus.jpg","[""ArrowLeft""]","revaluation","ocean","23","{""ArrowUp,ArrowLeft"":23,""ArrowUp,ArrowRight"":10,""ArrowDown,ArrowLeft"":8,""ArrowDown,ArrowRight"":30}","true","ArrowUp,ArrowLeft","","","","original","1","32","","",""
"html-keyboard-response","250","1080872","0.0-4.0-4.0-1.16","spark_pilot_2","7505","3","22","Female","","","","","","","null","<div style=""font-size:60px;"">+</div>","null","fixation","","","","","","","","","","","33","","",""
"revaluation","251","1084877","0.0-4.0-4.0-0.17","spark_pilot_2","7505","3","22","Female","","false","","","","","[638]","./assets/img/ocean/animals/octopus.jpg","[""ArrowLeft""]","revaluation","ocean","23","{""ArrowUp,ArrowLeft"":23,""ArrowUp,ArrowRight"":10,""ArrowDown,ArrowLeft"":8,""ArrowDown,ArrowRight"":30}","true","ArrowUp,ArrowLeft","","","","original","1","34","","",""
"html-keyboard-response","252","1085378","0.0-4.0-4.0-1.17","spark_pilot_2","7505","3","22","Female","","","","","","","null","<div style=""font-size:60px;"">+</div>","null","fixation","","","","","","","","","","","35","","",""
"learning-instructions","253","1097846","0.0-4.0-5.0-0.0","spark_pilot_2","7505","3","22","Female","","","","","","","906","<p> Time to play the dot game! </p>
            <p> For one minute, click the red dots on the following screen as they appear. </p>
            <p><b> Don't look away, as you will earn bonus for clicking dots</b>. </p>","","instructions","","","","","","","","","","","","","",""
"revaluation","254","1157854","0.0-4.0-6.0-0.0","spark_pilot_2","7505","3","22","Female","","","","","","","[100,75,79,72,79,73]","","","rest","","60","","","","","0","60000","","","","","",""
"learning-instructions","255","1165082","0.0-4.0-7.0-0.0","spark_pilot_2","7505","3","22","Female","","","","","","","1125","<p> You have almost finished this part of the game! </p>
            <p> We are going to ask you to make a few more choices. </p>","","instructions","","","","","","","","","","","","","",""
"learning-instructions","256","1185886","0.0-4.0-7.0-0.1","spark_pilot_2","7505","3","22","Female","","","","","","","6830","<p> First, you need to decide whether to go up or down. When you see each picture, use the arrow keys to make your choice. </p>
            <p><b>You will not see which animal you found, but try to get to the one that will give you the most treasure.</b></p>","","instructions","","","","","","","","","","","","","",""
"revaluation","257","1186964","0.0-4.0-8.0-0.0","spark_pilot_2","7505","3","22","Female","","false","","","","","[1075]","./assets/img/ocean/test/3.jpg","[""ArrowDown""]","first stage test","ocean","0","{""ArrowUp,ArrowLeft"":23,""ArrowUp,ArrowRight"":10,""ArrowDown,ArrowLeft"":8,""ArrowDown,ArrowRight"":30}","true","ArrowDown","false","","","original","1","","","",""
"html-keyboard-response","258","1187466","0.0-4.0-8.0-1.0","spark_pilot_2","7505","3","22","Female","","","","","","","null","<div style=""font-size:60px;"">+</div>","null","fixation","","","","","","","","","","","","","",""
"revaluation","259","1188122","0.0-4.0-8.0-0.1","spark_pilot_2","7505","3","22","Female","","false","","","","","[655]","./assets/img/ocean/test/2.jpg","[""ArrowDown""]","first stage test","ocean","0","{""ArrowUp,ArrowLeft"":23,""ArrowUp,ArrowRight"":10,""ArrowDown,ArrowLeft"":8,""ArrowDown,ArrowRight"":30}","true","ArrowDown","false","","","original","1","","","",""
"html-keyboard-response","260","1188624","0.0-4.0-8.0-1.1","spark_pilot_2","7505","3","22","Female","","","","","","","null","<div style=""font-size:60px;"">+</div>","null","fixation","","","","","","","","","","","","","",""
"revaluation","261","1189369","0.0-4.0-8.0-0.2","spark_pilot_2","7505","3","22","Female","","false","","","","","[743]","./assets/img/ocean/test/1.jpg","[""ArrowDown""]","first stage test","ocean","0","{""ArrowUp,ArrowLeft"":23,""ArrowUp,ArrowRight"":10,""ArrowDown,ArrowLeft"":8,""ArrowDown,ArrowRight"":30}","true","ArrowDown","false","","","original","1","","","",""
"html-keyboard-response","262","1189872","0.0-4.0-8.0-1.2","spark_pilot_2","7505","3","22","Female","","","","","","","null","<div style=""font-size:60px;"">+</div>","null","fixation","","","","","","","","","","","","","",""
"revaluation","263","1190590","0.0-4.0-8.0-0.3","spark_pilot_2","7505","3","22","Female","","false","","","","","[716]","./assets/img/ocean/test/0.jpg","[""ArrowDown""]","first stage test","ocean","0","{""ArrowUp,ArrowLeft"":23,""ArrowUp,ArrowRight"":10,""ArrowDown,ArrowLeft"":8,""ArrowDown,ArrowRight"":30}","true","ArrowDown","false","","","original","1","","","",""
"html-keyboard-response","264","1191094","0.0-4.0-8.0-1.3","spark_pilot_2","7505","3","22","Female","","","","","","","null","<div style=""font-size:60px;"">+</div>","null","fixation","","","","","","","","","","","","","",""
"learning-instructions","265","1203907","0.0-4.0-9.0-0.0","spark_pilot_2","7505","3","22","Female","","","","","","","1469","<p> Now you will see the animals again and can search their chests for treasure. </p>
            <p> This time, you will not see how much treasure you earned, but you will earn more bonus money for making better choices. </p>","","instructions","","","","","","","","","","","","","",""
"revaluation","266","1204880","0.0-4.0-10.0-0.0","spark_pilot_2","7505","3","22","Female","","false","","","","","[970]","./assets/img/ocean/animals/octopus.jpg","[""ArrowLeft""]","second stage test","ocean","0","{""ArrowUp,ArrowLeft"":23,""ArrowUp,ArrowRight"":10,""ArrowDown,ArrowLeft"":8,""ArrowDown,ArrowRight"":30}","true","ArrowUp,ArrowLeft","","","","original","1","","","",""
"html-keyboard-response","267","1205385","0.0-4.0-10.0-1.0","spark_pilot_2","7505","3","22","Female","","","","","","","null","<div style=""font-size:60px;"">+</div>","null","fixation","","","","","","","","","","","","","",""
"revaluation","268","1205853","0.0-4.0-10.0-0.1","spark_pilot_2","7505","3","22","Female","","false","","","","","[467]","./assets/img/ocean/animals/octopus.jpg","[""ArrowLeft""]","second stage test","ocean","0","{""ArrowUp,ArrowLeft"":23,""ArrowUp,ArrowRight"":10,""ArrowDown,ArrowLeft"":8,""ArrowDown,ArrowRight"":30}","true","ArrowUp,ArrowLeft","","","","original","1","","","",""
"html-keyboard-response","269","1206356","0.0-4.0-10.0-1.1","spark_pilot_2","7505","3","22","Female","","","","","","","null","<div style=""font-size:60px;"">+</div>","null","fixation","","","","","","","","","","","","","",""
"revaluation","270","1206863","0.0-4.0-10.0-0.2","spark_pilot_2","7505","3","22","Female","","false","","","","","[505]","./assets/img/ocean/animals/octopus.jpg","[""ArrowLeft""]","second stage test","ocean","0","{""ArrowUp,ArrowLeft"":23,""ArrowUp,ArrowRight"":10,""ArrowDown,ArrowLeft"":8,""ArrowDown,ArrowRight"":30}","true","ArrowUp,ArrowLeft","","","","original","1","","","",""
"html-keyboard-response","271","1207364","0.0-4.0-10.0-1.2","spark_pilot_2","7505","3","22","Female","","","","","","","null","<div style=""font-size:60px;"">+</div>","null","fixation","","","","","","","","","","","","","",""
"revaluation","272","1207837","0.0-4.0-10.0-0.3","spark_pilot_2","7505","3","22","Female","","false","","","","","[472]","./assets/img/ocean/animals/octopus.jpg","[""ArrowLeft""]","second stage test","ocean","0","{""ArrowUp,ArrowLeft"":23,""ArrowUp,ArrowRight"":10,""ArrowDown,ArrowLeft"":8,""ArrowDown,ArrowRight"":30}","true","ArrowUp,ArrowLeft","","","","original","1","","","",""
"html-keyboard-response","273","1208339","0.0-4.0-10.0-1.3","spark_pilot_2","7505","3","22","Female","","","","","","","null","<div style=""font-size:60px;"">+</div>","null","fixation","","","","","","","","","","","","","",""
"revaluation","274","1208831","0.0-4.0-10.0-0.4","spark_pilot_2","7505","3","22","Female","","false","","","","","[488]","./assets/img/ocean/animals/seahorse.jpg","[""ArrowRight""]","second stage test","ocean","0","{""ArrowUp,ArrowLeft"":23,""ArrowUp,ArrowRight"":10,""ArrowDown,ArrowLeft"":8,""ArrowDown,ArrowRight"":30}","true","ArrowDown,ArrowRight","","","","original","1","","","",""
"html-keyboard-response","275","1209331","0.0-4.0-10.0-1.4","spark_pilot_2","7505","3","22","Female","","","","","","","null","<div style=""font-size:60px;"">+</div>","null","fixation","","","","","","","","","","","","","",""
"revaluation","276","1209778","0.0-4.0-10.0-0.5","spark_pilot_2","7505","3","22","Female","","false","","","","","[446]","./assets/img/ocean/animals/seahorse.jpg","[""ArrowRight""]","second stage test","ocean","0","{""ArrowUp,ArrowLeft"":23,""ArrowUp,ArrowRight"":10,""ArrowDown,ArrowLeft"":8,""ArrowDown,ArrowRight"":30}","true","ArrowDown,ArrowRight","","","","original","1","","","",""
"html-keyboard-response","277","1210280","0.0-4.0-10.0-1.5","spark_pilot_2","7505","3","22","Female","","","","","","","null","<div style=""font-size:60px;"">+</div>","null","fixation","","","","","","","","","","","","","",""
"revaluation","278","1210751","0.0-4.0-10.0-0.6","spark_pilot_2","7505","3","22","Female","","false","","","","","[468]","./assets/img/ocean/animals/seahorse.jpg","[""ArrowRight""]","second stage test","ocean","0","{""ArrowUp,ArrowLeft"":23,""ArrowUp,ArrowRight"":10,""ArrowDown,ArrowLeft"":8,""ArrowDown,ArrowRight"":30}","true","ArrowDown,ArrowRight","","","","original","1","","","",""
"html-keyboard-response","279","1211254","0.0-4.0-10.0-1.6","spark_pilot_2","7505","3","22","Female","","","","","","","null","<div style=""font-size:60px;"">+</div>","null","fixation","","","","","","","","","","","","","",""
"revaluation","280","1211746","0.0-4.0-10.0-0.7","spark_pilot_2","7505","3","22","Female","","false","","","","","[491]","./assets/img/ocean/animals/seahorse.jpg","[""ArrowRight""]","second stage test","ocean","0","{""ArrowUp,ArrowLeft"":23,""ArrowUp,ArrowRight"":10,""ArrowDown,ArrowLeft"":8,""ArrowDown,ArrowRight"":30}","true","ArrowDown,ArrowRight","","","","original","1","","","",""
"html-keyboard-response","281","1212249","0.0-4.0-10.0-1.7","spark_pilot_2","7505","3","22","Female","","","","","","","null","<div style=""font-size:60px;"">+</div>","null","fixation","","","","","","","","","","","","","",""
"learning-instructions","282","1217682","0.0-4.0-0.1-0.2","spark_pilot_2","7505","3","22","Female","","","","","","","2649","<p> This time you are searching for treasure in the <b>canyon</b>.</p>","","instructions","","","","","","","","","","","","","",""
"learning-instructions","283","1235812","0.0-4.0-0.1-0.3","spark_pilot_2","7505","3","22","Female","","","","","","","874","<p><b>New</b> animals with <b>new</b> treasure chests live here. You need to explore to discover where the animal with the best treasure chest is.</p>
                    <p> Like before, once you figure out which animal has the chest with the most treasure, you should try to get to that animal and select that chest! </p>","","instructions","","","","","","","","","","","","","",""
"learning-instructions","284","1267608","0.0-4.0-1.1-0.1","spark_pilot_2","7505","3","22","Female","","","","","","","17061","<p> Remember, when you see a picture of the place, use the up and down keys to <b>find an animal</b>.</p>
            <p> When you encounter an animal, you should use the left and right keys to <b>select a treasure chest</b>.</p>
            <p> Don't forget to look out for the robber! </p>","","instructions","","","","","","","","","","","","","",""
"revaluation","285","1271617","0.0-4.0-2.1-0.50","spark_pilot_2","7505","3","22","Female","","true","","","","","[]","./assets/img/canyon/memory/29.jpg","[]","value training","canyon","-5","{""ArrowUp,ArrowLeft"":26,""ArrowUp,ArrowRight"":10,""ArrowDown,ArrowLeft"":5,""ArrowDown,ArrowRight"":17}","false","","false","","","revaluation","2","0","","",""
"html-keyboard-response","286","1272117","0.0-4.0-2.1-1.50","spark_pilot_2","7505","3","22","Female","","","","","","","null","<div style=""font-size:60px;"">+</div>","null","fixation","","","","","","","","","","","1","","",""
"revaluation","287","1278125","0.0-4.0-2.1-0.51","spark_pilot_2","7505","3","22","Female","","false","","","","","[1139,446]","./assets/img/canyon/memory/9.jpg","[""ArrowDown"",""ArrowRight""]","value training","canyon","17","{""ArrowUp,ArrowLeft"":26,""ArrowUp,ArrowRight"":10,""ArrowDown,ArrowLeft"":5,""ArrowDown,ArrowRight"":17}","false","ArrowDown,ArrowRight","false","","","revaluation","2","2","","",""
"html-keyboard-response","288","1278627","0.0-4.0-2.1-1.51","spark_pilot_2","7505","3","22","Female","","","","","","","null","<div style=""font-size:60px;"">+</div>","null","fixation","","","","","","","","","","","3","","",""
"revaluation","289","1284636","0.0-4.0-2.1-0.52","spark_pilot_2","7505","3","22","Female","","false","","","","","[646,350]","./assets/img/canyon/memory/6.jpg","[""ArrowDown"",""ArrowLeft""]","value training","canyon","5","{""ArrowUp,ArrowLeft"":26,""ArrowUp,ArrowRight"":10,""ArrowDown,ArrowLeft"":5,""ArrowDown,ArrowRight"":17}","false","ArrowDown,ArrowLeft","false","","","revaluation","2","4","","",""
"html-keyboard-response","290","1285137","0.0-4.0-2.1-1.52","spark_pilot_2","7505","3","22","Female","","","","","","","null","<div style=""font-size:60px;"">+</div>","null","fixation","","","","","","","","","","","5","","",""
"revaluation","291","1291142","0.0-4.0-2.1-0.53","spark_pilot_2","7505","3","22","Female","","false","","","","","[850,663]","./assets/img/canyon/memory/28.jpg","[""ArrowUp"",""ArrowRight""]","value training","canyon","10","{""ArrowUp,ArrowLeft"":26,""ArrowUp,ArrowRight"":10,""ArrowDown,ArrowLeft"":5,""ArrowDown,ArrowRight"":17}","false","ArrowUp,ArrowRight","false","","","revaluation","2","6","","",""
"html-keyboard-response","292","1291643","0.0-4.0-2.1-1.53","spark_pilot_2","7505","3","22","Female","","","","","","","null","<div style=""font-size:60px;"">+</div>","null","fixation","","","","","","","","","","","7","","",""
"revaluation","293","1297652","0.0-4.0-2.1-0.54","spark_pilot_2","7505","3","22","Female","","false","","","","","[1049,430]","./assets/img/canyon/memory/21.jpg","[""ArrowUp"",""ArrowLeft""]","value training","canyon","26","{""ArrowUp,ArrowLeft"":26,""ArrowUp,ArrowRight"":10,""ArrowDown,ArrowLeft"":5,""ArrowDown,ArrowRight"":17}","true","ArrowUp,ArrowLeft","false","","","revaluation","2","8","","",""
"html-keyboard-response","294","1298153","0.0-4.0-2.1-1.54","spark_pilot_2","7505","3","22","Female","","","","","","","null","<div style=""font-size:60px;"">+</div>","null","fixation","","","","","","","","","","","9","","",""
"revaluation","295","1302162","0.0-4.0-2.1-0.55","spark_pilot_2","7505","3","22","Female","","false","","","","","[1370]","./assets/img/canyon/catch/5.jpg","[""spaceBar""]","value training","canyon","0","{""ArrowUp,ArrowLeft"":26,""ArrowUp,ArrowRight"":10,""ArrowDown,ArrowLeft"":5,""ArrowDown,ArrowRight"":17}","true","spaceBar","true","","","revaluation","2","10","","",""
"html-keyboard-response","296","1302662","0.0-4.0-2.1-1.55","spark_pilot_2","7505","3","22","Female","","","","","","","null","<div style=""font-size:60px;"">+</div>","null","fixation","","","","","","","","","","","11","","",""
"revaluation","297","1308671","0.0-4.0-2.1-0.56","spark_pilot_2","7505","3","22","Female","","false","","","","","[739,535]","./assets/img/canyon/memory/26.jpg","[""ArrowUp"",""ArrowLeft""]","value training","canyon","26","{""ArrowUp,ArrowLeft"":26,""ArrowUp,ArrowRight"":10,""ArrowDown,ArrowLeft"":5,""ArrowDown,ArrowRight"":17}","true","ArrowUp,ArrowLeft","false","","","revaluation","2","12","","",""
"html-keyboard-response","298","1309172","0.0-4.0-2.1-1.56","spark_pilot_2","7505","3","22","Female","","","","","","","null","<div style=""font-size:60px;"">+</div>","null","fixation","","","","","","","","","","","13","","",""
"revaluation","299","1315178","0.0-4.0-2.1-0.57","spark_pilot_2","7505","3","22","Female","","false","","","","","[517,305]","./assets/img/canyon/memory/8.jpg","[""ArrowDown"",""ArrowRight""]","value training","canyon","17","{""ArrowUp,ArrowLeft"":26,""ArrowUp,ArrowRight"":10,""ArrowDown,ArrowLeft"":5,""ArrowDown,ArrowRight"":17}","false","ArrowDown,ArrowRight","false","","","revaluation","2","14","","",""
"html-keyboard-response","300","1315679","0.0-4.0-2.1-1.57","spark_pilot_2","7505","3","22","Female","","","","","","","null","<div style=""font-size:60px;"">+</div>","null","fixation","","","","","","","","","","","15","","",""
"revaluation","301","1321687","0.0-4.0-2.1-0.58","spark_pilot_2","7505","3","22","Female","","false","","","","","[477,302]","./assets/img/canyon/memory/7.jpg","[""ArrowUp"",""ArrowLeft""]","value training","canyon","26","{""ArrowUp,ArrowLeft"":26,""ArrowUp,ArrowRight"":10,""ArrowDown,ArrowLeft"":5,""ArrowDown,ArrowRight"":17}","true","ArrowUp,ArrowLeft","false","","","revaluation","2","16","","",""
"html-keyboard-response","302","1322188","0.0-4.0-2.1-1.58","spark_pilot_2","7505","3","22","Female","","","","","","","null","<div style=""font-size:60px;"">+</div>","null","fixation","","","","","","","","","","","17","","",""
"revaluation","303","1326196","0.0-4.0-2.1-0.59","spark_pilot_2","7505","3","22","Female","","false","","","","","[1439]","./assets/img/canyon/catch/2.jpg","[""spaceBar""]","value training","canyon","0","{""ArrowUp,ArrowLeft"":26,""ArrowUp,ArrowRight"":10,""ArrowDown,ArrowLeft"":5,""ArrowDown,ArrowRight"":17}","true","spaceBar","true","","","revaluation","2","18","","",""
"html-keyboard-response","304","1326698","0.0-4.0-2.1-1.59","spark_pilot_2","7505","3","22","Female","","","","","","","null","<div style=""font-size:60px;"">+</div>","null","fixation","","","","","","","","","","","19","","",""
"revaluation","305","1332704","0.0-4.0-2.1-0.60","spark_pilot_2","7505","3","22","Female","","false","","","","","[671,337]","./assets/img/canyon/memory/10.jpg","[""ArrowUp"",""ArrowLeft""]","value training","canyon","26","{""ArrowUp,ArrowLeft"":26,""ArrowUp,ArrowRight"":10,""ArrowDown,ArrowLeft"":5,""ArrowDown,ArrowRight"":17}","true","ArrowUp,ArrowLeft","false","","","revaluation","2","20","","",""
"html-keyboard-response","306","1333205","0.0-4.0-2.1-1.60","spark_pilot_2","7505","3","22","Female","","","","","","","null","<div style=""font-size:60px;"">+</div>","null","fixation","","","","","","","","","","","21","","",""
"revaluation","307","1339216","0.0-4.0-2.1-0.61","spark_pilot_2","7505","3","22","Female","","false","","","","","[1346,432]","./assets/img/canyon/memory/19.jpg","[""ArrowUp"",""ArrowLeft""]","value training","canyon","26","{""ArrowUp,ArrowLeft"":26,""ArrowUp,ArrowRight"":10,""ArrowDown,ArrowLeft"":5,""ArrowDown,ArrowRight"":17}","true","ArrowUp,ArrowLeft","false","","","revaluation","2","22","","",""
"html-keyboard-response","308","1339717","0.0-4.0-2.1-1.61","spark_pilot_2","7505","3","22","Female","","","","","","","null","<div style=""font-size:60px;"">+</div>","null","fixation","","","","","","","","","","","23","","",""
"revaluation","309","1345725","0.0-4.0-2.1-0.62","spark_pilot_2","7505","3","22","Female","","false","","","","","[879,498]","./assets/img/canyon/memory/28.jpg","[""ArrowUp"",""ArrowLeft""]","value training","canyon","26","{""ArrowUp,ArrowLeft"":26,""ArrowUp,ArrowRight"":10,""ArrowDown,ArrowLeft"":5,""ArrowDown,ArrowRight"":17}","true","ArrowUp,ArrowLeft","false","","","revaluation","2","24","","",""
"html-keyboard-response","310","1346227","0.0-4.0-2.1-1.62","spark_pilot_2","7505","3","22","Female","","","","","","","null","<div style=""font-size:60px;"">+</div>","null","fixation","","","","","","","","","","","25","","",""
"revaluation","311","1352235","0.0-4.0-2.1-0.63","spark_pilot_2","7505","3","22","Female","","false","","","","","[1320,321]","./assets/img/canyon/memory/2.jpg","[""ArrowUp"",""ArrowLeft""]","value training","canyon","26","{""ArrowUp,ArrowLeft"":26,""ArrowUp,ArrowRight"":10,""ArrowDown,ArrowLeft"":5,""ArrowDown,ArrowRight"":17}","true","ArrowUp,ArrowLeft","false","","","revaluation","2","26","","",""
"html-keyboard-response","312","1352737","0.0-4.0-2.1-1.63","spark_pilot_2","7505","3","22","Female","","","","","","","null","<div style=""font-size:60px;"">+</div>","null","fixation","","","","","","","","","","","27","","",""
"revaluation","313","1358742","0.0-4.0-2.1-0.64","spark_pilot_2","7505","3","22","Female","","false","","","","","[1224,307]","./assets/img/canyon/memory/17.jpg","[""ArrowUp"",""ArrowLeft""]","value training","canyon","26","{""ArrowUp,ArrowLeft"":26,""ArrowUp,ArrowRight"":10,""ArrowDown,ArrowLeft"":5,""ArrowDown,ArrowRight"":17}","true","ArrowUp,ArrowLeft","false","","","revaluation","2","28","","",""
"html-keyboard-response","314","1359243","0.0-4.0-2.1-1.64","spark_pilot_2","7505","3","22","Female","","","","","","","null","<div style=""font-size:60px;"">+</div>","null","fixation","","","","","","","","","","","29","","",""
