"trial_type","trial_index","time_elapsed","internal_node_id","task_version","subject_id","assigned_condition","age","gender","browser_interaction","success","timeout","failed_images","failed_audio","failed_video","rt","stimulus","response","task_part","environment","score","rewardMap","correct","fullState","isCatch","numberMissed","duration","condition","order","trial_num","key_press","ground_truth","bonus"
"pavlovia","0","1434","0.0-0.0","spark_pilot_2","7129","2","9","Male","[{""event"":""blur"",""trial"":1,""time"":27385},{""event"":""focus"",""trial"":1,""time"":33640},{""event"":""blur"",""trial"":1,""time"":35688},{""event"":""focus"",""trial"":2,""time"":199313},{""event"":""fullscreenenter"",""trial"":2,""time"":205283}]","","","","","","","","","","","","","","","","","","","","","","",""
"preload","1","58807","0.0-1.0","spark_pilot_2","7129","2","9","Male","[{""event"":""blur"",""trial"":1,""time"":27385},{""event"":""focus"",""trial"":1,""time"":33640},{""event"":""blur"",""trial"":1,""time"":35688},{""event"":""focus"",""trial"":2,""time"":199313},{""event"":""fullscreenenter"",""trial"":2,""time"":205283}]","true","false","[]","[]","[]","","","","","","","","","","","","","","","","","",""
"fullscreen","2","206277","0.0-2.0","spark_pilot_2","7129","2","9","Male","","true","","","","","","","","","","","","","","","","","","","","","",""
"audio-button-response","3","208824","0.0-3.0-0.0-0.0","spark_pilot_2","7129","2","9","Male","","","","","","","2432","./assets/audio/audiotest/turtle.mp3","2","audio_test","","","","","","","","","","","","","",""
"learning-instructions","4","217711","0.0-3.0-1.0-0.0","spark_pilot_2","7129","2","9","Male","","","","","","","1900.9000000059605","<p> Welcome! Please remember to stay in fullscreen mode and don't click away from the experiment. </p>","","instructions","","","","","","","","","","","","","",""
"learning-instructions","5","227846","0.0-3.0-1.0-0.1","spark_pilot_2","7129","2","9","Male","","","","","","","1710.5","<p> Today you will be playing a game to earn treasure. </p>
            <p> At the end of the experiment, you will earn a bonus based on how much treasure you find. </p>
            <img src='./assets/img/instructions/treasure.jpg' class='instructions-image'>","","instructions","","","","","","","","","","","","","",""
"learning-instructions","6","237941","0.0-3.0-1.0-0.2","spark_pilot_2","7129","2","9","Male","","","","","","","1824.2999999970198","<p> Animals have hidden treasure in treasure chests. </p>
            <p> You need to first find an animal and then choose which of their treasure chests to search. </p>
            <img src='./assets/img/space/animals/cat.jpg' class='instructions-image'>","","instructions","","","","","","","","","","","","","",""
"learning-instructions","7","253270","0.0-3.0-1.0-0.3","spark_pilot_2","7129","2","9","Male","","","","","","","2155","<p> In each round, you will search for treasure in a different place. In the real game, there will be two rounds. </p>
            <p> You will begin with a separate, practice round where you will search for treasure in outer space. </p>
            <img src='./assets/img/space/0.jpg' class='instructions-image'>","","instructions","","","","","","","","","","","","","",""
"learning-instructions","8","267082","0.0-3.0-1.0-0.4","spark_pilot_2","7129","2","9","Male","","","","","","","2388.5","<p> On every turn, you will see a picture of the place that you are in, but the specific image may be different each time. </p>
            <p> For example, both of these images mean you are in outer space. </p>
            <img src='./assets/img/instructions/outerspace.jpg' class='instructions-image'>","","instructions","","","","","","","","","","","","","",""
"learning-instructions","9","277266","0.0-3.0-1.0-0.5","spark_pilot_2","7129","2","9","Male","","","","","","","2343.6000000089407","<p> You need to decide which direction to travel in. </p>
            <p> You can choose between going <b>up or down</b> by using the arrow keys. </p>
            <img src='./assets/img/instructions/updown.jpg' class='instructions-image'>","","instructions","","","","","","","","","","","","","",""
"learning-instructions","10","287926","0.0-3.0-1.0-0.6","spark_pilot_2","7129","2","9","Male","","","","","","","1824.9000000059605","<p> You will have <b>2 seconds</b> to make your choice. </p>
            <p> If you do not make a choice within 2 seconds, you will not find an animal or earn treasure. </p>
            <img src='./assets/img/instructions/2seconds.jpg' class='instructions-image'>","","instructions","","","","","","","","","","","","","",""
"learning-instructions","11","299514","0.0-3.0-1.0-0.7","spark_pilot_2","7129","2","9","Male","","","","","","","4538.5","<p> Let’s try practicing that now! </p>
            <p> When you see a picture of the place you are in, press the <b>up</b> key to travel up. </p>
            <img src='./assets/img/instructions/pressUp.jpg' class='instructions-image'>","","instructions","","","","","","","","","","","","","",""
"revaluation","12","303542","0.0-3.0-2.0-0.0","spark_pilot_2","7129","2","9","Male","","","false","","","","[1461.300000011921]","./assets/img/space/0.jpg","[""ArrowUp""]","first stage practice","space","0","null","null","ArrowUp","false","","","","","","","",""
"html-keyboard-response","13","304045","0.0-3.0-2.0-1.0","spark_pilot_2","7129","2","9","Male","","","","","","","null","<div style=""font-size:60px;"">+</div>","null","fixation","","","","","","","","","","","","","",""
"revaluation","14","308062","0.0-3.0-2.0-0.1","spark_pilot_2","7129","2","9","Male","","","true","","","","[]","./assets/img/space/1.jpg","[]","first stage practice","space","-5","null","null","","false","","","","","","","",""
"html-keyboard-response","15","308565","0.0-3.0-2.0-1.1","spark_pilot_2","7129","2","9","Male","","","","","","","null","<div style=""font-size:60px;"">+</div>","null","fixation","","","","","","","","","","","","","",""
"revaluation","16","312582","0.0-3.0-2.0-0.2","spark_pilot_2","7129","2","9","Male","","","false","","","","[523]","./assets/img/space/2.jpg","[""ArrowUp""]","first stage practice","space","0","null","null","ArrowUp","false","","","","","","","",""
"html-keyboard-response","17","313085","0.0-3.0-2.0-1.2","spark_pilot_2","7129","2","9","Male","","","","","","","null","<div style=""font-size:60px;"">+</div>","null","fixation","","","","","","","","","","","","","",""
"learning-instructions","18","320496","0.0-3.0-3.0-0.0","spark_pilot_2","7129","2","9","Male","","","","","","","2703.4000000059605","<p> Great job! Now try pressing the <b>down</b> key to travel down. </p>
            <img src='./assets/img/instructions/pressDown.jpg' class='instructions-image'>","","instructions","","","","","","","","","","","","","",""
"revaluation","19","324510","0.0-3.0-4.0-0.0","spark_pilot_2","7129","2","9","Male","","","false","","","","[1221.199999988079]","./assets/img/space/3.jpg","[""ArrowDown""]","first stage practice","space","0","null","null","ArrowDown","false","","","","","","","",""
"html-keyboard-response","20","325013","0.0-3.0-4.0-1.0","spark_pilot_2","7129","2","9","Male","","","","","","","null","<div style=""font-size:60px;"">+</div>","null","fixation","","","","","","","","","","","","","",""
"revaluation","21","329030","0.0-3.0-4.0-0.1","spark_pilot_2","7129","2","9","Male","","","false","","","","[522.9000000059605]","./assets/img/space/4.jpg","[""ArrowDown""]","first stage practice","space","0","null","null","ArrowDown","false","","","","","","","",""
"html-keyboard-response","22","329533","0.0-3.0-4.0-1.1","spark_pilot_2","7129","2","9","Male","","","","","","","null","<div style=""font-size:60px;"">+</div>","null","fixation","","","","","","","","","","","","","",""
"revaluation","23","333549","0.0-3.0-4.0-0.2","spark_pilot_2","7129","2","9","Male","","","false","","","","[592.9000000059605]","./assets/img/space/5.jpg","[""ArrowDown""]","first stage practice","space","0","null","null","ArrowDown","false","","","","","","","",""
"html-keyboard-response","24","334061","0.0-3.0-4.0-1.2","spark_pilot_2","7129","2","9","Male","","","","","","","null","<div style=""font-size:60px;"">+</div>","null","fixation","","","","","","","","","","","","","",""
"learning-instructions","25","345213","0.0-3.0-5.0-0.0","spark_pilot_2","7129","2","9","Male","","","","","","","1287.8999999910593","<p> The animals don’t move, so the animal in the upper part of a place will stay in the upper part of a place, and the animal in the lower part of a place will stay in the lower part of a place. </p>","","instructions","","","","","","","","","","","","","",""
"learning-instructions","26","356083","0.0-3.0-5.0-0.1","spark_pilot_2","7129","2","9","Male","","","","","","","1704.5","<p> Each animal has two treasure chests for you to choose from. </p>
            <p> The amount of treasure in each chest can range from <b> 0 to 40 pieces.</b></p>","","instructions","","","","","","","","","","","","","",""
"learning-instructions","27","368925","0.0-3.0-5.0-0.2","spark_pilot_2","7129","2","9","Male","","","","","","","1639.9000000059605","<p> You should decide which chest to search for treasure by using the <b>left</b> and <b>right</b> arrow keys. </p>
            <p><b> Pay attention to which animal is on the screen, as the animals have different treasure chests. </b></p>
            <img src='./assets/img/instructions/leftright.jpg' class='instructions-image'>","","instructions","","","","","","","","","","","","","",""
"learning-instructions","28","377614","0.0-3.0-5.0-0.3","spark_pilot_2","7129","2","9","Male","","","","","","","2306.9000000059605","<p> Let’s try practicing that now. </p>
            <p> When you see an animal, choose which chest to search for treasure. </p>
            <img src='./assets/img/instructions/chooseChest.jpg' class='instructions-image'>","","instructions","","","","","","","","","","","","","",""
"revaluation","29","381632","0.0-3.0-6.0-0.0","spark_pilot_2","7129","2","9","Male","","","false","","","","[1392.2999999970198]","./assets/img/space/animals/cat.jpg","[""ArrowRight""]","second stage practice","space","36","{""ArrowUp,ArrowLeft"":3,""ArrowUp,ArrowRight"":36,""ArrowDown,ArrowLeft"":15,""ArrowDown,ArrowRight"":23}","true","ArrowUp,ArrowRight","","","","","","","","",""
"html-keyboard-response","30","382141","0.0-3.0-6.0-1.0","spark_pilot_2","7129","2","9","Male","","","","","","","null","<div style=""font-size:60px;"">+</div>","null","fixation","","","","","","","","","","","","","",""
"revaluation","31","386157","0.0-3.0-6.0-0.1","spark_pilot_2","7129","2","9","Male","","","false","","","","[460]","./assets/img/space/animals/rabbit.jpg","[""ArrowLeft""]","second stage practice","space","15","{""ArrowUp,ArrowLeft"":3,""ArrowUp,ArrowRight"":36,""ArrowDown,ArrowLeft"":15,""ArrowDown,ArrowRight"":23}","false","ArrowDown,ArrowLeft","","","","","","","","",""
"html-keyboard-response","32","386661","0.0-3.0-6.0-1.1","spark_pilot_2","7129","2","9","Male","","","","","","","null","<div style=""font-size:60px;"">+</div>","null","fixation","","","","","","","","","","","","","",""
"revaluation","33","390678","0.0-3.0-6.0-0.2","spark_pilot_2","7129","2","9","Male","","","false","","","","[389.8999999910593]","./assets/img/space/animals/rabbit.jpg","[""ArrowRight""]","second stage practice","space","23","{""ArrowUp,ArrowLeft"":3,""ArrowUp,ArrowRight"":36,""ArrowDown,ArrowLeft"":15,""ArrowDown,ArrowRight"":23}","true","ArrowDown,ArrowRight","","","","","","","","",""
"html-keyboard-response","34","391181","0.0-3.0-6.0-1.2","spark_pilot_2","7129","2","9","Male","","","","","","","null","<div style=""font-size:60px;"">+</div>","null","fixation","","","","","","","","","","","","","",""
"revaluation","35","395197","0.0-3.0-6.0-0.3","spark_pilot_2","7129","2","9","Male","","","false","","","","[380.20000000298023]","./assets/img/space/animals/cat.jpg","[""ArrowRight""]","second stage practice","space","36","{""ArrowUp,ArrowLeft"":3,""ArrowUp,ArrowRight"":36,""ArrowDown,ArrowLeft"":15,""ArrowDown,ArrowRight"":23}","true","ArrowUp,ArrowRight","","","","","","","","",""
"html-keyboard-response","36","395701","0.0-3.0-6.0-1.3","spark_pilot_2","7129","2","9","Male","","","","","","","null","<div style=""font-size:60px;"">+</div>","null","fixation","","","","","","","","","","","","","",""
"learning-instructions","37","414331","0.0-3.0-7.0-0.0","spark_pilot_2","7129","2","9","Male","","","","","","","1797.9000000059605","<p> Great job. Now let’s try putting it together. </p>
            <p> On each turn, you will first see a picture to remind you of the place you are in, and you need to choose whether to go up or down. </p>
            <p> Then you will see an animal and choose which of its chests to search for treasure. </p>","","instructions","","","","","","","","","","","","","",""
"learning-instructions","38","425104","0.0-3.0-7.0-0.1","spark_pilot_2","7129","2","9","Male","","","","","","","2501.7000000029802","<p> When you choose whether to go up or down, try to go to the animal with the chest with the most treasure. </p>
            <p> Try practicing that now! </p>","","instructions","","","","","","","","","","","","","",""
"revaluation","39","431125","0.0-3.0-8.0-0.0","spark_pilot_2","7129","2","9","Male","","","false","","","","[1424.7000000029802,1721.0999999940395]","./assets/img/space/6.jpg","[""ArrowUp"",""ArrowRight""]","full practice","space","36","{""ArrowUp,ArrowLeft"":3,""ArrowUp,ArrowRight"":36,""ArrowDown,ArrowLeft"":15,""ArrowDown,ArrowRight"":23}","true","ArrowUp,ArrowRight","false","","","","","","","",""
"html-keyboard-response","40","431629","0.0-3.0-8.0-1.0","spark_pilot_2","7129","2","9","Male","","","","","","","null","<div style=""font-size:60px;"">+</div>","null","fixation","","","","","","","","","","","","","",""
"revaluation","41","437653","0.0-3.0-8.0-0.1","spark_pilot_2","7129","2","9","Male","","","false","","","","[708.2000000029802,518.2999999970198]","./assets/img/space/7.jpg","[""ArrowUp"",""ArrowRight""]","full practice","space","36","{""ArrowUp,ArrowLeft"":3,""ArrowUp,ArrowRight"":36,""ArrowDown,ArrowLeft"":15,""ArrowDown,ArrowRight"":23}","true","ArrowUp,ArrowRight","false","","","","","","","",""
"html-keyboard-response","42","438157","0.0-3.0-8.0-1.1","spark_pilot_2","7129","2","9","Male","","","","","","","null","<div style=""font-size:60px;"">+</div>","null","fixation","","","","","","","","","","","","","",""
"revaluation","43","444190","0.0-3.0-8.0-0.2","spark_pilot_2","7129","2","9","Male","","","false","","","","[1689.300000011921,771.7000000029802]","./assets/img/space/8.jpg","[""ArrowUp"",""ArrowRight""]","full practice","space","36","{""ArrowUp,ArrowLeft"":3,""ArrowUp,ArrowRight"":36,""ArrowDown,ArrowLeft"":15,""ArrowDown,ArrowRight"":23}","true","ArrowUp,ArrowRight","false","","","","","","","",""
"html-keyboard-response","44","444693","0.0-3.0-8.0-1.2","spark_pilot_2","7129","2","9","Male","","","","","","","null","<div style=""font-size:60px;"">+</div>","null","fixation","","","","","","","","","","","","","",""
"revaluation","45","448709","0.0-3.0-8.0-0.3","spark_pilot_2","7129","2","9","Male","","","true","","","","[]","./assets/img/space/9.jpg","[]","full practice","space","-5","{""ArrowUp,ArrowLeft"":3,""ArrowUp,ArrowRight"":36,""ArrowDown,ArrowLeft"":15,""ArrowDown,ArrowRight"":23}","false","","false","","","","","","","",""
"html-keyboard-response","46","449213","0.0-3.0-8.0-1.3","spark_pilot_2","7129","2","9","Male","","","","","","","null","<div style=""font-size:60px;"">+</div>","null","fixation","","","","","","","","","","","","","",""
"revaluation","47","455237","0.0-3.0-8.0-0.4","spark_pilot_2","7129","2","9","Male","","","false","","","","[1339.7999999970198,936.5]","./assets/img/space/10.jpg","[""ArrowDown"",""ArrowLeft""]","full practice","space","15","{""ArrowUp,ArrowLeft"":3,""ArrowUp,ArrowRight"":36,""ArrowDown,ArrowLeft"":15,""ArrowDown,ArrowRight"":23}","false","ArrowDown,ArrowLeft","false","","","","","","","",""
"html-keyboard-response","48","455741","0.0-3.0-8.0-1.4","spark_pilot_2","7129","2","9","Male","","","","","","","null","<div style=""font-size:60px;"">+</div>","null","fixation","","","","","","","","","","","","","",""
"learning-instructions","49","468078","0.0-3.0-9.0-0.0","spark_pilot_2","7129","2","9","Male","","","","","","","2026.5999999940395","<p> One last thing: sometimes, you will see a robber. The robber can be anywhere in the picture. </p>
            <p> If you do not stop them, you will lose treasure. </p>
            <img src='./assets/img/instructions/robber.jpg' class='instructions-image'>","","instructions","","","","","","","","","","","","","",""
"learning-instructions","50","477049","0.0-3.0-9.0-0.1","spark_pilot_2","7129","2","9","Male","","","","","","","1792.2000000029802","<p> If you see the robber, you should <b>press the space bar</b> rather than using the arrow keys. </p>
            <p> Try practicing that now! </p>","","instructions","","","","","","","","","","","","","",""
"revaluation","51","481055","0.0-3.0-10.0-0.0","spark_pilot_2","7129","2","9","Male","","","true","","","","[]","./assets/img/space/catch/0.jpg","[]","catch practice","space","-5","{""ArrowUp,ArrowLeft"":3,""ArrowUp,ArrowRight"":36,""ArrowDown,ArrowLeft"":15,""ArrowDown,ArrowRight"":23}","false","","true","","","","","","","",""
"html-keyboard-response","52","481556","0.0-3.0-10.0-1.0","spark_pilot_2","7129","2","9","Male","","","","","","","null","<div style=""font-size:60px;"">+</div>","null","fixation","","","","","","","","","","","","","",""
"revaluation","53","485571","0.0-3.0-10.0-0.1","spark_pilot_2","7129","2","9","Male","","","false","","","","[637.7999999970198]","./assets/img/space/catch/1.jpg","[""spaceBar""]","catch practice","space","0","{""ArrowUp,ArrowLeft"":3,""ArrowUp,ArrowRight"":36,""ArrowDown,ArrowLeft"":15,""ArrowDown,ArrowRight"":23}","true","spaceBar","true","","","","","","","",""
"html-keyboard-response","54","486077","0.0-3.0-10.0-1.1","spark_pilot_2","7129","2","9","Male","","","","","","","null","<div style=""font-size:60px;"">+</div>","null","fixation","","","","","","","","","","","","","",""
"revaluation","55","490093","0.0-3.0-10.0-0.2","spark_pilot_2","7129","2","9","Male","","","false","","","","[678.1000000089407]","./assets/img/space/catch/2.jpg","[""spaceBar""]","catch practice","space","0","{""ArrowUp,ArrowLeft"":3,""ArrowUp,ArrowRight"":36,""ArrowDown,ArrowLeft"":15,""ArrowDown,ArrowRight"":23}","true","spaceBar","true","","","","","","","",""
"html-keyboard-response","56","490597","0.0-3.0-10.0-1.2","spark_pilot_2","7129","2","9","Male","","","","","","","null","<div style=""font-size:60px;"">+</div>","null","fixation","","","","","","","","","","","","","",""
"learning-instructions","57","505969","0.0-3.0-11.0-0.0","spark_pilot_2","7129","2","9","Male","","","","","","","1774.2999999970198","<p> After you explore a place to find treasure, it will be time to play a different game. </p>
            <p> During this game, red dots will appear on the screen and fall down slowly. </p>
            <p><b> You must click on them before they reach the bottom. </b></p>
            <img src='./assets/img/instructions/dotGame.jpg' class='instructions-image'>","","instructions","","","","","","","","","","","","","",""
"learning-instructions","58","513557","0.0-3.0-11.0-0.1","spark_pilot_2","7129","2","9","Male","","","","","","","1905.5","<p> For every dot you click, you will earn additional treasure. </p>
            <p> Let’s try practicing that now. </p>","","instructions","","","","","","","","","","","","","",""
"revaluation","59","528568","0.0-3.0-12.0-0.0","spark_pilot_2","7129","2","9","Male","","","","","","","[83]","","","rest practice","","10","","","","","0","15000","","","","","",""
"learning-instructions","60","535860","0.0-3.0-13.0-0.0-0.0","spark_pilot_2","7129","2","9","Male","","","","","","","1926.2000000029802","<p> Now, you will practice a shortened version of the game to get a sense of how it all fits together. </p>","","instructions","","","","","","","","","","","","","",""
"learning-instructions","61","542093","0.0-3.0-13.0-0.0-0.1","spark_pilot_2","7129","2","9","Male","","","","","","","3028.2000000029802","<p>This time you are searching for treasure in outer space.</p>","","instructions","","","","","","","","","","","","","",""
"learning-instructions","62","559209","0.0-3.0-13.0-1.0-0.0","spark_pilot_2","7129","2","9","Male","","","","","","","2331.5","<p> Remember, when you see a picture of the place, use the up and down keys to <b>find an animal</b>.</p>
            <p> When you encounter an animal, you should use the left and right keys to <b>select a treasure chest</b>.</p>
            <p> Don't forget to look out for the robber! </p>","","instructions","","","","","","","","","","","","","",""
"revaluation","63","565229","0.0-3.0-13.0-2.0-0.0","spark_pilot_2","7129","2","9","Male","","","false","","","","[1331.300000011921,634.7000000029802]","./assets/img/space/11.jpg","[""ArrowUp"",""ArrowRight""]","practice block","space","36","{""ArrowUp,ArrowLeft"":3,""ArrowUp,ArrowRight"":36,""ArrowDown,ArrowLeft"":15,""ArrowDown,ArrowRight"":23}","true","ArrowUp,ArrowRight","false","","","","","","","",""
"html-keyboard-response","64","565733","0.0-3.0-13.0-2.0-1.0","spark_pilot_2","7129","2","9","Male","","","","","","","null","<div style=""font-size:60px;"">+</div>","null","fixation","","","","","","","","","","","","","",""
"revaluation","65","571757","0.0-3.0-13.0-2.0-0.1","spark_pilot_2","7129","2","9","Male","","","false","","","","[1001.8000000119209,418.5]","./assets/img/space/12.jpg","[""ArrowUp"",""ArrowRight""]","practice block","space","36","{""ArrowUp,ArrowLeft"":3,""ArrowUp,ArrowRight"":36,""ArrowDown,ArrowLeft"":15,""ArrowDown,ArrowRight"":23}","true","ArrowUp,ArrowRight","false","","","","","","","",""
"html-keyboard-response","66","572261","0.0-3.0-13.0-2.0-1.1","spark_pilot_2","7129","2","9","Male","","","","","","","null","<div style=""font-size:60px;"">+</div>","null","fixation","","","","","","","","","","","","","",""
"revaluation","67","578285","0.0-3.0-13.0-2.0-0.2","spark_pilot_2","7129","2","9","Male","","","false","","","","[1360.2000000029802,516.0999999940395]","./assets/img/space/13.jpg","[""ArrowUp"",""ArrowRight""]","practice block","space","36","{""ArrowUp,ArrowLeft"":3,""ArrowUp,ArrowRight"":36,""ArrowDown,ArrowLeft"":15,""ArrowDown,ArrowRight"":23}","true","ArrowUp,ArrowRight","false","","","","","","","",""
"html-keyboard-response","68","578789","0.0-3.0-13.0-2.0-1.2","spark_pilot_2","7129","2","9","Male","","","","","","","null","<div style=""font-size:60px;"">+</div>","null","fixation","","","","","","","","","","","","","",""
"revaluation","69","584813","0.0-3.0-13.0-2.0-0.3","spark_pilot_2","7129","2","9","Male","","","false","","","","[1041.7000000029802,67.70000000298023]","./assets/img/space/14.jpg","[""ArrowUp"",""ArrowRight""]","practice block","space","36","{""ArrowUp,ArrowLeft"":3,""ArrowUp,ArrowRight"":36,""ArrowDown,ArrowLeft"":15,""ArrowDown,ArrowRight"":23}","true","ArrowUp,ArrowRight","false","","","","","","","",""
"html-keyboard-response","70","585316","0.0-3.0-13.0-2.0-1.3","spark_pilot_2","7129","2","9","Male","","","","","","","null","<div style=""font-size:60px;"">+</div>","null","fixation","","","","","","","","","","","","","",""
"revaluation","71","591341","0.0-3.0-13.0-2.0-0.4","spark_pilot_2","7129","2","9","Male","","","false","","","","[1111.7999999970198,573.8999999910593]","./assets/img/space/11.jpg","[""ArrowUp"",""ArrowRight""]","practice block","space","36","{""ArrowUp,ArrowLeft"":3,""ArrowUp,ArrowRight"":36,""ArrowDown,ArrowLeft"":15,""ArrowDown,ArrowRight"":23}","true","ArrowUp,ArrowRight","false","","","","","","","",""
"html-keyboard-response","72","591845","0.0-3.0-13.0-2.0-1.4","spark_pilot_2","7129","2","9","Male","","","","","","","null","<div style=""font-size:60px;"">+</div>","null","fixation","","","","","","","","","","","","","",""
"revaluation","73","597869","0.0-3.0-13.0-2.0-0.5","spark_pilot_2","7129","2","9","Male","","","false","","","","[846.1000000089407,282]","./assets/img/space/12.jpg","[""ArrowUp"",""ArrowRight""]","practice block","space","36","{""ArrowUp,ArrowLeft"":3,""ArrowUp,ArrowRight"":36,""ArrowDown,ArrowLeft"":15,""ArrowDown,ArrowRight"":23}","true","ArrowUp,ArrowRight","false","","","","","","","",""
"html-keyboard-response","74","598373","0.0-3.0-13.0-2.0-1.5","spark_pilot_2","7129","2","9","Male","","","","","","","null","<div style=""font-size:60px;"">+</div>","null","fixation","","","","","","","","","","","","","",""
"revaluation","75","604398","0.0-3.0-13.0-2.0-0.6","spark_pilot_2","7129","2","9","Male","","","false","","","","[1241.2999999970198,534.5999999940395]","./assets/img/space/13.jpg","[""ArrowUp"",""ArrowRight""]","practice block","space","36","{""ArrowUp,ArrowLeft"":3,""ArrowUp,ArrowRight"":36,""ArrowDown,ArrowLeft"":15,""ArrowDown,ArrowRight"":23}","true","ArrowUp,ArrowRight","false","","","","","","","",""
"html-keyboard-response","76","604901","0.0-3.0-13.0-2.0-1.6","spark_pilot_2","7129","2","9","Male","","","","","","","null","<div style=""font-size:60px;"">+</div>","null","fixation","","","","","","","","","","","","","",""
"revaluation","77","610925","0.0-3.0-13.0-2.0-0.7","spark_pilot_2","7129","2","9","Male","","","false","","","","[867.6000000089407,1665.7000000029802]","./assets/img/space/14.jpg","[""ArrowUp"",""ArrowRight""]","practice block","space","36","{""ArrowUp,ArrowLeft"":3,""ArrowUp,ArrowRight"":36,""ArrowDown,ArrowLeft"":15,""ArrowDown,ArrowRight"":23}","true","ArrowUp,ArrowRight","false","","","","","","","",""
"html-keyboard-response","78","611428","0.0-3.0-13.0-2.0-1.7","spark_pilot_2","7129","2","9","Male","","","","","","","null","<div style=""font-size:60px;"">+</div>","null","fixation","","","","","","","","","","","","","",""
"revaluation","79","615445","0.0-3.0-13.0-2.0-0.8","spark_pilot_2","7129","2","9","Male","","","false","","","","[556.7999999970198]","./assets/img/space/catch/3.jpg","[""ArrowUp""]","practice block","space","-10","{""ArrowUp,ArrowLeft"":3,""ArrowUp,ArrowRight"":36,""ArrowDown,ArrowLeft"":15,""ArrowDown,ArrowRight"":23}","false","ArrowUp","true","","","","","","","",""
"html-keyboard-response","80","615949","0.0-3.0-13.0-2.0-1.8","spark_pilot_2","7129","2","9","Male","","","","","","","null","<div style=""font-size:60px;"">+</div>","null","fixation","","","","","","","","","","","","","",""
"learning-instructions","81","632111","0.0-3.0-13.0-3.0-0.0","spark_pilot_2","7129","2","9","Male","","","","","","","3146.9000000059605","<p> Now, you will travel with a friend who will choose whether you go up or down first. </p>
            <p> On these turns, you will just see the animal that they found. You will still get to choose which chest to search for treasure.</p>","","instructions","","","","","","","","","","","","","",""
"revaluation","82","636125","0.0-3.0-13.0-4.0-0.0","spark_pilot_2","7129","2","9","Male","","","false","","","","[1660.6000000089407]","./assets/img/space/animals/cat.jpg","[""ArrowLeft""]","practice block","space","3","{""ArrowUp,ArrowLeft"":3,""ArrowUp,ArrowRight"":36,""ArrowDown,ArrowLeft"":15,""ArrowDown,ArrowRight"":23}","false","ArrowUp,ArrowLeft","","","","","","","","",""
"html-keyboard-response","83","636629","0.0-3.0-13.0-4.0-1.0","spark_pilot_2","7129","2","9","Male","","","","","","","null","<div style=""font-size:60px;"">+</div>","null","fixation","","","","","","","","","","","","","",""
"revaluation","84","640645","0.0-3.0-13.0-4.0-0.1","spark_pilot_2","7129","2","9","Male","","","false","","","","[481.5]","./assets/img/space/animals/cat.jpg","[""ArrowRight""]","practice block","space","36","{""ArrowUp,ArrowLeft"":3,""ArrowUp,ArrowRight"":36,""ArrowDown,ArrowLeft"":15,""ArrowDown,ArrowRight"":23}","true","ArrowUp,ArrowRight","","","","","","","","",""
"html-keyboard-response","85","641149","0.0-3.0-13.0-4.0-1.1","spark_pilot_2","7129","2","9","Male","","","","","","","null","<div style=""font-size:60px;"">+</div>","null","fixation","","","","","","","","","","","","","",""
"revaluation","86","645165","0.0-3.0-13.0-4.0-0.2","spark_pilot_2","7129","2","9","Male","","","false","","","","[1058.7000000029802]","./assets/img/space/animals/rabbit.jpg","[""ArrowRight""]","practice block","space","23","{""ArrowUp,ArrowLeft"":3,""ArrowUp,ArrowRight"":36,""ArrowDown,ArrowLeft"":15,""ArrowDown,ArrowRight"":23}","true","ArrowDown,ArrowRight","","","","","","","","",""
"html-keyboard-response","87","645669","0.0-3.0-13.0-4.0-1.2","spark_pilot_2","7129","2","9","Male","","","","","","","null","<div style=""font-size:60px;"">+</div>","null","fixation","","","","","","","","","","","","","",""
"revaluation","88","649685","0.0-3.0-13.0-4.0-0.3","spark_pilot_2","7129","2","9","Male","","","false","","","","[475.70000000298023]","./assets/img/space/animals/rabbit.jpg","[""ArrowRight""]","practice block","space","23","{""ArrowUp,ArrowLeft"":3,""ArrowUp,ArrowRight"":36,""ArrowDown,ArrowLeft"":15,""ArrowDown,ArrowRight"":23}","true","ArrowDown,ArrowRight","","","","","","","","",""
"html-keyboard-response","89","650188","0.0-3.0-13.0-4.0-1.3","spark_pilot_2","7129","2","9","Male","","","","","","","null","<div style=""font-size:60px;"">+</div>","null","fixation","","","","","","","","","","","","","",""
"learning-instructions","90","661350","0.0-3.0-13.0-5.0-0.0","spark_pilot_2","7129","2","9","Male","","","","","","","3789","<p> Time to play the dot game! </p>
            <p> For 15 seconds, click the red dots on the following screen as they appear. </p>","","instructions","","","","","","","","","","","","","",""
"revaluation","91","676357","0.0-3.0-13.0-6.0-0.0","spark_pilot_2","7129","2","9","Male","","","","","","","[103]","","","rest practice","","10","","","","","0","15000","","","","","",""
"learning-instructions","92","685170","0.0-3.0-13.0-7.0-0.0","spark_pilot_2","7129","2","9","Male","","","","","","","2681.3999999910593","<p> You have almost finished this part of the game! </p>
            <p> We are going to ask you to make a few more choices. </p>","","instructions","","","","","","","","","","","","","",""
"learning-instructions","93","701140","0.0-3.0-13.0-7.0-0.1","spark_pilot_2","7129","2","9","Male","","","","","","","1935.8999999910593","<p> First, you need to decide whether to go up or down. When you see each picture, use the arrow keys to make your choice. </p>
            <p><b>You will not see which animal you found, but try to get to the one that will give you the most treasure.</b></p>","","instructions","","","","","","","","","","","","","",""
"revaluation","94","704979","0.0-3.0-13.0-8.0","spark_pilot_2","7129","2","9","Male","","","false","","","","[3836.4000000059605]","./assets/img/space/15.jpg","[""ArrowDown""]","practice block","space","0","{""ArrowUp,ArrowLeft"":3,""ArrowUp,ArrowRight"":36,""ArrowDown,ArrowLeft"":15,""ArrowDown,ArrowRight"":23}","false","ArrowDown","false","","","","","","","",""
"html-keyboard-response","95","705485","0.0-3.0-13.0-9.0","spark_pilot_2","7129","2","9","Male","","","","","","","null","<div style=""font-size:60px;"">+</div>","null","fixation","","","","","","","","","","","","","",""
"learning-instructions","96","719589","0.0-3.0-13.0-10.0-0.0","spark_pilot_2","7129","2","9","Male","","","","","","","2711","<p> Now you will see the animals again and can search their chests for treasure. </p>
            <p> This time, you will not see how much treasure you earned, but you will earn more bonus money for making better choices. </p>","","instructions","","","","","","","","","","","","","",""
"revaluation","97","720607","0.0-3.0-13.0-11.0-0.0","spark_pilot_2","7129","2","9","Male","","","false","","","","[1014.7000000029802]","./assets/img/space/animals/cat.jpg","[""ArrowRight""]","practice block","space","0","{""ArrowUp,ArrowLeft"":3,""ArrowUp,ArrowRight"":36,""ArrowDown,ArrowLeft"":15,""ArrowDown,ArrowRight"":23}","true","ArrowUp,ArrowRight","","","","","","","","",""
"html-keyboard-response","98","721109","0.0-3.0-13.0-11.0-1.0","spark_pilot_2","7129","2","9","Male","","","","","","","null","<div style=""font-size:60px;"">+</div>","null","fixation","","","","","","","","","","","","","",""
"revaluation","99","721752","0.0-3.0-13.0-11.0-0.1","spark_pilot_2","7129","2","9","Male","","","false","","","","[639.9000000059605]","./assets/img/space/animals/rabbit.jpg","[""ArrowRight""]","practice block","space","0","{""ArrowUp,ArrowLeft"":3,""ArrowUp,ArrowRight"":36,""ArrowDown,ArrowLeft"":15,""ArrowDown,ArrowRight"":23}","true","ArrowDown,ArrowRight","","","","","","","","",""
"html-keyboard-response","100","722261","0.0-3.0-13.0-11.0-1.1","spark_pilot_2","7129","2","9","Male","","","","","","","null","<div style=""font-size:60px;"">+</div>","null","fixation","","","","","","","","","","","","","",""
"learning-instructions","101","728346","0.0-3.0-14.0-0.0","spark_pilot_2","7129","2","9","Male","","","","","","","1494.4000000059605","<p> Before you start, we're going to ask you a few questions about how the game works. </p>","","instructions","","","","","","","","","","","","","",""
"comp-q","102","735412","0.0-3.0-15.0-0.0-0.0","spark_pilot_2","7129","2","9","Male","","","","","","","1463.9000000059605","<p> <b> True or False? </b> </p>
            <p> There can be 50 pieces of treasure in a given animal's chest. </p>","0","comp_question","","","","false","","","","","","","","","",""
"comp-q","103","744029","0.0-3.0-15.0-0.0-1.0","spark_pilot_2","7129","2","9","Male","","","","","","","2083.6000000089407","<p> <b>Incorrect.</b> The amount of treasure in each chest can range from 0 to 40 pieces. </p>","0","comp_answer","","","","","","","","","","","","","",""
"comp-q","104","750818","0.0-3.0-15.0-0.1-0.1","spark_pilot_2","7129","2","9","Male","","","","","","","1224.7000000029802","<p> <b> True or False? </b> </p>
            <p> There can be 50 pieces of treasure in a given animal's chest. </p>","1","comp_question","","","","true","","","","","","","","","",""
"comp-q","105","759070","0.0-3.0-15.0-0.1-1.1","spark_pilot_2","7129","2","9","Male","","","","","","","1583.5","<p> <b> That's right! </b> The amount of treasure in each chest can range from 0 to 40 pieces. </p>","0","comp_answer","","","","","","","","","","","","","",""
"comp-q","106","767432","0.0-3.0-15.0-0.2-0.2","spark_pilot_2","7129","2","9","Male","","","","","","","1239","<p> <b> True or False? </b> </p><p> In this game, all animals have the same amount of treasure in their left and right chests. </p>","1","comp_question","","","","true","","","","","","","","","",""
"comp-q","107","774629","0.0-3.0-15.0-0.2-1.2","spark_pilot_2","7129","2","9","Male","","","","","","","1953.2000000029802","<p> <b> That's right! </b> Animals have different amounts of treasure in their treasure chests. </p>","0","comp_answer","","","","","","","","","","","","","",""
"comp-q","108","783196","0.0-3.0-15.0-0.3-0.3","spark_pilot_2","7129","2","9","Male","","","","","","","2723","<p> <b> True or False? </b> </p><p> The same animal will always be there if you go up in the same place. </p>","1","comp_question","","","","false","","","","","","","","","",""
"comp-q","109","791815","0.0-3.0-15.0-0.3-1.3","spark_pilot_2","7129","2","9","Male","","","","","","","2307.2999999970198","<p> <b>Incorrect.</b> One animal lives in the upper part and one lives in the lower part of every place. </p>","0","comp_answer","","","","","","","","","","","","","",""
"comp-q","110","800951","0.0-3.0-15.0-0.4-0.4","spark_pilot_2","7129","2","9","Male","","","","","","","3314.5999999940395","<p> <b> True or False? </b> </p><p> The same animal will always be there if you go up in the same place. </p>","0","comp_question","","","","true","","","","","","","","","",""
"comp-q","111","808872","0.0-3.0-15.0-0.4-1.4","spark_pilot_2","7129","2","9","Male","","","","","","","1476","<p> <b> That's right! </b> One animal lives in the upper part and one lives in the lower part of every place. </p>","0","comp_answer","","","","","","","","","","","","","",""
"comp-q","112","816512","0.0-3.0-15.0-0.5-0.5","spark_pilot_2","7129","2","9","Male","","","","","","","2107.5","<p> <b> True or False? </b> </p><p> If you see a different picture, it means you are in a new place. </p>","0","comp_question","","","","false","","","","","","","","","",""
"comp-q","113","829149","0.0-3.0-15.0-0.5-1.5","spark_pilot_2","7129","2","9","Male","","","","","","","1539.7999999970198","<p> <b>Incorrect.</b> Lots of different images may show the same place. For example,  you may see three different images that all remind you that you are in outer space. </p>","0","comp_answer","","","","","","","","","","","","","",""
"comp-q","114","835500","0.0-3.0-15.0-0.6-0.6","spark_pilot_2","7129","2","9","Male","","","","","","","851.1000000089407","<p> <b> True or False? </b> </p><p> If you see a different picture, it means you are in a new place. </p>","1","comp_question","","","","true","","","","","","","","","",""
"comp-q","115","854325","0.0-3.0-15.0-0.6-1.6","spark_pilot_2","7129","2","9","Male","","","","","","","7494.399999991059","<p> <b> That's right! </b> Lots of different images may show the same place. For example,  you may see three different images that all remind you that you are in outer space. </p>","0","comp_answer","","","","","","","","","","","","","",""
"learning-instructions","116","866427","0.0-3.0-16.0-0.0","spark_pilot_2","7129","2","9","Male","","","","","","","2241.8999999910593","<p> Good job. Remember to do your best because the amount of treasure you earn will be converted into bonus money. </p>
            <p> It’s time to start the real game! </p>","","instructions","","","","","","","","","","","","","",""
"learning-instructions","117","871084","0.0-4.0-0.0-0.0","spark_pilot_2","7129","2","9","Male","","","","","","","1938.7000000029802","<p> This time you are searching for treasure in the <b>ocean</b>.</p>","","instructions","","","","","","","","","","","","","",""
"learning-instructions","118","890228","0.0-4.0-0.0-0.1","spark_pilot_2","7129","2","9","Male","","","","","","","1818.800000011921","<p><b>New</b> animals with <b>new</b> treasure chests live here. You need to explore to discover where the animal with the best treasure chest is.</p>
                    <p> Like before, once you figure out which animal has the chest with the most treasure, you should try to get to that animal and select that chest! </p>","","instructions","","","","","","","","","","","","","",""
"learning-instructions","119","910197","0.0-4.0-1.0-0.0","spark_pilot_2","7129","2","9","Male","","","","","","","5243.70000000298","<p> Remember, when you see a picture of the place, use the up and down keys to <b>find an animal</b>.</p>
            <p> When you encounter an animal, you should use the left and right keys to <b>select a treasure chest</b>.</p>
            <p> Don't forget to look out for the robber! </p>","","instructions","","","","","","","","","","","","","",""
"revaluation","120","916221","0.0-4.0-2.0-0.0","spark_pilot_2","7129","2","9","Male","","","false","","","","[1628.9000000059605,968.7999999970198]","./assets/img/ocean/memory/30.jpg","[""ArrowUp"",""ArrowRight""]","value training","ocean","10","{""ArrowUp,ArrowLeft"":23,""ArrowUp,ArrowRight"":10,""ArrowDown,ArrowLeft"":8,""ArrowDown,ArrowRight"":30}","false","ArrowUp,ArrowRight","false","","","revaluation","1","0","","",""
"html-keyboard-response","121","916733","0.0-4.0-2.0-1.0","spark_pilot_2","7129","2","9","Male","","","","","","","null","<div style=""font-size:60px;"">+</div>","null","fixation","","","","","","","","","","","1","","",""
"revaluation","122","922757","0.0-4.0-2.0-0.1","spark_pilot_2","7129","2","9","Male","","","false","","","","[1197.7999999970198,26]","./assets/img/ocean/memory/9.jpg","[""ArrowUp"",""ArrowRight""]","value training","ocean","10","{""ArrowUp,ArrowLeft"":23,""ArrowUp,ArrowRight"":10,""ArrowDown,ArrowLeft"":8,""ArrowDown,ArrowRight"":30}","false","ArrowUp,ArrowRight","false","","","revaluation","1","2","","",""
"html-keyboard-response","123","923261","0.0-4.0-2.0-1.1","spark_pilot_2","7129","2","9","Male","","","","","","","null","<div style=""font-size:60px;"">+</div>","null","fixation","","","","","","","","","","","3","","",""
"revaluation","124","929285","0.0-4.0-2.0-0.2","spark_pilot_2","7129","2","9","Male","","","false","","","","[1011.7999999970198,692]","./assets/img/ocean/memory/10.jpg","[""ArrowUp"",""ArrowRight""]","value training","ocean","10","{""ArrowUp,ArrowLeft"":23,""ArrowUp,ArrowRight"":10,""ArrowDown,ArrowLeft"":8,""ArrowDown,ArrowRight"":30}","false","ArrowUp,ArrowRight","false","","","revaluation","1","4","","",""
"html-keyboard-response","125","929789","0.0-4.0-2.0-1.2","spark_pilot_2","7129","2","9","Male","","","","","","","null","<div style=""font-size:60px;"">+</div>","null","fixation","","","","","","","","","","","5","","",""
"revaluation","126","935813","0.0-4.0-2.0-0.3","spark_pilot_2","7129","2","9","Male","","","false","","","","[1761.5999999940395,1268.5999999940395]","./assets/img/ocean/memory/31.jpg","[""ArrowUp"",""ArrowLeft""]","value training","ocean","23","{""ArrowUp,ArrowLeft"":23,""ArrowUp,ArrowRight"":10,""ArrowDown,ArrowLeft"":8,""ArrowDown,ArrowRight"":30}","false","ArrowUp,ArrowLeft","false","","","revaluation","1","6","","",""
"html-keyboard-response","127","936317","0.0-4.0-2.0-1.3","spark_pilot_2","7129","2","9","Male","","","","","","","null","<div style=""font-size:60px;"">+</div>","null","fixation","","","","","","","","","","","7","","",""
"revaluation","128","942341","0.0-4.0-2.0-0.4","spark_pilot_2","7129","2","9","Male","","","false","","","","[1923.4000000059605,923]","./assets/img/ocean/memory/39.jpg","[""ArrowUp"",""ArrowLeft""]","value training","ocean","23","{""ArrowUp,ArrowLeft"":23,""ArrowUp,ArrowRight"":10,""ArrowDown,ArrowLeft"":8,""ArrowDown,ArrowRight"":30}","false","ArrowUp,ArrowLeft","false","","","revaluation","1","8","","",""
"html-keyboard-response","129","942845","0.0-4.0-2.0-1.4","spark_pilot_2","7129","2","9","Male","","","","","","","null","<div style=""font-size:60px;"">+</div>","null","fixation","","","","","","","","","","","9","","",""
"revaluation","130","948869","0.0-4.0-2.0-0.5","spark_pilot_2","7129","2","9","Male","","","false","","","","[680.2999999970198,782.5]","./assets/img/ocean/memory/39.jpg","[""ArrowUp"",""ArrowLeft""]","value training","ocean","23","{""ArrowUp,ArrowLeft"":23,""ArrowUp,ArrowRight"":10,""ArrowDown,ArrowLeft"":8,""ArrowDown,ArrowRight"":30}","false","ArrowUp,ArrowLeft","false","","","revaluation","1","10","","",""
"html-keyboard-response","131","949373","0.0-4.0-2.0-1.5","spark_pilot_2","7129","2","9","Male","","","","","","","null","<div style=""font-size:60px;"">+</div>","null","fixation","","","","","","","","","","","11","","",""
"revaluation","132","955398","0.0-4.0-2.0-0.6","spark_pilot_2","7129","2","9","Male","","","true","","","","[557.5999999940395]","./assets/img/ocean/memory/41.jpg","[""ArrowUp""]","value training","ocean","-5","{""ArrowUp,ArrowLeft"":23,""ArrowUp,ArrowRight"":10,""ArrowDown,ArrowLeft"":8,""ArrowDown,ArrowRight"":30}","false","ArrowUp","false","","","revaluation","1","12","","",""
"html-keyboard-response","133","955901","0.0-4.0-2.0-1.6","spark_pilot_2","7129","2","9","Male","","","","","","","null","<div style=""font-size:60px;"">+</div>","null","fixation","","","","","","","","","","","13","","",""
"revaluation","134","961926","0.0-4.0-2.0-0.7","spark_pilot_2","7129","2","9","Male","","","false","","","","[599.5,499.70000000298023]","./assets/img/ocean/memory/32.jpg","[""ArrowUp"",""ArrowRight""]","value training","ocean","10","{""ArrowUp,ArrowLeft"":23,""ArrowUp,ArrowRight"":10,""ArrowDown,ArrowLeft"":8,""ArrowDown,ArrowRight"":30}","false","ArrowUp,ArrowRight","false","","","revaluation","1","14","","",""
"html-keyboard-response","135","962429","0.0-4.0-2.0-1.7","spark_pilot_2","7129","2","9","Male","","","","","","","null","<div style=""font-size:60px;"">+</div>","null","fixation","","","","","","","","","","","15","","",""
"revaluation","136","968453","0.0-4.0-2.0-0.8","spark_pilot_2","7129","2","9","Male","","","false","","","","[416.79999999701977,413.90000000596046]","./assets/img/ocean/memory/12.jpg","[""ArrowUp"",""ArrowRight""]","value training","ocean","10","{""ArrowUp,ArrowLeft"":23,""ArrowUp,ArrowRight"":10,""ArrowDown,ArrowLeft"":8,""ArrowDown,ArrowRight"":30}","false","ArrowUp,ArrowRight","false","","","revaluation","1","16","","",""
"html-keyboard-response","137","968957","0.0-4.0-2.0-1.8","spark_pilot_2","7129","2","9","Male","","","","","","","null","<div style=""font-size:60px;"">+</div>","null","fixation","","","","","","","","","","","17","","",""
"revaluation","138","974981","0.0-4.0-2.0-0.9","spark_pilot_2","7129","2","9","Male","","","false","","","","[501.8999999910593,410.20000000298023]","./assets/img/ocean/memory/10.jpg","[""ArrowUp"",""ArrowLeft""]","value training","ocean","23","{""ArrowUp,ArrowLeft"":23,""ArrowUp,ArrowRight"":10,""ArrowDown,ArrowLeft"":8,""ArrowDown,ArrowRight"":30}","false","ArrowUp,ArrowLeft","false","","","revaluation","1","18","","",""
"html-keyboard-response","139","975485","0.0-4.0-2.0-1.9","spark_pilot_2","7129","2","9","Male","","","","","","","null","<div style=""font-size:60px;"">+</div>","null","fixation","","","","","","","","","","","19","","",""
"revaluation","140","981510","0.0-4.0-2.0-0.10","spark_pilot_2","7129","2","9","Male","","","false","","","","[415.5,583.8999999910593]","./assets/img/ocean/memory/41.jpg","[""ArrowUp"",""ArrowLeft""]","value training","ocean","23","{""ArrowUp,ArrowLeft"":23,""ArrowUp,ArrowRight"":10,""ArrowDown,ArrowLeft"":8,""ArrowDown,ArrowRight"":30}","false","ArrowUp,ArrowLeft","false","","","revaluation","1","20","","",""
"html-keyboard-response","141","982013","0.0-4.0-2.0-1.10","spark_pilot_2","7129","2","9","Male","","","","","","","null","<div style=""font-size:60px;"">+</div>","null","fixation","","","","","","","","","","","21","","",""
"revaluation","142","988037","0.0-4.0-2.0-0.11","spark_pilot_2","7129","2","9","Male","","","false","","","","[456.8999999910593,463]","./assets/img/ocean/memory/2.jpg","[""ArrowUp"",""ArrowLeft""]","value training","ocean","23","{""ArrowUp,ArrowLeft"":23,""ArrowUp,ArrowRight"":10,""ArrowDown,ArrowLeft"":8,""ArrowDown,ArrowRight"":30}","false","ArrowUp,ArrowLeft","false","","","revaluation","1","22","","",""
"html-keyboard-response","143","988541","0.0-4.0-2.0-1.11","spark_pilot_2","7129","2","9","Male","","","","","","","null","<div style=""font-size:60px;"">+</div>","null","fixation","","","","","","","","","","","23","","",""
"revaluation","144","994566","0.0-4.0-2.0-0.12","spark_pilot_2","7129","2","9","Male","","","false","","","","[1203.5,724.7000000029802]","./assets/img/ocean/memory/38.jpg","[""ArrowUp"",""ArrowLeft""]","value training","ocean","23","{""ArrowUp,ArrowLeft"":23,""ArrowUp,ArrowRight"":10,""ArrowDown,ArrowLeft"":8,""ArrowDown,ArrowRight"":30}","false","ArrowUp,ArrowLeft","false","","","revaluation","1","24","","",""
"html-keyboard-response","145","995069","0.0-4.0-2.0-1.12","spark_pilot_2","7129","2","9","Male","","","","","","","null","<div style=""font-size:60px;"">+</div>","null","fixation","","","","","","","","","","","25","","",""
"revaluation","146","1001093","0.0-4.0-2.0-0.13","spark_pilot_2","7129","2","9","Male","","","false","","","","[1752.800000011921,729.9000000059605]","./assets/img/ocean/memory/24.jpg","[""ArrowUp"",""ArrowLeft""]","value training","ocean","23","{""ArrowUp,ArrowLeft"":23,""ArrowUp,ArrowRight"":10,""ArrowDown,ArrowLeft"":8,""ArrowDown,ArrowRight"":30}","false","ArrowUp,ArrowLeft","false","","","revaluation","1","26","","",""
"html-keyboard-response","147","1001597","0.0-4.0-2.0-1.13","spark_pilot_2","7129","2","9","Male","","","","","","","null","<div style=""font-size:60px;"">+</div>","null","fixation","","","","","","","","","","","27","","",""
"revaluation","148","1007621","0.0-4.0-2.0-0.14","spark_pilot_2","7129","2","9","Male","","","false","","","","[1445.9000000059605,55.599999994039536]","./assets/img/ocean/memory/12.jpg","[""ArrowUp"",""ArrowLeft""]","value training","ocean","23","{""ArrowUp,ArrowLeft"":23,""ArrowUp,ArrowRight"":10,""ArrowDown,ArrowLeft"":8,""ArrowDown,ArrowRight"":30}","false","ArrowUp,ArrowLeft","false","","","revaluation","1","28","","",""
"html-keyboard-response","149","1008125","0.0-4.0-2.0-1.14","spark_pilot_2","7129","2","9","Male","","","","","","","null","<div style=""font-size:60px;"">+</div>","null","fixation","","","","","","","","","","","29","","",""
"revaluation","150","1014149","0.0-4.0-2.0-0.15","spark_pilot_2","7129","2","9","Male","","","false","","","","[1202.800000011921,102.69999998807907]","./assets/img/ocean/memory/15.jpg","[""ArrowUp"",""ArrowLeft""]","value training","ocean","23","{""ArrowUp,ArrowLeft"":23,""ArrowUp,ArrowRight"":10,""ArrowDown,ArrowLeft"":8,""ArrowDown,ArrowRight"":30}","false","ArrowUp,ArrowLeft","false","","","revaluation","1","30","","",""
"html-keyboard-response","151","1014653","0.0-4.0-2.0-1.15","spark_pilot_2","7129","2","9","Male","","","","","","","null","<div style=""font-size:60px;"">+</div>","null","fixation","","","","","","","","","","","31","","",""
"revaluation","152","1020677","0.0-4.0-2.0-0.16","spark_pilot_2","7129","2","9","Male","","","false","","","","[1197.6000000089407,42.900000005960464]","./assets/img/ocean/memory/15.jpg","[""ArrowUp"",""ArrowLeft""]","value training","ocean","23","{""ArrowUp,ArrowLeft"":23,""ArrowUp,ArrowRight"":10,""ArrowDown,ArrowLeft"":8,""ArrowDown,ArrowRight"":30}","false","ArrowUp,ArrowLeft","false","","","revaluation","1","32","","",""
"html-keyboard-response","153","1021181","0.0-4.0-2.0-1.16","spark_pilot_2","7129","2","9","Male","","","","","","","null","<div style=""font-size:60px;"">+</div>","null","fixation","","","","","","","","","","","33","","",""
"revaluation","154","1025197","0.0-4.0-2.0-0.17","spark_pilot_2","7129","2","9","Male","","","false","","","","[1384]","./assets/img/ocean/catch/2.jpg","[""spaceBar""]","value training","ocean","0","{""ArrowUp,ArrowLeft"":23,""ArrowUp,ArrowRight"":10,""ArrowDown,ArrowLeft"":8,""ArrowDown,ArrowRight"":30}","true","spaceBar","true","","","revaluation","1","34","","",""
"html-keyboard-response","155","1025700","0.0-4.0-2.0-1.17","spark_pilot_2","7129","2","9","Male","","","","","","","null","<div style=""font-size:60px;"">+</div>","null","fixation","","","","","","","","","","","35","","",""
"revaluation","156","1031726","0.0-4.0-2.0-0.18","spark_pilot_2","7129","2","9","Male","","","false","","","","[1096.7000000029802,579.9000000059605]","./assets/img/ocean/memory/20.jpg","[""ArrowUp"",""ArrowRight""]","value training","ocean","10","{""ArrowUp,ArrowLeft"":23,""ArrowUp,ArrowRight"":10,""ArrowDown,ArrowLeft"":8,""ArrowDown,ArrowRight"":30}","false","ArrowUp,ArrowRight","false","","","revaluation","1","36","","",""
"html-keyboard-response","157","1032229","0.0-4.0-2.0-1.18","spark_pilot_2","7129","2","9","Male","","","","","","","null","<div style=""font-size:60px;"">+</div>","null","fixation","","","","","","","","","","","37","","",""
"revaluation","158","1038253","0.0-4.0-2.0-0.19","spark_pilot_2","7129","2","9","Male","","","false","","","","[1235.7000000029802,313.29999999701977]","./assets/img/ocean/memory/21.jpg","[""ArrowUp"",""ArrowRight""]","value training","ocean","10","{""ArrowUp,ArrowLeft"":23,""ArrowUp,ArrowRight"":10,""ArrowDown,ArrowLeft"":8,""ArrowDown,ArrowRight"":30}","false","ArrowUp,ArrowRight","false","","","revaluation","1","38","","",""
"html-keyboard-response","159","1038757","0.0-4.0-2.0-1.19","spark_pilot_2","7129","2","9","Male","","","","","","","null","<div style=""font-size:60px;"">+</div>","null","fixation","","","","","","","","","","","39","","",""
"revaluation","160","1044774","0.0-4.0-2.0-0.20","spark_pilot_2","7129","2","9","Male","","","false","","","","[1217,237.5]","./assets/img/ocean/memory/40.jpg","[""ArrowUp"",""ArrowRight""]","value training","ocean","10","{""ArrowUp,ArrowLeft"":23,""ArrowUp,ArrowRight"":10,""ArrowDown,ArrowLeft"":8,""ArrowDown,ArrowRight"":30}","false","ArrowUp,ArrowRight","false","","","revaluation","1","40","","",""
"html-keyboard-response","161","1045277","0.0-4.0-2.0-1.20","spark_pilot_2","7129","2","9","Male","","","","","","","null","<div style=""font-size:60px;"">+</div>","null","fixation","","","","","","","","","","","41","","",""
"revaluation","162","1051301","0.0-4.0-2.0-0.21","spark_pilot_2","7129","2","9","Male","","","false","","","","[587.7000000029802,1426.2999999970198]","./assets/img/ocean/memory/24.jpg","[""ArrowDown"",""ArrowRight""]","value training","ocean","30","{""ArrowUp,ArrowLeft"":23,""ArrowUp,ArrowRight"":10,""ArrowDown,ArrowLeft"":8,""ArrowDown,ArrowRight"":30}","true","ArrowDown,ArrowRight","false","","","revaluation","1","42","","",""
"html-keyboard-response","163","1051805","0.0-4.0-2.0-1.21","spark_pilot_2","7129","2","9","Male","","","","","","","null","<div style=""font-size:60px;"">+</div>","null","fixation","","","","","","","","","","","43","","",""
"revaluation","164","1057829","0.0-4.0-2.0-0.22","spark_pilot_2","7129","2","9","Male","","","false","","","","[524.8999999910593,632.2999999970198]","./assets/img/ocean/memory/21.jpg","[""ArrowDown"",""ArrowRight""]","value training","ocean","30","{""ArrowUp,ArrowLeft"":23,""ArrowUp,ArrowRight"":10,""ArrowDown,ArrowLeft"":8,""ArrowDown,ArrowRight"":30}","true","ArrowDown,ArrowRight","false","","","revaluation","1","44","","",""
"html-keyboard-response","165","1058333","0.0-4.0-2.0-1.22","spark_pilot_2","7129","2","9","Male","","","","","","","null","<div style=""font-size:60px;"">+</div>","null","fixation","","","","","","","","","","","45","","",""
"revaluation","166","1064357","0.0-4.0-2.0-0.23","spark_pilot_2","7129","2","9","Male","","","false","","","","[752.5,1172.7000000029802]","./assets/img/ocean/memory/8.jpg","[""ArrowDown"",""ArrowRight""]","value training","ocean","30","{""ArrowUp,ArrowLeft"":23,""ArrowUp,ArrowRight"":10,""ArrowDown,ArrowLeft"":8,""ArrowDown,ArrowRight"":30}","true","ArrowDown,ArrowRight","false","","","revaluation","1","46","","",""
"html-keyboard-response","167","1064861","0.0-4.0-2.0-1.23","spark_pilot_2","7129","2","9","Male","","","","","","","null","<div style=""font-size:60px;"">+</div>","null","fixation","","","","","","","","","","","47","","",""
"revaluation","168","1070885","0.0-4.0-2.0-0.24","spark_pilot_2","7129","2","9","Male","","","false","","","","[706.4000000059605,885.0999999940395]","./assets/img/ocean/memory/38.jpg","[""ArrowDown"",""ArrowRight""]","value training","ocean","30","{""ArrowUp,ArrowLeft"":23,""ArrowUp,ArrowRight"":10,""ArrowDown,ArrowLeft"":8,""ArrowDown,ArrowRight"":30}","true","ArrowDown,ArrowRight","false","","","revaluation","1","48","","",""
"html-keyboard-response","169","1071389","0.0-4.0-2.0-1.24","spark_pilot_2","7129","2","9","Male","","","","","","","null","<div style=""font-size:60px;"">+</div>","null","fixation","","","","","","","","","","","49","","",""
"revaluation","170","1077413","0.0-4.0-2.0-0.25","spark_pilot_2","7129","2","9","Male","","","false","","","","[699.7000000029802,682.1000000089407]","./assets/img/ocean/memory/40.jpg","[""ArrowDown"",""ArrowRight""]","value training","ocean","30","{""ArrowUp,ArrowLeft"":23,""ArrowUp,ArrowRight"":10,""ArrowDown,ArrowLeft"":8,""ArrowDown,ArrowRight"":30}","true","ArrowDown,ArrowRight","false","","","revaluation","1","50","","",""
"html-keyboard-response","171","1077916","0.0-4.0-2.0-1.25","spark_pilot_2","7129","2","9","Male","","","","","","","null","<div style=""font-size:60px;"">+</div>","null","fixation","","","","","","","","","","","51","","",""
"revaluation","172","1083941","0.0-4.0-2.0-0.26","spark_pilot_2","7129","2","9","Male","","","false","","","","[1248.1000000089407,653.5]","./assets/img/ocean/memory/19.jpg","[""ArrowUp"",""ArrowRight""]","value training","ocean","10","{""ArrowUp,ArrowLeft"":23,""ArrowUp,ArrowRight"":10,""ArrowDown,ArrowLeft"":8,""ArrowDown,ArrowRight"":30}","false","ArrowUp,ArrowRight","false","","","revaluation","1","52","","",""
"html-keyboard-response","173","1084445","0.0-4.0-2.0-1.26","spark_pilot_2","7129","2","9","Male","","","","","","","null","<div style=""font-size:60px;"">+</div>","null","fixation","","","","","","","","","","","53","","",""
"revaluation","174","1090469","0.0-4.0-2.0-0.27","spark_pilot_2","7129","2","9","Male","","","false","","","","[1156.4000000059605,668]","./assets/img/ocean/memory/19.jpg","[""ArrowDown"",""ArrowRight""]","value training","ocean","30","{""ArrowUp,ArrowLeft"":23,""ArrowUp,ArrowRight"":10,""ArrowDown,ArrowLeft"":8,""ArrowDown,ArrowRight"":30}","true","ArrowDown,ArrowRight","false","","","revaluation","1","54","","",""
"html-keyboard-response","175","1090973","0.0-4.0-2.0-1.27","spark_pilot_2","7129","2","9","Male","","","","","","","null","<div style=""font-size:60px;"">+</div>","null","fixation","","","","","","","","","","","55","","",""
"revaluation","176","1096997","0.0-4.0-2.0-0.28","spark_pilot_2","7129","2","9","Male","","","true","","","","[453.59999999403954]","./assets/img/ocean/memory/31.jpg","[""ArrowDown""]","value training","ocean","-5","{""ArrowUp,ArrowLeft"":23,""ArrowUp,ArrowRight"":10,""ArrowDown,ArrowLeft"":8,""ArrowDown,ArrowRight"":30}","false","ArrowDown","false","","","revaluation","1","56","","",""
"html-keyboard-response","177","1097501","0.0-4.0-2.0-1.28","spark_pilot_2","7129","2","9","Male","","","","","","","null","<div style=""font-size:60px;"">+</div>","null","fixation","","","","","","","","","","","57","","",""
"revaluation","178","1103525","0.0-4.0-2.0-0.29","spark_pilot_2","7129","2","9","Male","","","false","","","","[380.09999999403954,672]","./assets/img/ocean/memory/20.jpg","[""ArrowDown"",""ArrowRight""]","value training","ocean","30","{""ArrowUp,ArrowLeft"":23,""ArrowUp,ArrowRight"":10,""ArrowDown,ArrowLeft"":8,""ArrowDown,ArrowRight"":30}","true","ArrowDown,ArrowRight","false","","","revaluation","1","58","","",""
"html-keyboard-response","179","1104029","0.0-4.0-2.0-1.29","spark_pilot_2","7129","2","9","Male","","","","","","","null","<div style=""font-size:60px;"">+</div>","null","fixation","","","","","","","","","","","59","","",""
"revaluation","180","1110053","0.0-4.0-2.0-0.30","spark_pilot_2","7129","2","9","Male","","","false","","","","[990.1000000089407,1070.9000000059605]","./assets/img/ocean/memory/7.jpg","[""ArrowDown"",""ArrowRight""]","value training","ocean","30","{""ArrowUp,ArrowLeft"":23,""ArrowUp,ArrowRight"":10,""ArrowDown,ArrowLeft"":8,""ArrowDown,ArrowRight"":30}","true","ArrowDown,ArrowRight","false","","","revaluation","1","60","","",""
"html-keyboard-response","181","1110557","0.0-4.0-2.0-1.30","spark_pilot_2","7129","2","9","Male","","","","","","","null","<div style=""font-size:60px;"">+</div>","null","fixation","","","","","","","","","","","61","","",""
"revaluation","182","1116581","0.0-4.0-2.0-0.31","spark_pilot_2","7129","2","9","Male","","","false","","","","[861.4000000059605,526]","./assets/img/ocean/memory/16.jpg","[""ArrowDown"",""ArrowRight""]","value training","ocean","30","{""ArrowUp,ArrowLeft"":23,""ArrowUp,ArrowRight"":10,""ArrowDown,ArrowLeft"":8,""ArrowDown,ArrowRight"":30}","true","ArrowDown,ArrowRight","false","","","revaluation","1","62","","",""
"html-keyboard-response","183","1117085","0.0-4.0-2.0-1.31","spark_pilot_2","7129","2","9","Male","","","","","","","null","<div style=""font-size:60px;"">+</div>","null","fixation","","","","","","","","","","","63","","",""
"revaluation","184","1121101","0.0-4.0-2.0-0.32","spark_pilot_2","7129","2","9","Male","","","false","","","","[445.29999999701977]","./assets/img/ocean/catch/1.jpg","[""ArrowDown""]","value training","ocean","-10","{""ArrowUp,ArrowLeft"":23,""ArrowUp,ArrowRight"":10,""ArrowDown,ArrowLeft"":8,""ArrowDown,ArrowRight"":30}","false","ArrowDown","true","","","revaluation","1","64","","",""
"html-keyboard-response","185","1121604","0.0-4.0-2.0-1.32","spark_pilot_2","7129","2","9","Male","","","","","","","null","<div style=""font-size:60px;"">+</div>","null","fixation","","","","","","","","","","","65","","",""
"revaluation","186","1125621","0.0-4.0-2.0-0.33","spark_pilot_2","7129","2","9","Male","","","true","","","","[]","./assets/img/ocean/memory/9.jpg","[]","value training","ocean","-5","{""ArrowUp,ArrowLeft"":23,""ArrowUp,ArrowRight"":10,""ArrowDown,ArrowLeft"":8,""ArrowDown,ArrowRight"":30}","false","","false","","","revaluation","1","66","","",""
"html-keyboard-response","187","1126125","0.0-4.0-2.0-1.33","spark_pilot_2","7129","2","9","Male","","","","","","","null","<div style=""font-size:60px;"">+</div>","null","fixation","","","","","","","","","","","67","","",""
"revaluation","188","1130141","0.0-4.0-2.0-0.34","spark_pilot_2","7129","2","9","Male","","","true","","","","[]","./assets/img/ocean/memory/13.jpg","[]","value training","ocean","-5","{""ArrowUp,ArrowLeft"":23,""ArrowUp,ArrowRight"":10,""ArrowDown,ArrowLeft"":8,""ArrowDown,ArrowRight"":30}","false","","false","","","revaluation","1","68","","",""
"html-keyboard-response","189","1130645","0.0-4.0-2.0-1.34","spark_pilot_2","7129","2","9","Male","","","","","","","null","<div style=""font-size:60px;"">+</div>","null","fixation","","","","","","","","","","","69","","",""
"revaluation","190","1134661","0.0-4.0-2.0-0.35","spark_pilot_2","7129","2","9","Male","","","false","","","","[676.6000000089407]","./assets/img/ocean/catch/7.jpg","[""ArrowDown""]","value training","ocean","-10","{""ArrowUp,ArrowLeft"":23,""ArrowUp,ArrowRight"":10,""ArrowDown,ArrowLeft"":8,""ArrowDown,ArrowRight"":30}","false","ArrowDown","true","","","revaluation","1","70","","",""
"html-keyboard-response","191","1135164","0.0-4.0-2.0-1.35","spark_pilot_2","7129","2","9","Male","","","","","","","null","<div style=""font-size:60px;"">+</div>","null","fixation","","","","","","","","","","","71","","",""
"revaluation","192","1141189","0.0-4.0-2.0-0.36","spark_pilot_2","7129","2","9","Male","","","false","","","","[1122.9000000059605,107.40000000596046]","./assets/img/ocean/memory/8.jpg","[""ArrowUp"",""ArrowRight""]","value training","ocean","10","{""ArrowUp,ArrowLeft"":23,""ArrowUp,ArrowRight"":10,""ArrowDown,ArrowLeft"":8,""ArrowDown,ArrowRight"":30}","false","ArrowUp,ArrowRight","false","","","revaluation","1","72","","",""
"html-keyboard-response","193","1141693","0.0-4.0-2.0-1.36","spark_pilot_2","7129","2","9","Male","","","","","","","null","<div style=""font-size:60px;"">+</div>","null","fixation","","","","","","","","","","","73","","",""
"revaluation","194","1145709","0.0-4.0-2.0-0.37","spark_pilot_2","7129","2","9","Male","","","false","","","","[1145]","./assets/img/ocean/catch/6.jpg","[""spaceBar""]","value training","ocean","0","{""ArrowUp,ArrowLeft"":23,""ArrowUp,ArrowRight"":10,""ArrowDown,ArrowLeft"":8,""ArrowDown,ArrowRight"":30}","true","spaceBar","true","","","revaluation","1","74","","",""
"html-keyboard-response","195","1146213","0.0-4.0-2.0-1.37","spark_pilot_2","7129","2","9","Male","","","","","","","null","<div style=""font-size:60px;"">+</div>","null","fixation","","","","","","","","","","","75","","",""
"revaluation","196","1152229","0.0-4.0-2.0-0.38","spark_pilot_2","7129","2","9","Male","","","false","","","","[1621.5999999940395,600]","./assets/img/ocean/memory/14.jpg","[""ArrowUp"",""ArrowRight""]","value training","ocean","10","{""ArrowUp,ArrowLeft"":23,""ArrowUp,ArrowRight"":10,""ArrowDown,ArrowLeft"":8,""ArrowDown,ArrowRight"":30}","false","ArrowUp,ArrowRight","false","","","revaluation","1","76","","",""
"html-keyboard-response","197","1152733","0.0-4.0-2.0-1.38","spark_pilot_2","7129","2","9","Male","","","","","","","null","<div style=""font-size:60px;"">+</div>","null","fixation","","","","","","","","","","","77","","",""
"revaluation","198","1158757","0.0-4.0-2.0-0.39","spark_pilot_2","7129","2","9","Male","","","false","","","","[798.3999999910593,607.9000000059605]","./assets/img/ocean/memory/13.jpg","[""ArrowUp"",""ArrowRight""]","value training","ocean","10","{""ArrowUp,ArrowLeft"":23,""ArrowUp,ArrowRight"":10,""ArrowDown,ArrowLeft"":8,""ArrowDown,ArrowRight"":30}","false","ArrowUp,ArrowRight","false","","","revaluation","1","78","","",""
"html-keyboard-response","199","1159261","0.0-4.0-2.0-1.39","spark_pilot_2","7129","2","9","Male","","","","","","","null","<div style=""font-size:60px;"">+</div>","null","fixation","","","","","","","","","","","79","","",""
"revaluation","200","1165285","0.0-4.0-2.0-0.40","spark_pilot_2","7129","2","9","Male","","","false","","","","[1629.800000011921,220.1000000089407]","./assets/img/ocean/memory/2.jpg","[""ArrowDown"",""ArrowRight""]","value training","ocean","30","{""ArrowUp,ArrowLeft"":23,""ArrowUp,ArrowRight"":10,""ArrowDown,ArrowLeft"":8,""ArrowDown,ArrowRight"":30}","true","ArrowDown,ArrowRight","false","","","revaluation","1","80","","",""
"html-keyboard-response","201","1165789","0.0-4.0-2.0-1.40","spark_pilot_2","7129","2","9","Male","","","","","","","null","<div style=""font-size:60px;"">+</div>","null","fixation","","","","","","","","","","","81","","",""
"revaluation","202","1171813","0.0-4.0-2.0-0.41","spark_pilot_2","7129","2","9","Male","","","false","","","","[469,582.2999999970198]","./assets/img/ocean/memory/14.jpg","[""ArrowDown"",""ArrowRight""]","value training","ocean","30","{""ArrowUp,ArrowLeft"":23,""ArrowUp,ArrowRight"":10,""ArrowDown,ArrowLeft"":8,""ArrowDown,ArrowRight"":30}","true","ArrowDown,ArrowRight","false","","","revaluation","1","82","","",""
"html-keyboard-response","203","1172325","0.0-4.0-2.0-1.41","spark_pilot_2","7129","2","9","Male","","","","","","","null","<div style=""font-size:60px;"">+</div>","null","fixation","","","","","","","","","","","83","","",""
"revaluation","204","1178349","0.0-4.0-2.0-0.42","spark_pilot_2","7129","2","9","Male","","","false","","","","[663.7000000029802,342.79999999701977]","./assets/img/ocean/memory/16.jpg","[""ArrowDown"",""ArrowRight""]","value training","ocean","30","{""ArrowUp,ArrowLeft"":23,""ArrowUp,ArrowRight"":10,""ArrowDown,ArrowLeft"":8,""ArrowDown,ArrowRight"":30}","true","ArrowDown,ArrowRight","false","","","revaluation","1","84","","",""
"html-keyboard-response","205","1178852","0.0-4.0-2.0-1.42","spark_pilot_2","7129","2","9","Male","","","","","","","null","<div style=""font-size:60px;"">+</div>","null","fixation","","","","","","","","","","","85","","",""
"revaluation","206","1184877","0.0-4.0-2.0-0.43","spark_pilot_2","7129","2","9","Male","","","false","","","","[1263.7000000029802,521.7999999970198]","./assets/img/ocean/memory/32.jpg","[""ArrowDown"",""ArrowRight""]","value training","ocean","30","{""ArrowUp,ArrowLeft"":23,""ArrowUp,ArrowRight"":10,""ArrowDown,ArrowLeft"":8,""ArrowDown,ArrowRight"":30}","true","ArrowDown,ArrowRight","false","","","revaluation","1","86","","",""
"html-keyboard-response","207","1185381","0.0-4.0-2.0-1.43","spark_pilot_2","7129","2","9","Male","","","","","","","null","<div style=""font-size:60px;"">+</div>","null","fixation","","","","","","","","","","","87","","",""
"revaluation","208","1189397","0.0-4.0-2.0-0.44","spark_pilot_2","7129","2","9","Male","","","false","","","","[1065.9000000059605]","./assets/img/ocean/catch/3.jpg","[""spaceBar""]","value training","ocean","0","{""ArrowUp,ArrowLeft"":23,""ArrowUp,ArrowRight"":10,""ArrowDown,ArrowLeft"":8,""ArrowDown,ArrowRight"":30}","true","spaceBar","true","","","revaluation","1","88","","",""
"html-keyboard-response","209","1189901","0.0-4.0-2.0-1.44","spark_pilot_2","7129","2","9","Male","","","","","","","null","<div style=""font-size:60px;"">+</div>","null","fixation","","","","","","","","","","","89","","",""
"revaluation","210","1195925","0.0-4.0-2.0-0.45","spark_pilot_2","7129","2","9","Male","","","false","","","","[1304.699999988079,770.2000000029802]","./assets/img/ocean/memory/30.jpg","[""ArrowDown"",""ArrowRight""]","value training","ocean","30","{""ArrowUp,ArrowLeft"":23,""ArrowUp,ArrowRight"":10,""ArrowDown,ArrowLeft"":8,""ArrowDown,ArrowRight"":30}","true","ArrowDown,ArrowRight","false","","","revaluation","1","90","","",""
"html-keyboard-response","211","1196429","0.0-4.0-2.0-1.45","spark_pilot_2","7129","2","9","Male","","","","","","","null","<div style=""font-size:60px;"">+</div>","null","fixation","","","","","","","","","","","91","","",""
"revaluation","212","1200445","0.0-4.0-2.0-0.46","spark_pilot_2","7129","2","9","Male","","","false","","","","[1056.7999999970198]","./assets/img/ocean/catch/4.jpg","[""spaceBar""]","value training","ocean","0","{""ArrowUp,ArrowLeft"":23,""ArrowUp,ArrowRight"":10,""ArrowDown,ArrowLeft"":8,""ArrowDown,ArrowRight"":30}","true","spaceBar","true","","","revaluation","1","92","","",""
"html-keyboard-response","213","1200949","0.0-4.0-2.0-1.46","spark_pilot_2","7129","2","9","Male","","","","","","","null","<div style=""font-size:60px;"">+</div>","null","fixation","","","","","","","","","","","93","","",""
"revaluation","214","1206973","0.0-4.0-2.0-0.47","spark_pilot_2","7129","2","9","Male","","","false","","","","[846.4000000059605,436]","./assets/img/ocean/memory/7.jpg","[""ArrowDown"",""ArrowRight""]","value training","ocean","30","{""ArrowUp,ArrowLeft"":23,""ArrowUp,ArrowRight"":10,""ArrowDown,ArrowLeft"":8,""ArrowDown,ArrowRight"":30}","true","ArrowDown,ArrowRight","false","","","revaluation","1","94","","",""
"html-keyboard-response","215","1207476","0.0-4.0-2.0-1.47","spark_pilot_2","7129","2","9","Male","","","","","","","null","<div style=""font-size:60px;"">+</div>","null","fixation","","","","","","","","","","","95","","",""
"revaluation","216","1211493","0.0-4.0-2.0-0.48","spark_pilot_2","7129","2","9","Male","","","false","","","","[1090.2999999970198]","./assets/img/ocean/catch/5.jpg","[""spaceBar""]","value training","ocean","0","{""ArrowUp,ArrowLeft"":23,""ArrowUp,ArrowRight"":10,""ArrowDown,ArrowLeft"":8,""ArrowDown,ArrowRight"":30}","true","spaceBar","true","","","revaluation","1","96","","",""
"html-keyboard-response","217","1211996","0.0-4.0-2.0-1.48","spark_pilot_2","7129","2","9","Male","","","","","","","null","<div style=""font-size:60px;"">+</div>","null","fixation","","","","","","","","","","","97","","",""
"revaluation","218","1216013","0.0-4.0-2.0-0.49","spark_pilot_2","7129","2","9","Male","","","false","","","","[832.0999999940395]","./assets/img/ocean/catch/0.jpg","[""spaceBar""]","value training","ocean","0","{""ArrowUp,ArrowLeft"":23,""ArrowUp,ArrowRight"":10,""ArrowDown,ArrowLeft"":8,""ArrowDown,ArrowRight"":30}","true","spaceBar","true","","","revaluation","1","98","","",""
"html-keyboard-response","219","1216517","0.0-4.0-2.0-1.49","spark_pilot_2","7129","2","9","Male","","","","","","","null","<div style=""font-size:60px;"">+</div>","null","fixation","","","","","","","","","","","99","","",""
"learning-instructions","220","1231469","0.0-4.0-3.0-0.0","spark_pilot_2","7129","2","9","Male","","","","","","","1982","<p> Now, you will travel with a friend who will choose whether you go up or down first. </p>
            <p> On these turns, you will just see the animal that they found. You will still get to choose which chest to search for treasure.</p>","","instructions","","","","","","","","","","","","","",""
"revaluation","221","1235485","0.0-4.0-4.0-0.0","spark_pilot_2","7129","2","9","Male","","","false","","","","[1574.5999999940395]","./assets/img/ocean/animals/seahorse.jpg","[""ArrowRight""]","revaluation","ocean","15","{""ArrowUp,ArrowLeft"":27,""ArrowUp,ArrowRight"":15,""ArrowDown,ArrowLeft"":21,""ArrowDown,ArrowRight"":7}","false","ArrowUp,ArrowRight","","","","revaluation","1","0","","",""
"html-keyboard-response","222","1235997","0.0-4.0-4.0-1.0","spark_pilot_2","7129","2","9","Male","","","","","","","null","<div style=""font-size:60px;"">+</div>","null","fixation","","","","","","","","","","","1","","",""
"revaluation","223","1240013","0.0-4.0-4.0-0.1","spark_pilot_2","7129","2","9","Male","","","false","","","","[1081.699999988079]","./assets/img/ocean/animals/octopus.jpg","[""ArrowRight""]","revaluation","ocean","7","{""ArrowUp,ArrowLeft"":27,""ArrowUp,ArrowRight"":15,""ArrowDown,ArrowLeft"":21,""ArrowDown,ArrowRight"":7}","false","ArrowDown,ArrowRight","","","","revaluation","1","2","","",""
"html-keyboard-response","224","1240517","0.0-4.0-4.0-1.1","spark_pilot_2","7129","2","9","Male","","","","","","","null","<div style=""font-size:60px;"">+</div>","null","fixation","","","","","","","","","","","3","","",""
"revaluation","225","1244533","0.0-4.0-4.0-0.2","spark_pilot_2","7129","2","9","Male","","","false","","","","[683.5]","./assets/img/ocean/animals/seahorse.jpg","[""ArrowLeft""]","revaluation","ocean","27","{""ArrowUp,ArrowLeft"":27,""ArrowUp,ArrowRight"":15,""ArrowDown,ArrowLeft"":21,""ArrowDown,ArrowRight"":7}","true","ArrowUp,ArrowLeft","","","","revaluation","1","4","","",""
"html-keyboard-response","226","1245038","0.0-4.0-4.0-1.2","spark_pilot_2","7129","2","9","Male","","","","","","","null","<div style=""font-size:60px;"">+</div>","null","fixation","","","","","","","","","","","5","","",""
"revaluation","227","1249053","0.0-4.0-4.0-0.3","spark_pilot_2","7129","2","9","Male","","","false","","","","[733.0999999940395]","./assets/img/ocean/animals/seahorse.jpg","[""ArrowLeft""]","revaluation","ocean","27","{""ArrowUp,ArrowLeft"":27,""ArrowUp,ArrowRight"":15,""ArrowDown,ArrowLeft"":21,""ArrowDown,ArrowRight"":7}","true","ArrowUp,ArrowLeft","","","","revaluation","1","6","","",""
"html-keyboard-response","228","1249557","0.0-4.0-4.0-1.3","spark_pilot_2","7129","2","9","Male","","","","","","","null","<div style=""font-size:60px;"">+</div>","null","fixation","","","","","","","","","","","7","","",""
"revaluation","229","1253573","0.0-4.0-4.0-0.4","spark_pilot_2","7129","2","9","Male","","","false","","","","[537.5]","./assets/img/ocean/animals/seahorse.jpg","[""ArrowLeft""]","revaluation","ocean","27","{""ArrowUp,ArrowLeft"":27,""ArrowUp,ArrowRight"":15,""ArrowDown,ArrowLeft"":21,""ArrowDown,ArrowRight"":7}","true","ArrowUp,ArrowLeft","","","","revaluation","1","8","","",""
"html-keyboard-response","230","1254077","0.0-4.0-4.0-1.4","spark_pilot_2","7129","2","9","Male","","","","","","","null","<div style=""font-size:60px;"">+</div>","null","fixation","","","","","","","","","","","9","","",""
"revaluation","231","1258085","0.0-4.0-4.0-0.5","spark_pilot_2","7129","2","9","Male","","","false","","","","[99.79999999701977]","./assets/img/ocean/animals/octopus.jpg","[""ArrowLeft""]","revaluation","ocean","21","{""ArrowUp,ArrowLeft"":27,""ArrowUp,ArrowRight"":15,""ArrowDown,ArrowLeft"":21,""ArrowDown,ArrowRight"":7}","true","ArrowDown,ArrowLeft","","","","revaluation","1","10","","",""
"html-keyboard-response","232","1258589","0.0-4.0-4.0-1.5","spark_pilot_2","7129","2","9","Male","","","","","","","null","<div style=""font-size:60px;"">+</div>","null","fixation","","","","","","","","","","","11","","",""
"revaluation","233","1262605","0.0-4.0-4.0-0.6","spark_pilot_2","7129","2","9","Male","","","false","","","","[361.29999999701977]","./assets/img/ocean/animals/seahorse.jpg","[""ArrowLeft""]","revaluation","ocean","27","{""ArrowUp,ArrowLeft"":27,""ArrowUp,ArrowRight"":15,""ArrowDown,ArrowLeft"":21,""ArrowDown,ArrowRight"":7}","true","ArrowUp,ArrowLeft","","","","revaluation","1","12","","",""
"html-keyboard-response","234","1263109","0.0-4.0-4.0-1.6","spark_pilot_2","7129","2","9","Male","","","","","","","null","<div style=""font-size:60px;"">+</div>","null","fixation","","","","","","","","","","","13","","",""
"revaluation","235","1267125","0.0-4.0-4.0-0.7","spark_pilot_2","7129","2","9","Male","","","false","","","","[434.6000000089407]","./assets/img/ocean/animals/seahorse.jpg","[""ArrowLeft""]","revaluation","ocean","27","{""ArrowUp,ArrowLeft"":27,""ArrowUp,ArrowRight"":15,""ArrowDown,ArrowLeft"":21,""ArrowDown,ArrowRight"":7}","true","ArrowUp,ArrowLeft","","","","revaluation","1","14","","",""
"html-keyboard-response","236","1267629","0.0-4.0-4.0-1.7","spark_pilot_2","7129","2","9","Male","","","","","","","null","<div style=""font-size:60px;"">+</div>","null","fixation","","","","","","","","","","","15","","",""
"revaluation","237","1271645","0.0-4.0-4.0-0.8","spark_pilot_2","7129","2","9","Male","","","false","","","","[440.70000000298023]","./assets/img/ocean/animals/seahorse.jpg","[""ArrowLeft""]","revaluation","ocean","27","{""ArrowUp,ArrowLeft"":27,""ArrowUp,ArrowRight"":15,""ArrowDown,ArrowLeft"":21,""ArrowDown,ArrowRight"":7}","true","ArrowUp,ArrowLeft","","","","revaluation","1","16","","",""
"html-keyboard-response","238","1272149","0.0-4.0-4.0-1.8","spark_pilot_2","7129","2","9","Male","","","","","","","null","<div style=""font-size:60px;"">+</div>","null","fixation","","","","","","","","","","","17","","",""
"revaluation","239","1276165","0.0-4.0-4.0-0.9","spark_pilot_2","7129","2","9","Male","","","false","","","","[438.90000000596046]","./assets/img/ocean/animals/octopus.jpg","[""ArrowLeft""]","revaluation","ocean","21","{""ArrowUp,ArrowLeft"":27,""ArrowUp,ArrowRight"":15,""ArrowDown,ArrowLeft"":21,""ArrowDown,ArrowRight"":7}","true","ArrowDown,ArrowLeft","","","","revaluation","1","18","","",""
"html-keyboard-response","240","1276669","0.0-4.0-4.0-1.9","spark_pilot_2","7129","2","9","Male","","","","","","","null","<div style=""font-size:60px;"">+</div>","null","fixation","","","","","","","","","","","19","","",""
"revaluation","241","1280685","0.0-4.0-4.0-0.10","spark_pilot_2","7129","2","9","Male","","","false","","","","[508.59999999403954]","./assets/img/ocean/animals/octopus.jpg","[""ArrowLeft""]","revaluation","ocean","21","{""ArrowUp,ArrowLeft"":27,""ArrowUp,ArrowRight"":15,""ArrowDown,ArrowLeft"":21,""ArrowDown,ArrowRight"":7}","true","ArrowDown,ArrowLeft","","","","revaluation","1","20","","",""
"html-keyboard-response","242","1281189","0.0-4.0-4.0-1.10","spark_pilot_2","7129","2","9","Male","","","","","","","null","<div style=""font-size:60px;"">+</div>","null","fixation","","","","","","","","","","","21","","",""
"revaluation","243","1285205","0.0-4.0-4.0-0.11","spark_pilot_2","7129","2","9","Male","","","false","","","","[637.5]","./assets/img/ocean/animals/seahorse.jpg","[""ArrowLeft""]","revaluation","ocean","27","{""ArrowUp,ArrowLeft"":27,""ArrowUp,ArrowRight"":15,""ArrowDown,ArrowLeft"":21,""ArrowDown,ArrowRight"":7}","true","ArrowUp,ArrowLeft","","","","revaluation","1","22","","",""
"html-keyboard-response","244","1285709","0.0-4.0-4.0-1.11","spark_pilot_2","7129","2","9","Male","","","","","","","null","<div style=""font-size:60px;"">+</div>","null","fixation","","","","","","","","","","","23","","",""
"revaluation","245","1289725","0.0-4.0-4.0-0.12","spark_pilot_2","7129","2","9","Male","","","false","","","","[505.29999999701977]","./assets/img/ocean/animals/octopus.jpg","[""ArrowLeft""]","revaluation","ocean","21","{""ArrowUp,ArrowLeft"":27,""ArrowUp,ArrowRight"":15,""ArrowDown,ArrowLeft"":21,""ArrowDown,ArrowRight"":7}","true","ArrowDown,ArrowLeft","","","","revaluation","1","24","","",""
"html-keyboard-response","246","1290229","0.0-4.0-4.0-1.12","spark_pilot_2","7129","2","9","Male","","","","","","","null","<div style=""font-size:60px;"">+</div>","null","fixation","","","","","","","","","","","25","","",""
"revaluation","247","1294245","0.0-4.0-4.0-0.13","spark_pilot_2","7129","2","9","Male","","","false","","","","[322.90000000596046]","./assets/img/ocean/animals/octopus.jpg","[""ArrowLeft""]","revaluation","ocean","21","{""ArrowUp,ArrowLeft"":27,""ArrowUp,ArrowRight"":15,""ArrowDown,ArrowLeft"":21,""ArrowDown,ArrowRight"":7}","true","ArrowDown,ArrowLeft","","","","revaluation","1","26","","",""
"html-keyboard-response","248","1294749","0.0-4.0-4.0-1.13","spark_pilot_2","7129","2","9","Male","","","","","","","null","<div style=""font-size:60px;"">+</div>","null","fixation","","","","","","","","","","","27","","",""
"revaluation","249","1298765","0.0-4.0-4.0-0.14","spark_pilot_2","7129","2","9","Male","","","false","","","","[81.1000000089407]","./assets/img/ocean/animals/octopus.jpg","[""ArrowLeft""]","revaluation","ocean","21","{""ArrowUp,ArrowLeft"":27,""ArrowUp,ArrowRight"":15,""ArrowDown,ArrowLeft"":21,""ArrowDown,ArrowRight"":7}","true","ArrowDown,ArrowLeft","","","","revaluation","1","28","","",""
"html-keyboard-response","250","1299269","0.0-4.0-4.0-1.14","spark_pilot_2","7129","2","9","Male","","","","","","","null","<div style=""font-size:60px;"">+</div>","null","fixation","","","","","","","","","","","29","","",""
"revaluation","251","1303285","0.0-4.0-4.0-0.15","spark_pilot_2","7129","2","9","Male","","","false","","","","[416.40000000596046]","./assets/img/ocean/animals/seahorse.jpg","[""ArrowLeft""]","revaluation","ocean","27","{""ArrowUp,ArrowLeft"":27,""ArrowUp,ArrowRight"":15,""ArrowDown,ArrowLeft"":21,""ArrowDown,ArrowRight"":7}","true","ArrowUp,ArrowLeft","","","","revaluation","1","30","","",""
"html-keyboard-response","252","1303789","0.0-4.0-4.0-1.15","spark_pilot_2","7129","2","9","Male","","","","","","","null","<div style=""font-size:60px;"">+</div>","null","fixation","","","","","","","","","","","31","","",""
"revaluation","253","1307805","0.0-4.0-4.0-0.16","spark_pilot_2","7129","2","9","Male","","","false","","","","[389.1000000089407]","./assets/img/ocean/animals/octopus.jpg","[""ArrowLeft""]","revaluation","ocean","21","{""ArrowUp,ArrowLeft"":27,""ArrowUp,ArrowRight"":15,""ArrowDown,ArrowLeft"":21,""ArrowDown,ArrowRight"":7}","true","ArrowDown,ArrowLeft","","","","revaluation","1","32","","",""
"html-keyboard-response","254","1308308","0.0-4.0-4.0-1.16","spark_pilot_2","7129","2","9","Male","","","","","","","null","<div style=""font-size:60px;"">+</div>","null","fixation","","","","","","","","","","","33","","",""
"revaluation","255","1312325","0.0-4.0-4.0-0.17","spark_pilot_2","7129","2","9","Male","","","false","","","","[368.1000000089407]","./assets/img/ocean/animals/octopus.jpg","[""ArrowLeft""]","revaluation","ocean","21","{""ArrowUp,ArrowLeft"":27,""ArrowUp,ArrowRight"":15,""ArrowDown,ArrowLeft"":21,""ArrowDown,ArrowRight"":7}","true","ArrowDown,ArrowLeft","","","","revaluation","1","34","","",""
"html-keyboard-response","256","1312829","0.0-4.0-4.0-1.17","spark_pilot_2","7129","2","9","Male","","","","","","","null","<div style=""font-size:60px;"">+</div>","null","fixation","","","","","","","","","","","35","","",""
"learning-instructions","257","1326541","0.0-4.0-5.0-0.0","spark_pilot_2","7129","2","9","Male","","","","","","","2208.0999999940395","<p> Time to play the dot game! </p>
            <p> For one minute, click the red dots on the following screen as they appear. </p>
            <p><b> Don't look away, as you will earn bonus for clicking dots</b>. </p>","","instructions","","","","","","","","","","","","","",""
"revaluation","258","1386545","0.0-4.0-6.0-0.0","spark_pilot_2","7129","2","9","Male","","","","","","","[97,112,99,85,103,109]","","","rest","","60","","","","","0","60000","","","","","",""
"learning-instructions","259","1402611","0.0-4.0-7.0-0.0","spark_pilot_2","7129","2","9","Male","","","","","","","9881.79999999702","<p> You have almost finished this part of the game! </p>
            <p> We are going to ask you to make a few more choices. </p>","","instructions","","","","","","","","","","","","","",""
"learning-instructions","260","1422044","0.0-4.0-7.0-0.1","spark_pilot_2","7129","2","9","Male","","","","","","","5464","<p> First, you need to decide whether to go up or down. When you see each picture, use the arrow keys to make your choice. </p>
            <p><b>You will not see which animal you found, but try to get to the one that will give you the most treasure.</b></p>","","instructions","","","","","","","","","","","","","",""
"revaluation","261","1425408","0.0-4.0-8.0-0.0","spark_pilot_2","7129","2","9","Male","","","false","","","","[3360.7999999970198]","./assets/img/ocean/test/3.jpg","[""ArrowDown""]","first stage test","ocean","0","{""ArrowUp,ArrowLeft"":27,""ArrowUp,ArrowRight"":15,""ArrowDown,ArrowLeft"":21,""ArrowDown,ArrowRight"":7}","false","ArrowDown","false","","","revaluation","1","","","",""
"html-keyboard-response","262","1425917","0.0-4.0-8.0-1.0","spark_pilot_2","7129","2","9","Male","","","","","","","null","<div style=""font-size:60px;"">+</div>","null","fixation","","","","","","","","","","","","","",""
"revaluation","263","1426774","0.0-4.0-8.0-0.1","spark_pilot_2","7129","2","9","Male","","","false","","","","[852.5]","./assets/img/ocean/test/2.jpg","[""ArrowDown""]","first stage test","ocean","0","{""ArrowUp,ArrowLeft"":27,""ArrowUp,ArrowRight"":15,""ArrowDown,ArrowLeft"":21,""ArrowDown,ArrowRight"":7}","false","ArrowDown","false","","","revaluation","1","","","",""
"html-keyboard-response","264","1427277","0.0-4.0-8.0-1.1","spark_pilot_2","7129","2","9","Male","","","","","","","null","<div style=""font-size:60px;"">+</div>","null","fixation","","","","","","","","","","","","","",""
"revaluation","265","1427808","0.0-4.0-8.0-0.2","spark_pilot_2","7129","2","9","Male","","","false","","","","[524.9000000059605]","./assets/img/ocean/test/1.jpg","[""ArrowDown""]","first stage test","ocean","0","{""ArrowUp,ArrowLeft"":27,""ArrowUp,ArrowRight"":15,""ArrowDown,ArrowLeft"":21,""ArrowDown,ArrowRight"":7}","false","ArrowDown","false","","","revaluation","1","","","",""
"html-keyboard-response","266","1428317","0.0-4.0-8.0-1.2","spark_pilot_2","7129","2","9","Male","","","","","","","null","<div style=""font-size:60px;"">+</div>","null","fixation","","","","","","","","","","","","","",""
"revaluation","267","1428916","0.0-4.0-8.0-0.3","spark_pilot_2","7129","2","9","Male","","","false","","","","[596.0999999940395]","./assets/img/ocean/test/0.jpg","[""ArrowDown""]","first stage test","ocean","0","{""ArrowUp,ArrowLeft"":27,""ArrowUp,ArrowRight"":15,""ArrowDown,ArrowLeft"":21,""ArrowDown,ArrowRight"":7}","false","ArrowDown","false","","","revaluation","1","","","",""
"html-keyboard-response","268","1429421","0.0-4.0-8.0-1.3","spark_pilot_2","7129","2","9","Male","","","","","","","null","<div style=""font-size:60px;"">+</div>","null","fixation","","","","","","","","","","","","","",""
"learning-instructions","269","1443358","0.0-4.0-9.0-0.0","spark_pilot_2","7129","2","9","Male","","","","","","","2585.9000000059605","<p> Now you will see the animals again and can search their chests for treasure. </p>
            <p> This time, you will not see how much treasure you earned, but you will earn more bonus money for making better choices. </p>","","instructions","","","","","","","","","","","","","",""
"revaluation","270","1444718","0.0-4.0-10.0-0.0","spark_pilot_2","7129","2","9","Male","","","false","","","","[1357]","./assets/img/ocean/animals/seahorse.jpg","[""ArrowLeft""]","second stage test","ocean","0","{""ArrowUp,ArrowLeft"":27,""ArrowUp,ArrowRight"":15,""ArrowDown,ArrowLeft"":21,""ArrowDown,ArrowRight"":7}","true","ArrowUp,ArrowLeft","","","","revaluation","1","","","",""
"html-keyboard-response","271","1445221","0.0-4.0-10.0-1.0","spark_pilot_2","7129","2","9","Male","","","","","","","null","<div style=""font-size:60px;"">+</div>","null","fixation","","","","","","","","","","","","","",""
"revaluation","272","1446801","0.0-4.0-10.0-0.1","spark_pilot_2","7129","2","9","Male","","","false","","","","[1575.2000000029802]","./assets/img/ocean/animals/seahorse.jpg","[""ArrowRight""]","second stage test","ocean","0","{""ArrowUp,ArrowLeft"":27,""ArrowUp,ArrowRight"":15,""ArrowDown,ArrowLeft"":21,""ArrowDown,ArrowRight"":7}","false","ArrowUp,ArrowRight","","","","revaluation","1","","","",""
"html-keyboard-response","273","1447309","0.0-4.0-10.0-1.1","spark_pilot_2","7129","2","9","Male","","","","","","","null","<div style=""font-size:60px;"">+</div>","null","fixation","","","","","","","","","","","","","",""
"revaluation","274","1448028","0.0-4.0-10.0-0.2","spark_pilot_2","7129","2","9","Male","","","false","","","","[715]","./assets/img/ocean/animals/seahorse.jpg","[""ArrowLeft""]","second stage test","ocean","0","{""ArrowUp,ArrowLeft"":27,""ArrowUp,ArrowRight"":15,""ArrowDown,ArrowLeft"":21,""ArrowDown,ArrowRight"":7}","true","ArrowUp,ArrowLeft","","","","revaluation","1","","","",""
"html-keyboard-response","275","1448533","0.0-4.0-10.0-1.2","spark_pilot_2","7129","2","9","Male","","","","","","","null","<div style=""font-size:60px;"">+</div>","null","fixation","","","","","","","","","","","","","",""
"revaluation","276","1449427","0.0-4.0-10.0-0.3","spark_pilot_2","7129","2","9","Male","","","false","","","","[891]","./assets/img/ocean/animals/seahorse.jpg","[""ArrowRight""]","second stage test","ocean","0","{""ArrowUp,ArrowLeft"":27,""ArrowUp,ArrowRight"":15,""ArrowDown,ArrowLeft"":21,""ArrowDown,ArrowRight"":7}","false","ArrowUp,ArrowRight","","","","revaluation","1","","","",""
"html-keyboard-response","277","1449933","0.0-4.0-10.0-1.3","spark_pilot_2","7129","2","9","Male","","","","","","","null","<div style=""font-size:60px;"">+</div>","null","fixation","","","","","","","","","","","","","",""
"revaluation","278","1450965","0.0-4.0-10.0-0.4","spark_pilot_2","7129","2","9","Male","","","false","","","","[1028.800000011921]","./assets/img/ocean/animals/octopus.jpg","[""ArrowLeft""]","second stage test","ocean","0","{""ArrowUp,ArrowLeft"":27,""ArrowUp,ArrowRight"":15,""ArrowDown,ArrowLeft"":21,""ArrowDown,ArrowRight"":7}","true","ArrowDown,ArrowLeft","","","","revaluation","1","","","",""
"html-keyboard-response","279","1451469","0.0-4.0-10.0-1.4","spark_pilot_2","7129","2","9","Male","","","","","","","null","<div style=""font-size:60px;"">+</div>","null","fixation","","","","","","","","","","","","","",""
"revaluation","280","1452106","0.0-4.0-10.0-0.5","spark_pilot_2","7129","2","9","Male","","","false","","","","[633.2999999970198]","./assets/img/ocean/animals/octopus.jpg","[""ArrowRight""]","second stage test","ocean","0","{""ArrowUp,ArrowLeft"":27,""ArrowUp,ArrowRight"":15,""ArrowDown,ArrowLeft"":21,""ArrowDown,ArrowRight"":7}","false","ArrowDown,ArrowRight","","","","revaluation","1","","","",""
"html-keyboard-response","281","1452613","0.0-4.0-10.0-1.5","spark_pilot_2","7129","2","9","Male","","","","","","","null","<div style=""font-size:60px;"">+</div>","null","fixation","","","","","","","","","","","","","",""
"revaluation","282","1453073","0.0-4.0-10.0-0.6","spark_pilot_2","7129","2","9","Male","","","false","","","","[454.6000000089407]","./assets/img/ocean/animals/octopus.jpg","[""ArrowLeft""]","second stage test","ocean","0","{""ArrowUp,ArrowLeft"":27,""ArrowUp,ArrowRight"":15,""ArrowDown,ArrowLeft"":21,""ArrowDown,ArrowRight"":7}","true","ArrowDown,ArrowLeft","","","","revaluation","1","","","",""
"html-keyboard-response","283","1453581","0.0-4.0-10.0-1.6","spark_pilot_2","7129","2","9","Male","","","","","","","null","<div style=""font-size:60px;"">+</div>","null","fixation","","","","","","","","","","","","","",""
"revaluation","284","1453701","0.0-4.0-10.0-0.7","spark_pilot_2","7129","2","9","Male","","","false","","","","[117.1000000089407]","./assets/img/ocean/animals/octopus.jpg","[""ArrowRight""]","second stage test","ocean","0","{""ArrowUp,ArrowLeft"":27,""ArrowUp,ArrowRight"":15,""ArrowDown,ArrowLeft"":21,""ArrowDown,ArrowRight"":7}","false","ArrowDown,ArrowRight","","","","revaluation","1","","","",""
"html-keyboard-response","285","1454205","0.0-4.0-10.0-1.7","spark_pilot_2","7129","2","9","Male","","","","","","","null","<div style=""font-size:60px;"">+</div>","null","fixation","","","","","","","","","","","","","",""
"learning-instructions","286","1462160","0.0-4.0-0.1-0.2","spark_pilot_2","7129","2","9","Male","","","","","","","5184.9000000059605","<p> This time you are searching for treasure in the <b>canyon</b>.</p>","","instructions","","","","","","","","","","","","","",""
"learning-instructions","287","1480610","0.0-4.0-0.1-0.3","spark_pilot_2","7129","2","9","Male","","","","","","","1192","<p><b>New</b> animals with <b>new</b> treasure chests live here. You need to explore to discover where the animal with the best treasure chest is.</p>
                    <p> Like before, once you figure out which animal has the chest with the most treasure, you should try to get to that animal and select that chest! </p>","","instructions","","","","","","","","","","","","","",""
"learning-instructions","288","1496004","0.0-4.0-1.1-0.1","spark_pilot_2","7129","2","9","Male","","","","","","","660.9000000059605","<p> Remember, when you see a picture of the place, use the up and down keys to <b>find an animal</b>.</p>
            <p> When you encounter an animal, you should use the left and right keys to <b>select a treasure chest</b>.</p>
            <p> Don't forget to look out for the robber! </p>","","instructions","","","","","","","","","","","","","",""
"revaluation","289","1500021","0.0-4.0-2.1-0.50","spark_pilot_2","7129","2","9","Male","","","true","","","","[]","./assets/img/canyon/catch/4.jpg","[]","value training","canyon","-5","{""ArrowUp,ArrowLeft"":26,""ArrowUp,ArrowRight"":10,""ArrowDown,ArrowLeft"":5,""ArrowDown,ArrowRight"":17}","false","","true","","","original","2","0","","",""
"html-keyboard-response","290","1500525","0.0-4.0-2.1-1.50","spark_pilot_2","7129","2","9","Male","","","","","","","null","<div style=""font-size:60px;"">+</div>","null","fixation","","","","","","","","","","","1","","",""
"revaluation","291","1506549","0.0-4.0-2.1-0.51","spark_pilot_2","7129","2","9","Male","","","false","","","","[495.70000000298023,1827.2999999970198]","./assets/img/canyon/memory/39.jpg","[""ArrowUp"",""ArrowRight""]","value training","canyon","10","{""ArrowUp,ArrowLeft"":26,""ArrowUp,ArrowRight"":10,""ArrowDown,ArrowLeft"":5,""ArrowDown,ArrowRight"":17}","false","ArrowUp,ArrowRight","false","","","original","2","2","","",""
"html-keyboard-response","292","1507053","0.0-4.0-2.1-1.51","spark_pilot_2","7129","2","9","Male","","","","","","","null","<div style=""font-size:60px;"">+</div>","null","fixation","","","","","","","","","","","3","","",""
"revaluation","293","1511069","0.0-4.0-2.1-0.52","spark_pilot_2","7129","2","9","Male","","","true","","","","[]","./assets/img/canyon/memory/12.jpg","[]","value training","canyon","-5","{""ArrowUp,ArrowLeft"":26,""ArrowUp,ArrowRight"":10,""ArrowDown,ArrowLeft"":5,""ArrowDown,ArrowRight"":17}","false","","false","","","original","2","4","","",""
"html-keyboard-response","294","1511573","0.0-4.0-2.1-1.52","spark_pilot_2","7129","2","9","Male","","","","","","","null","<div style=""font-size:60px;"">+</div>","null","fixation","","","","","","","","","","","5","","",""
"revaluation","295","1517597","0.0-4.0-2.1-0.53","spark_pilot_2","7129","2","9","Male","","","false","","","","[1719.2000000029802,1112.800000011921]","./assets/img/canyon/memory/24.jpg","[""ArrowDown"",""ArrowLeft""]","value training","canyon","5","{""ArrowUp,ArrowLeft"":26,""ArrowUp,ArrowRight"":10,""ArrowDown,ArrowLeft"":5,""ArrowDown,ArrowRight"":17}","false","ArrowDown,ArrowLeft","false","","","original","2","6","","",""
"html-keyboard-response","296","1518101","0.0-4.0-2.1-1.53","spark_pilot_2","7129","2","9","Male","","","","","","","null","<div style=""font-size:60px;"">+</div>","null","fixation","","","","","","","","","","","7","","",""
"revaluation","297","1524125","0.0-4.0-2.1-0.54","spark_pilot_2","7129","2","9","Male","","","false","","","","[1227.2000000029802,1563.0999999940395]","./assets/img/canyon/memory/10.jpg","[""ArrowDown"",""ArrowLeft""]","value training","canyon","5","{""ArrowUp,ArrowLeft"":26,""ArrowUp,ArrowRight"":10,""ArrowDown,ArrowLeft"":5,""ArrowDown,ArrowRight"":17}","false","ArrowDown,ArrowLeft","false","","","original","2","8","","",""
"html-keyboard-response","298","1524629","0.0-4.0-2.1-1.54","spark_pilot_2","7129","2","9","Male","","","","","","","null","<div style=""font-size:60px;"">+</div>","null","fixation","","","","","","","","","","","9","","",""
"revaluation","299","1530653","0.0-4.0-2.1-0.55","spark_pilot_2","7129","2","9","Male","","","false","","","","[1026.5,400.29999999701977]","./assets/img/canyon/memory/40.jpg","[""ArrowDown"",""ArrowRight""]","value training","canyon","17","{""ArrowUp,ArrowLeft"":26,""ArrowUp,ArrowRight"":10,""ArrowDown,ArrowLeft"":5,""ArrowDown,ArrowRight"":17}","false","ArrowDown,ArrowRight","false","","","original","2","10","","",""
"html-keyboard-response","300","1531157","0.0-4.0-2.1-1.55","spark_pilot_2","7129","2","9","Male","","","","","","","null","<div style=""font-size:60px;"">+</div>","null","fixation","","","","","","","","","","","11","","",""
"revaluation","301","1537181","0.0-4.0-2.1-0.56","spark_pilot_2","7129","2","9","Male","","","false","","","","[815.5,898.2999999970198]","./assets/img/canyon/memory/14.jpg","[""ArrowDown"",""ArrowRight""]","value training","canyon","17","{""ArrowUp,ArrowLeft"":26,""ArrowUp,ArrowRight"":10,""ArrowDown,ArrowLeft"":5,""ArrowDown,ArrowRight"":17}","false","ArrowDown,ArrowRight","false","","","original","2","12","","",""
"html-keyboard-response","302","1537693","0.0-4.0-2.1-1.56","spark_pilot_2","7129","2","9","Male","","","","","","","null","<div style=""font-size:60px;"">+</div>","null","fixation","","","","","","","","","","","13","","",""
"revaluation","303","1543717","0.0-4.0-2.1-0.57","spark_pilot_2","7129","2","9","Male","","","false","","","","[693.2999999970198,427.20000000298023]","./assets/img/canyon/memory/9.jpg","[""ArrowDown"",""ArrowRight""]","value training","canyon","17","{""ArrowUp,ArrowLeft"":26,""ArrowUp,ArrowRight"":10,""ArrowDown,ArrowLeft"":5,""ArrowDown,ArrowRight"":17}","false","ArrowDown,ArrowRight","false","","","original","2","14","","",""
"html-keyboard-response","304","1544221","0.0-4.0-2.1-1.57","spark_pilot_2","7129","2","9","Male","","","","","","","null","<div style=""font-size:60px;"">+</div>","null","fixation","","","","","","","","","","","15","","",""
"revaluation","305","1550245","0.0-4.0-2.1-0.58","spark_pilot_2","7129","2","9","Male","","","false","","","","[1285.0999999940395,1061.2999999970198]","./assets/img/canyon/memory/7.jpg","[""ArrowUp"",""ArrowRight""]","value training","canyon","10","{""ArrowUp,ArrowLeft"":26,""ArrowUp,ArrowRight"":10,""ArrowDown,ArrowLeft"":5,""ArrowDown,ArrowRight"":17}","false","ArrowUp,ArrowRight","false","","","original","2","16","","",""
"html-keyboard-response","306","1550749","0.0-4.0-2.1-1.58","spark_pilot_2","7129","2","9","Male","","","","","","","null","<div style=""font-size:60px;"">+</div>","null","fixation","","","","","","","","","","","17","","",""
"revaluation","307","1556773","0.0-4.0-2.1-0.59","spark_pilot_2","7129","2","9","Male","","","false","","","","[1289.2000000029802,712.2000000029802]","./assets/img/canyon/memory/13.jpg","[""ArrowDown"",""ArrowRight""]","value training","canyon","17","{""ArrowUp,ArrowLeft"":26,""ArrowUp,ArrowRight"":10,""ArrowDown,ArrowLeft"":5,""ArrowDown,ArrowRight"":17}","false","ArrowDown,ArrowRight","false","","","original","2","18","","",""
"html-keyboard-response","308","1557277","0.0-4.0-2.1-1.59","spark_pilot_2","7129","2","9","Male","","","","","","","null","<div style=""font-size:60px;"">+</div>","null","fixation","","","","","","","","","","","19","","",""
