"trial_type","trial_index","time_elapsed","internal_node_id","task_version","subject_id","assigned_condition","age","gender","success","timeout","failed_images","failed_audio","failed_video","browser_interaction","rt","stimulus","response","task_part","environment","score","rewardMap","correct","fullState","isCatch","numberMissed","duration","condition","order","trial_num","key_press","ground_truth","bonus"
"pavlovia","0","1011","0.0-0.0","spark_pilot_2","7433","5","18","Female","","","","","","","","","","","","","","","","","","","","","","","",""
"preload","1","20645","0.0-1.0","spark_pilot_2","7433","5","18","Female","true","false","[]","[]","[]","[{""event"":""fullscreenenter"",""trial"":2,""time"":39273}]","","","","","","","","","","","","","","","","","",""
"fullscreen","2","40264","0.0-2.0","spark_pilot_2","7433","5","18","Female","true","","","","","","","","","","","","","","","","","","","","","","",""
"audio-button-response","3","42709","0.0-3.0-0.0-0.0","spark_pilot_2","7433","5","18","Female","","","","","","","2352","./assets/audio/audiotest/turtle.mp3","2","audio_test","","","","","","","","","","","","","",""
"learning-instructions","4","51030","0.0-3.0-1.0-0.0","spark_pilot_2","7433","5","18","Female","","","","","","","1342.2000000476837","<p> Welcome! Please remember to stay in fullscreen mode and don't click away from the experiment. </p>","","instructions","","","","","","","","","","","","","",""
"learning-instructions","5","60571","0.0-3.0-1.0-0.1","spark_pilot_2","7433","5","18","Female","","","","","","","1133.5","<p> Today you will be playing a game to earn treasure. </p>
            <p> At the end of the experiment, you will earn a bonus based on how much treasure you find. </p>
            <img src='./assets/img/instructions/treasure.jpg' class='instructions-image'>","","instructions","","","","","","","","","","","","","",""
"learning-instructions","6","69730","0.0-3.0-1.0-0.2","spark_pilot_2","7433","5","18","Female","","","","","","","901","<p> Animals have hidden treasure in treasure chests. </p>
            <p> You need to first find an animal and then choose which of their treasure chests to search. </p>
            <img src='./assets/img/space/animals/cat.jpg' class='instructions-image'>","","instructions","","","","","","","","","","","","","",""
"learning-instructions","7","83723","0.0-3.0-1.0-0.3","spark_pilot_2","7433","5","18","Female","","","","","","","846.3000001907349","<p> In each round, you will search for treasure in a different place. In the real game, there will be two rounds. </p>
            <p> You will begin with a separate, practice round where you will search for treasure in outer space. </p>
            <img src='./assets/img/space/0.jpg' class='instructions-image'>","","instructions","","","","","","","","","","","","","",""
"learning-instructions","8","96152","0.0-3.0-1.0-0.4","spark_pilot_2","7433","5","18","Female","","","","","","","1013.5","<p> On every turn, you will see a picture of the place that you are in, but the specific image may be different each time. </p>
            <p> For example, both of these images mean you are in outer space. </p>
            <img src='./assets/img/instructions/outerspace.jpg' class='instructions-image'>","","instructions","","","","","","","","","","","","","",""
"learning-instructions","9","105049","0.0-3.0-1.0-0.5","spark_pilot_2","7433","5","18","Female","","","","","","","1073.7000000476837","<p> You need to decide which direction to travel in. </p>
            <p> You can choose between going <b>up or down</b> by using the arrow keys. </p>
            <img src='./assets/img/instructions/updown.jpg' class='instructions-image'>","","instructions","","","","","","","","","","","","","",""
"learning-instructions","10","115161","0.0-3.0-1.0-0.6","spark_pilot_2","7433","5","18","Female","","","","","","","1303.0999999046326","<p> You will have <b>2 seconds</b> to make your choice. </p>
            <p> If you do not make a choice within 2 seconds, you will not find an animal or earn treasure. </p>
            <img src='./assets/img/instructions/2seconds.jpg' class='instructions-image'>","","instructions","","","","","","","","","","","","","",""
"learning-instructions","11","123473","0.0-3.0-1.0-0.7","spark_pilot_2","7433","5","18","Female","","","","","","","1275","<p> Let’s try practicing that now! </p>
            <p> When you see a picture of the place you are in, press the <b>up</b> key to travel up. </p>
            <img src='./assets/img/instructions/pressUp.jpg' class='instructions-image'>","","instructions","","","","","","","","","","","","","",""
"revaluation","12","127500","0.0-3.0-2.0-0.0","spark_pilot_2","7433","5","18","Female","","false","","","","","[869.1000001430511]","./assets/img/space/0.jpg","[""ArrowUp""]","first stage practice","space","0","null","null","ArrowUp","false","","","","","","","",""
"html-keyboard-response","13","128010","0.0-3.0-2.0-1.0","spark_pilot_2","7433","5","18","Female","","","","","","","null","<div style=""font-size:60px;"">+</div>","null","fixation","","","","","","","","","","","","","",""
"revaluation","14","132030","0.0-3.0-2.0-0.1","spark_pilot_2","7433","5","18","Female","","false","","","","","[1406.1999998092651]","./assets/img/space/1.jpg","[""ArrowUp""]","first stage practice","space","0","null","null","ArrowUp","false","","","","","","","",""
"html-keyboard-response","15","132534","0.0-3.0-2.0-1.1","spark_pilot_2","7433","5","18","Female","","","","","","","null","<div style=""font-size:60px;"">+</div>","null","fixation","","","","","","","","","","","","","",""
"revaluation","16","136555","0.0-3.0-2.0-0.2","spark_pilot_2","7433","5","18","Female","","false","","","","","[776.4000000953674]","./assets/img/space/2.jpg","[""ArrowUp""]","first stage practice","space","0","null","null","ArrowUp","false","","","","","","","",""
"html-keyboard-response","17","137066","0.0-3.0-2.0-1.2","spark_pilot_2","7433","5","18","Female","","","","","","","null","<div style=""font-size:60px;"">+</div>","null","fixation","","","","","","","","","","","","","",""
"learning-instructions","18","144656","0.0-3.0-3.0-0.0","spark_pilot_2","7433","5","18","Female","","","","","","","2889.699999809265","<p> Great job! Now try pressing the <b>down</b> key to travel down. </p>
            <img src='./assets/img/instructions/pressDown.jpg' class='instructions-image'>","","instructions","","","","","","","","","","","","","",""
"revaluation","19","148674","0.0-3.0-4.0-0.0","spark_pilot_2","7433","5","18","Female","","false","","","","","[609.4000000953674]","./assets/img/space/3.jpg","[""ArrowDown""]","first stage practice","space","0","null","null","ArrowDown","false","","","","","","","",""
"html-keyboard-response","20","149182","0.0-3.0-4.0-1.0","spark_pilot_2","7433","5","18","Female","","","","","","","null","<div style=""font-size:60px;"">+</div>","null","fixation","","","","","","","","","","","","","",""
"revaluation","21","153198","0.0-3.0-4.0-0.1","spark_pilot_2","7433","5","18","Female","","false","","","","","[540.2000000476837]","./assets/img/space/4.jpg","[""ArrowDown""]","first stage practice","space","0","null","null","ArrowDown","false","","","","","","","",""
"html-keyboard-response","22","153705","0.0-3.0-4.0-1.1","spark_pilot_2","7433","5","18","Female","","","","","","","null","<div style=""font-size:60px;"">+</div>","null","fixation","","","","","","","","","","","","","",""
"revaluation","23","157730","0.0-3.0-4.0-0.2","spark_pilot_2","7433","5","18","Female","","false","","","","","[634.5]","./assets/img/space/5.jpg","[""ArrowDown""]","first stage practice","space","0","null","null","ArrowDown","false","","","","","","","",""
"html-keyboard-response","24","158238","0.0-3.0-4.0-1.2","spark_pilot_2","7433","5","18","Female","","","","","","","null","<div style=""font-size:60px;"">+</div>","null","fixation","","","","","","","","","","","","","",""
"learning-instructions","25","170440","0.0-3.0-5.0-0.0","spark_pilot_2","7433","5","18","Female","","","","","","","2349.5","<p> The animals don’t move, so the animal in the upper part of a place will stay in the upper part of a place, and the animal in the lower part of a place will stay in the lower part of a place. </p>","","instructions","","","","","","","","","","","","","",""
"learning-instructions","26","181468","0.0-3.0-5.0-0.1","spark_pilot_2","7433","5","18","Female","","","","","","","1900","<p> Each animal has two treasure chests for you to choose from. </p>
            <p> The amount of treasure in each chest can range from <b> 0 to 40 pieces.</b></p>","","instructions","","","","","","","","","","","","","",""
"learning-instructions","27","193610","0.0-3.0-5.0-0.2","spark_pilot_2","7433","5","18","Female","","","","","","","959.1000001430511","<p> You should decide which chest to search for treasure by using the <b>left</b> and <b>right</b> arrow keys. </p>
            <p><b> Pay attention to which animal is on the screen, as the animals have different treasure chests. </b></p>
            <img src='./assets/img/instructions/leftright.jpg' class='instructions-image'>","","instructions","","","","","","","","","","","","","",""
"learning-instructions","28","200765","0.0-3.0-5.0-0.3","spark_pilot_2","7433","5","18","Female","","","","","","","797.7000000476837","<p> Let’s try practicing that now. </p>
            <p> When you see an animal, choose which chest to search for treasure. </p>
            <img src='./assets/img/instructions/chooseChest.jpg' class='instructions-image'>","","instructions","","","","","","","","","","","","","",""
"revaluation","29","204781","0.0-3.0-6.0-0.0","spark_pilot_2","7433","5","18","Female","","false","","","","","[949.2000000476837]","./assets/img/space/animals/rabbit.jpg","[""ArrowLeft""]","second stage practice","space","15","{""ArrowUp,ArrowLeft"":3,""ArrowUp,ArrowRight"":36,""ArrowDown,ArrowLeft"":15,""ArrowDown,ArrowRight"":23}","false","ArrowDown,ArrowLeft","","","","","","","","",""
"html-keyboard-response","30","205284","0.0-3.0-6.0-1.0","spark_pilot_2","7433","5","18","Female","","","","","","","null","<div style=""font-size:60px;"">+</div>","null","fixation","","","","","","","","","","","","","",""
"revaluation","31","209305","0.0-3.0-6.0-0.1","spark_pilot_2","7433","5","18","Female","","false","","","","","[455.2999999523163]","./assets/img/space/animals/cat.jpg","[""ArrowRight""]","second stage practice","space","36","{""ArrowUp,ArrowLeft"":3,""ArrowUp,ArrowRight"":36,""ArrowDown,ArrowLeft"":15,""ArrowDown,ArrowRight"":23}","true","ArrowUp,ArrowRight","","","","","","","","",""
"html-keyboard-response","32","209812","0.0-3.0-6.0-1.1","spark_pilot_2","7433","5","18","Female","","","","","","","null","<div style=""font-size:60px;"">+</div>","null","fixation","","","","","","","","","","","","","",""
"revaluation","33","213833","0.0-3.0-6.0-0.2","spark_pilot_2","7433","5","18","Female","","false","","","","","[554.5]","./assets/img/space/animals/cat.jpg","[""ArrowRight""]","second stage practice","space","36","{""ArrowUp,ArrowLeft"":3,""ArrowUp,ArrowRight"":36,""ArrowDown,ArrowLeft"":15,""ArrowDown,ArrowRight"":23}","true","ArrowUp,ArrowRight","","","","","","","","",""
"html-keyboard-response","34","214342","0.0-3.0-6.0-1.2","spark_pilot_2","7433","5","18","Female","","","","","","","null","<div style=""font-size:60px;"">+</div>","null","fixation","","","","","","","","","","","","","",""
"revaluation","35","218358","0.0-3.0-6.0-0.3","spark_pilot_2","7433","5","18","Female","","false","","","","","[622.0999999046326]","./assets/img/space/animals/rabbit.jpg","[""ArrowLeft""]","second stage practice","space","15","{""ArrowUp,ArrowLeft"":3,""ArrowUp,ArrowRight"":36,""ArrowDown,ArrowLeft"":15,""ArrowDown,ArrowRight"":23}","false","ArrowDown,ArrowLeft","","","","","","","","",""
"html-keyboard-response","36","218872","0.0-3.0-6.0-1.3","spark_pilot_2","7433","5","18","Female","","","","","","","null","<div style=""font-size:60px;"">+</div>","null","fixation","","","","","","","","","","","","","",""
"learning-instructions","37","237281","0.0-3.0-7.0-0.0","spark_pilot_2","7433","5","18","Female","","","","","","","1585.5999999046326","<p> Great job. Now let’s try putting it together. </p>
            <p> On each turn, you will first see a picture to remind you of the place you are in, and you need to choose whether to go up or down. </p>
            <p> Then you will see an animal and choose which of its chests to search for treasure. </p>","","instructions","","","","","","","","","","","","","",""
"learning-instructions","38","246670","0.0-3.0-7.0-0.1","spark_pilot_2","7433","5","18","Female","","","","","","","1129.5999999046326","<p> When you choose whether to go up or down, try to go to the animal with the chest with the most treasure. </p>
            <p> Try practicing that now! </p>","","instructions","","","","","","","","","","","","","",""
"revaluation","39","252692","0.0-3.0-8.0-0.0","spark_pilot_2","7433","5","18","Female","","false","","","","","[915.5,1025.7999999523163]","./assets/img/space/6.jpg","[""ArrowUp"",""ArrowRight""]","full practice","space","36","{""ArrowUp,ArrowLeft"":3,""ArrowUp,ArrowRight"":36,""ArrowDown,ArrowLeft"":15,""ArrowDown,ArrowRight"":23}","true","ArrowUp,ArrowRight","false","","","","","","","",""
"html-keyboard-response","40","253200","0.0-3.0-8.0-1.0","spark_pilot_2","7433","5","18","Female","","","","","","","null","<div style=""font-size:60px;"">+</div>","null","fixation","","","","","","","","","","","","","",""
"revaluation","41","257220","0.0-3.0-8.0-0.1","spark_pilot_2","7433","5","18","Female","","true","","","","","[]","./assets/img/space/7.jpg","[]","full practice","space","-5","{""ArrowUp,ArrowLeft"":3,""ArrowUp,ArrowRight"":36,""ArrowDown,ArrowLeft"":15,""ArrowDown,ArrowRight"":23}","false","","false","","","","","","","",""
"html-keyboard-response","42","257724","0.0-3.0-8.0-1.1","spark_pilot_2","7433","5","18","Female","","","","","","","null","<div style=""font-size:60px;"">+</div>","null","fixation","","","","","","","","","","","","","",""
"revaluation","43","263748","0.0-3.0-8.0-0.2","spark_pilot_2","7433","5","18","Female","","false","","","","","[891.6000001430511,1131.5999999046326]","./assets/img/space/8.jpg","[""ArrowDown"",""ArrowRight""]","full practice","space","23","{""ArrowUp,ArrowLeft"":3,""ArrowUp,ArrowRight"":36,""ArrowDown,ArrowLeft"":15,""ArrowDown,ArrowRight"":23}","false","ArrowDown,ArrowRight","false","","","","","","","",""
"html-keyboard-response","44","264252","0.0-3.0-8.0-1.2","spark_pilot_2","7433","5","18","Female","","","","","","","null","<div style=""font-size:60px;"">+</div>","null","fixation","","","","","","","","","","","","","",""
"revaluation","45","270280","0.0-3.0-8.0-0.3","spark_pilot_2","7433","5","18","Female","","false","","","","","[620.7999999523163,563.5]","./assets/img/space/9.jpg","[""ArrowUp"",""ArrowRight""]","full practice","space","36","{""ArrowUp,ArrowLeft"":3,""ArrowUp,ArrowRight"":36,""ArrowDown,ArrowLeft"":15,""ArrowDown,ArrowRight"":23}","true","ArrowUp,ArrowRight","false","","","","","","","",""
"html-keyboard-response","46","270791","0.0-3.0-8.0-1.3","spark_pilot_2","7433","5","18","Female","","","","","","","null","<div style=""font-size:60px;"">+</div>","null","fixation","","","","","","","","","","","","","",""
"revaluation","47","276821","0.0-3.0-8.0-0.4","spark_pilot_2","7433","5","18","Female","","false","","","","","[935.6000001430511,1423.0999999046326]","./assets/img/space/10.jpg","[""ArrowDown"",""ArrowRight""]","full practice","space","23","{""ArrowUp,ArrowLeft"":3,""ArrowUp,ArrowRight"":36,""ArrowDown,ArrowLeft"":15,""ArrowDown,ArrowRight"":23}","false","ArrowDown,ArrowRight","false","","","","","","","",""
"html-keyboard-response","48","277332","0.0-3.0-8.0-1.4","spark_pilot_2","7433","5","18","Female","","","","","","","null","<div style=""font-size:60px;"">+</div>","null","fixation","","","","","","","","","","","","","",""
"learning-instructions","49","290916","0.0-3.0-9.0-0.0","spark_pilot_2","7433","5","18","Female","","","","","","","3157.2000000476837","<p> One last thing: sometimes, you will see a robber. The robber can be anywhere in the picture. </p>
            <p> If you do not stop them, you will lose treasure. </p>
            <img src='./assets/img/instructions/robber.jpg' class='instructions-image'>","","instructions","","","","","","","","","","","","","",""
"learning-instructions","50","298901","0.0-3.0-9.0-0.1","spark_pilot_2","7433","5","18","Female","","","","","","","823.0999999046326","<p> If you see the robber, you should <b>press the space bar</b> rather than using the arrow keys. </p>
            <p> Try practicing that now! </p>","","instructions","","","","","","","","","","","","","",""
"revaluation","51","302916","0.0-3.0-10.0-0.0","spark_pilot_2","7433","5","18","Female","","false","","","","","[1592]","./assets/img/space/catch/0.jpg","[""spaceBar""]","catch practice","space","0","{""ArrowUp,ArrowLeft"":3,""ArrowUp,ArrowRight"":36,""ArrowDown,ArrowLeft"":15,""ArrowDown,ArrowRight"":23}","true","spaceBar","true","","","","","","","",""
"html-keyboard-response","52","303423","0.0-3.0-10.0-1.0","spark_pilot_2","7433","5","18","Female","","","","","","","null","<div style=""font-size:60px;"">+</div>","null","fixation","","","","","","","","","","","","","",""
"revaluation","53","307446","0.0-3.0-10.0-0.1","spark_pilot_2","7433","5","18","Female","","false","","","","","[1007.2999999523163]","./assets/img/space/catch/1.jpg","[""spaceBar""]","catch practice","space","0","{""ArrowUp,ArrowLeft"":3,""ArrowUp,ArrowRight"":36,""ArrowDown,ArrowLeft"":15,""ArrowDown,ArrowRight"":23}","true","spaceBar","true","","","","","","","",""
"html-keyboard-response","54","307955","0.0-3.0-10.0-1.1","spark_pilot_2","7433","5","18","Female","","","","","","","null","<div style=""font-size:60px;"">+</div>","null","fixation","","","","","","","","","","","","","",""
"revaluation","55","311975","0.0-3.0-10.0-0.2","spark_pilot_2","7433","5","18","Female","","false","","","","","[641]","./assets/img/space/catch/2.jpg","[""spaceBar""]","catch practice","space","0","{""ArrowUp,ArrowLeft"":3,""ArrowUp,ArrowRight"":36,""ArrowDown,ArrowLeft"":15,""ArrowDown,ArrowRight"":23}","true","spaceBar","true","","","","","","","",""
"html-keyboard-response","56","312483","0.0-3.0-10.0-1.2","spark_pilot_2","7433","5","18","Female","","","","","","","null","<div style=""font-size:60px;"">+</div>","null","fixation","","","","","","","","","","","","","",""
"learning-instructions","57","328678","0.0-3.0-11.0-0.0","spark_pilot_2","7433","5","18","Female","","","","","","","2439.600000143051","<p> After you explore a place to find treasure, it will be time to play a different game. </p>
            <p> During this game, red dots will appear on the screen and fall down slowly. </p>
            <p><b> You must click on them before they reach the bottom. </b></p>
            <img src='./assets/img/instructions/dotGame.jpg' class='instructions-image'>","","instructions","","","","","","","","","","","","","",""
"learning-instructions","58","335649","0.0-3.0-11.0-0.1","spark_pilot_2","7433","5","18","Female","","","","","","","1299.0999999046326","<p> For every dot you click, you will earn additional treasure. </p>
            <p> Let’s try practicing that now. </p>","","instructions","","","","","","","","","","","","","",""
"revaluation","59","350666","0.0-3.0-12.0-0.0","spark_pilot_2","7433","5","18","Female","","","","","","","[64]","","","rest practice","","10","","","","","0","15000","","","","","",""
"learning-instructions","60","357614","0.0-3.0-13.0-0.0-0.0","spark_pilot_2","7433","5","18","Female","","","","","","","1685.3999998569489","<p> Now, you will practice a shortened version of the game to get a sense of how it all fits together. </p>","","instructions","","","","","","","","","","","","","",""
"learning-instructions","61","361645","0.0-3.0-13.0-0.0-0.1","spark_pilot_2","7433","5","18","Female","","","","","","","841.7999999523163","<p>This time you are searching for treasure in outer space.</p>","","instructions","","","","","","","","","","","","","",""
"learning-instructions","62","377574","0.0-3.0-13.0-1.0-0.0","spark_pilot_2","7433","5","18","Female","","","","","","","1160.8000001907349","<p> Remember, when you see a picture of the place, use the up and down keys to <b>find an animal</b>.</p>
            <p> When you encounter an animal, you should use the left and right keys to <b>select a treasure chest</b>.</p>
            <p> Don't forget to look out for the robber! </p>","","instructions","","","","","","","","","","","","","",""
"revaluation","63","381594","0.0-3.0-13.0-2.0-0.0","spark_pilot_2","7433","5","18","Female","","true","","","","","[]","./assets/img/space/11.jpg","[]","practice block","space","-5","{""ArrowUp,ArrowLeft"":3,""ArrowUp,ArrowRight"":36,""ArrowDown,ArrowLeft"":15,""ArrowDown,ArrowRight"":23}","false","","false","","","","","","","",""
"html-keyboard-response","64","382107","0.0-3.0-13.0-2.0-1.0","spark_pilot_2","7433","5","18","Female","","","","","","","null","<div style=""font-size:60px;"">+</div>","null","fixation","","","","","","","","","","","","","",""
"revaluation","65","388131","0.0-3.0-13.0-2.0-0.1","spark_pilot_2","7433","5","18","Female","","false","","","","","[1134.6999998092651,448.7000000476837]","./assets/img/space/12.jpg","[""ArrowDown"",""ArrowRight""]","practice block","space","23","{""ArrowUp,ArrowLeft"":3,""ArrowUp,ArrowRight"":36,""ArrowDown,ArrowLeft"":15,""ArrowDown,ArrowRight"":23}","false","ArrowDown,ArrowRight","false","","","","","","","",""
"html-keyboard-response","66","388645","0.0-3.0-13.0-2.0-1.1","spark_pilot_2","7433","5","18","Female","","","","","","","null","<div style=""font-size:60px;"">+</div>","null","fixation","","","","","","","","","","","","","",""
"revaluation","67","394674","0.0-3.0-13.0-2.0-0.2","spark_pilot_2","7433","5","18","Female","","false","","","","","[1071.5999999046326,516.7999999523163]","./assets/img/space/13.jpg","[""ArrowDown"",""ArrowRight""]","practice block","space","23","{""ArrowUp,ArrowLeft"":3,""ArrowUp,ArrowRight"":36,""ArrowDown,ArrowLeft"":15,""ArrowDown,ArrowRight"":23}","false","ArrowDown,ArrowRight","false","","","","","","","",""
"html-keyboard-response","68","395186","0.0-3.0-13.0-2.0-1.2","spark_pilot_2","7433","5","18","Female","","","","","","","null","<div style=""font-size:60px;"">+</div>","null","fixation","","","","","","","","","","","","","",""
"revaluation","69","401214","0.0-3.0-13.0-2.0-0.3","spark_pilot_2","7433","5","18","Female","","false","","","","","[707.1000001430511,679.6000001430511]","./assets/img/space/14.jpg","[""ArrowUp"",""ArrowRight""]","practice block","space","36","{""ArrowUp,ArrowLeft"":3,""ArrowUp,ArrowRight"":36,""ArrowDown,ArrowLeft"":15,""ArrowDown,ArrowRight"":23}","true","ArrowUp,ArrowRight","false","","","","","","","",""
"html-keyboard-response","70","401726","0.0-3.0-13.0-2.0-1.3","spark_pilot_2","7433","5","18","Female","","","","","","","null","<div style=""font-size:60px;"">+</div>","null","fixation","","","","","","","","","","","","","",""
"revaluation","71","407757","0.0-3.0-13.0-2.0-0.4","spark_pilot_2","7433","5","18","Female","","false","","","","","[1318.0999999046326,517.8999998569489]","./assets/img/space/11.jpg","[""ArrowDown"",""ArrowRight""]","practice block","space","23","{""ArrowUp,ArrowLeft"":3,""ArrowUp,ArrowRight"":36,""ArrowDown,ArrowLeft"":15,""ArrowDown,ArrowRight"":23}","false","ArrowDown,ArrowRight","false","","","","","","","",""
"html-keyboard-response","72","408268","0.0-3.0-13.0-2.0-1.4","spark_pilot_2","7433","5","18","Female","","","","","","","null","<div style=""font-size:60px;"">+</div>","null","fixation","","","","","","","","","","","","","",""
"revaluation","73","414301","0.0-3.0-13.0-2.0-0.5","spark_pilot_2","7433","5","18","Female","","false","","","","","[1427.2999999523163,979.5]","./assets/img/space/12.jpg","[""ArrowUp"",""ArrowRight""]","practice block","space","36","{""ArrowUp,ArrowLeft"":3,""ArrowUp,ArrowRight"":36,""ArrowDown,ArrowLeft"":15,""ArrowDown,ArrowRight"":23}","true","ArrowUp,ArrowRight","false","","","","","","","",""
"html-keyboard-response","74","414812","0.0-3.0-13.0-2.0-1.5","spark_pilot_2","7433","5","18","Female","","","","","","","null","<div style=""font-size:60px;"">+</div>","null","fixation","","","","","","","","","","","","","",""
"revaluation","75","420845","0.0-3.0-13.0-2.0-0.6","spark_pilot_2","7433","5","18","Female","","false","","","","","[1172.7000000476837,542]","./assets/img/space/13.jpg","[""ArrowUp"",""ArrowRight""]","practice block","space","36","{""ArrowUp,ArrowLeft"":3,""ArrowUp,ArrowRight"":36,""ArrowDown,ArrowLeft"":15,""ArrowDown,ArrowRight"":23}","true","ArrowUp,ArrowRight","false","","","","","","","",""
"html-keyboard-response","76","421356","0.0-3.0-13.0-2.0-1.6","spark_pilot_2","7433","5","18","Female","","","","","","","null","<div style=""font-size:60px;"">+</div>","null","fixation","","","","","","","","","","","","","",""
"revaluation","77","427389","0.0-3.0-13.0-2.0-0.7","spark_pilot_2","7433","5","18","Female","","false","","","","","[1488.9000000953674,701.7999999523163]","./assets/img/space/14.jpg","[""ArrowUp"",""ArrowRight""]","practice block","space","36","{""ArrowUp,ArrowLeft"":3,""ArrowUp,ArrowRight"":36,""ArrowDown,ArrowLeft"":15,""ArrowDown,ArrowRight"":23}","true","ArrowUp,ArrowRight","false","","","","","","","",""
"html-keyboard-response","78","427900","0.0-3.0-13.0-2.0-1.7","spark_pilot_2","7433","5","18","Female","","","","","","","null","<div style=""font-size:60px;"">+</div>","null","fixation","","","","","","","","","","","","","",""
"revaluation","79","431921","0.0-3.0-13.0-2.0-0.8","spark_pilot_2","7433","5","18","Female","","false","","","","","[912]","./assets/img/space/catch/3.jpg","[""spaceBar""]","practice block","space","0","{""ArrowUp,ArrowLeft"":3,""ArrowUp,ArrowRight"":36,""ArrowDown,ArrowLeft"":15,""ArrowDown,ArrowRight"":23}","true","spaceBar","true","","","","","","","",""
"html-keyboard-response","80","432428","0.0-3.0-13.0-2.0-1.8","spark_pilot_2","7433","5","18","Female","","","","","","","null","<div style=""font-size:60px;"">+</div>","null","fixation","","","","","","","","","","","","","",""
"learning-instructions","81","449205","0.0-3.0-13.0-3.0-0.0","spark_pilot_2","7433","5","18","Female","","","","","","","3723.800000190735","<p> Now, you will travel with a friend who will choose whether you go up or down first. </p>
            <p> On these turns, you will just see the animal that they found. You will still get to choose which chest to search for treasure.</p>","","instructions","","","","","","","","","","","","","",""
"revaluation","82","453229","0.0-3.0-13.0-4.0-0.0","spark_pilot_2","7433","5","18","Female","","false","","","","","[1111.1999998092651]","./assets/img/space/animals/cat.jpg","[""ArrowRight""]","practice block","space","36","{""ArrowUp,ArrowLeft"":3,""ArrowUp,ArrowRight"":36,""ArrowDown,ArrowLeft"":15,""ArrowDown,ArrowRight"":23}","true","ArrowUp,ArrowRight","","","","","","","","",""
"html-keyboard-response","83","453741","0.0-3.0-13.0-4.0-1.0","spark_pilot_2","7433","5","18","Female","","","","","","","null","<div style=""font-size:60px;"">+</div>","null","fixation","","","","","","","","","","","","","",""
"revaluation","84","457761","0.0-3.0-13.0-4.0-0.1","spark_pilot_2","7433","5","18","Female","","false","","","","","[559]","./assets/img/space/animals/cat.jpg","[""ArrowRight""]","practice block","space","36","{""ArrowUp,ArrowLeft"":3,""ArrowUp,ArrowRight"":36,""ArrowDown,ArrowLeft"":15,""ArrowDown,ArrowRight"":23}","true","ArrowUp,ArrowRight","","","","","","","","",""
"html-keyboard-response","85","458273","0.0-3.0-13.0-4.0-1.1","spark_pilot_2","7433","5","18","Female","","","","","","","null","<div style=""font-size:60px;"">+</div>","null","fixation","","","","","","","","","","","","","",""
"revaluation","86","462293","0.0-3.0-13.0-4.0-0.2","spark_pilot_2","7433","5","18","Female","","false","","","","","[821.5999999046326]","./assets/img/space/animals/rabbit.jpg","[""ArrowRight""]","practice block","space","23","{""ArrowUp,ArrowLeft"":3,""ArrowUp,ArrowRight"":36,""ArrowDown,ArrowLeft"":15,""ArrowDown,ArrowRight"":23}","true","ArrowDown,ArrowRight","","","","","","","","",""
"html-keyboard-response","87","462805","0.0-3.0-13.0-4.0-1.2","spark_pilot_2","7433","5","18","Female","","","","","","","null","<div style=""font-size:60px;"">+</div>","null","fixation","","","","","","","","","","","","","",""
"revaluation","88","466829","0.0-3.0-13.0-4.0-0.3","spark_pilot_2","7433","5","18","Female","","false","","","","","[769.7000000476837]","./assets/img/space/animals/rabbit.jpg","[""ArrowRight""]","practice block","space","23","{""ArrowUp,ArrowLeft"":3,""ArrowUp,ArrowRight"":36,""ArrowDown,ArrowLeft"":15,""ArrowDown,ArrowRight"":23}","true","ArrowDown,ArrowRight","","","","","","","","",""
"html-keyboard-response","89","467336","0.0-3.0-13.0-4.0-1.3","spark_pilot_2","7433","5","18","Female","","","","","","","null","<div style=""font-size:60px;"">+</div>","null","fixation","","","","","","","","","","","","","",""
"learning-instructions","90","475940","0.0-3.0-13.0-5.0-0.0","spark_pilot_2","7433","5","18","Female","","","","","","","1234.5999999046326","<p> Time to play the dot game! </p>
            <p> For 15 seconds, click the red dots on the following screen as they appear. </p>","","instructions","","","","","","","","","","","","","",""
"revaluation","91","490952","0.0-3.0-13.0-6.0-0.0","spark_pilot_2","7433","5","18","Female","","","","","","","[71]","","","rest practice","","10","","","","","0","15000","","","","","",""
"learning-instructions","92","498293","0.0-3.0-13.0-7.0-0.0","spark_pilot_2","7433","5","18","Female","","","","","","","1219.2000000476837","<p> You have almost finished this part of the game! </p>
            <p> We are going to ask you to make a few more choices. </p>","","instructions","","","","","","","","","","","","","",""
"learning-instructions","93","513004","0.0-3.0-13.0-7.0-0.1","spark_pilot_2","7433","5","18","Female","","","","","","","703.7999999523163","<p> First, you need to decide whether to go up or down. When you see each picture, use the arrow keys to make your choice. </p>
            <p><b>You will not see which animal you found, but try to get to the one that will give you the most treasure.</b></p>","","instructions","","","","","","","","","","","","","",""
"revaluation","94","514113","0.0-3.0-13.0-8.0","spark_pilot_2","7433","5","18","Female","","false","","","","","[1105.7999999523163]","./assets/img/space/15.jpg","[""ArrowUp""]","practice block","space","0","{""ArrowUp,ArrowLeft"":3,""ArrowUp,ArrowRight"":36,""ArrowDown,ArrowLeft"":15,""ArrowDown,ArrowRight"":23}","true","ArrowUp","false","","","","","","","",""
"html-keyboard-response","95","514623","0.0-3.0-13.0-9.0","spark_pilot_2","7433","5","18","Female","","","","","","","null","<div style=""font-size:60px;"">+</div>","null","fixation","","","","","","","","","","","","","",""
"learning-instructions","96","526673","0.0-3.0-13.0-10.0-0.0","spark_pilot_2","7433","5","18","Female","","","","","","","677.7999999523163","<p> Now you will see the animals again and can search their chests for treasure. </p>
            <p> This time, you will not see how much treasure you earned, but you will earn more bonus money for making better choices. </p>","","instructions","","","","","","","","","","","","","",""
"revaluation","97","527213","0.0-3.0-13.0-11.0-0.0","spark_pilot_2","7433","5","18","Female","","false","","","","","[536.3000001907349]","./assets/img/space/animals/cat.jpg","[""ArrowRight""]","practice block","space","0","{""ArrowUp,ArrowLeft"":3,""ArrowUp,ArrowRight"":36,""ArrowDown,ArrowLeft"":15,""ArrowDown,ArrowRight"":23}","true","ArrowUp,ArrowRight","","","","","","","","",""
"html-keyboard-response","98","527718","0.0-3.0-13.0-11.0-1.0","spark_pilot_2","7433","5","18","Female","","","","","","","null","<div style=""font-size:60px;"">+</div>","null","fixation","","","","","","","","","","","","","",""
"revaluation","99","528527","0.0-3.0-13.0-11.0-0.1","spark_pilot_2","7433","5","18","Female","","false","","","","","[806.2000000476837]","./assets/img/space/animals/rabbit.jpg","[""ArrowRight""]","practice block","space","0","{""ArrowUp,ArrowLeft"":3,""ArrowUp,ArrowRight"":36,""ArrowDown,ArrowLeft"":15,""ArrowDown,ArrowRight"":23}","true","ArrowDown,ArrowRight","","","","","","","","",""
"html-keyboard-response","100","529031","0.0-3.0-13.0-11.0-1.1","spark_pilot_2","7433","5","18","Female","","","","","","","null","<div style=""font-size:60px;"">+</div>","null","fixation","","","","","","","","","","","","","",""
"learning-instructions","101","534428","0.0-3.0-14.0-0.0","spark_pilot_2","7433","5","18","Female","","","","","","","816.5999999046326","<p> Before you start, we're going to ask you a few questions about how the game works. </p>","","instructions","","","","","","","","","","","","","",""
"comp-q","102","540864","0.0-3.0-15.0-0.0-0.0","spark_pilot_2","7433","5","18","Female","","","","","","","847","<p> <b> True or False? </b> </p>
            <p> There can be 50 pieces of treasure in a given animal's chest. </p>","1","comp_question","","","","true","","","","","","","","","",""
"comp-q","103","548214","0.0-3.0-15.0-0.0-1.0","spark_pilot_2","7433","5","18","Female","","","","","","","692.8999998569489","<p> <b> That's right! </b> The amount of treasure in each chest can range from 0 to 40 pieces. </p>","0","comp_answer","","","","","","","","","","","","","",""
"comp-q","104","555885","0.0-3.0-15.0-0.1-0.1","spark_pilot_2","7433","5","18","Female","","","","","","","556.2000000476837","<p> <b> True or False? </b> </p><p> In this game, all animals have the same amount of treasure in their left and right chests. </p>","1","comp_question","","","","true","","","","","","","","","",""
"comp-q","105","563021","0.0-3.0-15.0-0.1-1.1","spark_pilot_2","7433","5","18","Female","","","","","","","1905.8999998569489","<p> <b> That's right! </b> Animals have different amounts of treasure in their treasure chests. </p>","0","comp_answer","","","","","","","","","","","","","",""
"comp-q","106","569838","0.0-3.0-15.0-0.2-0.2","spark_pilot_2","7433","5","18","Female","","","","","","","967.7000000476837","<p> <b> True or False? </b> </p><p> The same animal will always be there if you go up in the same place. </p>","0","comp_question","","","","true","","","","","","","","","",""
"comp-q","107","577506","0.0-3.0-15.0-0.2-1.2","spark_pilot_2","7433","5","18","Female","","","","","","","1222.8999998569489","<p> <b> That's right! </b> One animal lives in the upper part and one lives in the lower part of every place. </p>","0","comp_answer","","","","","","","","","","","","","",""
"comp-q","108","583634","0.0-3.0-15.0-0.3-0.3","spark_pilot_2","7433","5","18","Female","","","","","","","603.7999999523163","<p> <b> True or False? </b> </p><p> If you see a different picture, it means you are in a new place. </p>","0","comp_question","","","","false","","","","","","","","","",""
"comp-q","109","597158","0.0-3.0-15.0-0.3-1.3","spark_pilot_2","7433","5","18","Female","","","","","","","2433.0999999046326","<p> <b>Incorrect.</b> Lots of different images may show the same place. For example,  you may see three different images that all remind you that you are in outer space. </p>","0","comp_answer","","","","","","","","","","","","","",""
"comp-q","110","603170","0.0-3.0-15.0-0.4-0.4","spark_pilot_2","7433","5","18","Female","","","","","","","508.7000000476837","<p> <b> True or False? </b> </p><p> If you see a different picture, it means you are in a new place. </p>","1","comp_question","","","","true","","","","","","","","","",""
"comp-q","111","615139","0.0-3.0-15.0-0.4-1.4","spark_pilot_2","7433","5","18","Female","","","","","","","744.5999999046326","<p> <b> That's right! </b> Lots of different images may show the same place. For example,  you may see three different images that all remind you that you are in outer space. </p>","0","comp_answer","","","","","","","","","","","","","",""
"learning-instructions","112","626501","0.0-3.0-16.0-0.0","spark_pilot_2","7433","5","18","Female","","","","","","","1467.2000000476837","<p> Good job. Remember to do your best because the amount of treasure you earn will be converted into bonus money. </p>
            <p> It’s time to start the real game! </p>","","instructions","","","","","","","","","","","","","",""
"learning-instructions","113","630264","0.0-4.0-0.0-0.0","spark_pilot_2","7433","5","18","Female","","","","","","","995.1000001430511","<p> This time you are searching for treasure in the <b>canyon</b>.</p>","","instructions","","","","","","","","","","","","","",""
"learning-instructions","114","648700","0.0-4.0-0.0-0.1","spark_pilot_2","7433","5","18","Female","","","","","","","1138.0999999046326","<p><b>New</b> animals with <b>new</b> treasure chests live here. You need to explore to discover where the animal with the best treasure chest is.</p>
                    <p> Like before, once you figure out which animal has the chest with the most treasure, you should try to get to that animal and select that chest! </p>","","instructions","","","","","","","","","","","","","",""
"learning-instructions","115","664467","0.0-4.0-1.0-0.0","spark_pilot_2","7433","5","18","Female","","","","","","","1033.3999998569489","<p> Remember, when you see a picture of the place, use the up and down keys to <b>find an animal</b>.</p>
            <p> When you encounter an animal, you should use the left and right keys to <b>select a treasure chest</b>.</p>
            <p> Don't forget to look out for the robber! </p>","","instructions","","","","","","","","","","","","","",""
"revaluation","116","670497","0.0-4.0-2.0-0.0","spark_pilot_2","7433","5","18","Female","","false","","","","","[795.7999999523163,563.7999999523163]","./assets/img/canyon/memory/35.jpg","[""ArrowUp"",""ArrowRight""]","value training","canyon","10","{""ArrowUp,ArrowLeft"":26,""ArrowUp,ArrowRight"":10,""ArrowDown,ArrowLeft"":5,""ArrowDown,ArrowRight"":17}","false","ArrowUp,ArrowRight","false","","","original","1","0","","",""
"html-keyboard-response","117","671005","0.0-4.0-2.0-1.0","spark_pilot_2","7433","5","18","Female","","","","","","","null","<div style=""font-size:60px;"">+</div>","null","fixation","","","","","","","","","","","1","","",""
"revaluation","118","677032","0.0-4.0-2.0-0.1","spark_pilot_2","7433","5","18","Female","","false","","","","","[678.5999999046326,1132.2999999523163]","./assets/img/canyon/memory/4.jpg","[""ArrowDown"",""ArrowRight""]","value training","canyon","17","{""ArrowUp,ArrowLeft"":26,""ArrowUp,ArrowRight"":10,""ArrowDown,ArrowLeft"":5,""ArrowDown,ArrowRight"":17}","false","ArrowDown,ArrowRight","false","","","original","1","2","","",""
"html-keyboard-response","119","677539","0.0-4.0-2.0-1.1","spark_pilot_2","7433","5","18","Female","","","","","","","null","<div style=""font-size:60px;"">+</div>","null","fixation","","","","","","","","","","","3","","",""
"revaluation","120","683569","0.0-4.0-2.0-0.2","spark_pilot_2","7433","5","18","Female","","false","","","","","[427.2000000476837,746.7999999523163]","./assets/img/canyon/memory/15.jpg","[""ArrowUp"",""ArrowLeft""]","value training","canyon","26","{""ArrowUp,ArrowLeft"":26,""ArrowUp,ArrowRight"":10,""ArrowDown,ArrowLeft"":5,""ArrowDown,ArrowRight"":17}","true","ArrowUp,ArrowLeft","false","","","original","1","4","","",""
"html-keyboard-response","121","684076","0.0-4.0-2.0-1.2","spark_pilot_2","7433","5","18","Female","","","","","","","null","<div style=""font-size:60px;"">+</div>","null","fixation","","","","","","","","","","","5","","",""
"revaluation","122","690104","0.0-4.0-2.0-0.3","spark_pilot_2","7433","5","18","Female","","false","","","","","[1105.8999998569489,770.4000000953674]","./assets/img/canyon/memory/13.jpg","[""ArrowDown"",""ArrowLeft""]","value training","canyon","5","{""ArrowUp,ArrowLeft"":26,""ArrowUp,ArrowRight"":10,""ArrowDown,ArrowLeft"":5,""ArrowDown,ArrowRight"":17}","false","ArrowDown,ArrowLeft","false","","","original","1","6","","",""
"html-keyboard-response","123","690611","0.0-4.0-2.0-1.3","spark_pilot_2","7433","5","18","Female","","","","","","","null","<div style=""font-size:60px;"">+</div>","null","fixation","","","","","","","","","","","7","","",""
"revaluation","124","696638","0.0-4.0-2.0-0.4","spark_pilot_2","7433","5","18","Female","","false","","","","","[1138.5999999046326,431.89999985694885]","./assets/img/canyon/memory/0.jpg","[""ArrowDown"",""ArrowRight""]","value training","canyon","17","{""ArrowUp,ArrowLeft"":26,""ArrowUp,ArrowRight"":10,""ArrowDown,ArrowLeft"":5,""ArrowDown,ArrowRight"":17}","false","ArrowDown,ArrowRight","false","","","original","1","8","","",""
"html-keyboard-response","125","697149","0.0-4.0-2.0-1.4","spark_pilot_2","7433","5","18","Female","","","","","","","null","<div style=""font-size:60px;"">+</div>","null","fixation","","","","","","","","","","","9","","",""
"revaluation","126","703171","0.0-4.0-2.0-0.5","spark_pilot_2","7433","5","18","Female","","false","","","","","[506.40000009536743,1926.6999998092651]","./assets/img/canyon/memory/33.jpg","[""ArrowUp"",""ArrowLeft""]","value training","canyon","26","{""ArrowUp,ArrowLeft"":26,""ArrowUp,ArrowRight"":10,""ArrowDown,ArrowLeft"":5,""ArrowDown,ArrowRight"":17}","true","ArrowUp,ArrowLeft","false","","","original","1","10","","",""
"html-keyboard-response","127","703677","0.0-4.0-2.0-1.5","spark_pilot_2","7433","5","18","Female","","","","","","","null","<div style=""font-size:60px;"">+</div>","null","fixation","","","","","","","","","","","11","","",""
"revaluation","128","709699","0.0-4.0-2.0-0.6","spark_pilot_2","7433","5","18","Female","","false","","","","","[1137.9000000953674,926.6000001430511]","./assets/img/canyon/memory/8.jpg","[""ArrowUp"",""ArrowLeft""]","value training","canyon","26","{""ArrowUp,ArrowLeft"":26,""ArrowUp,ArrowRight"":10,""ArrowDown,ArrowLeft"":5,""ArrowDown,ArrowRight"":17}","true","ArrowUp,ArrowLeft","false","","","original","1","12","","",""
"html-keyboard-response","129","710205","0.0-4.0-2.0-1.6","spark_pilot_2","7433","5","18","Female","","","","","","","null","<div style=""font-size:60px;"">+</div>","null","fixation","","","","","","","","","","","13","","",""
"revaluation","130","716227","0.0-4.0-2.0-0.7","spark_pilot_2","7433","5","18","Female","","false","","","","","[708.3999998569489,526]","./assets/img/canyon/memory/6.jpg","[""ArrowUp"",""ArrowLeft""]","value training","canyon","26","{""ArrowUp,ArrowLeft"":26,""ArrowUp,ArrowRight"":10,""ArrowDown,ArrowLeft"":5,""ArrowDown,ArrowRight"":17}","true","ArrowUp,ArrowLeft","false","","","original","1","14","","",""
"html-keyboard-response","131","716733","0.0-4.0-2.0-1.7","spark_pilot_2","7433","5","18","Female","","","","","","","null","<div style=""font-size:60px;"">+</div>","null","fixation","","","","","","","","","","","15","","",""
"revaluation","132","722755","0.0-4.0-2.0-0.8","spark_pilot_2","7433","5","18","Female","","false","","","","","[1356.2000000476837,712.5]","./assets/img/canyon/memory/1.jpg","[""ArrowUp"",""ArrowLeft""]","value training","canyon","26","{""ArrowUp,ArrowLeft"":26,""ArrowUp,ArrowRight"":10,""ArrowDown,ArrowLeft"":5,""ArrowDown,ArrowRight"":17}","true","ArrowUp,ArrowLeft","false","","","original","1","16","","",""
"html-keyboard-response","133","723261","0.0-4.0-2.0-1.8","spark_pilot_2","7433","5","18","Female","","","","","","","null","<div style=""font-size:60px;"">+</div>","null","fixation","","","","","","","","","","","17","","",""
"revaluation","134","729283","0.0-4.0-2.0-0.9","spark_pilot_2","7433","5","18","Female","","false","","","","","[617.3999998569489,367.2000000476837]","./assets/img/canyon/memory/13.jpg","[""ArrowUp"",""ArrowLeft""]","value training","canyon","26","{""ArrowUp,ArrowLeft"":26,""ArrowUp,ArrowRight"":10,""ArrowDown,ArrowLeft"":5,""ArrowDown,ArrowRight"":17}","true","ArrowUp,ArrowLeft","false","","","original","1","18","","",""
"html-keyboard-response","135","729789","0.0-4.0-2.0-1.9","spark_pilot_2","7433","5","18","Female","","","","","","","null","<div style=""font-size:60px;"">+</div>","null","fixation","","","","","","","","","","","19","","",""
"revaluation","136","735812","0.0-4.0-2.0-0.10","spark_pilot_2","7433","5","18","Female","","false","","","","","[1384.5999999046326,400.40000009536743]","./assets/img/canyon/memory/24.jpg","[""ArrowUp"",""ArrowLeft""]","value training","canyon","26","{""ArrowUp,ArrowLeft"":26,""ArrowUp,ArrowRight"":10,""ArrowDown,ArrowLeft"":5,""ArrowDown,ArrowRight"":17}","true","ArrowUp,ArrowLeft","false","","","original","1","20","","",""
"html-keyboard-response","137","736322","0.0-4.0-2.0-1.10","spark_pilot_2","7433","5","18","Female","","","","","","","null","<div style=""font-size:60px;"">+</div>","null","fixation","","","","","","","","","","","21","","",""
"revaluation","138","742349","0.0-4.0-2.0-0.11","spark_pilot_2","7433","5","18","Female","","false","","","","","[1496.2000000476837,735.5]","./assets/img/canyon/memory/24.jpg","[""ArrowUp"",""ArrowLeft""]","value training","canyon","26","{""ArrowUp,ArrowLeft"":26,""ArrowUp,ArrowRight"":10,""ArrowDown,ArrowLeft"":5,""ArrowDown,ArrowRight"":17}","true","ArrowUp,ArrowLeft","false","","","original","1","22","","",""
"html-keyboard-response","139","742861","0.0-4.0-2.0-1.11","spark_pilot_2","7433","5","18","Female","","","","","","","null","<div style=""font-size:60px;"">+</div>","null","fixation","","","","","","","","","","","23","","",""
"revaluation","140","748887","0.0-4.0-2.0-0.12","spark_pilot_2","7433","5","18","Female","","false","","","","","[706.7000000476837,687.7999999523163]","./assets/img/canyon/memory/8.jpg","[""ArrowUp"",""ArrowLeft""]","value training","canyon","26","{""ArrowUp,ArrowLeft"":26,""ArrowUp,ArrowRight"":10,""ArrowDown,ArrowLeft"":5,""ArrowDown,ArrowRight"":17}","true","ArrowUp,ArrowLeft","false","","","original","1","24","","",""
"html-keyboard-response","141","749394","0.0-4.0-2.0-1.12","spark_pilot_2","7433","5","18","Female","","","","","","","null","<div style=""font-size:60px;"">+</div>","null","fixation","","","","","","","","","","","25","","",""
"revaluation","142","753410","0.0-4.0-2.0-0.13","spark_pilot_2","7433","5","18","Female","","false","","","","","[816.1000001430511]","./assets/img/canyon/catch/4.jpg","[""spaceBar""]","value training","canyon","0","{""ArrowUp,ArrowLeft"":26,""ArrowUp,ArrowRight"":10,""ArrowDown,ArrowLeft"":5,""ArrowDown,ArrowRight"":17}","true","spaceBar","true","","","original","1","26","","",""
"html-keyboard-response","143","753916","0.0-4.0-2.0-1.13","spark_pilot_2","7433","5","18","Female","","","","","","","null","<div style=""font-size:60px;"">+</div>","null","fixation","","","","","","","","","","","27","","",""
"revaluation","144","759938","0.0-4.0-2.0-0.14","spark_pilot_2","7433","5","18","Female","","false","","","","","[897,546.2999999523163]","./assets/img/canyon/memory/2.jpg","[""ArrowUp"",""ArrowLeft""]","value training","canyon","26","{""ArrowUp,ArrowLeft"":26,""ArrowUp,ArrowRight"":10,""ArrowDown,ArrowLeft"":5,""ArrowDown,ArrowRight"":17}","true","ArrowUp,ArrowLeft","false","","","original","1","28","","",""
"html-keyboard-response","145","760444","0.0-4.0-2.0-1.14","spark_pilot_2","7433","5","18","Female","","","","","","","null","<div style=""font-size:60px;"">+</div>","null","fixation","","","","","","","","","","","29","","",""
"revaluation","146","764461","0.0-4.0-2.0-0.15","spark_pilot_2","7433","5","18","Female","","false","","","","","[785.7000000476837]","./assets/img/canyon/catch/6.jpg","[""spaceBar""]","value training","canyon","0","{""ArrowUp,ArrowLeft"":26,""ArrowUp,ArrowRight"":10,""ArrowDown,ArrowLeft"":5,""ArrowDown,ArrowRight"":17}","true","spaceBar","true","","","original","1","30","","",""
"html-keyboard-response","147","764972","0.0-4.0-2.0-1.15","spark_pilot_2","7433","5","18","Female","","","","","","","null","<div style=""font-size:60px;"">+</div>","null","fixation","","","","","","","","","","","31","","",""
"revaluation","148","770993","0.0-4.0-2.0-0.16","spark_pilot_2","7433","5","18","Female","","false","","","","","[862.2999999523163,545.2999999523163]","./assets/img/canyon/memory/1.jpg","[""ArrowUp"",""ArrowLeft""]","value training","canyon","26","{""ArrowUp,ArrowLeft"":26,""ArrowUp,ArrowRight"":10,""ArrowDown,ArrowLeft"":5,""ArrowDown,ArrowRight"":17}","true","ArrowUp,ArrowLeft","false","","","original","1","32","","",""
"html-keyboard-response","149","771499","0.0-4.0-2.0-1.16","spark_pilot_2","7433","5","18","Female","","","","","","","null","<div style=""font-size:60px;"">+</div>","null","fixation","","","","","","","","","","","33","","",""
"revaluation","150","777521","0.0-4.0-2.0-0.17","spark_pilot_2","7433","5","18","Female","","false","","","","","[728.0999999046326,460.90000009536743]","./assets/img/canyon/memory/16.jpg","[""ArrowUp"",""ArrowLeft""]","value training","canyon","26","{""ArrowUp,ArrowLeft"":26,""ArrowUp,ArrowRight"":10,""ArrowDown,ArrowLeft"":5,""ArrowDown,ArrowRight"":17}","true","ArrowUp,ArrowLeft","false","","","original","1","34","","",""
"html-keyboard-response","151","778027","0.0-4.0-2.0-1.17","spark_pilot_2","7433","5","18","Female","","","","","","","null","<div style=""font-size:60px;"">+</div>","null","fixation","","","","","","","","","","","35","","",""
"revaluation","152","784049","0.0-4.0-2.0-0.18","spark_pilot_2","7433","5","18","Female","","false","","","","","[956.2999999523163,370.60000014305115]","./assets/img/canyon/memory/22.jpg","[""ArrowUp"",""ArrowLeft""]","value training","canyon","26","{""ArrowUp,ArrowLeft"":26,""ArrowUp,ArrowRight"":10,""ArrowDown,ArrowLeft"":5,""ArrowDown,ArrowRight"":17}","true","ArrowUp,ArrowLeft","false","","","original","1","36","","",""
"html-keyboard-response","153","784555","0.0-4.0-2.0-1.18","spark_pilot_2","7433","5","18","Female","","","","","","","null","<div style=""font-size:60px;"">+</div>","null","fixation","","","","","","","","","","","37","","",""
"revaluation","154","790576","0.0-4.0-2.0-0.19","spark_pilot_2","7433","5","18","Female","","false","","","","","[734.4000000953674,424.2999999523163]","./assets/img/canyon/memory/22.jpg","[""ArrowUp"",""ArrowLeft""]","value training","canyon","26","{""ArrowUp,ArrowLeft"":26,""ArrowUp,ArrowRight"":10,""ArrowDown,ArrowLeft"":5,""ArrowDown,ArrowRight"":17}","true","ArrowUp,ArrowLeft","false","","","original","1","38","","",""
"html-keyboard-response","155","791083","0.0-4.0-2.0-1.19","spark_pilot_2","7433","5","18","Female","","","","","","","null","<div style=""font-size:60px;"">+</div>","null","fixation","","","","","","","","","","","39","","",""
"revaluation","156","797104","0.0-4.0-2.0-0.20","spark_pilot_2","7433","5","18","Female","","false","","","","","[642.7999999523163,311.69999980926514]","./assets/img/canyon/memory/28.jpg","[""ArrowUp"",""ArrowLeft""]","value training","canyon","26","{""ArrowUp,ArrowLeft"":26,""ArrowUp,ArrowRight"":10,""ArrowDown,ArrowLeft"":5,""ArrowDown,ArrowRight"":17}","true","ArrowUp,ArrowLeft","false","","","original","1","40","","",""
"html-keyboard-response","157","797611","0.0-4.0-2.0-1.20","spark_pilot_2","7433","5","18","Female","","","","","","","null","<div style=""font-size:60px;"">+</div>","null","fixation","","","","","","","","","","","41","","",""
"revaluation","158","803632","0.0-4.0-2.0-0.21","spark_pilot_2","7433","5","18","Female","","false","","","","","[659.5,473.2999999523163]","./assets/img/canyon/memory/9.jpg","[""ArrowUp"",""ArrowLeft""]","value training","canyon","26","{""ArrowUp,ArrowLeft"":26,""ArrowUp,ArrowRight"":10,""ArrowDown,ArrowLeft"":5,""ArrowDown,ArrowRight"":17}","true","ArrowUp,ArrowLeft","false","","","original","1","42","","",""
"html-keyboard-response","159","804138","0.0-4.0-2.0-1.21","spark_pilot_2","7433","5","18","Female","","","","","","","null","<div style=""font-size:60px;"">+</div>","null","fixation","","","","","","","","","","","43","","",""
"revaluation","160","810160","0.0-4.0-2.0-0.22","spark_pilot_2","7433","5","18","Female","","false","","","","","[892.5,410.7999999523163]","./assets/img/canyon/memory/28.jpg","[""ArrowUp"",""ArrowLeft""]","value training","canyon","26","{""ArrowUp,ArrowLeft"":26,""ArrowUp,ArrowRight"":10,""ArrowDown,ArrowLeft"":5,""ArrowDown,ArrowRight"":17}","true","ArrowUp,ArrowLeft","false","","","original","1","44","","",""
"html-keyboard-response","161","810666","0.0-4.0-2.0-1.22","spark_pilot_2","7433","5","18","Female","","","","","","","null","<div style=""font-size:60px;"">+</div>","null","fixation","","","","","","","","","","","45","","",""
"revaluation","162","816688","0.0-4.0-2.0-0.23","spark_pilot_2","7433","5","18","Female","","false","","","","","[631.7999999523163,325.5]","./assets/img/canyon/memory/5.jpg","[""ArrowUp"",""ArrowLeft""]","value training","canyon","26","{""ArrowUp,ArrowLeft"":26,""ArrowUp,ArrowRight"":10,""ArrowDown,ArrowLeft"":5,""ArrowDown,ArrowRight"":17}","true","ArrowUp,ArrowLeft","false","","","original","1","46","","",""
"html-keyboard-response","163","817194","0.0-4.0-2.0-1.23","spark_pilot_2","7433","5","18","Female","","","","","","","null","<div style=""font-size:60px;"">+</div>","null","fixation","","","","","","","","","","","47","","",""
"revaluation","164","823217","0.0-4.0-2.0-0.24","spark_pilot_2","7433","5","18","Female","","false","","","","","[537.6000001430511,308.90000009536743]","./assets/img/canyon/memory/5.jpg","[""ArrowUp"",""ArrowLeft""]","value training","canyon","26","{""ArrowUp,ArrowLeft"":26,""ArrowUp,ArrowRight"":10,""ArrowDown,ArrowLeft"":5,""ArrowDown,ArrowRight"":17}","true","ArrowUp,ArrowLeft","false","","","original","1","48","","",""
"html-keyboard-response","165","823722","0.0-4.0-2.0-1.24","spark_pilot_2","7433","5","18","Female","","","","","","","null","<div style=""font-size:60px;"">+</div>","null","fixation","","","","","","","","","","","49","","",""
"revaluation","166","829744","0.0-4.0-2.0-0.25","spark_pilot_2","7433","5","18","Female","","false","","","","","[958.9000000953674,603.0999999046326]","./assets/img/canyon/memory/34.jpg","[""ArrowUp"",""ArrowLeft""]","value training","canyon","26","{""ArrowUp,ArrowLeft"":26,""ArrowUp,ArrowRight"":10,""ArrowDown,ArrowLeft"":5,""ArrowDown,ArrowRight"":17}","true","ArrowUp,ArrowLeft","false","","","original","1","50","","",""
"html-keyboard-response","167","830250","0.0-4.0-2.0-1.25","spark_pilot_2","7433","5","18","Female","","","","","","","null","<div style=""font-size:60px;"">+</div>","null","fixation","","","","","","","","","","","51","","",""
"revaluation","168","834267","0.0-4.0-2.0-0.26","spark_pilot_2","7433","5","18","Female","","false","","","","","[904.7999999523163]","./assets/img/canyon/catch/1.jpg","[""spaceBar""]","value training","canyon","0","{""ArrowUp,ArrowLeft"":26,""ArrowUp,ArrowRight"":10,""ArrowDown,ArrowLeft"":5,""ArrowDown,ArrowRight"":17}","true","spaceBar","true","","","original","1","52","","",""
"html-keyboard-response","169","834778","0.0-4.0-2.0-1.26","spark_pilot_2","7433","5","18","Female","","","","","","","null","<div style=""font-size:60px;"">+</div>","null","fixation","","","","","","","","","","","53","","",""
"revaluation","170","840800","0.0-4.0-2.0-0.27","spark_pilot_2","7433","5","18","Female","","false","","","","","[655.7000000476837,600.2000000476837]","./assets/img/canyon/memory/3.jpg","[""ArrowUp"",""ArrowLeft""]","value training","canyon","26","{""ArrowUp,ArrowLeft"":26,""ArrowUp,ArrowRight"":10,""ArrowDown,ArrowLeft"":5,""ArrowDown,ArrowRight"":17}","true","ArrowUp,ArrowLeft","false","","","original","1","54","","",""
"html-keyboard-response","171","841306","0.0-4.0-2.0-1.27","spark_pilot_2","7433","5","18","Female","","","","","","","null","<div style=""font-size:60px;"">+</div>","null","fixation","","","","","","","","","","","55","","",""
"revaluation","172","845322","0.0-4.0-2.0-0.28","spark_pilot_2","7433","5","18","Female","","false","","","","","[906.7000000476837]","./assets/img/canyon/catch/3.jpg","[""spaceBar""]","value training","canyon","0","{""ArrowUp,ArrowLeft"":26,""ArrowUp,ArrowRight"":10,""ArrowDown,ArrowLeft"":5,""ArrowDown,ArrowRight"":17}","true","spaceBar","true","","","original","1","56","","",""
"html-keyboard-response","173","845834","0.0-4.0-2.0-1.28","spark_pilot_2","7433","5","18","Female","","","","","","","null","<div style=""font-size:60px;"">+</div>","null","fixation","","","","","","","","","","","57","","",""
"revaluation","174","849850","0.0-4.0-2.0-0.29","spark_pilot_2","7433","5","18","Female","","false","","","","","[1093.1000001430511]","./assets/img/canyon/catch/2.jpg","[""spaceBar""]","value training","canyon","0","{""ArrowUp,ArrowLeft"":26,""ArrowUp,ArrowRight"":10,""ArrowDown,ArrowLeft"":5,""ArrowDown,ArrowRight"":17}","true","spaceBar","true","","","original","1","58","","",""
"html-keyboard-response","175","850362","0.0-4.0-2.0-1.29","spark_pilot_2","7433","5","18","Female","","","","","","","null","<div style=""font-size:60px;"">+</div>","null","fixation","","","","","","","","","","","59","","",""
"revaluation","176","856383","0.0-4.0-2.0-0.30","spark_pilot_2","7433","5","18","Female","","false","","","","","[755.0999999046326,359.5]","./assets/img/canyon/memory/0.jpg","[""ArrowUp"",""ArrowLeft""]","value training","canyon","26","{""ArrowUp,ArrowLeft"":26,""ArrowUp,ArrowRight"":10,""ArrowDown,ArrowLeft"":5,""ArrowDown,ArrowRight"":17}","true","ArrowUp,ArrowLeft","false","","","original","1","60","","",""
"html-keyboard-response","177","856889","0.0-4.0-2.0-1.30","spark_pilot_2","7433","5","18","Female","","","","","","","null","<div style=""font-size:60px;"">+</div>","null","fixation","","","","","","","","","","","61","","",""
"revaluation","178","862911","0.0-4.0-2.0-0.31","spark_pilot_2","7433","5","18","Female","","false","","","","","[1567.2999999523163,903.2000000476837]","./assets/img/canyon/memory/2.jpg","[""ArrowUp"",""ArrowLeft""]","value training","canyon","26","{""ArrowUp,ArrowLeft"":26,""ArrowUp,ArrowRight"":10,""ArrowDown,ArrowLeft"":5,""ArrowDown,ArrowRight"":17}","true","ArrowUp,ArrowLeft","false","","","original","1","62","","",""
"html-keyboard-response","179","863417","0.0-4.0-2.0-1.31","spark_pilot_2","7433","5","18","Female","","","","","","","null","<div style=""font-size:60px;"">+</div>","null","fixation","","","","","","","","","","","63","","",""
"revaluation","180","869439","0.0-4.0-2.0-0.32","spark_pilot_2","7433","5","18","Female","","false","","","","","[528.1999998092651,352]","./assets/img/canyon/memory/3.jpg","[""ArrowUp"",""ArrowLeft""]","value training","canyon","26","{""ArrowUp,ArrowLeft"":26,""ArrowUp,ArrowRight"":10,""ArrowDown,ArrowLeft"":5,""ArrowDown,ArrowRight"":17}","true","ArrowUp,ArrowLeft","false","","","original","1","64","","",""
"html-keyboard-response","181","869945","0.0-4.0-2.0-1.32","spark_pilot_2","7433","5","18","Female","","","","","","","null","<div style=""font-size:60px;"">+</div>","null","fixation","","","","","","","","","","","65","","",""
"revaluation","182","873962","0.0-4.0-2.0-0.33","spark_pilot_2","7433","5","18","Female","","false","","","","","[568.7000000476837]","./assets/img/canyon/catch/5.jpg","[""ArrowUp""]","value training","canyon","-10","{""ArrowUp,ArrowLeft"":26,""ArrowUp,ArrowRight"":10,""ArrowDown,ArrowLeft"":5,""ArrowDown,ArrowRight"":17}","false","ArrowUp","true","","","original","1","66","","",""
"html-keyboard-response","183","874473","0.0-4.0-2.0-1.33","spark_pilot_2","7433","5","18","Female","","","","","","","null","<div style=""font-size:60px;"">+</div>","null","fixation","","","","","","","","","","","67","","",""
"revaluation","184","880495","0.0-4.0-2.0-0.34","spark_pilot_2","7433","5","18","Female","","false","","","","","[705,652.9000000953674]","./assets/img/canyon/memory/7.jpg","[""ArrowUp"",""ArrowLeft""]","value training","canyon","26","{""ArrowUp,ArrowLeft"":26,""ArrowUp,ArrowRight"":10,""ArrowDown,ArrowLeft"":5,""ArrowDown,ArrowRight"":17}","true","ArrowUp,ArrowLeft","false","","","original","1","68","","",""
"html-keyboard-response","185","881001","0.0-4.0-2.0-1.34","spark_pilot_2","7433","5","18","Female","","","","","","","null","<div style=""font-size:60px;"">+</div>","null","fixation","","","","","","","","","","","69","","",""
"revaluation","186","887023","0.0-4.0-2.0-0.35","spark_pilot_2","7433","5","18","Female","","false","","","","","[740.7000000476837,778.8999998569489]","./assets/img/canyon/memory/4.jpg","[""ArrowUp"",""ArrowLeft""]","value training","canyon","26","{""ArrowUp,ArrowLeft"":26,""ArrowUp,ArrowRight"":10,""ArrowDown,ArrowLeft"":5,""ArrowDown,ArrowRight"":17}","true","ArrowUp,ArrowLeft","false","","","original","1","70","","",""
"html-keyboard-response","187","887529","0.0-4.0-2.0-1.35","spark_pilot_2","7433","5","18","Female","","","","","","","null","<div style=""font-size:60px;"">+</div>","null","fixation","","","","","","","","","","","71","","",""
"revaluation","188","893551","0.0-4.0-2.0-0.36","spark_pilot_2","7433","5","18","Female","","false","","","","","[1570.3999998569489,633]","./assets/img/canyon/memory/14.jpg","[""ArrowUp"",""ArrowLeft""]","value training","canyon","26","{""ArrowUp,ArrowLeft"":26,""ArrowUp,ArrowRight"":10,""ArrowDown,ArrowLeft"":5,""ArrowDown,ArrowRight"":17}","true","ArrowUp,ArrowLeft","false","","","original","1","72","","",""
"html-keyboard-response","189","894057","0.0-4.0-2.0-1.36","spark_pilot_2","7433","5","18","Female","","","","","","","null","<div style=""font-size:60px;"">+</div>","null","fixation","","","","","","","","","","","73","","",""
"revaluation","190","900078","0.0-4.0-2.0-0.37","spark_pilot_2","7433","5","18","Female","","false","","","","","[818,347.5]","./assets/img/canyon/memory/9.jpg","[""ArrowUp"",""ArrowLeft""]","value training","canyon","26","{""ArrowUp,ArrowLeft"":26,""ArrowUp,ArrowRight"":10,""ArrowDown,ArrowLeft"":5,""ArrowDown,ArrowRight"":17}","true","ArrowUp,ArrowLeft","false","","","original","1","74","","",""
"html-keyboard-response","191","900585","0.0-4.0-2.0-1.37","spark_pilot_2","7433","5","18","Female","","","","","","","null","<div style=""font-size:60px;"">+</div>","null","fixation","","","","","","","","","","","75","","",""
"revaluation","192","906606","0.0-4.0-2.0-0.38","spark_pilot_2","7433","5","18","Female","","false","","","","","[893.6000001430511,393.7000000476837]","./assets/img/canyon/memory/10.jpg","[""ArrowUp"",""ArrowLeft""]","value training","canyon","26","{""ArrowUp,ArrowLeft"":26,""ArrowUp,ArrowRight"":10,""ArrowDown,ArrowLeft"":5,""ArrowDown,ArrowRight"":17}","true","ArrowUp,ArrowLeft","false","","","original","1","76","","",""
"html-keyboard-response","193","907113","0.0-4.0-2.0-1.38","spark_pilot_2","7433","5","18","Female","","","","","","","null","<div style=""font-size:60px;"">+</div>","null","fixation","","","","","","","","","","","77","","",""
"revaluation","194","913134","0.0-4.0-2.0-0.39","spark_pilot_2","7433","5","18","Female","","false","","","","","[880.7999999523163,361.5]","./assets/img/canyon/memory/7.jpg","[""ArrowUp"",""ArrowLeft""]","value training","canyon","26","{""ArrowUp,ArrowLeft"":26,""ArrowUp,ArrowRight"":10,""ArrowDown,ArrowLeft"":5,""ArrowDown,ArrowRight"":17}","true","ArrowUp,ArrowLeft","false","","","original","1","78","","",""
"html-keyboard-response","195","913640","0.0-4.0-2.0-1.39","spark_pilot_2","7433","5","18","Female","","","","","","","null","<div style=""font-size:60px;"">+</div>","null","fixation","","","","","","","","","","","79","","",""
"revaluation","196","919662","0.0-4.0-2.0-0.40","spark_pilot_2","7433","5","18","Female","","false","","","","","[878.6999998092651,1054.7999999523163]","./assets/img/canyon/memory/34.jpg","[""ArrowDown"",""ArrowRight""]","value training","canyon","17","{""ArrowUp,ArrowLeft"":26,""ArrowUp,ArrowRight"":10,""ArrowDown,ArrowLeft"":5,""ArrowDown,ArrowRight"":17}","false","ArrowDown,ArrowRight","false","","","original","1","80","","",""
"html-keyboard-response","197","920168","0.0-4.0-2.0-1.40","spark_pilot_2","7433","5","18","Female","","","","","","","null","<div style=""font-size:60px;"">+</div>","null","fixation","","","","","","","","","","","81","","",""
"revaluation","198","926190","0.0-4.0-2.0-0.41","spark_pilot_2","7433","5","18","Female","","false","","","","","[395.2999999523163,823.3999998569489]","./assets/img/canyon/memory/10.jpg","[""ArrowUp"",""ArrowLeft""]","value training","canyon","26","{""ArrowUp,ArrowLeft"":26,""ArrowUp,ArrowRight"":10,""ArrowDown,ArrowLeft"":5,""ArrowDown,ArrowRight"":17}","true","ArrowUp,ArrowLeft","false","","","original","1","82","","",""
"html-keyboard-response","199","926696","0.0-4.0-2.0-1.41","spark_pilot_2","7433","5","18","Female","","","","","","","null","<div style=""font-size:60px;"">+</div>","null","fixation","","","","","","","","","","","83","","",""
"revaluation","200","932718","0.0-4.0-2.0-0.42","spark_pilot_2","7433","5","18","Female","","false","","","","","[682.7000000476837,572.7999999523163]","./assets/img/canyon/memory/6.jpg","[""ArrowUp"",""ArrowLeft""]","value training","canyon","26","{""ArrowUp,ArrowLeft"":26,""ArrowUp,ArrowRight"":10,""ArrowDown,ArrowLeft"":5,""ArrowDown,ArrowRight"":17}","true","ArrowUp,ArrowLeft","false","","","original","1","84","","",""
"html-keyboard-response","201","933224","0.0-4.0-2.0-1.42","spark_pilot_2","7433","5","18","Female","","","","","","","null","<div style=""font-size:60px;"">+</div>","null","fixation","","","","","","","","","","","85","","",""
"revaluation","202","937240","0.0-4.0-2.0-0.43","spark_pilot_2","7433","5","18","Female","","false","","","","","[886.2000000476837]","./assets/img/canyon/catch/0.jpg","[""spaceBar""]","value training","canyon","0","{""ArrowUp,ArrowLeft"":26,""ArrowUp,ArrowRight"":10,""ArrowDown,ArrowLeft"":5,""ArrowDown,ArrowRight"":17}","true","spaceBar","true","","","original","1","86","","",""
"html-keyboard-response","203","937752","0.0-4.0-2.0-1.43","spark_pilot_2","7433","5","18","Female","","","","","","","null","<div style=""font-size:60px;"">+</div>","null","fixation","","","","","","","","","","","87","","",""
"revaluation","204","943774","0.0-4.0-2.0-0.44","spark_pilot_2","7433","5","18","Female","","false","","","","","[690.7999999523163,339.09999990463257]","./assets/img/canyon/memory/33.jpg","[""ArrowUp"",""ArrowLeft""]","value training","canyon","26","{""ArrowUp,ArrowLeft"":26,""ArrowUp,ArrowRight"":10,""ArrowDown,ArrowLeft"":5,""ArrowDown,ArrowRight"":17}","true","ArrowUp,ArrowLeft","false","","","original","1","88","","",""
"html-keyboard-response","205","944280","0.0-4.0-2.0-1.44","spark_pilot_2","7433","5","18","Female","","","","","","","null","<div style=""font-size:60px;"">+</div>","null","fixation","","","","","","","","","","","89","","",""
"revaluation","206","950302","0.0-4.0-2.0-0.45","spark_pilot_2","7433","5","18","Female","","false","","","","","[695.6000001430511,579.5]","./assets/img/canyon/memory/15.jpg","[""ArrowUp"",""ArrowLeft""]","value training","canyon","26","{""ArrowUp,ArrowLeft"":26,""ArrowUp,ArrowRight"":10,""ArrowDown,ArrowLeft"":5,""ArrowDown,ArrowRight"":17}","true","ArrowUp,ArrowLeft","false","","","original","1","90","","",""
"html-keyboard-response","207","950808","0.0-4.0-2.0-1.45","spark_pilot_2","7433","5","18","Female","","","","","","","null","<div style=""font-size:60px;"">+</div>","null","fixation","","","","","","","","","","","91","","",""
"revaluation","208","956829","0.0-4.0-2.0-0.46","spark_pilot_2","7433","5","18","Female","","false","","","","","[762,465.5]","./assets/img/canyon/memory/14.jpg","[""ArrowUp"",""ArrowLeft""]","value training","canyon","26","{""ArrowUp,ArrowLeft"":26,""ArrowUp,ArrowRight"":10,""ArrowDown,ArrowLeft"":5,""ArrowDown,ArrowRight"":17}","true","ArrowUp,ArrowLeft","false","","","original","1","92","","",""
"html-keyboard-response","209","957336","0.0-4.0-2.0-1.46","spark_pilot_2","7433","5","18","Female","","","","","","","null","<div style=""font-size:60px;"">+</div>","null","fixation","","","","","","","","","","","93","","",""
"revaluation","210","963357","0.0-4.0-2.0-0.47","spark_pilot_2","7433","5","18","Female","","false","","","","","[636.8999998569489,484.09999990463257]","./assets/img/canyon/memory/16.jpg","[""ArrowUp"",""ArrowLeft""]","value training","canyon","26","{""ArrowUp,ArrowLeft"":26,""ArrowUp,ArrowRight"":10,""ArrowDown,ArrowLeft"":5,""ArrowDown,ArrowRight"":17}","true","ArrowUp,ArrowLeft","false","","","original","1","94","","",""
"html-keyboard-response","211","963863","0.0-4.0-2.0-1.47","spark_pilot_2","7433","5","18","Female","","","","","","","null","<div style=""font-size:60px;"">+</div>","null","fixation","","","","","","","","","","","95","","",""
"revaluation","212","967882","0.0-4.0-2.0-0.48","spark_pilot_2","7433","5","18","Female","","false","","","","","[1269.4000000953674]","./assets/img/canyon/catch/7.jpg","[""spaceBar""]","value training","canyon","0","{""ArrowUp,ArrowLeft"":26,""ArrowUp,ArrowRight"":10,""ArrowDown,ArrowLeft"":5,""ArrowDown,ArrowRight"":17}","true","spaceBar","true","","","original","1","96","","",""
"html-keyboard-response","213","968391","0.0-4.0-2.0-1.48","spark_pilot_2","7433","5","18","Female","","","","","","","null","<div style=""font-size:60px;"">+</div>","null","fixation","","","","","","","","","","","97","","",""
"revaluation","214","974413","0.0-4.0-2.0-0.49","spark_pilot_2","7433","5","18","Female","","false","","","","","[875.2999999523163,568.4000000953674]","./assets/img/canyon/memory/35.jpg","[""ArrowUp"",""ArrowLeft""]","value training","canyon","26","{""ArrowUp,ArrowLeft"":26,""ArrowUp,ArrowRight"":10,""ArrowDown,ArrowLeft"":5,""ArrowDown,ArrowRight"":17}","true","ArrowUp,ArrowLeft","false","","","original","1","98","","",""
"html-keyboard-response","215","974919","0.0-4.0-2.0-1.49","spark_pilot_2","7433","5","18","Female","","","","","","","null","<div style=""font-size:60px;"">+</div>","null","fixation","","","","","","","","","","","99","","",""
"learning-instructions","216","988809","0.0-4.0-3.0-0.0","spark_pilot_2","7433","5","18","Female","","","","","","","918.2999999523163","<p> Now, you will travel with a friend who will choose whether you go up or down first. </p>
            <p> On these turns, you will just see the animal that they found. You will still get to choose which chest to search for treasure.</p>","","instructions","","","","","","","","","","","","","",""
"revaluation","217","992830","0.0-4.0-4.0-0.0","spark_pilot_2","7433","5","18","Female","","false","","","","","[1610.5999999046326]","./assets/img/canyon/animals/giraffe.jpg","[""ArrowLeft""]","revaluation","canyon","5","{""ArrowUp,ArrowLeft"":26,""ArrowUp,ArrowRight"":10,""ArrowDown,ArrowLeft"":5,""ArrowDown,ArrowRight"":17}","false","ArrowDown,ArrowLeft","","","","original","1","0","","",""
"html-keyboard-response","218","993345","0.0-4.0-4.0-1.0","spark_pilot_2","7433","5","18","Female","","","","","","","null","<div style=""font-size:60px;"">+</div>","null","fixation","","","","","","","","","","","1","","",""
"revaluation","219","997366","0.0-4.0-4.0-0.1","spark_pilot_2","7433","5","18","Female","","false","","","","","[1127.2999999523163]","./assets/img/canyon/animals/lion.jpg","[""ArrowLeft""]","revaluation","canyon","26","{""ArrowUp,ArrowLeft"":26,""ArrowUp,ArrowRight"":10,""ArrowDown,ArrowLeft"":5,""ArrowDown,ArrowRight"":17}","true","ArrowUp,ArrowLeft","","","","original","1","2","","",""
"html-keyboard-response","220","997873","0.0-4.0-4.0-1.1","spark_pilot_2","7433","5","18","Female","","","","","","","null","<div style=""font-size:60px;"">+</div>","null","fixation","","","","","","","","","","","3","","",""
"revaluation","221","1001897","0.0-4.0-4.0-0.2","spark_pilot_2","7433","5","18","Female","","false","","","","","[649.6000001430511]","./assets/img/canyon/animals/lion.jpg","[""ArrowLeft""]","revaluation","canyon","26","{""ArrowUp,ArrowLeft"":26,""ArrowUp,ArrowRight"":10,""ArrowDown,ArrowLeft"":5,""ArrowDown,ArrowRight"":17}","true","ArrowUp,ArrowLeft","","","","original","1","4","","",""
"html-keyboard-response","222","1002407","0.0-4.0-4.0-1.2","spark_pilot_2","7433","5","18","Female","","","","","","","null","<div style=""font-size:60px;"">+</div>","null","fixation","","","","","","","","","","","5","","",""
"revaluation","223","1006425","0.0-4.0-4.0-0.3","spark_pilot_2","7433","5","18","Female","","false","","","","","[631.5999999046326]","./assets/img/canyon/animals/giraffe.jpg","[""ArrowRight""]","revaluation","canyon","17","{""ArrowUp,ArrowLeft"":26,""ArrowUp,ArrowRight"":10,""ArrowDown,ArrowLeft"":5,""ArrowDown,ArrowRight"":17}","true","ArrowDown,ArrowRight","","","","original","1","6","","",""
"html-keyboard-response","224","1006934","0.0-4.0-4.0-1.3","spark_pilot_2","7433","5","18","Female","","","","","","","null","<div style=""font-size:60px;"">+</div>","null","fixation","","","","","","","","","","","7","","",""
"revaluation","225","1010949","0.0-4.0-4.0-0.4","spark_pilot_2","7433","5","18","Female","","false","","","","","[1038.7999999523163]","./assets/img/canyon/animals/giraffe.jpg","[""ArrowRight""]","revaluation","canyon","17","{""ArrowUp,ArrowLeft"":26,""ArrowUp,ArrowRight"":10,""ArrowDown,ArrowLeft"":5,""ArrowDown,ArrowRight"":17}","true","ArrowDown,ArrowRight","","","","original","1","8","","",""
"html-keyboard-response","226","1011453","0.0-4.0-4.0-1.4","spark_pilot_2","7433","5","18","Female","","","","","","","null","<div style=""font-size:60px;"">+</div>","null","fixation","","","","","","","","","","","9","","",""
"revaluation","227","1015472","0.0-4.0-4.0-0.5","spark_pilot_2","7433","5","18","Female","","false","","","","","[725.7000000476837]","./assets/img/canyon/animals/lion.jpg","[""ArrowLeft""]","revaluation","canyon","26","{""ArrowUp,ArrowLeft"":26,""ArrowUp,ArrowRight"":10,""ArrowDown,ArrowLeft"":5,""ArrowDown,ArrowRight"":17}","true","ArrowUp,ArrowLeft","","","","original","1","10","","",""
"html-keyboard-response","228","1015982","0.0-4.0-4.0-1.5","spark_pilot_2","7433","5","18","Female","","","","","","","null","<div style=""font-size:60px;"">+</div>","null","fixation","","","","","","","","","","","11","","",""
"revaluation","229","1019997","0.0-4.0-4.0-0.6","spark_pilot_2","7433","5","18","Female","","false","","","","","[965.8999998569489]","./assets/img/canyon/animals/lion.jpg","[""ArrowLeft""]","revaluation","canyon","26","{""ArrowUp,ArrowLeft"":26,""ArrowUp,ArrowRight"":10,""ArrowDown,ArrowLeft"":5,""ArrowDown,ArrowRight"":17}","true","ArrowUp,ArrowLeft","","","","original","1","12","","",""
"html-keyboard-response","230","1020503","0.0-4.0-4.0-1.6","spark_pilot_2","7433","5","18","Female","","","","","","","null","<div style=""font-size:60px;"">+</div>","null","fixation","","","","","","","","","","","13","","",""
"revaluation","231","1024525","0.0-4.0-4.0-0.7","spark_pilot_2","7433","5","18","Female","","false","","","","","[839.6999998092651]","./assets/img/canyon/animals/lion.jpg","[""ArrowLeft""]","revaluation","canyon","26","{""ArrowUp,ArrowLeft"":26,""ArrowUp,ArrowRight"":10,""ArrowDown,ArrowLeft"":5,""ArrowDown,ArrowRight"":17}","true","ArrowUp,ArrowLeft","","","","original","1","14","","",""
"html-keyboard-response","232","1025031","0.0-4.0-4.0-1.7","spark_pilot_2","7433","5","18","Female","","","","","","","null","<div style=""font-size:60px;"">+</div>","null","fixation","","","","","","","","","","","15","","",""
"revaluation","233","1029048","0.0-4.0-4.0-0.8","spark_pilot_2","7433","5","18","Female","","false","","","","","[530.7999999523163]","./assets/img/canyon/animals/lion.jpg","[""ArrowLeft""]","revaluation","canyon","26","{""ArrowUp,ArrowLeft"":26,""ArrowUp,ArrowRight"":10,""ArrowDown,ArrowLeft"":5,""ArrowDown,ArrowRight"":17}","true","ArrowUp,ArrowLeft","","","","original","1","16","","",""
"html-keyboard-response","234","1029559","0.0-4.0-4.0-1.8","spark_pilot_2","7433","5","18","Female","","","","","","","null","<div style=""font-size:60px;"">+</div>","null","fixation","","","","","","","","","","","17","","",""
"revaluation","235","1033576","0.0-4.0-4.0-0.9","spark_pilot_2","7433","5","18","Female","","false","","","","","[950.2000000476837]","./assets/img/canyon/animals/giraffe.jpg","[""ArrowRight""]","revaluation","canyon","17","{""ArrowUp,ArrowLeft"":26,""ArrowUp,ArrowRight"":10,""ArrowDown,ArrowLeft"":5,""ArrowDown,ArrowRight"":17}","true","ArrowDown,ArrowRight","","","","original","1","18","","",""
"html-keyboard-response","236","1034087","0.0-4.0-4.0-1.9","spark_pilot_2","7433","5","18","Female","","","","","","","null","<div style=""font-size:60px;"">+</div>","null","fixation","","","","","","","","","","","19","","",""
"revaluation","237","1038109","0.0-4.0-4.0-0.10","spark_pilot_2","7433","5","18","Female","","false","","","","","[654.8000001907349]","./assets/img/canyon/animals/giraffe.jpg","[""ArrowRight""]","revaluation","canyon","17","{""ArrowUp,ArrowLeft"":26,""ArrowUp,ArrowRight"":10,""ArrowDown,ArrowLeft"":5,""ArrowDown,ArrowRight"":17}","true","ArrowDown,ArrowRight","","","","original","1","20","","",""
"html-keyboard-response","238","1038615","0.0-4.0-4.0-1.10","spark_pilot_2","7433","5","18","Female","","","","","","","null","<div style=""font-size:60px;"">+</div>","null","fixation","","","","","","","","","","","21","","",""
"revaluation","239","1042637","0.0-4.0-4.0-0.11","spark_pilot_2","7433","5","18","Female","","false","","","","","[817.1999998092651]","./assets/img/canyon/animals/giraffe.jpg","[""ArrowRight""]","revaluation","canyon","17","{""ArrowUp,ArrowLeft"":26,""ArrowUp,ArrowRight"":10,""ArrowDown,ArrowLeft"":5,""ArrowDown,ArrowRight"":17}","true","ArrowDown,ArrowRight","","","","original","1","22","","",""
"html-keyboard-response","240","1043143","0.0-4.0-4.0-1.11","spark_pilot_2","7433","5","18","Female","","","","","","","null","<div style=""font-size:60px;"">+</div>","null","fixation","","","","","","","","","","","23","","",""
"revaluation","241","1047159","0.0-4.0-4.0-0.12","spark_pilot_2","7433","5","18","Female","","false","","","","","[530.2000000476837]","./assets/img/canyon/animals/giraffe.jpg","[""ArrowRight""]","revaluation","canyon","17","{""ArrowUp,ArrowLeft"":26,""ArrowUp,ArrowRight"":10,""ArrowDown,ArrowLeft"":5,""ArrowDown,ArrowRight"":17}","true","ArrowDown,ArrowRight","","","","original","1","24","","",""
"html-keyboard-response","242","1047671","0.0-4.0-4.0-1.12","spark_pilot_2","7433","5","18","Female","","","","","","","null","<div style=""font-size:60px;"">+</div>","null","fixation","","","","","","","","","","","25","","",""
"revaluation","243","1051693","0.0-4.0-4.0-0.13","spark_pilot_2","7433","5","18","Female","","false","","","","","[564]","./assets/img/canyon/animals/giraffe.jpg","[""ArrowRight""]","revaluation","canyon","17","{""ArrowUp,ArrowLeft"":26,""ArrowUp,ArrowRight"":10,""ArrowDown,ArrowLeft"":5,""ArrowDown,ArrowRight"":17}","true","ArrowDown,ArrowRight","","","","original","1","26","","",""
"html-keyboard-response","244","1052199","0.0-4.0-4.0-1.13","spark_pilot_2","7433","5","18","Female","","","","","","","null","<div style=""font-size:60px;"">+</div>","null","fixation","","","","","","","","","","","27","","",""
"revaluation","245","1056221","0.0-4.0-4.0-0.14","spark_pilot_2","7433","5","18","Female","","false","","","","","[982.2999999523163]","./assets/img/canyon/animals/lion.jpg","[""ArrowLeft""]","revaluation","canyon","26","{""ArrowUp,ArrowLeft"":26,""ArrowUp,ArrowRight"":10,""ArrowDown,ArrowLeft"":5,""ArrowDown,ArrowRight"":17}","true","ArrowUp,ArrowLeft","","","","original","1","28","","",""
"html-keyboard-response","246","1056727","0.0-4.0-4.0-1.14","spark_pilot_2","7433","5","18","Female","","","","","","","null","<div style=""font-size:60px;"">+</div>","null","fixation","","","","","","","","","","","29","","",""
"revaluation","247","1060748","0.0-4.0-4.0-0.15","spark_pilot_2","7433","5","18","Female","","false","","","","","[636.5]","./assets/img/canyon/animals/lion.jpg","[""ArrowLeft""]","revaluation","canyon","26","{""ArrowUp,ArrowLeft"":26,""ArrowUp,ArrowRight"":10,""ArrowDown,ArrowLeft"":5,""ArrowDown,ArrowRight"":17}","true","ArrowUp,ArrowLeft","","","","original","1","30","","",""
"html-keyboard-response","248","1061255","0.0-4.0-4.0-1.15","spark_pilot_2","7433","5","18","Female","","","","","","","null","<div style=""font-size:60px;"">+</div>","null","fixation","","","","","","","","","","","31","","",""
"revaluation","249","1065276","0.0-4.0-4.0-0.16","spark_pilot_2","7433","5","18","Female","","false","","","","","[510.2999999523163]","./assets/img/canyon/animals/giraffe.jpg","[""ArrowLeft""]","revaluation","canyon","5","{""ArrowUp,ArrowLeft"":26,""ArrowUp,ArrowRight"":10,""ArrowDown,ArrowLeft"":5,""ArrowDown,ArrowRight"":17}","false","ArrowDown,ArrowLeft","","","","original","1","32","","",""
"html-keyboard-response","250","1065782","0.0-4.0-4.0-1.16","spark_pilot_2","7433","5","18","Female","","","","","","","null","<div style=""font-size:60px;"">+</div>","null","fixation","","","","","","","","","","","33","","",""
"revaluation","251","1069799","0.0-4.0-4.0-0.17","spark_pilot_2","7433","5","18","Female","","false","","","","","[912.2999999523163]","./assets/img/canyon/animals/lion.jpg","[""ArrowLeft""]","revaluation","canyon","26","{""ArrowUp,ArrowLeft"":26,""ArrowUp,ArrowRight"":10,""ArrowDown,ArrowLeft"":5,""ArrowDown,ArrowRight"":17}","true","ArrowUp,ArrowLeft","","","","original","1","34","","",""
"html-keyboard-response","252","1070310","0.0-4.0-4.0-1.17","spark_pilot_2","7433","5","18","Female","","","","","","","null","<div style=""font-size:60px;"">+</div>","null","fixation","","","","","","","","","","","35","","",""
"learning-instructions","253","1098593","0.0-4.0-5.0-0.0","spark_pilot_2","7433","5","18","Female","","","","","","","16795.800000190735","<p> Time to play the dot game! </p>
            <p> For one minute, click the red dots on the following screen as they appear. </p>
            <p><b> Don't look away, as you will earn bonus for clicking dots</b>. </p>","","instructions","","","","","","","","","","","","","",""
"revaluation","254","1158597","0.0-4.0-6.0-0.0","spark_pilot_2","7433","5","18","Female","","","","","","","[108,56,76,89,57,105,65]","","","rest","","70","","","","","0","60000","","","","","",""
"learning-instructions","255","1167711","0.0-4.0-7.0-0.0","spark_pilot_2","7433","5","18","Female","","","","","","","2881.699999809265","<p> You have almost finished this part of the game! </p>
            <p> We are going to ask you to make a few more choices. </p>","","instructions","","","","","","","","","","","","","",""
"learning-instructions","256","1183028","0.0-4.0-7.0-0.1","spark_pilot_2","7433","5","18","Female","","","","","","","1345.2000000476837","<p> First, you need to decide whether to go up or down. When you see each picture, use the arrow keys to make your choice. </p>
            <p><b>You will not see which animal you found, but try to get to the one that will give you the most treasure.</b></p>","","instructions","","","","","","","","","","","","","",""
"revaluation","257","1184187","0.0-4.0-8.0-0.0","spark_pilot_2","7433","5","18","Female","","false","","","","","[1155.5999999046326]","./assets/img/canyon/test/2.jpg","[""ArrowUp""]","first stage test","canyon","0","{""ArrowUp,ArrowLeft"":26,""ArrowUp,ArrowRight"":10,""ArrowDown,ArrowLeft"":5,""ArrowDown,ArrowRight"":17}","true","ArrowUp","false","","","original","1","","","",""
"html-keyboard-response","258","1184699","0.0-4.0-8.0-1.0","spark_pilot_2","7433","5","18","Female","","","","","","","null","<div style=""font-size:60px;"">+</div>","null","fixation","","","","","","","","","","","","","",""
"revaluation","259","1185385","0.0-4.0-8.0-0.1","spark_pilot_2","7433","5","18","Female","","false","","","","","[682.2999999523163]","./assets/img/canyon/test/0.jpg","[""ArrowUp""]","first stage test","canyon","0","{""ArrowUp,ArrowLeft"":26,""ArrowUp,ArrowRight"":10,""ArrowDown,ArrowLeft"":5,""ArrowDown,ArrowRight"":17}","true","ArrowUp","false","","","original","1","","","",""
"html-keyboard-response","260","1185889","0.0-4.0-8.0-1.1","spark_pilot_2","7433","5","18","Female","","","","","","","null","<div style=""font-size:60px;"">+</div>","null","fixation","","","","","","","","","","","","","",""
"revaluation","261","1186766","0.0-4.0-8.0-0.2","spark_pilot_2","7433","5","18","Female","","false","","","","","[873.3999998569489]","./assets/img/canyon/test/3.jpg","[""ArrowUp""]","first stage test","canyon","0","{""ArrowUp,ArrowLeft"":26,""ArrowUp,ArrowRight"":10,""ArrowDown,ArrowLeft"":5,""ArrowDown,ArrowRight"":17}","true","ArrowUp","false","","","original","1","","","",""
"html-keyboard-response","262","1187273","0.0-4.0-8.0-1.2","spark_pilot_2","7433","5","18","Female","","","","","","","null","<div style=""font-size:60px;"">+</div>","null","fixation","","","","","","","","","","","","","",""
"revaluation","263","1187903","0.0-4.0-8.0-0.3","spark_pilot_2","7433","5","18","Female","","false","","","","","[624.9000000953674]","./assets/img/canyon/test/1.jpg","[""ArrowUp""]","first stage test","canyon","0","{""ArrowUp,ArrowLeft"":26,""ArrowUp,ArrowRight"":10,""ArrowDown,ArrowLeft"":5,""ArrowDown,ArrowRight"":17}","true","ArrowUp","false","","","original","1","","","",""
"html-keyboard-response","264","1188409","0.0-4.0-8.0-1.3","spark_pilot_2","7433","5","18","Female","","","","","","","null","<div style=""font-size:60px;"">+</div>","null","fixation","","","","","","","","","","","","","",""
"learning-instructions","265","1200898","0.0-4.0-9.0-0.0","spark_pilot_2","7433","5","18","Female","","","","","","","1145.5999999046326","<p> Now you will see the animals again and can search their chests for treasure. </p>
            <p> This time, you will not see how much treasure you earned, but you will earn more bonus money for making better choices. </p>","","instructions","","","","","","","","","","","","","",""
"revaluation","266","1201575","0.0-4.0-10.0-0.0","spark_pilot_2","7433","5","18","Female","","false","","","","","[673.8999998569489]","./assets/img/canyon/animals/lion.jpg","[""ArrowLeft""]","second stage test","canyon","0","{""ArrowUp,ArrowLeft"":26,""ArrowUp,ArrowRight"":10,""ArrowDown,ArrowLeft"":5,""ArrowDown,ArrowRight"":17}","true","ArrowUp,ArrowLeft","","","","original","1","","","",""
"html-keyboard-response","267","1202085","0.0-4.0-10.0-1.0","spark_pilot_2","7433","5","18","Female","","","","","","","null","<div style=""font-size:60px;"">+</div>","null","fixation","","","","","","","","","","","","","",""
"revaluation","268","1202545","0.0-4.0-10.0-0.1","spark_pilot_2","7433","5","18","Female","","false","","","","","[456]","./assets/img/canyon/animals/lion.jpg","[""ArrowLeft""]","second stage test","canyon","0","{""ArrowUp,ArrowLeft"":26,""ArrowUp,ArrowRight"":10,""ArrowDown,ArrowLeft"":5,""ArrowDown,ArrowRight"":17}","true","ArrowUp,ArrowLeft","","","","original","1","","","",""
"html-keyboard-response","269","1203053","0.0-4.0-10.0-1.1","spark_pilot_2","7433","5","18","Female","","","","","","","null","<div style=""font-size:60px;"">+</div>","null","fixation","","","","","","","","","","","","","",""
"revaluation","270","1203514","0.0-4.0-10.0-0.2","spark_pilot_2","7433","5","18","Female","","false","","","","","[455.90000009536743]","./assets/img/canyon/animals/lion.jpg","[""ArrowLeft""]","second stage test","canyon","0","{""ArrowUp,ArrowLeft"":26,""ArrowUp,ArrowRight"":10,""ArrowDown,ArrowLeft"":5,""ArrowDown,ArrowRight"":17}","true","ArrowUp,ArrowLeft","","","","original","1","","","",""
"html-keyboard-response","271","1204020","0.0-4.0-10.0-1.2","spark_pilot_2","7433","5","18","Female","","","","","","","null","<div style=""font-size:60px;"">+</div>","null","fixation","","","","","","","","","","","","","",""
"revaluation","272","1204442","0.0-4.0-10.0-0.3","spark_pilot_2","7433","5","18","Female","","false","","","","","[417.7999999523163]","./assets/img/canyon/animals/lion.jpg","[""ArrowLeft""]","second stage test","canyon","0","{""ArrowUp,ArrowLeft"":26,""ArrowUp,ArrowRight"":10,""ArrowDown,ArrowLeft"":5,""ArrowDown,ArrowRight"":17}","true","ArrowUp,ArrowLeft","","","","original","1","","","",""
"html-keyboard-response","273","1204945","0.0-4.0-10.0-1.3","spark_pilot_2","7433","5","18","Female","","","","","","","null","<div style=""font-size:60px;"">+</div>","null","fixation","","","","","","","","","","","","","",""
"revaluation","274","1205447","0.0-4.0-10.0-0.4","spark_pilot_2","7433","5","18","Female","","false","","","","","[497.7999999523163]","./assets/img/canyon/animals/giraffe.jpg","[""ArrowRight""]","second stage test","canyon","0","{""ArrowUp,ArrowLeft"":26,""ArrowUp,ArrowRight"":10,""ArrowDown,ArrowLeft"":5,""ArrowDown,ArrowRight"":17}","true","ArrowDown,ArrowRight","","","","original","1","","","",""
"html-keyboard-response","275","1205953","0.0-4.0-10.0-1.4","spark_pilot_2","7433","5","18","Female","","","","","","","null","<div style=""font-size:60px;"">+</div>","null","fixation","","","","","","","","","","","","","",""
"revaluation","276","1206429","0.0-4.0-10.0-0.5","spark_pilot_2","7433","5","18","Female","","false","","","","","[471.19999980926514]","./assets/img/canyon/animals/giraffe.jpg","[""ArrowRight""]","second stage test","canyon","0","{""ArrowUp,ArrowLeft"":26,""ArrowUp,ArrowRight"":10,""ArrowDown,ArrowLeft"":5,""ArrowDown,ArrowRight"":17}","true","ArrowDown,ArrowRight","","","","original","1","","","",""
"html-keyboard-response","277","1206940","0.0-4.0-10.0-1.5","spark_pilot_2","7433","5","18","Female","","","","","","","null","<div style=""font-size:60px;"">+</div>","null","fixation","","","","","","","","","","","","","",""
"revaluation","278","1207409","0.0-4.0-10.0-0.6","spark_pilot_2","7433","5","18","Female","","false","","","","","[464]","./assets/img/canyon/animals/giraffe.jpg","[""ArrowRight""]","second stage test","canyon","0","{""ArrowUp,ArrowLeft"":26,""ArrowUp,ArrowRight"":10,""ArrowDown,ArrowLeft"":5,""ArrowDown,ArrowRight"":17}","true","ArrowDown,ArrowRight","","","","original","1","","","",""
"html-keyboard-response","279","1207913","0.0-4.0-10.0-1.6","spark_pilot_2","7433","5","18","Female","","","","","","","null","<div style=""font-size:60px;"">+</div>","null","fixation","","","","","","","","","","","","","",""
"revaluation","280","1208617","0.0-4.0-10.0-0.7","spark_pilot_2","7433","5","18","Female","","false","","","","","[700.7999999523163]","./assets/img/canyon/animals/giraffe.jpg","[""ArrowRight""]","second stage test","canyon","0","{""ArrowUp,ArrowLeft"":26,""ArrowUp,ArrowRight"":10,""ArrowDown,ArrowLeft"":5,""ArrowDown,ArrowRight"":17}","true","ArrowDown,ArrowRight","","","","original","1","","","",""
"html-keyboard-response","281","1209121","0.0-4.0-10.0-1.7","spark_pilot_2","7433","5","18","Female","","","","","","","null","<div style=""font-size:60px;"">+</div>","null","fixation","","","","","","","","","","","","","",""
"learning-instructions","282","1213417","0.0-4.0-0.1-0.2","spark_pilot_2","7433","5","18","Female","","","","","","","1590.9000000953674","<p> This time you are searching for treasure in the <b>ocean</b>.</p>","","instructions","","","","","","","","","","","","","",""
"learning-instructions","283","1233259","0.0-4.0-0.1-0.3","spark_pilot_2","7433","5","18","Female","","","","","","","2589.600000143051","<p><b>New</b> animals with <b>new</b> treasure chests live here. You need to explore to discover where the animal with the best treasure chest is.</p>
                    <p> Like before, once you figure out which animal has the chest with the most treasure, you should try to get to that animal and select that chest! </p>","","instructions","","","","","","","","","","","","","",""
"learning-instructions","284","1248967","0.0-4.0-1.1-0.1","spark_pilot_2","7433","5","18","Female","","","","","","","975.3999998569489","<p> Remember, when you see a picture of the place, use the up and down keys to <b>find an animal</b>.</p>
            <p> When you encounter an animal, you should use the left and right keys to <b>select a treasure chest</b>.</p>
            <p> Don't forget to look out for the robber! </p>","","instructions","","","","","","","","","","","","","",""
"revaluation","285","1254992","0.0-4.0-2.1-0.50","spark_pilot_2","7433","5","18","Female","","false","","","","","[1369.8999998569489,892]","./assets/img/ocean/memory/33.jpg","[""ArrowUp"",""ArrowLeft""]","value training","ocean","23","{""ArrowUp,ArrowLeft"":23,""ArrowUp,ArrowRight"":10,""ArrowDown,ArrowLeft"":8,""ArrowDown,ArrowRight"":30}","false","ArrowUp,ArrowLeft","false","","","revaluation","2","0","","",""
"html-keyboard-response","286","1255495","0.0-4.0-2.1-1.50","spark_pilot_2","7433","5","18","Female","","","","","","","null","<div style=""font-size:60px;"">+</div>","null","fixation","","","","","","","","","","","1","","",""
"revaluation","287","1261525","0.0-4.0-2.1-0.51","spark_pilot_2","7433","5","18","Female","","false","","","","","[565.2000000476837,336.2999999523163]","./assets/img/ocean/memory/2.jpg","[""ArrowUp"",""ArrowRight""]","value training","ocean","10","{""ArrowUp,ArrowLeft"":23,""ArrowUp,ArrowRight"":10,""ArrowDown,ArrowLeft"":8,""ArrowDown,ArrowRight"":30}","false","ArrowUp,ArrowRight","false","","","revaluation","2","2","","",""
"html-keyboard-response","288","1262035","0.0-4.0-2.1-1.51","spark_pilot_2","7433","5","18","Female","","","","","","","null","<div style=""font-size:60px;"">+</div>","null","fixation","","","","","","","","","","","3","","",""
"revaluation","289","1268067","0.0-4.0-2.1-0.52","spark_pilot_2","7433","5","18","Female","","false","","","","","[803.2000000476837,654.5]","./assets/img/ocean/memory/3.jpg","[""ArrowDown"",""ArrowLeft""]","value training","ocean","8","{""ArrowUp,ArrowLeft"":23,""ArrowUp,ArrowRight"":10,""ArrowDown,ArrowLeft"":8,""ArrowDown,ArrowRight"":30}","false","ArrowDown,ArrowLeft","false","","","revaluation","2","4","","",""
"html-keyboard-response","290","1268579","0.0-4.0-2.1-1.52","spark_pilot_2","7433","5","18","Female","","","","","","","null","<div style=""font-size:60px;"">+</div>","null","fixation","","","","","","","","","","","5","","",""
"revaluation","291","1272604","0.0-4.0-2.1-0.53","spark_pilot_2","7433","5","18","Female","","false","","","","","[1171.0999999046326]","./assets/img/ocean/catch/2.jpg","[""spaceBar""]","value training","ocean","0","{""ArrowUp,ArrowLeft"":23,""ArrowUp,ArrowRight"":10,""ArrowDown,ArrowLeft"":8,""ArrowDown,ArrowRight"":30}","true","spaceBar","true","","","revaluation","2","6","","",""
"html-keyboard-response","292","1273116","0.0-4.0-2.1-1.53","spark_pilot_2","7433","5","18","Female","","","","","","","null","<div style=""font-size:60px;"">+</div>","null","fixation","","","","","","","","","","","7","","",""
"revaluation","293","1277135","0.0-4.0-2.1-0.54","spark_pilot_2","7433","5","18","Female","","false","","","","","[598.0999999046326]","./assets/img/ocean/catch/3.jpg","[""ArrowDown""]","value training","ocean","-10","{""ArrowUp,ArrowLeft"":23,""ArrowUp,ArrowRight"":10,""ArrowDown,ArrowLeft"":8,""ArrowDown,ArrowRight"":30}","false","ArrowDown","true","","","revaluation","2","8","","",""
"html-keyboard-response","294","1277643","0.0-4.0-2.1-1.54","spark_pilot_2","7433","5","18","Female","","","","","","","null","<div style=""font-size:60px;"">+</div>","null","fixation","","","","","","","","","","","9","","",""
"revaluation","295","1283676","0.0-4.0-2.1-0.55","spark_pilot_2","7433","5","18","Female","","false","","","","","[1598.2999999523163,659.4000000953674]","./assets/img/ocean/memory/35.jpg","[""ArrowDown"",""ArrowRight""]","value training","ocean","30","{""ArrowUp,ArrowLeft"":23,""ArrowUp,ArrowRight"":10,""ArrowDown,ArrowLeft"":8,""ArrowDown,ArrowRight"":30}","true","ArrowDown,ArrowRight","false","","","revaluation","2","10","","",""
"html-keyboard-response","296","1284182","0.0-4.0-2.1-1.55","spark_pilot_2","7433","5","18","Female","","","","","","","null","<div style=""font-size:60px;"">+</div>","null","fixation","","","","","","","","","","","11","","",""
"revaluation","297","1290210","0.0-4.0-2.1-0.56","spark_pilot_2","7433","5","18","Female","","false","","","","","[1276.0999999046326,376.60000014305115]","./assets/img/ocean/memory/14.jpg","[""ArrowDown"",""ArrowRight""]","value training","ocean","30","{""ArrowUp,ArrowLeft"":23,""ArrowUp,ArrowRight"":10,""ArrowDown,ArrowLeft"":8,""ArrowDown,ArrowRight"":30}","true","ArrowDown,ArrowRight","false","","","revaluation","2","12","","",""
"html-keyboard-response","298","1290721","0.0-4.0-2.1-1.56","spark_pilot_2","7433","5","18","Female","","","","","","","null","<div style=""font-size:60px;"">+</div>","null","fixation","","","","","","","","","","","13","","",""
"revaluation","299","1296744","0.0-4.0-2.1-0.57","spark_pilot_2","7433","5","18","Female","","false","","","","","[516.6000001430511,411.7000000476837]","./assets/img/ocean/memory/15.jpg","[""ArrowDown"",""ArrowRight""]","value training","ocean","30","{""ArrowUp,ArrowLeft"":23,""ArrowUp,ArrowRight"":10,""ArrowDown,ArrowLeft"":8,""ArrowDown,ArrowRight"":30}","true","ArrowDown,ArrowRight","false","","","revaluation","2","14","","",""
"html-keyboard-response","300","1297249","0.0-4.0-2.1-1.57","spark_pilot_2","7433","5","18","Female","","","","","","","null","<div style=""font-size:60px;"">+</div>","null","fixation","","","","","","","","","","","15","","",""
"revaluation","301","1303272","0.0-4.0-2.1-0.58","spark_pilot_2","7433","5","18","Female","","false","","","","","[537.7999999523163,489.5]","./assets/img/ocean/memory/5.jpg","[""ArrowDown"",""ArrowRight""]","value training","ocean","30","{""ArrowUp,ArrowLeft"":23,""ArrowUp,ArrowRight"":10,""ArrowDown,ArrowLeft"":8,""ArrowDown,ArrowRight"":30}","true","ArrowDown,ArrowRight","false","","","revaluation","2","16","","",""
"html-keyboard-response","302","1303777","0.0-4.0-2.1-1.58","spark_pilot_2","7433","5","18","Female","","","","","","","null","<div style=""font-size:60px;"">+</div>","null","fixation","","","","","","","","","","","17","","",""
"revaluation","303","1307795","0.0-4.0-2.1-0.59","spark_pilot_2","7433","5","18","Female","","false","","","","","[685.4000000953674]","./assets/img/ocean/catch/5.jpg","[""ArrowDown""]","value training","ocean","-10","{""ArrowUp,ArrowLeft"":23,""ArrowUp,ArrowRight"":10,""ArrowDown,ArrowLeft"":8,""ArrowDown,ArrowRight"":30}","false","ArrowDown","true","","","revaluation","2","18","","",""
"html-keyboard-response","304","1308304","0.0-4.0-2.1-1.59","spark_pilot_2","7433","5","18","Female","","","","","","","null","<div style=""font-size:60px;"">+</div>","null","fixation","","","","","","","","","","","19","","",""
"revaluation","305","1314330","0.0-4.0-2.1-0.60","spark_pilot_2","7433","5","18","Female","","false","","","","","[696.3999998569489,459.90000009536743]","./assets/img/ocean/memory/4.jpg","[""ArrowDown"",""ArrowRight""]","value training","ocean","30","{""ArrowUp,ArrowLeft"":23,""ArrowUp,ArrowRight"":10,""ArrowDown,ArrowLeft"":8,""ArrowDown,ArrowRight"":30}","true","ArrowDown,ArrowRight","false","","","revaluation","2","20","","",""
"html-keyboard-response","306","1314839","0.0-4.0-2.1-1.60","spark_pilot_2","7433","5","18","Female","","","","","","","null","<div style=""font-size:60px;"">+</div>","null","fixation","","","","","","","","","","","21","","",""
