"trial_type","trial_index","time_elapsed","internal_node_id","task_version","subject_id","assigned_condition","age","gender","browser_interaction","success","timeout","failed_images","failed_audio","failed_video","rt","stimulus","response","task_part","environment","score","rewardMap","correct","fullState","isCatch","numberMissed","duration","condition","order","trial_num","key_press","ground_truth","bonus"
"pavlovia","0","934","0.0-0.0","spark_pilot_2","7527","4","23","Female","[{""event"":""blur"",""trial"":1,""time"":4012},{""event"":""focus"",""trial"":2,""time"":15783},{""event"":""fullscreenenter"",""trial"":2,""time"":17474},{""event"":""fullscreenexit"",""trial"":3,""time"":22478},{""event"":""blur"",""trial"":3,""time"":23589},{""event"":""focus"",""trial"":3,""time"":24987},{""event"":""blur"",""trial"":5,""time"":46415},{""event"":""focus"",""trial"":5,""time"":47496}]","","","","","","","","","","","","","","","","","","","","","","",""
"preload","1","11702","0.0-1.0","spark_pilot_2","7527","4","23","Female","[{""event"":""blur"",""trial"":1,""time"":4012},{""event"":""focus"",""trial"":2,""time"":15783},{""event"":""fullscreenenter"",""trial"":2,""time"":17474},{""event"":""fullscreenexit"",""trial"":3,""time"":22478},{""event"":""blur"",""trial"":3,""time"":23589},{""event"":""focus"",""trial"":3,""time"":24987},{""event"":""blur"",""trial"":5,""time"":46415},{""event"":""focus"",""trial"":5,""time"":47496}]","true","false","[]","[]","[]","","","","","","","","","","","","","","","","","",""
"fullscreen","2","18449","0.0-2.0","spark_pilot_2","7527","4","23","Female","[{""event"":""blur"",""trial"":1,""time"":4012},{""event"":""focus"",""trial"":2,""time"":15783},{""event"":""fullscreenenter"",""trial"":2,""time"":17474},{""event"":""fullscreenexit"",""trial"":3,""time"":22478},{""event"":""blur"",""trial"":3,""time"":23589},{""event"":""focus"",""trial"":3,""time"":24987},{""event"":""blur"",""trial"":5,""time"":46415},{""event"":""focus"",""trial"":5,""time"":47496}]","true","","","","","","","","","","","","","","","","","","","","","",""
"audio-button-response","3","28639","0.0-3.0-0.0-0.0","spark_pilot_2","7527","4","23","Female","","","","","","","10160","./assets/audio/audiotest/turtle.mp3","4","audio_test","","","","","","","","","","","","","",""
"audio-button-response","4","31036","0.0-3.0-0.1-0.1","spark_pilot_2","7527","4","23","Female","[{""event"":""blur"",""trial"":1,""time"":4012},{""event"":""focus"",""trial"":2,""time"":15783},{""event"":""fullscreenenter"",""trial"":2,""time"":17474},{""event"":""fullscreenexit"",""trial"":3,""time"":22478},{""event"":""blur"",""trial"":3,""time"":23589},{""event"":""focus"",""trial"":3,""time"":24987},{""event"":""blur"",""trial"":5,""time"":46415},{""event"":""focus"",""trial"":5,""time"":47496}]","","","","","","1379","./assets/audio/audiotest/turtle.mp3","2","audio_test","","","","","","","","","","","","","",""
"learning-instructions","5","50914","0.0-3.0-1.0-0.0","spark_pilot_2","7527","4","23","Female","","","","","","","12903.5","<p> Welcome! Please remember to stay in fullscreen mode and don't click away from the experiment. </p>","","instructions","","","","","","","","","","","","","",""
"learning-instructions","6","60691","0.0-3.0-1.0-0.1","spark_pilot_2","7527","4","23","Female","","","","","","","1370.3999999761581","<p> Today you will be playing a game to earn treasure. </p>
            <p> At the end of the experiment, you will earn a bonus based on how much treasure you find. </p>
            <img src='./assets/img/instructions/treasure.jpg' class='instructions-image'>","","instructions","","","","","","","","","","","","","",""
"learning-instructions","7","70624","0.0-3.0-1.0-0.2","spark_pilot_2","7527","4","23","Female","","","","","","","1674","<p> Animals have hidden treasure in treasure chests. </p>
            <p> You need to first find an animal and then choose which of their treasure chests to search. </p>
            <img src='./assets/img/space/animals/cat.jpg' class='instructions-image'>","","instructions","","","","","","","","","","","","","",""
"learning-instructions","8","84676","0.0-3.0-1.0-0.3","spark_pilot_2","7527","4","23","Female","","","","","","","905.7999999523163","<p> In each round, you will search for treasure in a different place. In the real game, there will be two rounds. </p>
            <p> You will begin with a separate, practice round where you will search for treasure in outer space. </p>
            <img src='./assets/img/space/0.jpg' class='instructions-image'>","","instructions","","","","","","","","","","","","","",""
"learning-instructions","9","96827","0.0-3.0-1.0-0.4","spark_pilot_2","7527","4","23","Female","","","","","","","735.6000000238419","<p> On every turn, you will see a picture of the place that you are in, but the specific image may be different each time. </p>
            <p> For example, both of these images mean you are in outer space. </p>
            <img src='./assets/img/instructions/outerspace.jpg' class='instructions-image'>","","instructions","","","","","","","","","","","","","",""
"learning-instructions","10","105815","0.0-3.0-1.0-0.5","spark_pilot_2","7527","4","23","Female","","","","","","","1164.7000000476837","<p> You need to decide which direction to travel in. </p>
            <p> You can choose between going <b>up or down</b> by using the arrow keys. </p>
            <img src='./assets/img/instructions/updown.jpg' class='instructions-image'>","","instructions","","","","","","","","","","","","","",""
"learning-instructions","11","116638","0.0-3.0-1.0-0.6","spark_pilot_2","7527","4","23","Female","","","","","","","2006.9000000953674","<p> You will have <b>2 seconds</b> to make your choice. </p>
            <p> If you do not make a choice within 2 seconds, you will not find an animal or earn treasure. </p>
            <img src='./assets/img/instructions/2seconds.jpg' class='instructions-image'>","","instructions","","","","","","","","","","","","","",""
"learning-instructions","12","124794","0.0-3.0-1.0-0.7","spark_pilot_2","7527","4","23","Female","","","","","","","1123.1000000238419","<p> Let’s try practicing that now! </p>
            <p> When you see a picture of the place you are in, press the <b>up</b> key to travel up. </p>
            <img src='./assets/img/instructions/pressUp.jpg' class='instructions-image'>","","instructions","","","","","","","","","","","","","",""
"revaluation","13","128825","0.0-3.0-2.0-0.0","spark_pilot_2","7527","4","23","Female","","","false","","","","[1111.2999999523163]","./assets/img/space/0.jpg","[""ArrowUp""]","first stage practice","space","0","null","null","ArrowUp","false","","","","","","","",""
"html-keyboard-response","14","129334","0.0-3.0-2.0-1.0","spark_pilot_2","7527","4","23","Female","","","","","","","null","<div style=""font-size:60px;"">+</div>","null","fixation","","","","","","","","","","","","","",""
"revaluation","15","133352","0.0-3.0-2.0-0.1","spark_pilot_2","7527","4","23","Female","","","false","","","","[969.3000000715256]","./assets/img/space/1.jpg","[""ArrowUp""]","first stage practice","space","0","null","null","ArrowUp","false","","","","","","","",""
"html-keyboard-response","16","133860","0.0-3.0-2.0-1.1","spark_pilot_2","7527","4","23","Female","","","","","","","null","<div style=""font-size:60px;"">+</div>","null","fixation","","","","","","","","","","","","","",""
"revaluation","17","137884","0.0-3.0-2.0-0.2","spark_pilot_2","7527","4","23","Female","","","false","","","","[280.60000002384186]","./assets/img/space/2.jpg","[""ArrowUp""]","first stage practice","space","0","null","null","ArrowUp","false","","","","","","","",""
"html-keyboard-response","18","138391","0.0-3.0-2.0-1.2","spark_pilot_2","7527","4","23","Female","","","","","","","null","<div style=""font-size:60px;"">+</div>","null","fixation","","","","","","","","","","","","","",""
"learning-instructions","19","144281","0.0-3.0-3.0-0.0","spark_pilot_2","7527","4","23","Female","","","","","","","1201.1999999284744","<p> Great job! Now try pressing the <b>down</b> key to travel down. </p>
            <img src='./assets/img/instructions/pressDown.jpg' class='instructions-image'>","","instructions","","","","","","","","","","","","","",""
"revaluation","20","148300","0.0-3.0-4.0-0.0","spark_pilot_2","7527","4","23","Female","","","false","","","","[735.1000000238419]","./assets/img/space/3.jpg","[""ArrowDown""]","first stage practice","space","0","null","null","ArrowDown","false","","","","","","","",""
"html-keyboard-response","21","148804","0.0-3.0-4.0-1.0","spark_pilot_2","7527","4","23","Female","","","","","","","null","<div style=""font-size:60px;"">+</div>","null","fixation","","","","","","","","","","","","","",""
"revaluation","22","152823","0.0-3.0-4.0-0.1","spark_pilot_2","7527","4","23","Female","","","false","","","","[442.1999999284744]","./assets/img/space/4.jpg","[""ArrowDown""]","first stage practice","space","0","null","null","ArrowDown","false","","","","","","","",""
"html-keyboard-response","23","153327","0.0-3.0-4.0-1.1","spark_pilot_2","7527","4","23","Female","","","","","","","null","<div style=""font-size:60px;"">+</div>","null","fixation","","","","","","","","","","","","","",""
"revaluation","24","157358","0.0-3.0-4.0-0.2","spark_pilot_2","7527","4","23","Female","","","false","","","","[371.2999999523163]","./assets/img/space/5.jpg","[""ArrowDown""]","first stage practice","space","0","null","null","ArrowDown","false","","","","","","","",""
"html-keyboard-response","25","157867","0.0-3.0-4.0-1.2","spark_pilot_2","7527","4","23","Female","","","","","","","null","<div style=""font-size:60px;"">+</div>","null","fixation","","","","","","","","","","","","","",""
"learning-instructions","26","168535","0.0-3.0-5.0-0.0","spark_pilot_2","7527","4","23","Female","","","","","","","814.8999999761581","<p> The animals don’t move, so the animal in the upper part of a place will stay in the upper part of a place, and the animal in the lower part of a place will stay in the lower part of a place. </p>","","instructions","","","","","","","","","","","","","",""
"learning-instructions","27","178796","0.0-3.0-5.0-0.1","spark_pilot_2","7527","4","23","Female","","","","","","","1126.2000000476837","<p> Each animal has two treasure chests for you to choose from. </p>
            <p> The amount of treasure in each chest can range from <b> 0 to 40 pieces.</b></p>","","instructions","","","","","","","","","","","","","",""
"learning-instructions","28","192521","0.0-3.0-5.0-0.2","spark_pilot_2","7527","4","23","Female","","","","","","","2530.6999999284744","<p> You should decide which chest to search for treasure by using the <b>left</b> and <b>right</b> arrow keys. </p>
            <p><b> Pay attention to which animal is on the screen, as the animals have different treasure chests. </b></p>
            <img src='./assets/img/instructions/leftright.jpg' class='instructions-image'>","","instructions","","","","","","","","","","","","","",""
"learning-instructions","29","199429","0.0-3.0-5.0-0.3","spark_pilot_2","7527","4","23","Female","","","","","","","548","<p> Let’s try practicing that now. </p>
            <p> When you see an animal, choose which chest to search for treasure. </p>
            <img src='./assets/img/instructions/chooseChest.jpg' class='instructions-image'>","","instructions","","","","","","","","","","","","","",""
"revaluation","30","203449","0.0-3.0-6.0-0.0","spark_pilot_2","7527","4","23","Female","","","false","","","","[853.3999999761581]","./assets/img/space/animals/cat.jpg","[""ArrowLeft""]","second stage practice","space","3","{""ArrowUp,ArrowLeft"":3,""ArrowUp,ArrowRight"":36,""ArrowDown,ArrowLeft"":15,""ArrowDown,ArrowRight"":23}","false","ArrowUp,ArrowLeft","","","","","","","","",""
"html-keyboard-response","31","203954","0.0-3.0-6.0-1.0","spark_pilot_2","7527","4","23","Female","","","","","","","null","<div style=""font-size:60px;"">+</div>","null","fixation","","","","","","","","","","","","","",""
"revaluation","32","207982","0.0-3.0-6.0-0.1","spark_pilot_2","7527","4","23","Female","","","false","","","","[552.2999999523163]","./assets/img/space/animals/rabbit.jpg","[""ArrowRight""]","second stage practice","space","23","{""ArrowUp,ArrowLeft"":3,""ArrowUp,ArrowRight"":36,""ArrowDown,ArrowLeft"":15,""ArrowDown,ArrowRight"":23}","true","ArrowDown,ArrowRight","","","","","","","","",""
"html-keyboard-response","33","208497","0.0-3.0-6.0-1.1","spark_pilot_2","7527","4","23","Female","","","","","","","null","<div style=""font-size:60px;"">+</div>","null","fixation","","","","","","","","","","","","","",""
"revaluation","34","212512","0.0-3.0-6.0-0.2","spark_pilot_2","7527","4","23","Female","","","false","","","","[567.6000000238419]","./assets/img/space/animals/cat.jpg","[""ArrowRight""]","second stage practice","space","36","{""ArrowUp,ArrowLeft"":3,""ArrowUp,ArrowRight"":36,""ArrowDown,ArrowLeft"":15,""ArrowDown,ArrowRight"":23}","true","ArrowUp,ArrowRight","","","","","","","","",""
"html-keyboard-response","35","213031","0.0-3.0-6.0-1.2","spark_pilot_2","7527","4","23","Female","","","","","","","null","<div style=""font-size:60px;"">+</div>","null","fixation","","","","","","","","","","","","","",""
"revaluation","36","217057","0.0-3.0-6.0-0.3","spark_pilot_2","7527","4","23","Female","","","false","","","","[414.09999990463257]","./assets/img/space/animals/rabbit.jpg","[""ArrowLeft""]","second stage practice","space","15","{""ArrowUp,ArrowLeft"":3,""ArrowUp,ArrowRight"":36,""ArrowDown,ArrowLeft"":15,""ArrowDown,ArrowRight"":23}","false","ArrowDown,ArrowLeft","","","","","","","","",""
"html-keyboard-response","37","217564","0.0-3.0-6.0-1.3","spark_pilot_2","7527","4","23","Female","","","","","","","null","<div style=""font-size:60px;"">+</div>","null","fixation","","","","","","","","","","","","","",""
"learning-instructions","38","239806","0.0-3.0-7.0-0.0","spark_pilot_2","7527","4","23","Female","","","","","","","5415.799999952316","<p> Great job. Now let’s try putting it together. </p>
            <p> On each turn, you will first see a picture to remind you of the place you are in, and you need to choose whether to go up or down. </p>
            <p> Then you will see an animal and choose which of its chests to search for treasure. </p>","","instructions","","","","","","","","","","","","","",""
"learning-instructions","39","249087","0.0-3.0-7.0-0.1","spark_pilot_2","7527","4","23","Female","","","","","","","1017.1000000238419","<p> When you choose whether to go up or down, try to go to the animal with the chest with the most treasure. </p>
            <p> Try practicing that now! </p>","","instructions","","","","","","","","","","","","","",""
"revaluation","40","255103","0.0-3.0-8.0-0.0","spark_pilot_2","7527","4","23","Female","","","false","","","","[1160.4000000953674,565.5]","./assets/img/space/6.jpg","[""ArrowUp"",""ArrowLeft""]","full practice","space","3","{""ArrowUp,ArrowLeft"":3,""ArrowUp,ArrowRight"":36,""ArrowDown,ArrowLeft"":15,""ArrowDown,ArrowRight"":23}","false","ArrowUp,ArrowLeft","false","","","","","","","",""
"html-keyboard-response","41","255612","0.0-3.0-8.0-1.0","spark_pilot_2","7527","4","23","Female","","","","","","","null","<div style=""font-size:60px;"">+</div>","null","fixation","","","","","","","","","","","","","",""
"revaluation","42","261645","0.0-3.0-8.0-0.1","spark_pilot_2","7527","4","23","Female","","","false","","","","[491.2000000476837,666.6999999284744]","./assets/img/space/7.jpg","[""ArrowUp"",""ArrowRight""]","full practice","space","36","{""ArrowUp,ArrowLeft"":3,""ArrowUp,ArrowRight"":36,""ArrowDown,ArrowLeft"":15,""ArrowDown,ArrowRight"":23}","true","ArrowUp,ArrowRight","false","","","","","","","",""
"html-keyboard-response","43","262163","0.0-3.0-8.0-1.1","spark_pilot_2","7527","4","23","Female","","","","","","","null","<div style=""font-size:60px;"">+</div>","null","fixation","","","","","","","","","","","","","",""
"revaluation","44","268201","0.0-3.0-8.0-0.2","spark_pilot_2","7527","4","23","Female","","","false","","","","[552.7999999523163,887.5]","./assets/img/space/8.jpg","[""ArrowDown"",""ArrowRight""]","full practice","space","23","{""ArrowUp,ArrowLeft"":3,""ArrowUp,ArrowRight"":36,""ArrowDown,ArrowLeft"":15,""ArrowDown,ArrowRight"":23}","false","ArrowDown,ArrowRight","false","","","","","","","",""
"html-keyboard-response","45","268709","0.0-3.0-8.0-1.2","spark_pilot_2","7527","4","23","Female","","","","","","","null","<div style=""font-size:60px;"">+</div>","null","fixation","","","","","","","","","","","","","",""
"revaluation","46","274740","0.0-3.0-8.0-0.3","spark_pilot_2","7527","4","23","Female","","","false","","","","[813.6000000238419,611.8999999761581]","./assets/img/space/9.jpg","[""ArrowDown"",""ArrowLeft""]","full practice","space","15","{""ArrowUp,ArrowLeft"":3,""ArrowUp,ArrowRight"":36,""ArrowDown,ArrowLeft"":15,""ArrowDown,ArrowRight"":23}","false","ArrowDown,ArrowLeft","false","","","","","","","",""
"html-keyboard-response","47","275248","0.0-3.0-8.0-1.3","spark_pilot_2","7527","4","23","Female","","","","","","","null","<div style=""font-size:60px;"">+</div>","null","fixation","","","","","","","","","","","","","",""
"revaluation","48","281254","0.0-3.0-8.0-0.4","spark_pilot_2","7527","4","23","Female","","","false","","","","[565.0999999046326,593.2999999523163]","./assets/img/space/10.jpg","[""ArrowUp"",""ArrowRight""]","full practice","space","36","{""ArrowUp,ArrowLeft"":3,""ArrowUp,ArrowRight"":36,""ArrowDown,ArrowLeft"":15,""ArrowDown,ArrowRight"":23}","true","ArrowUp,ArrowRight","false","","","","","","","",""
"html-keyboard-response","49","281756","0.0-3.0-8.0-1.4","spark_pilot_2","7527","4","23","Female","","","","","","","null","<div style=""font-size:60px;"">+</div>","null","fixation","","","","","","","","","","","","","",""
"learning-instructions","50","293752","0.0-3.0-9.0-0.0","spark_pilot_2","7527","4","23","Female","","","","","","","1698.5","<p> One last thing: sometimes, you will see a robber. The robber can be anywhere in the picture. </p>
            <p> If you do not stop them, you will lose treasure. </p>
            <img src='./assets/img/instructions/robber.jpg' class='instructions-image'>","","instructions","","","","","","","","","","","","","",""
"learning-instructions","51","302785","0.0-3.0-9.0-0.1","spark_pilot_2","7527","4","23","Female","","","","","","","1872.2000000476837","<p> If you see the robber, you should <b>press the space bar</b> rather than using the arrow keys. </p>
            <p> Try practicing that now! </p>","","instructions","","","","","","","","","","","","","",""
"revaluation","52","306807","0.0-3.0-10.0-0.0","spark_pilot_2","7527","4","23","Female","","","true","","","","[]","./assets/img/space/catch/0.jpg","[]","catch practice","space","-5","{""ArrowUp,ArrowLeft"":3,""ArrowUp,ArrowRight"":36,""ArrowDown,ArrowLeft"":15,""ArrowDown,ArrowRight"":23}","false","","true","","","","","","","",""
"html-keyboard-response","53","307316","0.0-3.0-10.0-1.0","spark_pilot_2","7527","4","23","Female","","","","","","","null","<div style=""font-size:60px;"">+</div>","null","fixation","","","","","","","","","","","","","",""
"revaluation","54","311348","0.0-3.0-10.0-0.1","spark_pilot_2","7527","4","23","Female","","","false","","","","[589.1000000238419]","./assets/img/space/catch/1.jpg","[""spaceBar""]","catch practice","space","0","{""ArrowUp,ArrowLeft"":3,""ArrowUp,ArrowRight"":36,""ArrowDown,ArrowLeft"":15,""ArrowDown,ArrowRight"":23}","true","spaceBar","true","","","","","","","",""
"html-keyboard-response","55","311857","0.0-3.0-10.0-1.1","spark_pilot_2","7527","4","23","Female","","","","","","","null","<div style=""font-size:60px;"">+</div>","null","fixation","","","","","","","","","","","","","",""
"revaluation","56","315881","0.0-3.0-10.0-0.2","spark_pilot_2","7527","4","23","Female","","","false","","","","[446.2999999523163]","./assets/img/space/catch/2.jpg","[""spaceBar""]","catch practice","space","0","{""ArrowUp,ArrowLeft"":3,""ArrowUp,ArrowRight"":36,""ArrowDown,ArrowLeft"":15,""ArrowDown,ArrowRight"":23}","true","spaceBar","true","","","","","","","",""
"html-keyboard-response","57","316386","0.0-3.0-10.0-1.2","spark_pilot_2","7527","4","23","Female","","","","","","","null","<div style=""font-size:60px;"">+</div>","null","fixation","","","","","","","","","","","","","",""
"learning-instructions","58","332126","0.0-3.0-11.0-0.0","spark_pilot_2","7527","4","23","Female","","","","","","","2093.7999999523163","<p> After you explore a place to find treasure, it will be time to play a different game. </p>
            <p> During this game, red dots will appear on the screen and fall down slowly. </p>
            <p><b> You must click on them before they reach the bottom. </b></p>
            <img src='./assets/img/instructions/dotGame.jpg' class='instructions-image'>","","instructions","","","","","","","","","","","","","",""
"learning-instructions","59","339056","0.0-3.0-11.0-0.1","spark_pilot_2","7527","4","23","Female","","","","","","","1263.6000000238419","<p> For every dot you click, you will earn additional treasure. </p>
            <p> Let’s try practicing that now. </p>","","instructions","","","","","","","","","","","","","",""
"revaluation","60","354062","0.0-3.0-12.0-0.0","spark_pilot_2","7527","4","23","Female","","","","","","","[91]","","","rest practice","","10","","","","","0","15000","","","","","",""
"learning-instructions","61","360544","0.0-3.0-13.0-0.0-0.0","spark_pilot_2","7527","4","23","Female","","","","","","","1230.8999999761581","<p> Now, you will practice a shortened version of the game to get a sense of how it all fits together. </p>","","instructions","","","","","","","","","","","","","",""
"learning-instructions","62","364583","0.0-3.0-13.0-0.0-0.1","spark_pilot_2","7527","4","23","Female","","","","","","","850.5","<p>This time you are searching for treasure in outer space.</p>","","instructions","","","","","","","","","","","","","",""
"learning-instructions","63","380098","0.0-3.0-13.0-1.0-0.0","spark_pilot_2","7527","4","23","Female","","","","","","","744.3999999761581","<p> Remember, when you see a picture of the place, use the up and down keys to <b>find an animal</b>.</p>
            <p> When you encounter an animal, you should use the left and right keys to <b>select a treasure chest</b>.</p>
            <p> Don't forget to look out for the robber! </p>","","instructions","","","","","","","","","","","","","",""
"revaluation","64","386115","0.0-3.0-13.0-2.0-0.0","spark_pilot_2","7527","4","23","Female","","","false","","","","[1452.4000000953674,973.5]","./assets/img/space/11.jpg","[""ArrowDown"",""ArrowRight""]","practice block","space","23","{""ArrowUp,ArrowLeft"":3,""ArrowUp,ArrowRight"":36,""ArrowDown,ArrowLeft"":15,""ArrowDown,ArrowRight"":23}","false","ArrowDown,ArrowRight","false","","","","","","","",""
"html-keyboard-response","65","386617","0.0-3.0-13.0-2.0-1.0","spark_pilot_2","7527","4","23","Female","","","","","","","null","<div style=""font-size:60px;"">+</div>","null","fixation","","","","","","","","","","","","","",""
"revaluation","66","392643","0.0-3.0-13.0-2.0-0.1","spark_pilot_2","7527","4","23","Female","","","false","","","","[1020.5,361]","./assets/img/space/12.jpg","[""ArrowUp"",""ArrowRight""]","practice block","space","36","{""ArrowUp,ArrowLeft"":3,""ArrowUp,ArrowRight"":36,""ArrowDown,ArrowLeft"":15,""ArrowDown,ArrowRight"":23}","true","ArrowUp,ArrowRight","false","","","","","","","",""
"html-keyboard-response","67","393154","0.0-3.0-13.0-2.0-1.1","spark_pilot_2","7527","4","23","Female","","","","","","","null","<div style=""font-size:60px;"">+</div>","null","fixation","","","","","","","","","","","","","",""
"revaluation","68","399175","0.0-3.0-13.0-2.0-0.2","spark_pilot_2","7527","4","23","Female","","","false","","","","[466.39999997615814,353.5]","./assets/img/space/13.jpg","[""ArrowUp"",""ArrowRight""]","practice block","space","36","{""ArrowUp,ArrowLeft"":3,""ArrowUp,ArrowRight"":36,""ArrowDown,ArrowLeft"":15,""ArrowDown,ArrowRight"":23}","true","ArrowUp,ArrowRight","false","","","","","","","",""
"html-keyboard-response","69","399688","0.0-3.0-13.0-2.0-1.2","spark_pilot_2","7527","4","23","Female","","","","","","","null","<div style=""font-size:60px;"">+</div>","null","fixation","","","","","","","","","","","","","",""
"revaluation","70","405715","0.0-3.0-13.0-2.0-0.3","spark_pilot_2","7527","4","23","Female","","","false","","","","[521.6000000238419,378.60000002384186]","./assets/img/space/14.jpg","[""ArrowUp"",""ArrowRight""]","practice block","space","36","{""ArrowUp,ArrowLeft"":3,""ArrowUp,ArrowRight"":36,""ArrowDown,ArrowLeft"":15,""ArrowDown,ArrowRight"":23}","true","ArrowUp,ArrowRight","false","","","","","","","",""
"html-keyboard-response","71","406221","0.0-3.0-13.0-2.0-1.3","spark_pilot_2","7527","4","23","Female","","","","","","","null","<div style=""font-size:60px;"">+</div>","null","fixation","","","","","","","","","","","","","",""
"revaluation","72","412231","0.0-3.0-13.0-2.0-0.4","spark_pilot_2","7527","4","23","Female","","","false","","","","[252.29999995231628,423.10000002384186]","./assets/img/space/11.jpg","[""ArrowUp"",""ArrowRight""]","practice block","space","36","{""ArrowUp,ArrowLeft"":3,""ArrowUp,ArrowRight"":36,""ArrowDown,ArrowLeft"":15,""ArrowDown,ArrowRight"":23}","true","ArrowUp,ArrowRight","false","","","","","","","",""
"html-keyboard-response","73","412733","0.0-3.0-13.0-2.0-1.4","spark_pilot_2","7527","4","23","Female","","","","","","","null","<div style=""font-size:60px;"">+</div>","null","fixation","","","","","","","","","","","","","",""
"revaluation","74","418737","0.0-3.0-13.0-2.0-0.5","spark_pilot_2","7527","4","23","Female","","","false","","","","[338.2000000476837,407.1999999284744]","./assets/img/space/12.jpg","[""ArrowUp"",""ArrowRight""]","practice block","space","36","{""ArrowUp,ArrowLeft"":3,""ArrowUp,ArrowRight"":36,""ArrowDown,ArrowLeft"":15,""ArrowDown,ArrowRight"":23}","true","ArrowUp,ArrowRight","false","","","","","","","",""
"html-keyboard-response","75","419239","0.0-3.0-13.0-2.0-1.5","spark_pilot_2","7527","4","23","Female","","","","","","","null","<div style=""font-size:60px;"">+</div>","null","fixation","","","","","","","","","","","","","",""
"revaluation","76","425244","0.0-3.0-13.0-2.0-0.6","spark_pilot_2","7527","4","23","Female","","","false","","","","[470.90000009536743,356.60000002384186]","./assets/img/space/13.jpg","[""ArrowUp"",""ArrowRight""]","practice block","space","36","{""ArrowUp,ArrowLeft"":3,""ArrowUp,ArrowRight"":36,""ArrowDown,ArrowLeft"":15,""ArrowDown,ArrowRight"":23}","true","ArrowUp,ArrowRight","false","","","","","","","",""
"html-keyboard-response","77","425746","0.0-3.0-13.0-2.0-1.6","spark_pilot_2","7527","4","23","Female","","","","","","","null","<div style=""font-size:60px;"">+</div>","null","fixation","","","","","","","","","","","","","",""
"revaluation","78","431753","0.0-3.0-13.0-2.0-0.7","spark_pilot_2","7527","4","23","Female","","","false","","","","[390.89999997615814,1403.1000000238419]","./assets/img/space/14.jpg","[""ArrowUp"",""ArrowRight""]","practice block","space","36","{""ArrowUp,ArrowLeft"":3,""ArrowUp,ArrowRight"":36,""ArrowDown,ArrowLeft"":15,""ArrowDown,ArrowRight"":23}","true","ArrowUp,ArrowRight","false","","","","","","","",""
"html-keyboard-response","79","432254","0.0-3.0-13.0-2.0-1.7","spark_pilot_2","7527","4","23","Female","","","","","","","null","<div style=""font-size:60px;"">+</div>","null","fixation","","","","","","","","","","","","","",""
"revaluation","80","436257","0.0-3.0-13.0-2.0-0.8","spark_pilot_2","7527","4","23","Female","","","false","","","","[141.89999997615814]","./assets/img/space/catch/3.jpg","[""ArrowUp""]","practice block","space","-10","{""ArrowUp,ArrowLeft"":3,""ArrowUp,ArrowRight"":36,""ArrowDown,ArrowLeft"":15,""ArrowDown,ArrowRight"":23}","false","ArrowUp","true","","","","","","","",""
"html-keyboard-response","81","436759","0.0-3.0-13.0-2.0-1.8","spark_pilot_2","7527","4","23","Female","","","","","","","null","<div style=""font-size:60px;"">+</div>","null","fixation","","","","","","","","","","","","","",""
"learning-instructions","82","452741","0.0-3.0-13.0-3.0-0.0","spark_pilot_2","7527","4","23","Female","","","","","","","1715","<p> Now, you will travel with a friend who will choose whether you go up or down first. </p>
            <p> On these turns, you will just see the animal that they found. You will still get to choose which chest to search for treasure.</p>","","instructions","","","","","","","","","","","","","",""
"revaluation","83","456768","0.0-3.0-13.0-4.0-0.0","spark_pilot_2","7527","4","23","Female","","","false","","","","[1307.3999999761581]","./assets/img/space/animals/cat.jpg","[""ArrowLeft""]","practice block","space","3","{""ArrowUp,ArrowLeft"":3,""ArrowUp,ArrowRight"":36,""ArrowDown,ArrowLeft"":15,""ArrowDown,ArrowRight"":23}","false","ArrowUp,ArrowLeft","","","","","","","","",""
"html-keyboard-response","84","457273","0.0-3.0-13.0-4.0-1.0","spark_pilot_2","7527","4","23","Female","","","","","","","null","<div style=""font-size:60px;"">+</div>","null","fixation","","","","","","","","","","","","","",""
"revaluation","85","461284","0.0-3.0-13.0-4.0-0.1","spark_pilot_2","7527","4","23","Female","","","false","","","","[439.2000000476837]","./assets/img/space/animals/rabbit.jpg","[""ArrowRight""]","practice block","space","23","{""ArrowUp,ArrowLeft"":3,""ArrowUp,ArrowRight"":36,""ArrowDown,ArrowLeft"":15,""ArrowDown,ArrowRight"":23}","true","ArrowDown,ArrowRight","","","","","","","","",""
"html-keyboard-response","86","461790","0.0-3.0-13.0-4.0-1.1","spark_pilot_2","7527","4","23","Female","","","","","","","null","<div style=""font-size:60px;"">+</div>","null","fixation","","","","","","","","","","","","","",""
"revaluation","87","465802","0.0-3.0-13.0-4.0-0.2","spark_pilot_2","7527","4","23","Female","","","false","","","","[531.2999999523163]","./assets/img/space/animals/cat.jpg","[""ArrowRight""]","practice block","space","36","{""ArrowUp,ArrowLeft"":3,""ArrowUp,ArrowRight"":36,""ArrowDown,ArrowLeft"":15,""ArrowDown,ArrowRight"":23}","true","ArrowUp,ArrowRight","","","","","","","","",""
"html-keyboard-response","88","466305","0.0-3.0-13.0-4.0-1.2","spark_pilot_2","7527","4","23","Female","","","","","","","null","<div style=""font-size:60px;"">+</div>","null","fixation","","","","","","","","","","","","","",""
"revaluation","89","470326","0.0-3.0-13.0-4.0-0.3","spark_pilot_2","7527","4","23","Female","","","false","","","","[491.8000000715256]","./assets/img/space/animals/rabbit.jpg","[""ArrowLeft""]","practice block","space","15","{""ArrowUp,ArrowLeft"":3,""ArrowUp,ArrowRight"":36,""ArrowDown,ArrowLeft"":15,""ArrowDown,ArrowRight"":23}","false","ArrowDown,ArrowLeft","","","","","","","","",""
"html-keyboard-response","90","470837","0.0-3.0-13.0-4.0-1.3","spark_pilot_2","7527","4","23","Female","","","","","","","null","<div style=""font-size:60px;"">+</div>","null","fixation","","","","","","","","","","","","","",""
"learning-instructions","91","478976","0.0-3.0-13.0-5.0-0.0","spark_pilot_2","7527","4","23","Female","","","","","","","770.0999999046326","<p> Time to play the dot game! </p>
            <p> For 15 seconds, click the red dots on the following screen as they appear. </p>","","instructions","","","","","","","","","","","","","",""
"revaluation","92","493978","0.0-3.0-13.0-6.0-0.0","spark_pilot_2","7527","4","23","Female","","","","","","","[63]","","","rest practice","","10","","","","","0","15000","","","","","",""
"learning-instructions","93","501555","0.0-3.0-13.0-7.0-0.0","spark_pilot_2","7527","4","23","Female","","","","","","","1458.8999999761581","<p> You have almost finished this part of the game! </p>
            <p> We are going to ask you to make a few more choices. </p>","","instructions","","","","","","","","","","","","","",""
"learning-instructions","94","516372","0.0-3.0-13.0-7.0-0.1","spark_pilot_2","7527","4","23","Female","","","","","","","805.3999999761581","<p> First, you need to decide whether to go up or down. When you see each picture, use the arrow keys to make your choice. </p>
            <p><b>You will not see which animal you found, but try to get to the one that will give you the most treasure.</b></p>","","instructions","","","","","","","","","","","","","",""
"revaluation","95","517280","0.0-3.0-13.0-8.0","spark_pilot_2","7527","4","23","Female","","","false","","","","[906.3999999761581]","./assets/img/space/15.jpg","[""ArrowUp""]","practice block","space","0","{""ArrowUp,ArrowLeft"":3,""ArrowUp,ArrowRight"":36,""ArrowDown,ArrowLeft"":15,""ArrowDown,ArrowRight"":23}","true","ArrowUp","false","","","","","","","",""
"html-keyboard-response","96","517786","0.0-3.0-13.0-9.0","spark_pilot_2","7527","4","23","Female","","","","","","","null","<div style=""font-size:60px;"">+</div>","null","fixation","","","","","","","","","","","","","",""
"learning-instructions","97","530571","0.0-3.0-13.0-10.0-0.0","spark_pilot_2","7527","4","23","Female","","","","","","","1403.8999999761581","<p> Now you will see the animals again and can search their chests for treasure. </p>
            <p> This time, you will not see how much treasure you earned, but you will earn more bonus money for making better choices. </p>","","instructions","","","","","","","","","","","","","",""
"revaluation","98","531297","0.0-3.0-13.0-11.0-0.0","spark_pilot_2","7527","4","23","Female","","","false","","","","[724.7000000476837]","./assets/img/space/animals/cat.jpg","[""ArrowRight""]","practice block","space","0","{""ArrowUp,ArrowLeft"":3,""ArrowUp,ArrowRight"":36,""ArrowDown,ArrowLeft"":15,""ArrowDown,ArrowRight"":23}","true","ArrowUp,ArrowRight","","","","","","","","",""
"html-keyboard-response","99","531801","0.0-3.0-13.0-11.0-1.0","spark_pilot_2","7527","4","23","Female","","","","","","","null","<div style=""font-size:60px;"">+</div>","null","fixation","","","","","","","","","","","","","",""
"revaluation","100","532836","0.0-3.0-13.0-11.0-0.1","spark_pilot_2","7527","4","23","Female","","","false","","","","[1032.0999999046326]","./assets/img/space/animals/rabbit.jpg","[""ArrowRight""]","practice block","space","0","{""ArrowUp,ArrowLeft"":3,""ArrowUp,ArrowRight"":36,""ArrowDown,ArrowLeft"":15,""ArrowDown,ArrowRight"":23}","true","ArrowDown,ArrowRight","","","","","","","","",""
"html-keyboard-response","101","533343","0.0-3.0-13.0-11.0-1.1","spark_pilot_2","7527","4","23","Female","","","","","","","null","<div style=""font-size:60px;"">+</div>","null","fixation","","","","","","","","","","","","","",""
"learning-instructions","102","539908","0.0-3.0-14.0-0.0","spark_pilot_2","7527","4","23","Female","","","","","","","1991.5999999046326","<p> Before you start, we're going to ask you a few questions about how the game works. </p>","","instructions","","","","","","","","","","","","","",""
"comp-q","103","546445","0.0-3.0-15.0-0.0-0.0","spark_pilot_2","7527","4","23","Female","","","","","","","955.7999999523163","<p> <b> True or False? </b> </p>
            <p> There can be 50 pieces of treasure in a given animal's chest. </p>","0","comp_question","","","","false","","","","","","","","","",""
"comp-q","104","554218","0.0-3.0-15.0-0.0-1.0","spark_pilot_2","7527","4","23","Female","","","","","","","1251.3999999761581","<p> <b>Incorrect.</b> The amount of treasure in each chest can range from 0 to 40 pieces. </p>","0","comp_answer","","","","","","","","","","","","","",""
"comp-q","105","560226","0.0-3.0-15.0-0.1-0.1","spark_pilot_2","7527","4","23","Female","","","","","","","450.1999999284744","<p> <b> True or False? </b> </p>
            <p> There can be 50 pieces of treasure in a given animal's chest. </p>","1","comp_question","","","","true","","","","","","","","","",""
"comp-q","106","568248","0.0-3.0-15.0-0.1-1.1","spark_pilot_2","7527","4","23","Female","","","","","","","1362.3999999761581","<p> <b> That's right! </b> The amount of treasure in each chest can range from 0 to 40 pieces. </p>","0","comp_answer","","","","","","","","","","","","","",""
"comp-q","107","575840","0.0-3.0-15.0-0.2-0.2","spark_pilot_2","7527","4","23","Female","","","","","","","484.1999999284744","<p> <b> True or False? </b> </p><p> In this game, all animals have the same amount of treasure in their left and right chests. </p>","1","comp_question","","","","true","","","","","","","","","",""
"comp-q","108","582040","0.0-3.0-15.0-0.2-1.2","spark_pilot_2","7527","4","23","Female","","","","","","","963.6999999284744","<p> <b> That's right! </b> Animals have different amounts of treasure in their treasure chests. </p>","0","comp_answer","","","","","","","","","","","","","",""
"comp-q","109","588554","0.0-3.0-15.0-0.3-0.3","spark_pilot_2","7527","4","23","Female","","","","","","","667.6999999284744","<p> <b> True or False? </b> </p><p> The same animal will always be there if you go up in the same place. </p>","1","comp_question","","","","false","","","","","","","","","",""
"comp-q","110","596091","0.0-3.0-15.0-0.3-1.3","spark_pilot_2","7527","4","23","Female","","","","","","","1235","<p> <b>Incorrect.</b> One animal lives in the upper part and one lives in the lower part of every place. </p>","0","comp_answer","","","","","","","","","","","","","",""
"comp-q","111","602662","0.0-3.0-15.0-0.4-0.4","spark_pilot_2","7527","4","23","Female","","","","","","","745.8999999761581","<p> <b> True or False? </b> </p><p> The same animal will always be there if you go up in the same place. </p>","0","comp_question","","","","true","","","","","","","","","",""
"comp-q","112","610041","0.0-3.0-15.0-0.4-1.4","spark_pilot_2","7527","4","23","Female","","","","","","","944.7999999523163","<p> <b> That's right! </b> One animal lives in the upper part and one lives in the lower part of every place. </p>","0","comp_answer","","","","","","","","","","","","","",""
"comp-q","113","616230","0.0-3.0-15.0-0.5-0.5","spark_pilot_2","7527","4","23","Female","","","","","","","663.6999999284744","<p> <b> True or False? </b> </p><p> If you see a different picture, it means you are in a new place. </p>","0","comp_question","","","","false","","","","","","","","","",""
"comp-q","114","627784","0.0-3.0-15.0-0.5-1.5","spark_pilot_2","7527","4","23","Female","","","","","","","457.40000009536743","<p> <b>Incorrect.</b> Lots of different images may show the same place. For example,  you may see three different images that all remind you that you are in outer space. </p>","0","comp_answer","","","","","","","","","","","","","",""
"comp-q","115","633644","0.0-3.0-15.0-0.6-0.6","spark_pilot_2","7527","4","23","Female","","","","","","","357.89999997615814","<p> <b> True or False? </b> </p><p> If you see a different picture, it means you are in a new place. </p>","1","comp_question","","","","true","","","","","","","","","",""
"comp-q","116","678073","0.0-3.0-15.0-0.6-1.6","spark_pilot_2","7527","4","23","Female","","","","","","","33146.799999952316","<p> <b> That's right! </b> Lots of different images may show the same place. For example,  you may see three different images that all remind you that you are in outer space. </p>","0","comp_answer","","","","","","","","","","","","","",""
"learning-instructions","117","708368","0.0-3.0-16.0-0.0","spark_pilot_2","7527","4","23","Female","","","","","","","20459.200000047684","<p> Good job. Remember to do your best because the amount of treasure you earn will be converted into bonus money. </p>
            <p> It’s time to start the real game! </p>","","instructions","","","","","","","","","","","","","",""
"learning-instructions","118","712568","0.0-4.0-0.0-0.0","spark_pilot_2","7527","4","23","Female","","","","","","","1499","<p> This time you are searching for treasure in the <b>ocean</b>.</p>","","instructions","","","","","","","","","","","","","",""
"learning-instructions","119","736370","0.0-4.0-0.0-0.1","spark_pilot_2","7527","4","23","Female","","","","","","","6501.5","<p><b>New</b> animals with <b>new</b> treasure chests live here. You need to explore to discover where the animal with the best treasure chest is.</p>
                    <p> Like before, once you figure out which animal has the chest with the most treasure, you should try to get to that animal and select that chest! </p>","","instructions","","","","","","","","","","","","","",""
"learning-instructions","120","752280","0.0-4.0-1.0-0.0","spark_pilot_2","7527","4","23","Female","","","","","","","1180.2000000476837","<p> Remember, when you see a picture of the place, use the up and down keys to <b>find an animal</b>.</p>
            <p> When you encounter an animal, you should use the left and right keys to <b>select a treasure chest</b>.</p>
            <p> Don't forget to look out for the robber! </p>","","instructions","","","","","","","","","","","","","",""
"revaluation","121","758304","0.0-4.0-2.0-0.0","spark_pilot_2","7527","4","23","Female","","","false","","","","[889.6000000238419,558.1000000238419]","./assets/img/ocean/memory/12.jpg","[""ArrowDown"",""ArrowRight""]","value training","ocean","17","{""ArrowUp,ArrowLeft"":26,""ArrowUp,ArrowRight"":10,""ArrowDown,ArrowLeft"":5,""ArrowDown,ArrowRight"":17}","false","ArrowDown,ArrowRight","false","","","revaluation","1","0","","",""
"html-keyboard-response","122","758812","0.0-4.0-2.0-1.0","spark_pilot_2","7527","4","23","Female","","","","","","","null","<div style=""font-size:60px;"">+</div>","null","fixation","","","","","","","","","","","1","","",""
"revaluation","123","762841","0.0-4.0-2.0-0.1","spark_pilot_2","7527","4","23","Female","","","false","","","","[317.7000000476837]","./assets/img/ocean/catch/5.jpg","[""ArrowDown""]","value training","ocean","-10","{""ArrowUp,ArrowLeft"":26,""ArrowUp,ArrowRight"":10,""ArrowDown,ArrowLeft"":5,""ArrowDown,ArrowRight"":17}","false","ArrowDown","true","","","revaluation","1","2","","",""
"html-keyboard-response","124","763358","0.0-4.0-2.0-1.1","spark_pilot_2","7527","4","23","Female","","","","","","","null","<div style=""font-size:60px;"">+</div>","null","fixation","","","","","","","","","","","3","","",""
"revaluation","125","769390","0.0-4.0-2.0-0.2","spark_pilot_2","7527","4","23","Female","","","false","","","","[756.9000000953674,547.8999999761581]","./assets/img/ocean/memory/25.jpg","[""ArrowDown"",""ArrowLeft""]","value training","ocean","5","{""ArrowUp,ArrowLeft"":26,""ArrowUp,ArrowRight"":10,""ArrowDown,ArrowLeft"":5,""ArrowDown,ArrowRight"":17}","false","ArrowDown,ArrowLeft","false","","","revaluation","1","4","","",""
"html-keyboard-response","126","769896","0.0-4.0-2.0-1.2","spark_pilot_2","7527","4","23","Female","","","","","","","null","<div style=""font-size:60px;"">+</div>","null","fixation","","","","","","","","","","","5","","",""
"revaluation","127","775924","0.0-4.0-2.0-0.3","spark_pilot_2","7527","4","23","Female","","","false","","","","[437.60000002384186,463.2000000476837]","./assets/img/ocean/memory/0.jpg","[""ArrowUp"",""ArrowRight""]","value training","ocean","10","{""ArrowUp,ArrowLeft"":26,""ArrowUp,ArrowRight"":10,""ArrowDown,ArrowLeft"":5,""ArrowDown,ArrowRight"":17}","false","ArrowUp,ArrowRight","false","","","revaluation","1","6","","",""
"html-keyboard-response","128","776431","0.0-4.0-2.0-1.3","spark_pilot_2","7527","4","23","Female","","","","","","","null","<div style=""font-size:60px;"">+</div>","null","fixation","","","","","","","","","","","7","","",""
"revaluation","129","782444","0.0-4.0-2.0-0.4","spark_pilot_2","7527","4","23","Female","","","false","","","","[996.5,460.10000002384186]","./assets/img/ocean/memory/27.jpg","[""ArrowUp"",""ArrowLeft""]","value training","ocean","26","{""ArrowUp,ArrowLeft"":26,""ArrowUp,ArrowRight"":10,""ArrowDown,ArrowLeft"":5,""ArrowDown,ArrowRight"":17}","true","ArrowUp,ArrowLeft","false","","","revaluation","1","8","","",""
"html-keyboard-response","130","782946","0.0-4.0-2.0-1.4","spark_pilot_2","7527","4","23","Female","","","","","","","null","<div style=""font-size:60px;"">+</div>","null","fixation","","","","","","","","","","","9","","",""
"revaluation","131","788952","0.0-4.0-2.0-0.5","spark_pilot_2","7527","4","23","Female","","","false","","","","[429.60000002384186,426.60000002384186]","./assets/img/ocean/memory/25.jpg","[""ArrowUp"",""ArrowLeft""]","value training","ocean","26","{""ArrowUp,ArrowLeft"":26,""ArrowUp,ArrowRight"":10,""ArrowDown,ArrowLeft"":5,""ArrowDown,ArrowRight"":17}","true","ArrowUp,ArrowLeft","false","","","revaluation","1","10","","",""
"html-keyboard-response","132","789453","0.0-4.0-2.0-1.5","spark_pilot_2","7527","4","23","Female","","","","","","","null","<div style=""font-size:60px;"">+</div>","null","fixation","","","","","","","","","","","11","","",""
"revaluation","133","795457","0.0-4.0-2.0-0.6","spark_pilot_2","7527","4","23","Female","","","false","","","","[373.10000002384186,349.89999997615814]","./assets/img/ocean/memory/14.jpg","[""ArrowUp"",""ArrowLeft""]","value training","ocean","26","{""ArrowUp,ArrowLeft"":26,""ArrowUp,ArrowRight"":10,""ArrowDown,ArrowLeft"":5,""ArrowDown,ArrowRight"":17}","true","ArrowUp,ArrowLeft","false","","","revaluation","1","12","","",""
"html-keyboard-response","134","795959","0.0-4.0-2.0-1.6","spark_pilot_2","7527","4","23","Female","","","","","","","null","<div style=""font-size:60px;"">+</div>","null","fixation","","","","","","","","","","","13","","",""
"revaluation","135","801965","0.0-4.0-2.0-0.7","spark_pilot_2","7527","4","23","Female","","","false","","","","[453,333.59999990463257]","./assets/img/ocean/memory/32.jpg","[""ArrowUp"",""ArrowLeft""]","value training","ocean","26","{""ArrowUp,ArrowLeft"":26,""ArrowUp,ArrowRight"":10,""ArrowDown,ArrowLeft"":5,""ArrowDown,ArrowRight"":17}","true","ArrowUp,ArrowLeft","false","","","revaluation","1","14","","",""
"html-keyboard-response","136","802467","0.0-4.0-2.0-1.7","spark_pilot_2","7527","4","23","Female","","","","","","","null","<div style=""font-size:60px;"">+</div>","null","fixation","","","","","","","","","","","15","","",""
"revaluation","137","808471","0.0-4.0-2.0-0.8","spark_pilot_2","7527","4","23","Female","","","false","","","","[415.39999997615814,346.5]","./assets/img/ocean/memory/2.jpg","[""ArrowUp"",""ArrowLeft""]","value training","ocean","26","{""ArrowUp,ArrowLeft"":26,""ArrowUp,ArrowRight"":10,""ArrowDown,ArrowLeft"":5,""ArrowDown,ArrowRight"":17}","true","ArrowUp,ArrowLeft","false","","","revaluation","1","16","","",""
"html-keyboard-response","138","808974","0.0-4.0-2.0-1.8","spark_pilot_2","7527","4","23","Female","","","","","","","null","<div style=""font-size:60px;"">+</div>","null","fixation","","","","","","","","","","","17","","",""
"revaluation","139","812980","0.0-4.0-2.0-0.9","spark_pilot_2","7527","4","23","Female","","","false","","","","[393.5]","./assets/img/ocean/catch/6.jpg","[""ArrowUp""]","value training","ocean","-10","{""ArrowUp,ArrowLeft"":26,""ArrowUp,ArrowRight"":10,""ArrowDown,ArrowLeft"":5,""ArrowDown,ArrowRight"":17}","false","ArrowUp","true","","","revaluation","1","18","","",""
"html-keyboard-response","140","813482","0.0-4.0-2.0-1.9","spark_pilot_2","7527","4","23","Female","","","","","","","null","<div style=""font-size:60px;"">+</div>","null","fixation","","","","","","","","","","","19","","",""
"revaluation","141","819489","0.0-4.0-2.0-0.10","spark_pilot_2","7527","4","23","Female","","","false","","","","[538.2000000476837,547.0999999046326]","./assets/img/ocean/memory/2.jpg","[""ArrowUp"",""ArrowLeft""]","value training","ocean","26","{""ArrowUp,ArrowLeft"":26,""ArrowUp,ArrowRight"":10,""ArrowDown,ArrowLeft"":5,""ArrowDown,ArrowRight"":17}","true","ArrowUp,ArrowLeft","false","","","revaluation","1","20","","",""
"html-keyboard-response","142","819990","0.0-4.0-2.0-1.10","spark_pilot_2","7527","4","23","Female","","","","","","","null","<div style=""font-size:60px;"">+</div>","null","fixation","","","","","","","","","","","21","","",""
"revaluation","143","825996","0.0-4.0-2.0-0.11","spark_pilot_2","7527","4","23","Female","","","false","","","","[481.6999999284744,500.7999999523163]","./assets/img/ocean/memory/0.jpg","[""ArrowUp"",""ArrowLeft""]","value training","ocean","26","{""ArrowUp,ArrowLeft"":26,""ArrowUp,ArrowRight"":10,""ArrowDown,ArrowLeft"":5,""ArrowDown,ArrowRight"":17}","true","ArrowUp,ArrowLeft","false","","","revaluation","1","22","","",""
"html-keyboard-response","144","826498","0.0-4.0-2.0-1.11","spark_pilot_2","7527","4","23","Female","","","","","","","null","<div style=""font-size:60px;"">+</div>","null","fixation","","","","","","","","","","","23","","",""
"revaluation","145","832504","0.0-4.0-2.0-0.12","spark_pilot_2","7527","4","23","Female","","","false","","","","[374.3000000715256,342.10000002384186]","./assets/img/ocean/memory/40.jpg","[""ArrowUp"",""ArrowLeft""]","value training","ocean","26","{""ArrowUp,ArrowLeft"":26,""ArrowUp,ArrowRight"":10,""ArrowDown,ArrowLeft"":5,""ArrowDown,ArrowRight"":17}","true","ArrowUp,ArrowLeft","false","","","revaluation","1","24","","",""
"html-keyboard-response","146","833007","0.0-4.0-2.0-1.12","spark_pilot_2","7527","4","23","Female","","","","","","","null","<div style=""font-size:60px;"">+</div>","null","fixation","","","","","","","","","","","25","","",""
"revaluation","147","839012","0.0-4.0-2.0-0.13","spark_pilot_2","7527","4","23","Female","","","false","","","","[388.89999997615814,372.39999997615814]","./assets/img/ocean/memory/29.jpg","[""ArrowUp"",""ArrowLeft""]","value training","ocean","26","{""ArrowUp,ArrowLeft"":26,""ArrowUp,ArrowRight"":10,""ArrowDown,ArrowLeft"":5,""ArrowDown,ArrowRight"":17}","true","ArrowUp,ArrowLeft","false","","","revaluation","1","26","","",""
"html-keyboard-response","148","839514","0.0-4.0-2.0-1.13","spark_pilot_2","7527","4","23","Female","","","","","","","null","<div style=""font-size:60px;"">+</div>","null","fixation","","","","","","","","","","","27","","",""
"revaluation","149","845520","0.0-4.0-2.0-0.14","spark_pilot_2","7527","4","23","Female","","","false","","","","[376,386]","./assets/img/ocean/memory/35.jpg","[""ArrowUp"",""ArrowLeft""]","value training","ocean","26","{""ArrowUp,ArrowLeft"":26,""ArrowUp,ArrowRight"":10,""ArrowDown,ArrowLeft"":5,""ArrowDown,ArrowRight"":17}","true","ArrowUp,ArrowLeft","false","","","revaluation","1","28","","",""
"html-keyboard-response","150","846022","0.0-4.0-2.0-1.14","spark_pilot_2","7527","4","23","Female","","","","","","","null","<div style=""font-size:60px;"">+</div>","null","fixation","","","","","","","","","","","29","","",""
"revaluation","151","852028","0.0-4.0-2.0-0.15","spark_pilot_2","7527","4","23","Female","","","false","","","","[434.89999997615814,394.10000002384186]","./assets/img/ocean/memory/3.jpg","[""ArrowUp"",""ArrowLeft""]","value training","ocean","26","{""ArrowUp,ArrowLeft"":26,""ArrowUp,ArrowRight"":10,""ArrowDown,ArrowLeft"":5,""ArrowDown,ArrowRight"":17}","true","ArrowUp,ArrowLeft","false","","","revaluation","1","30","","",""
"html-keyboard-response","152","852530","0.0-4.0-2.0-1.15","spark_pilot_2","7527","4","23","Female","","","","","","","null","<div style=""font-size:60px;"">+</div>","null","fixation","","","","","","","","","","","31","","",""
"revaluation","153","858537","0.0-4.0-2.0-0.16","spark_pilot_2","7527","4","23","Female","","","false","","","","[1110.8999999761581,581.7000000476837]","./assets/img/ocean/memory/20.jpg","[""ArrowUp"",""ArrowLeft""]","value training","ocean","26","{""ArrowUp,ArrowLeft"":26,""ArrowUp,ArrowRight"":10,""ArrowDown,ArrowLeft"":5,""ArrowDown,ArrowRight"":17}","true","ArrowUp,ArrowLeft","false","","","revaluation","1","32","","",""
"html-keyboard-response","154","859038","0.0-4.0-2.0-1.16","spark_pilot_2","7527","4","23","Female","","","","","","","null","<div style=""font-size:60px;"">+</div>","null","fixation","","","","","","","","","","","33","","",""
"revaluation","155","865044","0.0-4.0-2.0-0.17","spark_pilot_2","7527","4","23","Female","","","false","","","","[384.39999997615814,408.60000002384186]","./assets/img/ocean/memory/3.jpg","[""ArrowUp"",""ArrowLeft""]","value training","ocean","26","{""ArrowUp,ArrowLeft"":26,""ArrowUp,ArrowRight"":10,""ArrowDown,ArrowLeft"":5,""ArrowDown,ArrowRight"":17}","true","ArrowUp,ArrowLeft","false","","","revaluation","1","34","","",""
"html-keyboard-response","156","865546","0.0-4.0-2.0-1.17","spark_pilot_2","7527","4","23","Female","","","","","","","null","<div style=""font-size:60px;"">+</div>","null","fixation","","","","","","","","","","","35","","",""
"revaluation","157","869550","0.0-4.0-2.0-0.18","spark_pilot_2","7527","4","23","Female","","","false","","","","[692.3999999761581]","./assets/img/ocean/catch/3.jpg","[""spaceBar""]","value training","ocean","0","{""ArrowUp,ArrowLeft"":26,""ArrowUp,ArrowRight"":10,""ArrowDown,ArrowLeft"":5,""ArrowDown,ArrowRight"":17}","true","spaceBar","true","","","revaluation","1","36","","",""
"html-keyboard-response","158","870053","0.0-4.0-2.0-1.18","spark_pilot_2","7527","4","23","Female","","","","","","","null","<div style=""font-size:60px;"">+</div>","null","fixation","","","","","","","","","","","37","","",""
"revaluation","159","874057","0.0-4.0-2.0-0.19","spark_pilot_2","7527","4","23","Female","","","false","","","","[466.7000000476837]","./assets/img/ocean/catch/0.jpg","[""ArrowUp""]","value training","ocean","-10","{""ArrowUp,ArrowLeft"":26,""ArrowUp,ArrowRight"":10,""ArrowDown,ArrowLeft"":5,""ArrowDown,ArrowRight"":17}","false","ArrowUp","true","","","revaluation","1","38","","",""
"html-keyboard-response","160","874558","0.0-4.0-2.0-1.19","spark_pilot_2","7527","4","23","Female","","","","","","","null","<div style=""font-size:60px;"">+</div>","null","fixation","","","","","","","","","","","39","","",""
"revaluation","161","880564","0.0-4.0-2.0-0.20","spark_pilot_2","7527","4","23","Female","","","false","","","","[511.6999999284744,376.39999997615814]","./assets/img/ocean/memory/18.jpg","[""ArrowUp"",""ArrowLeft""]","value training","ocean","26","{""ArrowUp,ArrowLeft"":26,""ArrowUp,ArrowRight"":10,""ArrowDown,ArrowLeft"":5,""ArrowDown,ArrowRight"":17}","true","ArrowUp,ArrowLeft","false","","","revaluation","1","40","","",""
"html-keyboard-response","162","881066","0.0-4.0-2.0-1.20","spark_pilot_2","7527","4","23","Female","","","","","","","null","<div style=""font-size:60px;"">+</div>","null","fixation","","","","","","","","","","","41","","",""
"revaluation","163","887072","0.0-4.0-2.0-0.21","spark_pilot_2","7527","4","23","Female","","","false","","","","[623.2999999523163,300]","./assets/img/ocean/memory/19.jpg","[""ArrowUp"",""ArrowLeft""]","value training","ocean","26","{""ArrowUp,ArrowLeft"":26,""ArrowUp,ArrowRight"":10,""ArrowDown,ArrowLeft"":5,""ArrowDown,ArrowRight"":17}","true","ArrowUp,ArrowLeft","false","","","revaluation","1","42","","",""
"html-keyboard-response","164","887573","0.0-4.0-2.0-1.21","spark_pilot_2","7527","4","23","Female","","","","","","","null","<div style=""font-size:60px;"">+</div>","null","fixation","","","","","","","","","","","43","","",""
"revaluation","165","893577","0.0-4.0-2.0-0.22","spark_pilot_2","7527","4","23","Female","","","false","","","","[520.5999999046326,479.2999999523163]","./assets/img/ocean/memory/6.jpg","[""ArrowUp"",""ArrowLeft""]","value training","ocean","26","{""ArrowUp,ArrowLeft"":26,""ArrowUp,ArrowRight"":10,""ArrowDown,ArrowLeft"":5,""ArrowDown,ArrowRight"":17}","true","ArrowUp,ArrowLeft","false","","","revaluation","1","44","","",""
"html-keyboard-response","166","894079","0.0-4.0-2.0-1.22","spark_pilot_2","7527","4","23","Female","","","","","","","null","<div style=""font-size:60px;"">+</div>","null","fixation","","","","","","","","","","","45","","",""
"revaluation","167","900084","0.0-4.0-2.0-0.23","spark_pilot_2","7527","4","23","Female","","","false","","","","[431,497.39999997615814]","./assets/img/ocean/memory/12.jpg","[""ArrowUp"",""ArrowLeft""]","value training","ocean","26","{""ArrowUp,ArrowLeft"":26,""ArrowUp,ArrowRight"":10,""ArrowDown,ArrowLeft"":5,""ArrowDown,ArrowRight"":17}","true","ArrowUp,ArrowLeft","false","","","revaluation","1","46","","",""
"html-keyboard-response","168","900585","0.0-4.0-2.0-1.23","spark_pilot_2","7527","4","23","Female","","","","","","","null","<div style=""font-size:60px;"">+</div>","null","fixation","","","","","","","","","","","47","","",""
"revaluation","169","904589","0.0-4.0-2.0-0.24","spark_pilot_2","7527","4","23","Female","","","false","","","","[614.5999999046326]","./assets/img/ocean/catch/2.jpg","[""spaceBar""]","value training","ocean","0","{""ArrowUp,ArrowLeft"":26,""ArrowUp,ArrowRight"":10,""ArrowDown,ArrowLeft"":5,""ArrowDown,ArrowRight"":17}","true","spaceBar","true","","","revaluation","1","48","","",""
"html-keyboard-response","170","905092","0.0-4.0-2.0-1.24","spark_pilot_2","7527","4","23","Female","","","","","","","null","<div style=""font-size:60px;"">+</div>","null","fixation","","","","","","","","","","","49","","",""
"revaluation","171","911096","0.0-4.0-2.0-0.25","spark_pilot_2","7527","4","23","Female","","","false","","","","[721.8000000715256,345.3000000715256]","./assets/img/ocean/memory/32.jpg","[""ArrowUp"",""ArrowLeft""]","value training","ocean","26","{""ArrowUp,ArrowLeft"":26,""ArrowUp,ArrowRight"":10,""ArrowDown,ArrowLeft"":5,""ArrowDown,ArrowRight"":17}","true","ArrowUp,ArrowLeft","false","","","revaluation","1","50","","",""
"html-keyboard-response","172","911598","0.0-4.0-2.0-1.25","spark_pilot_2","7527","4","23","Female","","","","","","","null","<div style=""font-size:60px;"">+</div>","null","fixation","","","","","","","","","","","51","","",""
"revaluation","173","917604","0.0-4.0-2.0-0.26","spark_pilot_2","7527","4","23","Female","","","false","","","","[842.8999999761581,510.2999999523163]","./assets/img/ocean/memory/19.jpg","[""ArrowUp"",""ArrowLeft""]","value training","ocean","26","{""ArrowUp,ArrowLeft"":26,""ArrowUp,ArrowRight"":10,""ArrowDown,ArrowLeft"":5,""ArrowDown,ArrowRight"":17}","true","ArrowUp,ArrowLeft","false","","","revaluation","1","52","","",""
"html-keyboard-response","174","918105","0.0-4.0-2.0-1.26","spark_pilot_2","7527","4","23","Female","","","","","","","null","<div style=""font-size:60px;"">+</div>","null","fixation","","","","","","","","","","","53","","",""
"revaluation","175","924111","0.0-4.0-2.0-0.27","spark_pilot_2","7527","4","23","Female","","","false","","","","[666.3000000715256,410.60000002384186]","./assets/img/ocean/memory/15.jpg","[""ArrowUp"",""ArrowLeft""]","value training","ocean","26","{""ArrowUp,ArrowLeft"":26,""ArrowUp,ArrowRight"":10,""ArrowDown,ArrowLeft"":5,""ArrowDown,ArrowRight"":17}","true","ArrowUp,ArrowLeft","false","","","revaluation","1","54","","",""
"html-keyboard-response","176","924613","0.0-4.0-2.0-1.27","spark_pilot_2","7527","4","23","Female","","","","","","","null","<div style=""font-size:60px;"">+</div>","null","fixation","","","","","","","","","","","55","","",""
"revaluation","177","928618","0.0-4.0-2.0-0.28","spark_pilot_2","7527","4","23","Female","","","false","","","","[713.3999999761581]","./assets/img/ocean/catch/1.jpg","[""spaceBar""]","value training","ocean","0","{""ArrowUp,ArrowLeft"":26,""ArrowUp,ArrowRight"":10,""ArrowDown,ArrowLeft"":5,""ArrowDown,ArrowRight"":17}","true","spaceBar","true","","","revaluation","1","56","","",""
"html-keyboard-response","178","929120","0.0-4.0-2.0-1.28","spark_pilot_2","7527","4","23","Female","","","","","","","null","<div style=""font-size:60px;"">+</div>","null","fixation","","","","","","","","","","","57","","",""
"revaluation","179","935126","0.0-4.0-2.0-0.29","spark_pilot_2","7527","4","23","Female","","","false","","","","[703.3999999761581,787.3999999761581]","./assets/img/ocean/memory/17.jpg","[""ArrowUp"",""ArrowLeft""]","value training","ocean","26","{""ArrowUp,ArrowLeft"":26,""ArrowUp,ArrowRight"":10,""ArrowDown,ArrowLeft"":5,""ArrowDown,ArrowRight"":17}","true","ArrowUp,ArrowLeft","false","","","revaluation","1","58","","",""
"html-keyboard-response","180","935628","0.0-4.0-2.0-1.29","spark_pilot_2","7527","4","23","Female","","","","","","","null","<div style=""font-size:60px;"">+</div>","null","fixation","","","","","","","","","","","59","","",""
"revaluation","181","941635","0.0-4.0-2.0-0.30","spark_pilot_2","7527","4","23","Female","","","false","","","","[431.7000000476837,649.1000000238419]","./assets/img/ocean/memory/14.jpg","[""ArrowUp"",""ArrowLeft""]","value training","ocean","26","{""ArrowUp,ArrowLeft"":26,""ArrowUp,ArrowRight"":10,""ArrowDown,ArrowLeft"":5,""ArrowDown,ArrowRight"":17}","true","ArrowUp,ArrowLeft","false","","","revaluation","1","60","","",""
"html-keyboard-response","182","942137","0.0-4.0-2.0-1.30","spark_pilot_2","7527","4","23","Female","","","","","","","null","<div style=""font-size:60px;"">+</div>","null","fixation","","","","","","","","","","","61","","",""
"revaluation","183","948141","0.0-4.0-2.0-0.31","spark_pilot_2","7527","4","23","Female","","","false","","","","[783,402.39999997615814]","./assets/img/ocean/memory/20.jpg","[""ArrowUp"",""ArrowLeft""]","value training","ocean","26","{""ArrowUp,ArrowLeft"":26,""ArrowUp,ArrowRight"":10,""ArrowDown,ArrowLeft"":5,""ArrowDown,ArrowRight"":17}","true","ArrowUp,ArrowLeft","false","","","revaluation","1","62","","",""
"html-keyboard-response","184","948643","0.0-4.0-2.0-1.31","spark_pilot_2","7527","4","23","Female","","","","","","","null","<div style=""font-size:60px;"">+</div>","null","fixation","","","","","","","","","","","63","","",""
"revaluation","185","954647","0.0-4.0-2.0-0.32","spark_pilot_2","7527","4","23","Female","","","false","","","","[457.40000009536743,905]","./assets/img/ocean/memory/40.jpg","[""ArrowUp"",""ArrowLeft""]","value training","ocean","26","{""ArrowUp,ArrowLeft"":26,""ArrowUp,ArrowRight"":10,""ArrowDown,ArrowLeft"":5,""ArrowDown,ArrowRight"":17}","true","ArrowUp,ArrowLeft","false","","","revaluation","1","64","","",""
"html-keyboard-response","186","955149","0.0-4.0-2.0-1.32","spark_pilot_2","7527","4","23","Female","","","","","","","null","<div style=""font-size:60px;"">+</div>","null","fixation","","","","","","","","","","","65","","",""
"revaluation","187","961154","0.0-4.0-2.0-0.33","spark_pilot_2","7527","4","23","Female","","","false","","","","[426.39999997615814,375.7999999523163]","./assets/img/ocean/memory/34.jpg","[""ArrowUp"",""ArrowLeft""]","value training","ocean","26","{""ArrowUp,ArrowLeft"":26,""ArrowUp,ArrowRight"":10,""ArrowDown,ArrowLeft"":5,""ArrowDown,ArrowRight"":17}","true","ArrowUp,ArrowLeft","false","","","revaluation","1","66","","",""
"html-keyboard-response","188","961655","0.0-4.0-2.0-1.33","spark_pilot_2","7527","4","23","Female","","","","","","","null","<div style=""font-size:60px;"">+</div>","null","fixation","","","","","","","","","","","67","","",""
"revaluation","189","967661","0.0-4.0-2.0-0.34","spark_pilot_2","7527","4","23","Female","","","false","","","","[474.2999999523163,413]","./assets/img/ocean/memory/38.jpg","[""ArrowUp"",""ArrowLeft""]","value training","ocean","26","{""ArrowUp,ArrowLeft"":26,""ArrowUp,ArrowRight"":10,""ArrowDown,ArrowLeft"":5,""ArrowDown,ArrowRight"":17}","true","ArrowUp,ArrowLeft","false","","","revaluation","1","68","","",""
"html-keyboard-response","190","968163","0.0-4.0-2.0-1.34","spark_pilot_2","7527","4","23","Female","","","","","","","null","<div style=""font-size:60px;"">+</div>","null","fixation","","","","","","","","","","","69","","",""
"revaluation","191","974168","0.0-4.0-2.0-0.35","spark_pilot_2","7527","4","23","Female","","","false","","","","[425.5,417.60000002384186]","./assets/img/ocean/memory/5.jpg","[""ArrowUp"",""ArrowLeft""]","value training","ocean","26","{""ArrowUp,ArrowLeft"":26,""ArrowUp,ArrowRight"":10,""ArrowDown,ArrowLeft"":5,""ArrowDown,ArrowRight"":17}","true","ArrowUp,ArrowLeft","false","","","revaluation","1","70","","",""
"html-keyboard-response","192","974670","0.0-4.0-2.0-1.35","spark_pilot_2","7527","4","23","Female","","","","","","","null","<div style=""font-size:60px;"">+</div>","null","fixation","","","","","","","","","","","71","","",""
"revaluation","193","980675","0.0-4.0-2.0-0.36","spark_pilot_2","7527","4","23","Female","","","false","","","","[405.2999999523163,575.2999999523163]","./assets/img/ocean/memory/15.jpg","[""ArrowUp"",""ArrowLeft""]","value training","ocean","26","{""ArrowUp,ArrowLeft"":26,""ArrowUp,ArrowRight"":10,""ArrowDown,ArrowLeft"":5,""ArrowDown,ArrowRight"":17}","true","ArrowUp,ArrowLeft","false","","","revaluation","1","72","","",""
"html-keyboard-response","194","981177","0.0-4.0-2.0-1.36","spark_pilot_2","7527","4","23","Female","","","","","","","null","<div style=""font-size:60px;"">+</div>","null","fixation","","","","","","","","","","","73","","",""
"revaluation","195","987184","0.0-4.0-2.0-0.37","spark_pilot_2","7527","4","23","Female","","","false","","","","[437.59999990463257,672.2999999523163]","./assets/img/ocean/memory/5.jpg","[""ArrowUp"",""ArrowLeft""]","value training","ocean","26","{""ArrowUp,ArrowLeft"":26,""ArrowUp,ArrowRight"":10,""ArrowDown,ArrowLeft"":5,""ArrowDown,ArrowRight"":17}","true","ArrowUp,ArrowLeft","false","","","revaluation","1","74","","",""
"html-keyboard-response","196","987686","0.0-4.0-2.0-1.37","spark_pilot_2","7527","4","23","Female","","","","","","","null","<div style=""font-size:60px;"">+</div>","null","fixation","","","","","","","","","","","75","","",""
"revaluation","197","993693","0.0-4.0-2.0-0.38","spark_pilot_2","7527","4","23","Female","","","false","","","","[405.1999999284744,397.3000000715256]","./assets/img/ocean/memory/23.jpg","[""ArrowUp"",""ArrowLeft""]","value training","ocean","26","{""ArrowUp,ArrowLeft"":26,""ArrowUp,ArrowRight"":10,""ArrowDown,ArrowLeft"":5,""ArrowDown,ArrowRight"":17}","true","ArrowUp,ArrowLeft","false","","","revaluation","1","76","","",""
"html-keyboard-response","198","994195","0.0-4.0-2.0-1.38","spark_pilot_2","7527","4","23","Female","","","","","","","null","<div style=""font-size:60px;"">+</div>","null","fixation","","","","","","","","","","","77","","",""
"revaluation","199","1000201","0.0-4.0-2.0-0.39","spark_pilot_2","7527","4","23","Female","","","false","","","","[433.5,429.89999997615814]","./assets/img/ocean/memory/34.jpg","[""ArrowUp"",""ArrowLeft""]","value training","ocean","26","{""ArrowUp,ArrowLeft"":26,""ArrowUp,ArrowRight"":10,""ArrowDown,ArrowLeft"":5,""ArrowDown,ArrowRight"":17}","true","ArrowUp,ArrowLeft","false","","","revaluation","1","78","","",""
"html-keyboard-response","200","1000703","0.0-4.0-2.0-1.39","spark_pilot_2","7527","4","23","Female","","","","","","","null","<div style=""font-size:60px;"">+</div>","null","fixation","","","","","","","","","","","79","","",""
"revaluation","201","1006709","0.0-4.0-2.0-0.40","spark_pilot_2","7527","4","23","Female","","","false","","","","[431.10000002384186,467]","./assets/img/ocean/memory/17.jpg","[""ArrowUp"",""ArrowLeft""]","value training","ocean","26","{""ArrowUp,ArrowLeft"":26,""ArrowUp,ArrowRight"":10,""ArrowDown,ArrowLeft"":5,""ArrowDown,ArrowRight"":17}","true","ArrowUp,ArrowLeft","false","","","revaluation","1","80","","",""
"html-keyboard-response","202","1007211","0.0-4.0-2.0-1.40","spark_pilot_2","7527","4","23","Female","","","","","","","null","<div style=""font-size:60px;"">+</div>","null","fixation","","","","","","","","","","","81","","",""
"revaluation","203","1011216","0.0-4.0-2.0-0.41","spark_pilot_2","7527","4","23","Female","","","false","","","","[430]","./assets/img/ocean/catch/4.jpg","[""ArrowUp""]","value training","ocean","-10","{""ArrowUp,ArrowLeft"":26,""ArrowUp,ArrowRight"":10,""ArrowDown,ArrowLeft"":5,""ArrowDown,ArrowRight"":17}","false","ArrowUp","true","","","revaluation","1","82","","",""
"html-keyboard-response","204","1011719","0.0-4.0-2.0-1.41","spark_pilot_2","7527","4","23","Female","","","","","","","null","<div style=""font-size:60px;"">+</div>","null","fixation","","","","","","","","","","","83","","",""
"revaluation","205","1017724","0.0-4.0-2.0-0.42","spark_pilot_2","7527","4","23","Female","","","false","","","","[529.8999999761581,388.7000000476837]","./assets/img/ocean/memory/18.jpg","[""ArrowUp"",""ArrowLeft""]","value training","ocean","26","{""ArrowUp,ArrowLeft"":26,""ArrowUp,ArrowRight"":10,""ArrowDown,ArrowLeft"":5,""ArrowDown,ArrowRight"":17}","true","ArrowUp,ArrowLeft","false","","","revaluation","1","84","","",""
"html-keyboard-response","206","1018226","0.0-4.0-2.0-1.42","spark_pilot_2","7527","4","23","Female","","","","","","","null","<div style=""font-size:60px;"">+</div>","null","fixation","","","","","","","","","","","85","","",""
"revaluation","207","1024231","0.0-4.0-2.0-0.43","spark_pilot_2","7527","4","23","Female","","","false","","","","[483.5,454.2000000476837]","./assets/img/ocean/memory/23.jpg","[""ArrowUp"",""ArrowLeft""]","value training","ocean","26","{""ArrowUp,ArrowLeft"":26,""ArrowUp,ArrowRight"":10,""ArrowDown,ArrowLeft"":5,""ArrowDown,ArrowRight"":17}","true","ArrowUp,ArrowLeft","false","","","revaluation","1","86","","",""
"html-keyboard-response","208","1024734","0.0-4.0-2.0-1.43","spark_pilot_2","7527","4","23","Female","","","","","","","null","<div style=""font-size:60px;"">+</div>","null","fixation","","","","","","","","","","","87","","",""
"revaluation","209","1028738","0.0-4.0-2.0-0.44","spark_pilot_2","7527","4","23","Female","","","false","","","","[723.7999999523163]","./assets/img/ocean/catch/7.jpg","[""spaceBar""]","value training","ocean","0","{""ArrowUp,ArrowLeft"":26,""ArrowUp,ArrowRight"":10,""ArrowDown,ArrowLeft"":5,""ArrowDown,ArrowRight"":17}","true","spaceBar","true","","","revaluation","1","88","","",""
"html-keyboard-response","210","1029240","0.0-4.0-2.0-1.44","spark_pilot_2","7527","4","23","Female","","","","","","","null","<div style=""font-size:60px;"">+</div>","null","fixation","","","","","","","","","","","89","","",""
"revaluation","211","1035246","0.0-4.0-2.0-0.45","spark_pilot_2","7527","4","23","Female","","","false","","","","[757.5,363]","./assets/img/ocean/memory/29.jpg","[""ArrowUp"",""ArrowLeft""]","value training","ocean","26","{""ArrowUp,ArrowLeft"":26,""ArrowUp,ArrowRight"":10,""ArrowDown,ArrowLeft"":5,""ArrowDown,ArrowRight"":17}","true","ArrowUp,ArrowLeft","false","","","revaluation","1","90","","",""
"html-keyboard-response","212","1035747","0.0-4.0-2.0-1.45","spark_pilot_2","7527","4","23","Female","","","","","","","null","<div style=""font-size:60px;"">+</div>","null","fixation","","","","","","","","","","","91","","",""
"revaluation","213","1041753","0.0-4.0-2.0-0.46","spark_pilot_2","7527","4","23","Female","","","false","","","","[439.5,334.60000002384186]","./assets/img/ocean/memory/38.jpg","[""ArrowUp"",""ArrowLeft""]","value training","ocean","26","{""ArrowUp,ArrowLeft"":26,""ArrowUp,ArrowRight"":10,""ArrowDown,ArrowLeft"":5,""ArrowDown,ArrowRight"":17}","true","ArrowUp,ArrowLeft","false","","","revaluation","1","92","","",""
"html-keyboard-response","214","1042255","0.0-4.0-2.0-1.46","spark_pilot_2","7527","4","23","Female","","","","","","","null","<div style=""font-size:60px;"">+</div>","null","fixation","","","","","","","","","","","93","","",""
"revaluation","215","1048261","0.0-4.0-2.0-0.47","spark_pilot_2","7527","4","23","Female","","","false","","","","[409.2000000476837,368.3000000715256]","./assets/img/ocean/memory/6.jpg","[""ArrowUp"",""ArrowLeft""]","value training","ocean","26","{""ArrowUp,ArrowLeft"":26,""ArrowUp,ArrowRight"":10,""ArrowDown,ArrowLeft"":5,""ArrowDown,ArrowRight"":17}","true","ArrowUp,ArrowLeft","false","","","revaluation","1","94","","",""
"html-keyboard-response","216","1048763","0.0-4.0-2.0-1.47","spark_pilot_2","7527","4","23","Female","","","","","","","null","<div style=""font-size:60px;"">+</div>","null","fixation","","","","","","","","","","","95","","",""
"revaluation","217","1054770","0.0-4.0-2.0-0.48","spark_pilot_2","7527","4","23","Female","","","false","","","","[439.2999999523163,345.6999999284744]","./assets/img/ocean/memory/35.jpg","[""ArrowUp"",""ArrowLeft""]","value training","ocean","26","{""ArrowUp,ArrowLeft"":26,""ArrowUp,ArrowRight"":10,""ArrowDown,ArrowLeft"":5,""ArrowDown,ArrowRight"":17}","true","ArrowUp,ArrowLeft","false","","","revaluation","1","96","","",""
"html-keyboard-response","218","1055272","0.0-4.0-2.0-1.48","spark_pilot_2","7527","4","23","Female","","","","","","","null","<div style=""font-size:60px;"">+</div>","null","fixation","","","","","","","","","","","97","","",""
"revaluation","219","1061277","0.0-4.0-2.0-0.49","spark_pilot_2","7527","4","23","Female","","","false","","","","[417.59999990463257,409.60000002384186]","./assets/img/ocean/memory/27.jpg","[""ArrowUp"",""ArrowLeft""]","value training","ocean","26","{""ArrowUp,ArrowLeft"":26,""ArrowUp,ArrowRight"":10,""ArrowDown,ArrowLeft"":5,""ArrowDown,ArrowRight"":17}","true","ArrowUp,ArrowLeft","false","","","revaluation","1","98","","",""
"html-keyboard-response","220","1061779","0.0-4.0-2.0-1.49","spark_pilot_2","7527","4","23","Female","","","","","","","null","<div style=""font-size:60px;"">+</div>","null","fixation","","","","","","","","","","","99","","",""
"learning-instructions","221","1077133","0.0-4.0-3.0-0.0","spark_pilot_2","7527","4","23","Female","","","","","","","1141.1000000238419","<p> Now, you will travel with a friend who will choose whether you go up or down first. </p>
            <p> On these turns, you will just see the animal that they found. You will still get to choose which chest to search for treasure.</p>","","instructions","","","","","","","","","","","","","",""
"revaluation","222","1081155","0.0-4.0-4.0-0.0","spark_pilot_2","7527","4","23","Female","","","false","","","","[1355.3999999761581]","./assets/img/ocean/animals/seahorse.jpg","[""ArrowLeft""]","revaluation","ocean","2","{""ArrowUp,ArrowLeft"":2,""ArrowUp,ArrowRight"":11,""ArrowDown,ArrowLeft"":8,""ArrowDown,ArrowRight"":27}","false","ArrowUp,ArrowLeft","","","","revaluation","1","0","","",""
"html-keyboard-response","223","1081670","0.0-4.0-4.0-1.0","spark_pilot_2","7527","4","23","Female","","","","","","","null","<div style=""font-size:60px;"">+</div>","null","fixation","","","","","","","","","","","1","","",""
"revaluation","224","1085693","0.0-4.0-4.0-0.1","spark_pilot_2","7527","4","23","Female","","","false","","","","[776.3999999761581]","./assets/img/ocean/animals/octopus.jpg","[""ArrowRight""]","revaluation","ocean","27","{""ArrowUp,ArrowLeft"":2,""ArrowUp,ArrowRight"":11,""ArrowDown,ArrowLeft"":8,""ArrowDown,ArrowRight"":27}","true","ArrowDown,ArrowRight","","","","revaluation","1","2","","",""
"html-keyboard-response","225","1086201","0.0-4.0-4.0-1.1","spark_pilot_2","7527","4","23","Female","","","","","","","null","<div style=""font-size:60px;"">+</div>","null","fixation","","","","","","","","","","","3","","",""
"revaluation","226","1090215","0.0-4.0-4.0-0.2","spark_pilot_2","7527","4","23","Female","","","false","","","","[547.3000000715256]","./assets/img/ocean/animals/octopus.jpg","[""ArrowRight""]","revaluation","ocean","27","{""ArrowUp,ArrowLeft"":2,""ArrowUp,ArrowRight"":11,""ArrowDown,ArrowLeft"":8,""ArrowDown,ArrowRight"":27}","true","ArrowDown,ArrowRight","","","","revaluation","1","4","","",""
"html-keyboard-response","227","1090720","0.0-4.0-4.0-1.2","spark_pilot_2","7527","4","23","Female","","","","","","","null","<div style=""font-size:60px;"">+</div>","null","fixation","","","","","","","","","","","5","","",""
"revaluation","228","1094728","0.0-4.0-4.0-0.3","spark_pilot_2","7527","4","23","Female","","","false","","","","[481.89999997615814]","./assets/img/ocean/animals/seahorse.jpg","[""ArrowRight""]","revaluation","ocean","11","{""ArrowUp,ArrowLeft"":2,""ArrowUp,ArrowRight"":11,""ArrowDown,ArrowLeft"":8,""ArrowDown,ArrowRight"":27}","true","ArrowUp,ArrowRight","","","","revaluation","1","6","","",""
"html-keyboard-response","229","1095232","0.0-4.0-4.0-1.3","spark_pilot_2","7527","4","23","Female","","","","","","","null","<div style=""font-size:60px;"">+</div>","null","fixation","","","","","","","","","","","7","","",""
"revaluation","230","1099250","0.0-4.0-4.0-0.4","spark_pilot_2","7527","4","23","Female","","","false","","","","[607.1999999284744]","./assets/img/ocean/animals/octopus.jpg","[""ArrowLeft""]","revaluation","ocean","8","{""ArrowUp,ArrowLeft"":2,""ArrowUp,ArrowRight"":11,""ArrowDown,ArrowLeft"":8,""ArrowDown,ArrowRight"":27}","false","ArrowDown,ArrowLeft","","","","revaluation","1","8","","",""
"html-keyboard-response","231","1099756","0.0-4.0-4.0-1.4","spark_pilot_2","7527","4","23","Female","","","","","","","null","<div style=""font-size:60px;"">+</div>","null","fixation","","","","","","","","","","","9","","",""
"revaluation","232","1103765","0.0-4.0-4.0-0.5","spark_pilot_2","7527","4","23","Female","","","false","","","","[512.5]","./assets/img/ocean/animals/octopus.jpg","[""ArrowRight""]","revaluation","ocean","27","{""ArrowUp,ArrowLeft"":2,""ArrowUp,ArrowRight"":11,""ArrowDown,ArrowLeft"":8,""ArrowDown,ArrowRight"":27}","true","ArrowDown,ArrowRight","","","","revaluation","1","10","","",""
"html-keyboard-response","233","1104271","0.0-4.0-4.0-1.5","spark_pilot_2","7527","4","23","Female","","","","","","","null","<div style=""font-size:60px;"">+</div>","null","fixation","","","","","","","","","","","11","","",""
"revaluation","234","1108277","0.0-4.0-4.0-0.6","spark_pilot_2","7527","4","23","Female","","","false","","","","[471.8000000715256]","./assets/img/ocean/animals/seahorse.jpg","[""ArrowRight""]","revaluation","ocean","11","{""ArrowUp,ArrowLeft"":2,""ArrowUp,ArrowRight"":11,""ArrowDown,ArrowLeft"":8,""ArrowDown,ArrowRight"":27}","true","ArrowUp,ArrowRight","","","","revaluation","1","12","","",""
"html-keyboard-response","235","1108778","0.0-4.0-4.0-1.6","spark_pilot_2","7527","4","23","Female","","","","","","","null","<div style=""font-size:60px;"">+</div>","null","fixation","","","","","","","","","","","13","","",""
"revaluation","236","1112783","0.0-4.0-4.0-0.7","spark_pilot_2","7527","4","23","Female","","","false","","","","[370.89999997615814]","./assets/img/ocean/animals/seahorse.jpg","[""ArrowRight""]","revaluation","ocean","11","{""ArrowUp,ArrowLeft"":2,""ArrowUp,ArrowRight"":11,""ArrowDown,ArrowLeft"":8,""ArrowDown,ArrowRight"":27}","true","ArrowUp,ArrowRight","","","","revaluation","1","14","","",""
"html-keyboard-response","237","1113285","0.0-4.0-4.0-1.7","spark_pilot_2","7527","4","23","Female","","","","","","","null","<div style=""font-size:60px;"">+</div>","null","fixation","","","","","","","","","","","15","","",""
"revaluation","238","1117289","0.0-4.0-4.0-0.8","spark_pilot_2","7527","4","23","Female","","","false","","","","[488.10000002384186]","./assets/img/ocean/animals/seahorse.jpg","[""ArrowRight""]","revaluation","ocean","11","{""ArrowUp,ArrowLeft"":2,""ArrowUp,ArrowRight"":11,""ArrowDown,ArrowLeft"":8,""ArrowDown,ArrowRight"":27}","true","ArrowUp,ArrowRight","","","","revaluation","1","16","","",""
"html-keyboard-response","239","1117791","0.0-4.0-4.0-1.8","spark_pilot_2","7527","4","23","Female","","","","","","","null","<div style=""font-size:60px;"">+</div>","null","fixation","","","","","","","","","","","17","","",""
"revaluation","240","1121794","0.0-4.0-4.0-0.9","spark_pilot_2","7527","4","23","Female","","","false","","","","[598.6999999284744]","./assets/img/ocean/animals/seahorse.jpg","[""ArrowRight""]","revaluation","ocean","11","{""ArrowUp,ArrowLeft"":2,""ArrowUp,ArrowRight"":11,""ArrowDown,ArrowLeft"":8,""ArrowDown,ArrowRight"":27}","true","ArrowUp,ArrowRight","","","","revaluation","1","18","","",""
"html-keyboard-response","241","1122296","0.0-4.0-4.0-1.9","spark_pilot_2","7527","4","23","Female","","","","","","","null","<div style=""font-size:60px;"">+</div>","null","fixation","","","","","","","","","","","19","","",""
"revaluation","242","1126300","0.0-4.0-4.0-0.10","spark_pilot_2","7527","4","23","Female","","","false","","","","[812.5]","./assets/img/ocean/animals/seahorse.jpg","[""ArrowRight""]","revaluation","ocean","11","{""ArrowUp,ArrowLeft"":2,""ArrowUp,ArrowRight"":11,""ArrowDown,ArrowLeft"":8,""ArrowDown,ArrowRight"":27}","true","ArrowUp,ArrowRight","","","","revaluation","1","20","","",""
"html-keyboard-response","243","1126802","0.0-4.0-4.0-1.10","spark_pilot_2","7527","4","23","Female","","","","","","","null","<div style=""font-size:60px;"">+</div>","null","fixation","","","","","","","","","","","21","","",""
"revaluation","244","1130807","0.0-4.0-4.0-0.11","spark_pilot_2","7527","4","23","Female","","","false","","","","[334.89999997615814]","./assets/img/ocean/animals/octopus.jpg","[""ArrowRight""]","revaluation","ocean","27","{""ArrowUp,ArrowLeft"":2,""ArrowUp,ArrowRight"":11,""ArrowDown,ArrowLeft"":8,""ArrowDown,ArrowRight"":27}","true","ArrowDown,ArrowRight","","","","revaluation","1","22","","",""
"html-keyboard-response","245","1131309","0.0-4.0-4.0-1.11","spark_pilot_2","7527","4","23","Female","","","","","","","null","<div style=""font-size:60px;"">+</div>","null","fixation","","","","","","","","","","","23","","",""
"revaluation","246","1135314","0.0-4.0-4.0-0.12","spark_pilot_2","7527","4","23","Female","","","false","","","","[334.1999999284744]","./assets/img/ocean/animals/octopus.jpg","[""ArrowRight""]","revaluation","ocean","27","{""ArrowUp,ArrowLeft"":2,""ArrowUp,ArrowRight"":11,""ArrowDown,ArrowLeft"":8,""ArrowDown,ArrowRight"":27}","true","ArrowDown,ArrowRight","","","","revaluation","1","24","","",""
"html-keyboard-response","247","1135816","0.0-4.0-4.0-1.12","spark_pilot_2","7527","4","23","Female","","","","","","","null","<div style=""font-size:60px;"">+</div>","null","fixation","","","","","","","","","","","25","","",""
"revaluation","248","1139820","0.0-4.0-4.0-0.13","spark_pilot_2","7527","4","23","Female","","","false","","","","[668.6000000238419]","./assets/img/ocean/animals/octopus.jpg","[""ArrowRight""]","revaluation","ocean","27","{""ArrowUp,ArrowLeft"":2,""ArrowUp,ArrowRight"":11,""ArrowDown,ArrowLeft"":8,""ArrowDown,ArrowRight"":27}","true","ArrowDown,ArrowRight","","","","revaluation","1","26","","",""
"html-keyboard-response","249","1140322","0.0-4.0-4.0-1.13","spark_pilot_2","7527","4","23","Female","","","","","","","null","<div style=""font-size:60px;"">+</div>","null","fixation","","","","","","","","","","","27","","",""
"revaluation","250","1144327","0.0-4.0-4.0-0.14","spark_pilot_2","7527","4","23","Female","","","false","","","","[632.5]","./assets/img/ocean/animals/seahorse.jpg","[""ArrowRight""]","revaluation","ocean","11","{""ArrowUp,ArrowLeft"":2,""ArrowUp,ArrowRight"":11,""ArrowDown,ArrowLeft"":8,""ArrowDown,ArrowRight"":27}","true","ArrowUp,ArrowRight","","","","revaluation","1","28","","",""
"html-keyboard-response","251","1144828","0.0-4.0-4.0-1.14","spark_pilot_2","7527","4","23","Female","","","","","","","null","<div style=""font-size:60px;"">+</div>","null","fixation","","","","","","","","","","","29","","",""
"revaluation","252","1148846","0.0-4.0-4.0-0.15","spark_pilot_2","7527","4","23","Female","","","false","","","","[764.5]","./assets/img/ocean/animals/octopus.jpg","[""ArrowRight""]","revaluation","ocean","27","{""ArrowUp,ArrowLeft"":2,""ArrowUp,ArrowRight"":11,""ArrowDown,ArrowLeft"":8,""ArrowDown,ArrowRight"":27}","true","ArrowDown,ArrowRight","","","","revaluation","1","30","","",""
"html-keyboard-response","253","1149349","0.0-4.0-4.0-1.15","spark_pilot_2","7527","4","23","Female","","","","","","","null","<div style=""font-size:60px;"">+</div>","null","fixation","","","","","","","","","","","31","","",""
"revaluation","254","1153355","0.0-4.0-4.0-0.16","spark_pilot_2","7527","4","23","Female","","","false","","","","[483.10000002384186]","./assets/img/ocean/animals/octopus.jpg","[""ArrowRight""]","revaluation","ocean","27","{""ArrowUp,ArrowLeft"":2,""ArrowUp,ArrowRight"":11,""ArrowDown,ArrowLeft"":8,""ArrowDown,ArrowRight"":27}","true","ArrowDown,ArrowRight","","","","revaluation","1","32","","",""
"html-keyboard-response","255","1153856","0.0-4.0-4.0-1.16","spark_pilot_2","7527","4","23","Female","","","","","","","null","<div style=""font-size:60px;"">+</div>","null","fixation","","","","","","","","","","","33","","",""
"revaluation","256","1157862","0.0-4.0-4.0-0.17","spark_pilot_2","7527","4","23","Female","","","false","","","","[714.5999999046326]","./assets/img/ocean/animals/seahorse.jpg","[""ArrowRight""]","revaluation","ocean","11","{""ArrowUp,ArrowLeft"":2,""ArrowUp,ArrowRight"":11,""ArrowDown,ArrowLeft"":8,""ArrowDown,ArrowRight"":27}","true","ArrowUp,ArrowRight","","","","revaluation","1","34","","",""
"html-keyboard-response","257","1158364","0.0-4.0-4.0-1.17","spark_pilot_2","7527","4","23","Female","","","","","","","null","<div style=""font-size:60px;"">+</div>","null","fixation","","","","","","","","","","","35","","",""
"learning-instructions","258","1172232","0.0-4.0-5.0-0.0","spark_pilot_2","7527","4","23","Female","","","","","","","1222","<p> Time to play the dot game! </p>
            <p> For one minute, click the red dots on the following screen as they appear. </p>
            <p><b> Don't look away, as you will earn bonus for clicking dots</b>. </p>","","instructions","","","","","","","","","","","","","",""
"revaluation","259","1232232","0.0-4.0-6.0-0.0","spark_pilot_2","7527","4","23","Female","","","","","","","[64,52,81,85,80,83,119]","","","rest","","70","","","","","0","60000","","","","","",""
"learning-instructions","260","1241084","0.0-4.0-7.0-0.0","spark_pilot_2","7527","4","23","Female","","","","","","","1894.5999999046326","<p> You have almost finished this part of the game! </p>
            <p> We are going to ask you to make a few more choices. </p>","","instructions","","","","","","","","","","","","","",""
"learning-instructions","261","1255876","0.0-4.0-7.0-0.1","spark_pilot_2","7527","4","23","Female","","","","","","","827.5","<p> First, you need to decide whether to go up or down. When you see each picture, use the arrow keys to make your choice. </p>
            <p><b>You will not see which animal you found, but try to get to the one that will give you the most treasure.</b></p>","","instructions","","","","","","","","","","","","","",""
"revaluation","262","1257172","0.0-4.0-8.0-0.0","spark_pilot_2","7527","4","23","Female","","","false","","","","[1294.2999999523163]","./assets/img/ocean/test/0.jpg","[""ArrowUp""]","first stage test","ocean","0","{""ArrowUp,ArrowLeft"":2,""ArrowUp,ArrowRight"":11,""ArrowDown,ArrowLeft"":8,""ArrowDown,ArrowRight"":27}","false","ArrowUp","false","","","revaluation","1","","","",""
"html-keyboard-response","263","1257688","0.0-4.0-8.0-1.0","spark_pilot_2","7527","4","23","Female","","","","","","","null","<div style=""font-size:60px;"">+</div>","null","fixation","","","","","","","","","","","","","",""
"revaluation","264","1258489","0.0-4.0-8.0-0.1","spark_pilot_2","7527","4","23","Female","","","false","","","","[798.6000000238419]","./assets/img/ocean/test/3.jpg","[""ArrowUp""]","first stage test","ocean","0","{""ArrowUp,ArrowLeft"":2,""ArrowUp,ArrowRight"":11,""ArrowDown,ArrowLeft"":8,""ArrowDown,ArrowRight"":27}","false","ArrowUp","false","","","revaluation","1","","","",""
"html-keyboard-response","265","1258999","0.0-4.0-8.0-1.1","spark_pilot_2","7527","4","23","Female","","","","","","","null","<div style=""font-size:60px;"">+</div>","null","fixation","","","","","","","","","","","","","",""
"revaluation","266","1259627","0.0-4.0-8.0-0.2","spark_pilot_2","7527","4","23","Female","","","false","","","","[625.6999999284744]","./assets/img/ocean/test/1.jpg","[""ArrowUp""]","first stage test","ocean","0","{""ArrowUp,ArrowLeft"":2,""ArrowUp,ArrowRight"":11,""ArrowDown,ArrowLeft"":8,""ArrowDown,ArrowRight"":27}","false","ArrowUp","false","","","revaluation","1","","","",""
"html-keyboard-response","267","1260128","0.0-4.0-8.0-1.2","spark_pilot_2","7527","4","23","Female","","","","","","","null","<div style=""font-size:60px;"">+</div>","null","fixation","","","","","","","","","","","","","",""
"revaluation","268","1260654","0.0-4.0-8.0-0.3","spark_pilot_2","7527","4","23","Female","","","false","","","","[523.6000000238419]","./assets/img/ocean/test/2.jpg","[""ArrowUp""]","first stage test","ocean","0","{""ArrowUp,ArrowLeft"":2,""ArrowUp,ArrowRight"":11,""ArrowDown,ArrowLeft"":8,""ArrowDown,ArrowRight"":27}","false","ArrowUp","false","","","revaluation","1","","","",""
"html-keyboard-response","269","1261163","0.0-4.0-8.0-1.3","spark_pilot_2","7527","4","23","Female","","","","","","","null","<div style=""font-size:60px;"">+</div>","null","fixation","","","","","","","","","","","","","",""
"learning-instructions","270","1274024","0.0-4.0-9.0-0.0","spark_pilot_2","7527","4","23","Female","","","","","","","1515.7000000476837","<p> Now you will see the animals again and can search their chests for treasure. </p>
            <p> This time, you will not see how much treasure you earned, but you will earn more bonus money for making better choices. </p>","","instructions","","","","","","","","","","","","","",""
"revaluation","271","1276752","0.0-4.0-10.0-0.0","spark_pilot_2","7527","4","23","Female","","","false","","","","[2726.100000023842]","./assets/img/ocean/animals/seahorse.jpg","[""ArrowRight""]","second stage test","ocean","0","{""ArrowUp,ArrowLeft"":2,""ArrowUp,ArrowRight"":11,""ArrowDown,ArrowLeft"":8,""ArrowDown,ArrowRight"":27}","true","ArrowUp,ArrowRight","","","","revaluation","1","","","",""
"html-keyboard-response","272","1277255","0.0-4.0-10.0-1.0","spark_pilot_2","7527","4","23","Female","","","","","","","null","<div style=""font-size:60px;"">+</div>","null","fixation","","","","","","","","","","","","","",""
"revaluation","273","1277656","0.0-4.0-10.0-0.1","spark_pilot_2","7527","4","23","Female","","","false","","","","[399]","./assets/img/ocean/animals/seahorse.jpg","[""ArrowLeft""]","second stage test","ocean","0","{""ArrowUp,ArrowLeft"":2,""ArrowUp,ArrowRight"":11,""ArrowDown,ArrowLeft"":8,""ArrowDown,ArrowRight"":27}","false","ArrowUp,ArrowLeft","","","","revaluation","1","","","",""
"html-keyboard-response","274","1278160","0.0-4.0-10.0-1.1","spark_pilot_2","7527","4","23","Female","","","","","","","null","<div style=""font-size:60px;"">+</div>","null","fixation","","","","","","","","","","","","","",""
"revaluation","275","1278574","0.0-4.0-10.0-0.2","spark_pilot_2","7527","4","23","Female","","","false","","","","[410.89999997615814]","./assets/img/ocean/animals/seahorse.jpg","[""ArrowRight""]","second stage test","ocean","0","{""ArrowUp,ArrowLeft"":2,""ArrowUp,ArrowRight"":11,""ArrowDown,ArrowLeft"":8,""ArrowDown,ArrowRight"":27}","true","ArrowUp,ArrowRight","","","","revaluation","1","","","",""
"html-keyboard-response","276","1279083","0.0-4.0-10.0-1.2","spark_pilot_2","7527","4","23","Female","","","","","","","null","<div style=""font-size:60px;"">+</div>","null","fixation","","","","","","","","","","","","","",""
"revaluation","277","1279448","0.0-4.0-10.0-0.3","spark_pilot_2","7527","4","23","Female","","","false","","","","[362.39999997615814]","./assets/img/ocean/animals/seahorse.jpg","[""ArrowLeft""]","second stage test","ocean","0","{""ArrowUp,ArrowLeft"":2,""ArrowUp,ArrowRight"":11,""ArrowDown,ArrowLeft"":8,""ArrowDown,ArrowRight"":27}","false","ArrowUp,ArrowLeft","","","","revaluation","1","","","",""
"html-keyboard-response","278","1279949","0.0-4.0-10.0-1.3","spark_pilot_2","7527","4","23","Female","","","","","","","null","<div style=""font-size:60px;"">+</div>","null","fixation","","","","","","","","","","","","","",""
"revaluation","279","1281207","0.0-4.0-10.0-0.4","spark_pilot_2","7527","4","23","Female","","","false","","","","[1255.3999999761581]","./assets/img/ocean/animals/octopus.jpg","[""ArrowRight""]","second stage test","ocean","0","{""ArrowUp,ArrowLeft"":2,""ArrowUp,ArrowRight"":11,""ArrowDown,ArrowLeft"":8,""ArrowDown,ArrowRight"":27}","true","ArrowDown,ArrowRight","","","","revaluation","1","","","",""
"html-keyboard-response","280","1281717","0.0-4.0-10.0-1.4","spark_pilot_2","7527","4","23","Female","","","","","","","null","<div style=""font-size:60px;"">+</div>","null","fixation","","","","","","","","","","","","","",""
"revaluation","281","1281997","0.0-4.0-10.0-0.5","spark_pilot_2","7527","4","23","Female","","","false","","","","[277.2000000476837]","./assets/img/ocean/animals/octopus.jpg","[""ArrowRight""]","second stage test","ocean","0","{""ArrowUp,ArrowLeft"":2,""ArrowUp,ArrowRight"":11,""ArrowDown,ArrowLeft"":8,""ArrowDown,ArrowRight"":27}","true","ArrowDown,ArrowRight","","","","revaluation","1","","","",""
"html-keyboard-response","282","1282507","0.0-4.0-10.0-1.5","spark_pilot_2","7527","4","23","Female","","","","","","","null","<div style=""font-size:60px;"">+</div>","null","fixation","","","","","","","","","","","","","",""
"revaluation","283","1282779","0.0-4.0-10.0-0.6","spark_pilot_2","7527","4","23","Female","","","false","","","","[269.39999997615814]","./assets/img/ocean/animals/octopus.jpg","[""ArrowRight""]","second stage test","ocean","0","{""ArrowUp,ArrowLeft"":2,""ArrowUp,ArrowRight"":11,""ArrowDown,ArrowLeft"":8,""ArrowDown,ArrowRight"":27}","true","ArrowDown,ArrowRight","","","","revaluation","1","","","",""
"html-keyboard-response","284","1283287","0.0-4.0-10.0-1.6","spark_pilot_2","7527","4","23","Female","","","","","","","null","<div style=""font-size:60px;"">+</div>","null","fixation","","","","","","","","","","","","","",""
"revaluation","285","1283590","0.0-4.0-10.0-0.7","spark_pilot_2","7527","4","23","Female","","","false","","","","[300.39999997615814]","./assets/img/ocean/animals/octopus.jpg","[""ArrowRight""]","second stage test","ocean","0","{""ArrowUp,ArrowLeft"":2,""ArrowUp,ArrowRight"":11,""ArrowDown,ArrowLeft"":8,""ArrowDown,ArrowRight"":27}","true","ArrowDown,ArrowRight","","","","revaluation","1","","","",""
"html-keyboard-response","286","1284099","0.0-4.0-10.0-1.7","spark_pilot_2","7527","4","23","Female","","","","","","","null","<div style=""font-size:60px;"">+</div>","null","fixation","","","","","","","","","","","","","",""
"learning-instructions","287","1288312","0.0-4.0-0.1-0.2","spark_pilot_2","7527","4","23","Female","","","","","","","1443","<p> This time you are searching for treasure in the <b>canyon</b>.</p>","","instructions","","","","","","","","","","","","","",""
"learning-instructions","288","1412368","0.0-4.0-0.1-0.3","spark_pilot_2","7527","4","23","Female","","","","","","","106810","<p><b>New</b> animals with <b>new</b> treasure chests live here. You need to explore to discover where the animal with the best treasure chest is.</p>
                    <p> Like before, once you figure out which animal has the chest with the most treasure, you should try to get to that animal and select that chest! </p>","","instructions","","","","","","","","","","","","","",""
"learning-instructions","289","1429312","0.0-4.0-1.1-0.1","spark_pilot_2","7527","4","23","Female","","","","","","","1058.8999999761581","<p> Remember, when you see a picture of the place, use the up and down keys to <b>find an animal</b>.</p>
            <p> When you encounter an animal, you should use the left and right keys to <b>select a treasure chest</b>.</p>
            <p> Don't forget to look out for the robber! </p>","","instructions","","","","","","","","","","","","","",""
"revaluation","290","1435347","0.0-4.0-2.1-0.50","spark_pilot_2","7527","4","23","Female","","","false","","","","[1250.6000000238419,583]","./assets/img/canyon/memory/5.jpg","[""ArrowUp"",""ArrowRight""]","value training","canyon","10","{""ArrowUp,ArrowLeft"":23,""ArrowUp,ArrowRight"":10,""ArrowDown,ArrowLeft"":8,""ArrowDown,ArrowRight"":30}","false","ArrowUp,ArrowRight","false","","","original","2","0","","",""
"html-keyboard-response","291","1435854","0.0-4.0-2.1-1.50","spark_pilot_2","7527","4","23","Female","","","","","","","null","<div style=""font-size:60px;"">+</div>","null","fixation","","","","","","","","","","","1","","",""
"revaluation","292","1439873","0.0-4.0-2.1-0.51","spark_pilot_2","7527","4","23","Female","","","false","","","","[692.8000000715256]","./assets/img/canyon/catch/4.jpg","[""ArrowUp""]","value training","canyon","-10","{""ArrowUp,ArrowLeft"":23,""ArrowUp,ArrowRight"":10,""ArrowDown,ArrowLeft"":8,""ArrowDown,ArrowRight"":30}","false","ArrowUp","true","","","original","2","2","","",""
"html-keyboard-response","293","1440377","0.0-4.0-2.1-1.51","spark_pilot_2","7527","4","23","Female","","","","","","","null","<div style=""font-size:60px;"">+</div>","null","fixation","","","","","","","","","","","3","","",""
"revaluation","294","1446389","0.0-4.0-2.1-0.52","spark_pilot_2","7527","4","23","Female","","","false","","","","[777.5,418.8000000715256]","./assets/img/canyon/memory/6.jpg","[""ArrowUp"",""ArrowLeft""]","value training","canyon","23","{""ArrowUp,ArrowLeft"":23,""ArrowUp,ArrowRight"":10,""ArrowDown,ArrowLeft"":8,""ArrowDown,ArrowRight"":30}","false","ArrowUp,ArrowLeft","false","","","original","2","4","","",""
"html-keyboard-response","295","1446893","0.0-4.0-2.1-1.52","spark_pilot_2","7527","4","23","Female","","","","","","","null","<div style=""font-size:60px;"">+</div>","null","fixation","","","","","","","","","","","5","","",""
"revaluation","296","1452924","0.0-4.0-2.1-0.53","spark_pilot_2","7527","4","23","Female","","","false","","","","[667.2999999523163,752.7999999523163]","./assets/img/canyon/memory/17.jpg","[""ArrowDown"",""ArrowLeft""]","value training","canyon","8","{""ArrowUp,ArrowLeft"":23,""ArrowUp,ArrowRight"":10,""ArrowDown,ArrowLeft"":8,""ArrowDown,ArrowRight"":30}","false","ArrowDown,ArrowLeft","false","","","original","2","6","","",""
"html-keyboard-response","297","1453438","0.0-4.0-2.1-1.53","spark_pilot_2","7527","4","23","Female","","","","","","","null","<div style=""font-size:60px;"">+</div>","null","fixation","","","","","","","","","","","7","","",""
"revaluation","298","1459444","0.0-4.0-2.1-0.54","spark_pilot_2","7527","4","23","Female","","","false","","","","[520.9000000953674,648.6000000238419]","./assets/img/canyon/memory/15.jpg","[""ArrowDown"",""ArrowRight""]","value training","canyon","30","{""ArrowUp,ArrowLeft"":23,""ArrowUp,ArrowRight"":10,""ArrowDown,ArrowLeft"":8,""ArrowDown,ArrowRight"":30}","true","ArrowDown,ArrowRight","false","","","original","2","8","","",""
"html-keyboard-response","299","1459946","0.0-4.0-2.1-1.54","spark_pilot_2","7527","4","23","Female","","","","","","","null","<div style=""font-size:60px;"">+</div>","null","fixation","","","","","","","","","","","9","","",""
"revaluation","300","1465951","0.0-4.0-2.1-0.55","spark_pilot_2","7527","4","23","Female","","","false","","","","[708.3999999761581,724.5]","./assets/img/canyon/memory/25.jpg","[""ArrowDown"",""ArrowRight""]","value training","canyon","30","{""ArrowUp,ArrowLeft"":23,""ArrowUp,ArrowRight"":10,""ArrowDown,ArrowLeft"":8,""ArrowDown,ArrowRight"":30}","true","ArrowDown,ArrowRight","false","","","original","2","10","","",""
"html-keyboard-response","301","1466453","0.0-4.0-2.1-1.55","spark_pilot_2","7527","4","23","Female","","","","","","","null","<div style=""font-size:60px;"">+</div>","null","fixation","","","","","","","","","","","11","","",""
