"trial_type","trial_index","time_elapsed","internal_node_id","task_version","subject_id","assigned_condition","age","gender","success","timeout","failed_images","failed_audio","failed_video","browser_interaction","rt","stimulus","response","task_part","environment","score","rewardMap","correct","fullState","isCatch","numberMissed","duration","condition","order","trial_num","key_press","ground_truth","bonus"
"pavlovia","0","1718","0.0-0.0","spark_pilot_2","7372","7","15","Male","","","","","","","","","","","","","","","","","","","","","","","",""
"preload","1","21778","0.0-1.0","spark_pilot_2","7372","7","15","Male","true","false","[]","[]","[]","[{""event"":""fullscreenenter"",""trial"":2,""time"":23620}]","","","","","","","","","","","","","","","","","",""
"fullscreen","2","24611","0.0-2.0","spark_pilot_2","7372","7","15","Male","true","","","","","","","","","","","","","","","","","","","","","","",""
"audio-button-response","3","26262","0.0-3.0-0.0-0.0","spark_pilot_2","7372","7","15","Male","","","","","","","1509","./assets/audio/audiotest/turtle.mp3","2","audio_test","","","","","","","","","","","","","",""
"learning-instructions","4","37826","0.0-3.0-1.0-0.0","spark_pilot_2","7372","7","15","Male","","","","","","","4553.799999982119","<p> Welcome! Please remember to stay in fullscreen mode and don't click away from the experiment. </p>","","instructions","","","","","","","","","","","","","",""
"learning-instructions","5","47561","0.0-3.0-1.0-0.1","spark_pilot_2","7372","7","15","Male","","","","","","","1302.9000000059605","<p> Today you will be playing a game to earn treasure. </p>
            <p> At the end of the experiment, you will earn a bonus based on how much treasure you find. </p>
            <img src='./assets/img/instructions/treasure.jpg' class='instructions-image'>","","instructions","","","","","","","","","","","","","",""
"learning-instructions","6","57337","0.0-3.0-1.0-0.2","spark_pilot_2","7372","7","15","Male","","","","","","","1494.5","<p> Animals have hidden treasure in treasure chests. </p>
            <p> You need to first find an animal and then choose which of their treasure chests to search. </p>
            <img src='./assets/img/space/animals/cat.jpg' class='instructions-image'>","","instructions","","","","","","","","","","","","","",""
"learning-instructions","7","72274","0.0-3.0-1.0-0.3","spark_pilot_2","7372","7","15","Male","","","","","","","1756.2000000178814","<p> In each round, you will search for treasure in a different place. In the real game, there will be two rounds. </p>
            <p> You will begin with a separate, practice round where you will search for treasure in outer space. </p>
            <img src='./assets/img/space/0.jpg' class='instructions-image'>","","instructions","","","","","","","","","","","","","",""
"learning-instructions","8","84479","0.0-3.0-1.0-0.4","spark_pilot_2","7372","7","15","Male","","","","","","","760.4000000059605","<p> On every turn, you will see a picture of the place that you are in, but the specific image may be different each time. </p>
            <p> For example, both of these images mean you are in outer space. </p>
            <img src='./assets/img/instructions/outerspace.jpg' class='instructions-image'>","","instructions","","","","","","","","","","","","","",""
"learning-instructions","9","93514","0.0-3.0-1.0-0.5","spark_pilot_2","7372","7","15","Male","","","","","","","1185.9000000059605","<p> You need to decide which direction to travel in. </p>
            <p> You can choose between going <b>up or down</b> by using the arrow keys. </p>
            <img src='./assets/img/instructions/updown.jpg' class='instructions-image'>","","instructions","","","","","","","","","","","","","",""
"learning-instructions","10","103027","0.0-3.0-1.0-0.6","spark_pilot_2","7372","7","15","Male","","","","","","","679.4000000059605","<p> You will have <b>2 seconds</b> to make your choice. </p>
            <p> If you do not make a choice within 2 seconds, you will not find an animal or earn treasure. </p>
            <img src='./assets/img/instructions/2seconds.jpg' class='instructions-image'>","","instructions","","","","","","","","","","","","","",""
"learning-instructions","11","110632","0.0-3.0-1.0-0.7","spark_pilot_2","7372","7","15","Male","","","","","","","552.9000000059605","<p> Let’s try practicing that now! </p>
            <p> When you see a picture of the place you are in, press the <b>up</b> key to travel up. </p>
            <img src='./assets/img/instructions/pressUp.jpg' class='instructions-image'>","","instructions","","","","","","","","","","","","","",""
"revaluation","12","114656","0.0-3.0-2.0-0.0","spark_pilot_2","7372","7","15","Male","","true","","","","","[]","./assets/img/space/0.jpg","[]","first stage practice","space","-5","null","null","","false","","","","","","","",""
"html-keyboard-response","13","115169","0.0-3.0-2.0-1.0","spark_pilot_2","7372","7","15","Male","","","","","","","null","<div style=""font-size:60px;"">+</div>","null","fixation","","","","","","","","","","","","","",""
"revaluation","14","119193","0.0-3.0-2.0-0.1","spark_pilot_2","7372","7","15","Male","","false","","","","","[498.10000002384186]","./assets/img/space/1.jpg","[""ArrowUp""]","first stage practice","space","0","null","null","ArrowUp","false","","","","","","","",""
"html-keyboard-response","15","119701","0.0-3.0-2.0-1.1","spark_pilot_2","7372","7","15","Male","","","","","","","null","<div style=""font-size:60px;"">+</div>","null","fixation","","","","","","","","","","","","","",""
"revaluation","16","123719","0.0-3.0-2.0-0.2","spark_pilot_2","7372","7","15","Male","","false","","","","","[787.6000000238419]","./assets/img/space/2.jpg","[""ArrowUp""]","first stage practice","space","0","null","null","ArrowUp","false","","","","","","","",""
"html-keyboard-response","17","124224","0.0-3.0-2.0-1.2","spark_pilot_2","7372","7","15","Male","","","","","","","null","<div style=""font-size:60px;"">+</div>","null","fixation","","","","","","","","","","","","","",""
"learning-instructions","18","129417","0.0-3.0-3.0-0.0","spark_pilot_2","7372","7","15","Male","","","","","","","476.5","<p> Great job! Now try pressing the <b>down</b> key to travel down. </p>
            <img src='./assets/img/instructions/pressDown.jpg' class='instructions-image'>","","instructions","","","","","","","","","","","","","",""
"revaluation","19","133433","0.0-3.0-4.0-0.0","spark_pilot_2","7372","7","15","Male","","false","","","","","[446.59999999403954]","./assets/img/space/3.jpg","[""ArrowDown""]","first stage practice","space","0","null","null","ArrowDown","false","","","","","","","",""
"html-keyboard-response","20","133944","0.0-3.0-4.0-1.0","spark_pilot_2","7372","7","15","Male","","","","","","","null","<div style=""font-size:60px;"">+</div>","null","fixation","","","","","","","","","","","","","",""
"revaluation","21","137961","0.0-3.0-4.0-0.1","spark_pilot_2","7372","7","15","Male","","false","","","","","[803.3999999761581]","./assets/img/space/4.jpg","[""ArrowDown""]","first stage practice","space","0","null","null","ArrowDown","false","","","","","","","",""
"html-keyboard-response","22","138472","0.0-3.0-4.0-1.1","spark_pilot_2","7372","7","15","Male","","","","","","","null","<div style=""font-size:60px;"">+</div>","null","fixation","","","","","","","","","","","","","",""
"revaluation","23","142490","0.0-3.0-4.0-0.2","spark_pilot_2","7372","7","15","Male","","false","","","","","[285.40000000596046]","./assets/img/space/5.jpg","[""ArrowDown""]","first stage practice","space","0","null","null","ArrowDown","false","","","","","","","",""
"html-keyboard-response","24","143000","0.0-3.0-4.0-1.2","spark_pilot_2","7372","7","15","Male","","","","","","","null","<div style=""font-size:60px;"">+</div>","null","fixation","","","","","","","","","","","","","",""
"learning-instructions","25","154789","0.0-3.0-5.0-0.0","spark_pilot_2","7372","7","15","Male","","","","","","","1912.7000000178814","<p> The animals don’t move, so the animal in the upper part of a place will stay in the upper part of a place, and the animal in the lower part of a place will stay in the lower part of a place. </p>","","instructions","","","","","","","","","","","","","",""
"learning-instructions","26","164506","0.0-3.0-5.0-0.1","spark_pilot_2","7372","7","15","Male","","","","","","","559.7999999821186","<p> Each animal has two treasure chests for you to choose from. </p>
            <p> The amount of treasure in each chest can range from <b> 0 to 40 pieces.</b></p>","","instructions","","","","","","","","","","","","","",""
"learning-instructions","27","176262","0.0-3.0-5.0-0.2","spark_pilot_2","7372","7","15","Male","","","","","","","543.0999999940395","<p> You should decide which chest to search for treasure by using the <b>left</b> and <b>right</b> arrow keys. </p>
            <p><b> Pay attention to which animal is on the screen, as the animals have different treasure chests. </b></p>
            <img src='./assets/img/instructions/leftright.jpg' class='instructions-image'>","","instructions","","","","","","","","","","","","","",""
"learning-instructions","28","183287","0.0-3.0-5.0-0.3","spark_pilot_2","7372","7","15","Male","","","","","","","636.0999999940395","<p> Let’s try practicing that now. </p>
            <p> When you see an animal, choose which chest to search for treasure. </p>
            <img src='./assets/img/instructions/chooseChest.jpg' class='instructions-image'>","","instructions","","","","","","","","","","","","","",""
"revaluation","29","187310","0.0-3.0-6.0-0.0","spark_pilot_2","7372","7","15","Male","","false","","","","","[591.5]","./assets/img/space/animals/cat.jpg","[""ArrowRight""]","second stage practice","space","36","{""ArrowUp,ArrowLeft"":3,""ArrowUp,ArrowRight"":36,""ArrowDown,ArrowLeft"":15,""ArrowDown,ArrowRight"":23}","true","ArrowUp,ArrowRight","","","","","","","","",""
"html-keyboard-response","30","187815","0.0-3.0-6.0-1.0","spark_pilot_2","7372","7","15","Male","","","","","","","null","<div style=""font-size:60px;"">+</div>","null","fixation","","","","","","","","","","","","","",""
"revaluation","31","191834","0.0-3.0-6.0-0.1","spark_pilot_2","7372","7","15","Male","","false","","","","","[424.09999999403954]","./assets/img/space/animals/rabbit.jpg","[""ArrowRight""]","second stage practice","space","23","{""ArrowUp,ArrowLeft"":3,""ArrowUp,ArrowRight"":36,""ArrowDown,ArrowLeft"":15,""ArrowDown,ArrowRight"":23}","true","ArrowDown,ArrowRight","","","","","","","","",""
"html-keyboard-response","32","192344","0.0-3.0-6.0-1.1","spark_pilot_2","7372","7","15","Male","","","","","","","null","<div style=""font-size:60px;"">+</div>","null","fixation","","","","","","","","","","","","","",""
"revaluation","33","196362","0.0-3.0-6.0-0.2","spark_pilot_2","7372","7","15","Male","","false","","","","","[388.59999999403954]","./assets/img/space/animals/rabbit.jpg","[""ArrowRight""]","second stage practice","space","23","{""ArrowUp,ArrowLeft"":3,""ArrowUp,ArrowRight"":36,""ArrowDown,ArrowLeft"":15,""ArrowDown,ArrowRight"":23}","true","ArrowDown,ArrowRight","","","","","","","","",""
"html-keyboard-response","34","196866","0.0-3.0-6.0-1.2","spark_pilot_2","7372","7","15","Male","","","","","","","null","<div style=""font-size:60px;"">+</div>","null","fixation","","","","","","","","","","","","","",""
"revaluation","35","200884","0.0-3.0-6.0-0.3","spark_pilot_2","7372","7","15","Male","","false","","","","","[781.6999999880791]","./assets/img/space/animals/cat.jpg","[""ArrowLeft""]","second stage practice","space","3","{""ArrowUp,ArrowLeft"":3,""ArrowUp,ArrowRight"":36,""ArrowDown,ArrowLeft"":15,""ArrowDown,ArrowRight"":23}","false","ArrowUp,ArrowLeft","","","","","","","","",""
"html-keyboard-response","36","201394","0.0-3.0-6.0-1.3","spark_pilot_2","7372","7","15","Male","","","","","","","null","<div style=""font-size:60px;"">+</div>","null","fixation","","","","","","","","","","","","","",""
"learning-instructions","37","218882","0.0-3.0-7.0-0.0","spark_pilot_2","7372","7","15","Male","","","","","","","628.8000000119209","<p> Great job. Now let’s try putting it together. </p>
            <p> On each turn, you will first see a picture to remind you of the place you are in, and you need to choose whether to go up or down. </p>
            <p> Then you will see an animal and choose which of its chests to search for treasure. </p>","","instructions","","","","","","","","","","","","","",""
"learning-instructions","38","227651","0.0-3.0-7.0-0.1","spark_pilot_2","7372","7","15","Male","","","","","","","493","<p> When you choose whether to go up or down, try to go to the animal with the chest with the most treasure. </p>
            <p> Try practicing that now! </p>","","instructions","","","","","","","","","","","","","",""
"revaluation","39","233677","0.0-3.0-8.0-0.0","spark_pilot_2","7372","7","15","Male","","false","","","","","[951.2000000178814,485]","./assets/img/space/6.jpg","[""ArrowUp"",""ArrowRight""]","full practice","space","36","{""ArrowUp,ArrowLeft"":3,""ArrowUp,ArrowRight"":36,""ArrowDown,ArrowLeft"":15,""ArrowDown,ArrowRight"":23}","true","ArrowUp,ArrowRight","false","","","","","","","",""
"html-keyboard-response","40","234185","0.0-3.0-8.0-1.0","spark_pilot_2","7372","7","15","Male","","","","","","","null","<div style=""font-size:60px;"">+</div>","null","fixation","","","","","","","","","","","","","",""
"revaluation","41","240214","0.0-3.0-8.0-0.1","spark_pilot_2","7372","7","15","Male","","false","","","","","[644.6999999880791,499.7000000178814]","./assets/img/space/7.jpg","[""ArrowUp"",""ArrowRight""]","full practice","space","36","{""ArrowUp,ArrowLeft"":3,""ArrowUp,ArrowRight"":36,""ArrowDown,ArrowLeft"":15,""ArrowDown,ArrowRight"":23}","true","ArrowUp,ArrowRight","false","","","","","","","",""
"html-keyboard-response","42","240722","0.0-3.0-8.0-1.1","spark_pilot_2","7372","7","15","Male","","","","","","","null","<div style=""font-size:60px;"">+</div>","null","fixation","","","","","","","","","","","","","",""
"revaluation","43","246745","0.0-3.0-8.0-0.2","spark_pilot_2","7372","7","15","Male","","false","","","","","[696.5999999940395,436.5]","./assets/img/space/8.jpg","[""ArrowUp"",""ArrowRight""]","full practice","space","36","{""ArrowUp,ArrowLeft"":3,""ArrowUp,ArrowRight"":36,""ArrowDown,ArrowLeft"":15,""ArrowDown,ArrowRight"":23}","true","ArrowUp,ArrowRight","false","","","","","","","",""
"html-keyboard-response","44","247249","0.0-3.0-8.0-1.2","spark_pilot_2","7372","7","15","Male","","","","","","","null","<div style=""font-size:60px;"">+</div>","null","fixation","","","","","","","","","","","","","",""
"revaluation","45","253275","0.0-3.0-8.0-0.3","spark_pilot_2","7372","7","15","Male","","false","","","","","[1881,612.4000000059605]","./assets/img/space/9.jpg","[""ArrowUp"",""ArrowRight""]","full practice","space","36","{""ArrowUp,ArrowLeft"":3,""ArrowUp,ArrowRight"":36,""ArrowDown,ArrowLeft"":15,""ArrowDown,ArrowRight"":23}","true","ArrowUp,ArrowRight","false","","","","","","","",""
"html-keyboard-response","46","253780","0.0-3.0-8.0-1.3","spark_pilot_2","7372","7","15","Male","","","","","","","null","<div style=""font-size:60px;"">+</div>","null","fixation","","","","","","","","","","","","","",""
"revaluation","47","259802","0.0-3.0-8.0-0.4","spark_pilot_2","7372","7","15","Male","","false","","","","","[503.40000000596046,286.5]","./assets/img/space/10.jpg","[""ArrowUp"",""ArrowRight""]","full practice","space","36","{""ArrowUp,ArrowLeft"":3,""ArrowUp,ArrowRight"":36,""ArrowDown,ArrowLeft"":15,""ArrowDown,ArrowRight"":23}","true","ArrowUp,ArrowRight","false","","","","","","","",""
"html-keyboard-response","48","260306","0.0-3.0-8.0-1.4","spark_pilot_2","7372","7","15","Male","","","","","","","null","<div style=""font-size:60px;"">+</div>","null","fixation","","","","","","","","","","","","","",""
"learning-instructions","49","271393","0.0-3.0-9.0-0.0","spark_pilot_2","7372","7","15","Male","","","","","","","748.7000000178814","<p> One last thing: sometimes, you will see a robber. The robber can be anywhere in the picture. </p>
            <p> If you do not stop them, you will lose treasure. </p>
            <img src='./assets/img/instructions/robber.jpg' class='instructions-image'>","","instructions","","","","","","","","","","","","","",""
"learning-instructions","50","279156","0.0-3.0-9.0-0.1","spark_pilot_2","7372","7","15","Male","","","","","","","582.2000000178814","<p> If you see the robber, you should <b>press the space bar</b> rather than using the arrow keys. </p>
            <p> Try practicing that now! </p>","","instructions","","","","","","","","","","","","","",""
"revaluation","51","283171","0.0-3.0-10.0-0.0","spark_pilot_2","7372","7","15","Male","","false","","","","","[944.9000000059605]","./assets/img/space/catch/0.jpg","[""spaceBar""]","catch practice","space","0","{""ArrowUp,ArrowLeft"":3,""ArrowUp,ArrowRight"":36,""ArrowDown,ArrowLeft"":15,""ArrowDown,ArrowRight"":23}","true","spaceBar","true","","","","","","","",""
"html-keyboard-response","52","283676","0.0-3.0-10.0-1.0","spark_pilot_2","7372","7","15","Male","","","","","","","null","<div style=""font-size:60px;"">+</div>","null","fixation","","","","","","","","","","","","","",""
"revaluation","53","287694","0.0-3.0-10.0-0.1","spark_pilot_2","7372","7","15","Male","","false","","","","","[467.09999999403954]","./assets/img/space/catch/1.jpg","[""spaceBar""]","catch practice","space","0","{""ArrowUp,ArrowLeft"":3,""ArrowUp,ArrowRight"":36,""ArrowDown,ArrowLeft"":15,""ArrowDown,ArrowRight"":23}","true","spaceBar","true","","","","","","","",""
"html-keyboard-response","54","288204","0.0-3.0-10.0-1.1","spark_pilot_2","7372","7","15","Male","","","","","","","null","<div style=""font-size:60px;"">+</div>","null","fixation","","","","","","","","","","","","","",""
"revaluation","55","292220","0.0-3.0-10.0-0.2","spark_pilot_2","7372","7","15","Male","","false","","","","","[493]","./assets/img/space/catch/2.jpg","[""spaceBar""]","catch practice","space","0","{""ArrowUp,ArrowLeft"":3,""ArrowUp,ArrowRight"":36,""ArrowDown,ArrowLeft"":15,""ArrowDown,ArrowRight"":23}","true","spaceBar","true","","","","","","","",""
"html-keyboard-response","56","292723","0.0-3.0-10.0-1.2","spark_pilot_2","7372","7","15","Male","","","","","","","null","<div style=""font-size:60px;"">+</div>","null","fixation","","","","","","","","","","","","","",""
"learning-instructions","57","309390","0.0-3.0-11.0-0.0","spark_pilot_2","7372","7","15","Male","","","","","","","3038","<p> After you explore a place to find treasure, it will be time to play a different game. </p>
            <p> During this game, red dots will appear on the screen and fall down slowly. </p>
            <p><b> You must click on them before they reach the bottom. </b></p>
            <img src='./assets/img/instructions/dotGame.jpg' class='instructions-image'>","","instructions","","","","","","","","","","","","","",""
"learning-instructions","58","316309","0.0-3.0-11.0-0.1","spark_pilot_2","7372","7","15","Male","","","","","","","1069.9000000059605","<p> For every dot you click, you will earn additional treasure. </p>
            <p> Let’s try practicing that now. </p>","","instructions","","","","","","","","","","","","","",""
"revaluation","59","331324","0.0-3.0-12.0-0.0","spark_pilot_2","7372","7","15","Male","","","","","","","[79]","","","rest practice","","10","","","","","0","15000","","","","","",""
"learning-instructions","60","337161","0.0-3.0-13.0-0.0-0.0","spark_pilot_2","7372","7","15","Male","","","","","","","585.6000000238419","<p> Now, you will practice a shortened version of the game to get a sense of how it all fits together. </p>","","instructions","","","","","","","","","","","","","",""
"learning-instructions","61","340805","0.0-3.0-13.0-0.0-0.1","spark_pilot_2","7372","7","15","Male","","","","","","","446.5","<p>This time you are searching for treasure in outer space.</p>","","instructions","","","","","","","","","","","","","",""
"learning-instructions","62","356518","0.0-3.0-13.0-1.0-0.0","spark_pilot_2","7372","7","15","Male","","","","","","","909.8000000119209","<p> Remember, when you see a picture of the place, use the up and down keys to <b>find an animal</b>.</p>
            <p> When you encounter an animal, you should use the left and right keys to <b>select a treasure chest</b>.</p>
            <p> Don't forget to look out for the robber! </p>","","instructions","","","","","","","","","","","","","",""
"revaluation","63","362545","0.0-3.0-13.0-2.0-0.0","spark_pilot_2","7372","7","15","Male","","false","","","","","[1654.9000000059605,395.5]","./assets/img/space/11.jpg","[""ArrowUp"",""ArrowRight""]","practice block","space","36","{""ArrowUp,ArrowLeft"":3,""ArrowUp,ArrowRight"":36,""ArrowDown,ArrowLeft"":15,""ArrowDown,ArrowRight"":23}","true","ArrowUp,ArrowRight","false","","","","","","","",""
"html-keyboard-response","64","363053","0.0-3.0-13.0-2.0-1.0","spark_pilot_2","7372","7","15","Male","","","","","","","null","<div style=""font-size:60px;"">+</div>","null","fixation","","","","","","","","","","","","","",""
"revaluation","65","369081","0.0-3.0-13.0-2.0-0.1","spark_pilot_2","7372","7","15","Male","","false","","","","","[407.69999998807907,408.30000001192093]","./assets/img/space/12.jpg","[""ArrowUp"",""ArrowRight""]","practice block","space","36","{""ArrowUp,ArrowLeft"":3,""ArrowUp,ArrowRight"":36,""ArrowDown,ArrowLeft"":15,""ArrowDown,ArrowRight"":23}","true","ArrowUp,ArrowRight","false","","","","","","","",""
"html-keyboard-response","66","369592","0.0-3.0-13.0-2.0-1.1","spark_pilot_2","7372","7","15","Male","","","","","","","null","<div style=""font-size:60px;"">+</div>","null","fixation","","","","","","","","","","","","","",""
"revaluation","67","375613","0.0-3.0-13.0-2.0-0.2","spark_pilot_2","7372","7","15","Male","","false","","","","","[841,484.09999999403954]","./assets/img/space/13.jpg","[""ArrowUp"",""ArrowRight""]","practice block","space","36","{""ArrowUp,ArrowLeft"":3,""ArrowUp,ArrowRight"":36,""ArrowDown,ArrowLeft"":15,""ArrowDown,ArrowRight"":23}","true","ArrowUp,ArrowRight","false","","","","","","","",""
"html-keyboard-response","68","376118","0.0-3.0-13.0-2.0-1.2","spark_pilot_2","7372","7","15","Male","","","","","","","null","<div style=""font-size:60px;"">+</div>","null","fixation","","","","","","","","","","","","","",""
"revaluation","69","382143","0.0-3.0-13.0-2.0-0.3","spark_pilot_2","7372","7","15","Male","","false","","","","","[542.1999999880791,352.09999999403954]","./assets/img/space/14.jpg","[""ArrowUp"",""ArrowRight""]","practice block","space","36","{""ArrowUp,ArrowLeft"":3,""ArrowUp,ArrowRight"":36,""ArrowDown,ArrowLeft"":15,""ArrowDown,ArrowRight"":23}","true","ArrowUp,ArrowRight","false","","","","","","","",""
"html-keyboard-response","70","382648","0.0-3.0-13.0-2.0-1.3","spark_pilot_2","7372","7","15","Male","","","","","","","null","<div style=""font-size:60px;"">+</div>","null","fixation","","","","","","","","","","","","","",""
"revaluation","71","388669","0.0-3.0-13.0-2.0-0.4","spark_pilot_2","7372","7","15","Male","","false","","","","","[1134.2999999821186,554.9000000059605]","./assets/img/space/11.jpg","[""ArrowUp"",""ArrowRight""]","practice block","space","36","{""ArrowUp,ArrowLeft"":3,""ArrowUp,ArrowRight"":36,""ArrowDown,ArrowLeft"":15,""ArrowDown,ArrowRight"":23}","true","ArrowUp,ArrowRight","false","","","","","","","",""
"html-keyboard-response","72","389174","0.0-3.0-13.0-2.0-1.4","spark_pilot_2","7372","7","15","Male","","","","","","","null","<div style=""font-size:60px;"">+</div>","null","fixation","","","","","","","","","","","","","",""
"revaluation","73","395200","0.0-3.0-13.0-2.0-0.5","spark_pilot_2","7372","7","15","Male","","false","","","","","[1134.9000000059605,654]","./assets/img/space/12.jpg","[""ArrowUp"",""ArrowRight""]","practice block","space","36","{""ArrowUp,ArrowLeft"":3,""ArrowUp,ArrowRight"":36,""ArrowDown,ArrowLeft"":15,""ArrowDown,ArrowRight"":23}","true","ArrowUp,ArrowRight","false","","","","","","","",""
"html-keyboard-response","74","395711","0.0-3.0-13.0-2.0-1.5","spark_pilot_2","7372","7","15","Male","","","","","","","null","<div style=""font-size:60px;"">+</div>","null","fixation","","","","","","","","","","","","","",""
"revaluation","75","401725","0.0-3.0-13.0-2.0-0.6","spark_pilot_2","7372","7","15","Male","","false","","","","","[820,435.19999998807907]","./assets/img/space/13.jpg","[""ArrowUp"",""ArrowRight""]","practice block","space","36","{""ArrowUp,ArrowLeft"":3,""ArrowUp,ArrowRight"":36,""ArrowDown,ArrowLeft"":15,""ArrowDown,ArrowRight"":23}","true","ArrowUp,ArrowRight","false","","","","","","","",""
"html-keyboard-response","76","402230","0.0-3.0-13.0-2.0-1.6","spark_pilot_2","7372","7","15","Male","","","","","","","null","<div style=""font-size:60px;"">+</div>","null","fixation","","","","","","","","","","","","","",""
"revaluation","77","408256","0.0-3.0-13.0-2.0-0.7","spark_pilot_2","7372","7","15","Male","","false","","","","","[674.3000000119209,350.39999997615814]","./assets/img/space/14.jpg","[""ArrowUp"",""ArrowRight""]","practice block","space","36","{""ArrowUp,ArrowLeft"":3,""ArrowUp,ArrowRight"":36,""ArrowDown,ArrowLeft"":15,""ArrowDown,ArrowRight"":23}","true","ArrowUp,ArrowRight","false","","","","","","","",""
"html-keyboard-response","78","408766","0.0-3.0-13.0-2.0-1.7","spark_pilot_2","7372","7","15","Male","","","","","","","null","<div style=""font-size:60px;"">+</div>","null","fixation","","","","","","","","","","","","","",""
"revaluation","79","412784","0.0-3.0-13.0-2.0-0.8","spark_pilot_2","7372","7","15","Male","","false","","","","","[820.9000000059605]","./assets/img/space/catch/3.jpg","[""spaceBar""]","practice block","space","0","{""ArrowUp,ArrowLeft"":3,""ArrowUp,ArrowRight"":36,""ArrowDown,ArrowLeft"":15,""ArrowDown,ArrowRight"":23}","true","spaceBar","true","","","","","","","",""
"html-keyboard-response","80","413289","0.0-3.0-13.0-2.0-1.8","spark_pilot_2","7372","7","15","Male","","","","","","","null","<div style=""font-size:60px;"">+</div>","null","fixation","","","","","","","","","","","","","",""
"learning-instructions","81","427291","0.0-3.0-13.0-3.0-0.0","spark_pilot_2","7372","7","15","Male","","","","","","","900.3999999761581","<p> Now, you will travel with a friend who will choose whether you go up or down first. </p>
            <p> On these turns, you will just see the animal that they found. You will still get to choose which chest to search for treasure.</p>","","instructions","","","","","","","","","","","","","",""
"revaluation","82","431307","0.0-3.0-13.0-4.0-0.0","spark_pilot_2","7372","7","15","Male","","false","","","","","[1086.5999999940395]","./assets/img/space/animals/cat.jpg","[""ArrowRight""]","practice block","space","36","{""ArrowUp,ArrowLeft"":3,""ArrowUp,ArrowRight"":36,""ArrowDown,ArrowLeft"":15,""ArrowDown,ArrowRight"":23}","true","ArrowUp,ArrowRight","","","","","","","","",""
"html-keyboard-response","83","431814","0.0-3.0-13.0-4.0-1.0","spark_pilot_2","7372","7","15","Male","","","","","","","null","<div style=""font-size:60px;"">+</div>","null","fixation","","","","","","","","","","","","","",""
"revaluation","84","435833","0.0-3.0-13.0-4.0-0.1","spark_pilot_2","7372","7","15","Male","","false","","","","","[467.59999999403954]","./assets/img/space/animals/cat.jpg","[""ArrowRight""]","practice block","space","36","{""ArrowUp,ArrowLeft"":3,""ArrowUp,ArrowRight"":36,""ArrowDown,ArrowLeft"":15,""ArrowDown,ArrowRight"":23}","true","ArrowUp,ArrowRight","","","","","","","","",""
"html-keyboard-response","85","436346","0.0-3.0-13.0-4.0-1.1","spark_pilot_2","7372","7","15","Male","","","","","","","null","<div style=""font-size:60px;"">+</div>","null","fixation","","","","","","","","","","","","","",""
"revaluation","86","440363","0.0-3.0-13.0-4.0-0.2","spark_pilot_2","7372","7","15","Male","","false","","","","","[612.4000000059605]","./assets/img/space/animals/rabbit.jpg","[""ArrowLeft""]","practice block","space","15","{""ArrowUp,ArrowLeft"":3,""ArrowUp,ArrowRight"":36,""ArrowDown,ArrowLeft"":15,""ArrowDown,ArrowRight"":23}","false","ArrowDown,ArrowLeft","","","","","","","","",""
"html-keyboard-response","87","440874","0.0-3.0-13.0-4.0-1.2","spark_pilot_2","7372","7","15","Male","","","","","","","null","<div style=""font-size:60px;"">+</div>","null","fixation","","","","","","","","","","","","","",""
"revaluation","88","444888","0.0-3.0-13.0-4.0-0.3","spark_pilot_2","7372","7","15","Male","","false","","","","","[632.5999999940395]","./assets/img/space/animals/rabbit.jpg","[""ArrowRight""]","practice block","space","23","{""ArrowUp,ArrowLeft"":3,""ArrowUp,ArrowRight"":36,""ArrowDown,ArrowLeft"":15,""ArrowDown,ArrowRight"":23}","true","ArrowDown,ArrowRight","","","","","","","","",""
"html-keyboard-response","89","445391","0.0-3.0-13.0-4.0-1.3","spark_pilot_2","7372","7","15","Male","","","","","","","null","<div style=""font-size:60px;"">+</div>","null","fixation","","","","","","","","","","","","","",""
"learning-instructions","90","454754","0.0-3.0-13.0-5.0-0.0","spark_pilot_2","7372","7","15","Male","","","","","","","1979","<p> Time to play the dot game! </p>
            <p> For 15 seconds, click the red dots on the following screen as they appear. </p>","","instructions","","","","","","","","","","","","","",""
"revaluation","91","469761","0.0-3.0-13.0-6.0-0.0","spark_pilot_2","7372","7","15","Male","","","","","","","[91]","","","rest practice","","10","","","","","0","15000","","","","","",""
"learning-instructions","92","478099","0.0-3.0-13.0-7.0-0.0","spark_pilot_2","7372","7","15","Male","","","","","","","2189.5","<p> You have almost finished this part of the game! </p>
            <p> We are going to ask you to make a few more choices. </p>","","instructions","","","","","","","","","","","","","",""
"learning-instructions","93","492695","0.0-3.0-13.0-7.0-0.1","spark_pilot_2","7372","7","15","Male","","","","","","","543.0999999940395","<p> First, you need to decide whether to go up or down. When you see each picture, use the arrow keys to make your choice. </p>
            <p><b>You will not see which animal you found, but try to get to the one that will give you the most treasure.</b></p>","","instructions","","","","","","","","","","","","","",""
"revaluation","94","493292","0.0-3.0-13.0-8.0","spark_pilot_2","7372","7","15","Male","","false","","","","","[594.5999999940395]","./assets/img/space/15.jpg","[""ArrowUp""]","practice block","space","0","{""ArrowUp,ArrowLeft"":3,""ArrowUp,ArrowRight"":36,""ArrowDown,ArrowLeft"":15,""ArrowDown,ArrowRight"":23}","true","ArrowUp","false","","","","","","","",""
"html-keyboard-response","95","493803","0.0-3.0-13.0-9.0","spark_pilot_2","7372","7","15","Male","","","","","","","null","<div style=""font-size:60px;"">+</div>","null","fixation","","","","","","","","","","","","","",""
"learning-instructions","96","505719","0.0-3.0-13.0-10.0-0.0","spark_pilot_2","7372","7","15","Male","","","","","","","505.2999999821186","<p> Now you will see the animals again and can search their chests for treasure. </p>
            <p> This time, you will not see how much treasure you earned, but you will earn more bonus money for making better choices. </p>","","instructions","","","","","","","","","","","","","",""
"revaluation","97","506191","0.0-3.0-13.0-11.0-0.0","spark_pilot_2","7372","7","15","Male","","false","","","","","[468.89999997615814]","./assets/img/space/animals/cat.jpg","[""ArrowRight""]","practice block","space","0","{""ArrowUp,ArrowLeft"":3,""ArrowUp,ArrowRight"":36,""ArrowDown,ArrowLeft"":15,""ArrowDown,ArrowRight"":23}","true","ArrowUp,ArrowRight","","","","","","","","",""
"html-keyboard-response","98","506697","0.0-3.0-13.0-11.0-1.0","spark_pilot_2","7372","7","15","Male","","","","","","","null","<div style=""font-size:60px;"">+</div>","null","fixation","","","","","","","","","","","","","",""
"revaluation","99","507212","0.0-3.0-13.0-11.0-0.1","spark_pilot_2","7372","7","15","Male","","false","","","","","[511.5]","./assets/img/space/animals/rabbit.jpg","[""ArrowRight""]","practice block","space","0","{""ArrowUp,ArrowLeft"":3,""ArrowUp,ArrowRight"":36,""ArrowDown,ArrowLeft"":15,""ArrowDown,ArrowRight"":23}","true","ArrowDown,ArrowRight","","","","","","","","",""
"html-keyboard-response","100","507714","0.0-3.0-13.0-11.0-1.1","spark_pilot_2","7372","7","15","Male","","","","","","","null","<div style=""font-size:60px;"">+</div>","null","fixation","","","","","","","","","","","","","",""
"learning-instructions","101","513462","0.0-3.0-14.0-0.0","spark_pilot_2","7372","7","15","Male","","","","","","","1148.699999988079","<p> Before you start, we're going to ask you a few questions about how the game works. </p>","","instructions","","","","","","","","","","","","","",""
"comp-q","102","520469","0.0-3.0-15.0-0.0-0.0","spark_pilot_2","7372","7","15","Male","","","","","","","1404.300000011921","<p> <b> True or False? </b> </p>
            <p> There can be 50 pieces of treasure in a given animal's chest. </p>","1","comp_question","","","","true","","","","","","","","","",""
"comp-q","103","528573","0.0-3.0-15.0-0.0-1.0","spark_pilot_2","7372","7","15","Male","","","","","","","1426.300000011921","<p> <b> That's right! </b> The amount of treasure in each chest can range from 0 to 40 pieces. </p>","0","comp_answer","","","","","","","","","","","","","",""
"comp-q","104","536407","0.0-3.0-15.0-0.1-0.1","spark_pilot_2","7372","7","15","Male","","","","","","","692.5999999940395","<p> <b> True or False? </b> </p><p> In this game, all animals have the same amount of treasure in their left and right chests. </p>","1","comp_question","","","","true","","","","","","","","","",""
"comp-q","105","542792","0.0-3.0-15.0-0.1-1.1","spark_pilot_2","7372","7","15","Male","","","","","","","1138.9000000059605","<p> <b> That's right! </b> Animals have different amounts of treasure in their treasure chests. </p>","0","comp_answer","","","","","","","","","","","","","",""
"comp-q","106","549589","0.0-3.0-15.0-0.2-0.2","spark_pilot_2","7372","7","15","Male","","","","","","","934.4000000059605","<p> <b> True or False? </b> </p><p> The same animal will always be there if you go up in the same place. </p>","1","comp_question","","","","false","","","","","","","","","",""
"comp-q","107","556793","0.0-3.0-15.0-0.2-1.2","spark_pilot_2","7372","7","15","Male","","","","","","","882.4000000059605","<p> <b>Incorrect.</b> One animal lives in the upper part and one lives in the lower part of every place. </p>","0","comp_answer","","","","","","","","","","","","","",""
"comp-q","108","563163","0.0-3.0-15.0-0.3-0.3","spark_pilot_2","7372","7","15","Male","","","","","","","547.5999999940395","<p> <b> True or False? </b> </p><p> The same animal will always be there if you go up in the same place. </p>","0","comp_question","","","","true","","","","","","","","","",""
"comp-q","109","571324","0.0-3.0-15.0-0.3-1.3","spark_pilot_2","7372","7","15","Male","","","","","","","1702.3999999761581","<p> <b> That's right! </b> One animal lives in the upper part and one lives in the lower part of every place. </p>","0","comp_answer","","","","","","","","","","","","","",""
"comp-q","110","577372","0.0-3.0-15.0-0.4-0.4","spark_pilot_2","7372","7","15","Male","","","","","","","506","<p> <b> True or False? </b> </p><p> If you see a different picture, it means you are in a new place. </p>","1","comp_question","","","","true","","","","","","","","","",""
"comp-q","111","589864","0.0-3.0-15.0-0.4-1.4","spark_pilot_2","7372","7","15","Male","","","","","","","1242.2000000178814","<p> <b> That's right! </b> Lots of different images may show the same place. For example,  you may see three different images that all remind you that you are in outer space. </p>","0","comp_answer","","","","","","","","","","","","","",""
"learning-instructions","112","600299","0.0-3.0-16.0-0.0","spark_pilot_2","7372","7","15","Male","","","","","","","560.5","<p> Good job. Remember to do your best because the amount of treasure you earn will be converted into bonus money. </p>
            <p> It’s time to start the real game! </p>","","instructions","","","","","","","","","","","","","",""
"learning-instructions","113","604223","0.0-4.0-0.0-0.0","spark_pilot_2","7372","7","15","Male","","","","","","","1151.4000000059605","<p> This time you are searching for treasure in the <b>canyon</b>.</p>","","instructions","","","","","","","","","","","","","",""
"learning-instructions","114","622445","0.0-4.0-0.0-0.1","spark_pilot_2","7372","7","15","Male","","","","","","","879.0999999940395","<p><b>New</b> animals with <b>new</b> treasure chests live here. You need to explore to discover where the animal with the best treasure chest is.</p>
                    <p> Like before, once you figure out which animal has the chest with the most treasure, you should try to get to that animal and select that chest! </p>","","instructions","","","","","","","","","","","","","",""
"learning-instructions","115","637692","0.0-4.0-1.0-0.0","spark_pilot_2","7372","7","15","Male","","","","","","","515.5","<p> Remember, when you see a picture of the place, use the up and down keys to <b>find an animal</b>.</p>
            <p> When you encounter an animal, you should use the left and right keys to <b>select a treasure chest</b>.</p>
            <p> Don't forget to look out for the robber! </p>","","instructions","","","","","","","","","","","","","",""
"revaluation","116","643718","0.0-4.0-2.0-0.0","spark_pilot_2","7372","7","15","Male","","false","","","","","[1216,542.6999999880791]","./assets/img/canyon/memory/30.jpg","[""ArrowUp"",""ArrowRight""]","value training","canyon","10","{""ArrowUp,ArrowLeft"":23,""ArrowUp,ArrowRight"":10,""ArrowDown,ArrowLeft"":8,""ArrowDown,ArrowRight"":30}","false","ArrowUp,ArrowRight","false","","","original","1","0","","",""
"html-keyboard-response","117","644229","0.0-4.0-2.0-1.0","spark_pilot_2","7372","7","15","Male","","","","","","","null","<div style=""font-size:60px;"">+</div>","null","fixation","","","","","","","","","","","1","","",""
"revaluation","118","650255","0.0-4.0-2.0-0.1","spark_pilot_2","7372","7","15","Male","","false","","","","","[436.19999998807907,501.40000000596046]","./assets/img/canyon/memory/22.jpg","[""ArrowUp"",""ArrowLeft""]","value training","canyon","23","{""ArrowUp,ArrowLeft"":23,""ArrowUp,ArrowRight"":10,""ArrowDown,ArrowLeft"":8,""ArrowDown,ArrowRight"":30}","false","ArrowUp,ArrowLeft","false","","","original","1","2","","",""
"html-keyboard-response","119","650759","0.0-4.0-2.0-1.1","spark_pilot_2","7372","7","15","Male","","","","","","","null","<div style=""font-size:60px;"">+</div>","null","fixation","","","","","","","","","","","3","","",""
"revaluation","120","656782","0.0-4.0-2.0-0.2","spark_pilot_2","7372","7","15","Male","","false","","","","","[424.80000001192093,485.09999999403954]","./assets/img/canyon/memory/19.jpg","[""ArrowDown"",""ArrowRight""]","value training","canyon","30","{""ArrowUp,ArrowLeft"":23,""ArrowUp,ArrowRight"":10,""ArrowDown,ArrowLeft"":8,""ArrowDown,ArrowRight"":30}","true","ArrowDown,ArrowRight","false","","","original","1","4","","",""
"html-keyboard-response","121","657285","0.0-4.0-2.0-1.2","spark_pilot_2","7372","7","15","Male","","","","","","","null","<div style=""font-size:60px;"">+</div>","null","fixation","","","","","","","","","","","5","","",""
"revaluation","122","663311","0.0-4.0-2.0-0.3","spark_pilot_2","7372","7","15","Male","","false","","","","","[511.59999999403954,309.80000001192093]","./assets/img/canyon/memory/7.jpg","[""ArrowDown"",""ArrowLeft""]","value training","canyon","8","{""ArrowUp,ArrowLeft"":23,""ArrowUp,ArrowRight"":10,""ArrowDown,ArrowLeft"":8,""ArrowDown,ArrowRight"":30}","false","ArrowDown,ArrowLeft","false","","","original","1","6","","",""
"html-keyboard-response","123","663815","0.0-4.0-2.0-1.3","spark_pilot_2","7372","7","15","Male","","","","","","","null","<div style=""font-size:60px;"">+</div>","null","fixation","","","","","","","","","","","7","","",""
"revaluation","124","669839","0.0-4.0-2.0-0.4","spark_pilot_2","7372","7","15","Male","","false","","","","","[329.40000000596046,404.5]","./assets/img/canyon/memory/3.jpg","[""ArrowDown"",""ArrowRight""]","value training","canyon","30","{""ArrowUp,ArrowLeft"":23,""ArrowUp,ArrowRight"":10,""ArrowDown,ArrowLeft"":8,""ArrowDown,ArrowRight"":30}","true","ArrowDown,ArrowRight","false","","","original","1","8","","",""
"html-keyboard-response","125","670341","0.0-4.0-2.0-1.4","spark_pilot_2","7372","7","15","Male","","","","","","","null","<div style=""font-size:60px;"">+</div>","null","fixation","","","","","","","","","","","9","","",""
"revaluation","126","674359","0.0-4.0-2.0-0.5","spark_pilot_2","7372","7","15","Male","","false","","","","","[536.4000000059605]","./assets/img/canyon/catch/0.jpg","[""ArrowDown""]","value training","canyon","-10","{""ArrowUp,ArrowLeft"":23,""ArrowUp,ArrowRight"":10,""ArrowDown,ArrowLeft"":8,""ArrowDown,ArrowRight"":30}","false","ArrowDown","true","","","original","1","10","","",""
"html-keyboard-response","127","674864","0.0-4.0-2.0-1.5","spark_pilot_2","7372","7","15","Male","","","","","","","null","<div style=""font-size:60px;"">+</div>","null","fixation","","","","","","","","","","","11","","",""
"revaluation","128","678881","0.0-4.0-2.0-0.6","spark_pilot_2","7372","7","15","Male","","false","","","","","[874]","./assets/img/canyon/catch/1.jpg","[""ArrowDown""]","value training","canyon","-10","{""ArrowUp,ArrowLeft"":23,""ArrowUp,ArrowRight"":10,""ArrowDown,ArrowLeft"":8,""ArrowDown,ArrowRight"":30}","false","ArrowDown","true","","","original","1","12","","",""
"html-keyboard-response","129","679392","0.0-4.0-2.0-1.6","spark_pilot_2","7372","7","15","Male","","","","","","","null","<div style=""font-size:60px;"">+</div>","null","fixation","","","","","","","","","","","13","","",""
"revaluation","130","683409","0.0-4.0-2.0-0.7","spark_pilot_2","7372","7","15","Male","","false","","","","","[656.5]","./assets/img/canyon/catch/4.jpg","[""spaceBar""]","value training","canyon","0","{""ArrowUp,ArrowLeft"":23,""ArrowUp,ArrowRight"":10,""ArrowDown,ArrowLeft"":8,""ArrowDown,ArrowRight"":30}","true","spaceBar","true","","","original","1","14","","",""
"html-keyboard-response","131","683919","0.0-4.0-2.0-1.7","spark_pilot_2","7372","7","15","Male","","","","","","","null","<div style=""font-size:60px;"">+</div>","null","fixation","","","","","","","","","","","15","","",""
"revaluation","132","689934","0.0-4.0-2.0-0.8","spark_pilot_2","7372","7","15","Male","","false","","","","","[1079.9000000059605,862.9000000059605]","./assets/img/canyon/memory/7.jpg","[""ArrowUp"",""ArrowRight""]","value training","canyon","10","{""ArrowUp,ArrowLeft"":23,""ArrowUp,ArrowRight"":10,""ArrowDown,ArrowLeft"":8,""ArrowDown,ArrowRight"":30}","false","ArrowUp,ArrowRight","false","","","original","1","16","","",""
"html-keyboard-response","133","690439","0.0-4.0-2.0-1.8","spark_pilot_2","7372","7","15","Male","","","","","","","null","<div style=""font-size:60px;"">+</div>","null","fixation","","","","","","","","","","","17","","",""
"revaluation","134","696465","0.0-4.0-2.0-0.9","spark_pilot_2","7372","7","15","Male","","false","","","","","[515.5,388]","./assets/img/canyon/memory/9.jpg","[""ArrowDown"",""ArrowRight""]","value training","canyon","30","{""ArrowUp,ArrowLeft"":23,""ArrowUp,ArrowRight"":10,""ArrowDown,ArrowLeft"":8,""ArrowDown,ArrowRight"":30}","true","ArrowDown,ArrowRight","false","","","original","1","18","","",""
"html-keyboard-response","135","696975","0.0-4.0-2.0-1.9","spark_pilot_2","7372","7","15","Male","","","","","","","null","<div style=""font-size:60px;"">+</div>","null","fixation","","","","","","","","","","","19","","",""
"revaluation","136","700992","0.0-4.0-2.0-0.10","spark_pilot_2","7372","7","15","Male","","false","","","","","[993.4000000059605]","./assets/img/canyon/catch/2.jpg","[""spaceBar""]","value training","canyon","0","{""ArrowUp,ArrowLeft"":23,""ArrowUp,ArrowRight"":10,""ArrowDown,ArrowLeft"":8,""ArrowDown,ArrowRight"":30}","true","spaceBar","true","","","original","1","20","","",""
"html-keyboard-response","137","701497","0.0-4.0-2.0-1.10","spark_pilot_2","7372","7","15","Male","","","","","","","null","<div style=""font-size:60px;"">+</div>","null","fixation","","","","","","","","","","","21","","",""
"revaluation","138","707519","0.0-4.0-2.0-0.11","spark_pilot_2","7372","7","15","Male","","false","","","","","[809.8999999761581,376.2999999821186]","./assets/img/canyon/memory/2.jpg","[""ArrowDown"",""ArrowRight""]","value training","canyon","30","{""ArrowUp,ArrowLeft"":23,""ArrowUp,ArrowRight"":10,""ArrowDown,ArrowLeft"":8,""ArrowDown,ArrowRight"":30}","true","ArrowDown,ArrowRight","false","","","original","1","22","","",""
"html-keyboard-response","139","708026","0.0-4.0-2.0-1.11","spark_pilot_2","7372","7","15","Male","","","","","","","null","<div style=""font-size:60px;"">+</div>","null","fixation","","","","","","","","","","","23","","",""
"revaluation","140","714048","0.0-4.0-2.0-0.12","spark_pilot_2","7372","7","15","Male","","true","","","","","[836.7999999821186]","./assets/img/canyon/memory/28.jpg","[""ArrowDown""]","value training","canyon","-5","{""ArrowUp,ArrowLeft"":23,""ArrowUp,ArrowRight"":10,""ArrowDown,ArrowLeft"":8,""ArrowDown,ArrowRight"":30}","false","ArrowDown","false","","","original","1","24","","",""
"html-keyboard-response","141","714554","0.0-4.0-2.0-1.12","spark_pilot_2","7372","7","15","Male","","","","","","","null","<div style=""font-size:60px;"">+</div>","null","fixation","","","","","","","","","","","25","","",""
"revaluation","142","720580","0.0-4.0-2.0-0.13","spark_pilot_2","7372","7","15","Male","","false","","","","","[1552.5999999940395,632]","./assets/img/canyon/memory/34.jpg","[""ArrowDown"",""ArrowRight""]","value training","canyon","30","{""ArrowUp,ArrowLeft"":23,""ArrowUp,ArrowRight"":10,""ArrowDown,ArrowLeft"":8,""ArrowDown,ArrowRight"":30}","true","ArrowDown,ArrowRight","false","","","original","1","26","","",""
"html-keyboard-response","143","721090","0.0-4.0-2.0-1.13","spark_pilot_2","7372","7","15","Male","","","","","","","null","<div style=""font-size:60px;"">+</div>","null","fixation","","","","","","","","","","","27","","",""
"revaluation","144","727116","0.0-4.0-2.0-0.14","spark_pilot_2","7372","7","15","Male","","false","","","","","[647.8000000119209,497.09999999403954]","./assets/img/canyon/memory/9.jpg","[""ArrowDown"",""ArrowRight""]","value training","canyon","30","{""ArrowUp,ArrowLeft"":23,""ArrowUp,ArrowRight"":10,""ArrowDown,ArrowLeft"":8,""ArrowDown,ArrowRight"":30}","true","ArrowDown,ArrowRight","false","","","original","1","28","","",""
"html-keyboard-response","145","727627","0.0-4.0-2.0-1.14","spark_pilot_2","7372","7","15","Male","","","","","","","null","<div style=""font-size:60px;"">+</div>","null","fixation","","","","","","","","","","","29","","",""
"revaluation","146","731642","0.0-4.0-2.0-0.15","spark_pilot_2","7372","7","15","Male","","false","","","","","[648.2000000178814]","./assets/img/canyon/catch/5.jpg","[""spaceBar""]","value training","canyon","0","{""ArrowUp,ArrowLeft"":23,""ArrowUp,ArrowRight"":10,""ArrowDown,ArrowLeft"":8,""ArrowDown,ArrowRight"":30}","true","spaceBar","true","","","original","1","30","","",""
"html-keyboard-response","147","732155","0.0-4.0-2.0-1.15","spark_pilot_2","7372","7","15","Male","","","","","","","null","<div style=""font-size:60px;"">+</div>","null","fixation","","","","","","","","","","","31","","",""
"revaluation","148","738181","0.0-4.0-2.0-0.16","spark_pilot_2","7372","7","15","Male","","false","","","","","[911.0999999940395,375.5]","./assets/img/canyon/memory/18.jpg","[""ArrowDown"",""ArrowRight""]","value training","canyon","30","{""ArrowUp,ArrowLeft"":23,""ArrowUp,ArrowRight"":10,""ArrowDown,ArrowLeft"":8,""ArrowDown,ArrowRight"":30}","true","ArrowDown,ArrowRight","false","","","original","1","32","","",""
"html-keyboard-response","149","738691","0.0-4.0-2.0-1.16","spark_pilot_2","7372","7","15","Male","","","","","","","null","<div style=""font-size:60px;"">+</div>","null","fixation","","","","","","","","","","","33","","",""
"revaluation","150","744717","0.0-4.0-2.0-0.17","spark_pilot_2","7372","7","15","Male","","false","","","","","[1082,404.19999998807907]","./assets/img/canyon/memory/38.jpg","[""ArrowDown"",""ArrowRight""]","value training","canyon","30","{""ArrowUp,ArrowLeft"":23,""ArrowUp,ArrowRight"":10,""ArrowDown,ArrowLeft"":8,""ArrowDown,ArrowRight"":30}","true","ArrowDown,ArrowRight","false","","","original","1","34","","",""
"html-keyboard-response","151","745228","0.0-4.0-2.0-1.17","spark_pilot_2","7372","7","15","Male","","","","","","","null","<div style=""font-size:60px;"">+</div>","null","fixation","","","","","","","","","","","35","","",""
"revaluation","152","751260","0.0-4.0-2.0-0.18","spark_pilot_2","7372","7","15","Male","","false","","","","","[1246.5,1370.5]","./assets/img/canyon/memory/26.jpg","[""ArrowDown"",""ArrowRight""]","value training","canyon","30","{""ArrowUp,ArrowLeft"":23,""ArrowUp,ArrowRight"":10,""ArrowDown,ArrowLeft"":8,""ArrowDown,ArrowRight"":30}","true","ArrowDown,ArrowRight","false","","","original","1","36","","",""
"html-keyboard-response","153","751771","0.0-4.0-2.0-1.18","spark_pilot_2","7372","7","15","Male","","","","","","","null","<div style=""font-size:60px;"">+</div>","null","fixation","","","","","","","","","","","37","","",""
"revaluation","154","757797","0.0-4.0-2.0-0.19","spark_pilot_2","7372","7","15","Male","","false","","","","","[1241.1000000238419,1524.7000000178814]","./assets/img/canyon/memory/26.jpg","[""ArrowDown"",""ArrowRight""]","value training","canyon","30","{""ArrowUp,ArrowLeft"":23,""ArrowUp,ArrowRight"":10,""ArrowDown,ArrowLeft"":8,""ArrowDown,ArrowRight"":30}","true","ArrowDown,ArrowRight","false","","","original","1","38","","",""
"html-keyboard-response","155","758307","0.0-4.0-2.0-1.19","spark_pilot_2","7372","7","15","Male","","","","","","","null","<div style=""font-size:60px;"">+</div>","null","fixation","","","","","","","","","","","39","","",""
"revaluation","156","764333","0.0-4.0-2.0-0.20","spark_pilot_2","7372","7","15","Male","","false","","","","","[702.9000000059605,698.5]","./assets/img/canyon/memory/5.jpg","[""ArrowDown"",""ArrowRight""]","value training","canyon","30","{""ArrowUp,ArrowLeft"":23,""ArrowUp,ArrowRight"":10,""ArrowDown,ArrowLeft"":8,""ArrowDown,ArrowRight"":30}","true","ArrowDown,ArrowRight","false","","","original","1","40","","",""
"html-keyboard-response","157","764843","0.0-4.0-2.0-1.20","spark_pilot_2","7372","7","15","Male","","","","","","","null","<div style=""font-size:60px;"">+</div>","null","fixation","","","","","","","","","","","41","","",""
"revaluation","158","770868","0.0-4.0-2.0-0.21","spark_pilot_2","7372","7","15","Male","","false","","","","","[676.6999999880791,621.9000000059605]","./assets/img/canyon/memory/4.jpg","[""ArrowDown"",""ArrowRight""]","value training","canyon","30","{""ArrowUp,ArrowLeft"":23,""ArrowUp,ArrowRight"":10,""ArrowDown,ArrowLeft"":8,""ArrowDown,ArrowRight"":30}","true","ArrowDown,ArrowRight","false","","","original","1","42","","",""
"html-keyboard-response","159","771380","0.0-4.0-2.0-1.21","spark_pilot_2","7372","7","15","Male","","","","","","","null","<div style=""font-size:60px;"">+</div>","null","fixation","","","","","","","","","","","43","","",""
"revaluation","160","775397","0.0-4.0-2.0-0.22","spark_pilot_2","7372","7","15","Male","","false","","","","","[719.2999999821186]","./assets/img/canyon/catch/7.jpg","[""spaceBar""]","value training","canyon","0","{""ArrowUp,ArrowLeft"":23,""ArrowUp,ArrowRight"":10,""ArrowDown,ArrowLeft"":8,""ArrowDown,ArrowRight"":30}","true","spaceBar","true","","","original","1","44","","",""
"html-keyboard-response","161","775908","0.0-4.0-2.0-1.22","spark_pilot_2","7372","7","15","Male","","","","","","","null","<div style=""font-size:60px;"">+</div>","null","fixation","","","","","","","","","","","45","","",""
"revaluation","162","781931","0.0-4.0-2.0-0.23","spark_pilot_2","7372","7","15","Male","","false","","","","","[1497.9000000059605,593.6999999880791]","./assets/img/canyon/memory/24.jpg","[""ArrowDown"",""ArrowRight""]","value training","canyon","30","{""ArrowUp,ArrowLeft"":23,""ArrowUp,ArrowRight"":10,""ArrowDown,ArrowLeft"":8,""ArrowDown,ArrowRight"":30}","true","ArrowDown,ArrowRight","false","","","original","1","46","","",""
"html-keyboard-response","163","782433","0.0-4.0-2.0-1.23","spark_pilot_2","7372","7","15","Male","","","","","","","null","<div style=""font-size:60px;"">+</div>","null","fixation","","","","","","","","","","","47","","",""
"revaluation","164","788460","0.0-4.0-2.0-0.24","spark_pilot_2","7372","7","15","Male","","false","","","","","[1444.5999999940395,566.9000000059605]","./assets/img/canyon/memory/17.jpg","[""ArrowDown"",""ArrowRight""]","value training","canyon","30","{""ArrowUp,ArrowLeft"":23,""ArrowUp,ArrowRight"":10,""ArrowDown,ArrowLeft"":8,""ArrowDown,ArrowRight"":30}","true","ArrowDown,ArrowRight","false","","","original","1","48","","",""
"html-keyboard-response","165","788970","0.0-4.0-2.0-1.24","spark_pilot_2","7372","7","15","Male","","","","","","","null","<div style=""font-size:60px;"">+</div>","null","fixation","","","","","","","","","","","49","","",""
"revaluation","166","792988","0.0-4.0-2.0-0.25","spark_pilot_2","7372","7","15","Male","","false","","","","","[627.4000000059605]","./assets/img/canyon/catch/3.jpg","[""spaceBar""]","value training","canyon","0","{""ArrowUp,ArrowLeft"":23,""ArrowUp,ArrowRight"":10,""ArrowDown,ArrowLeft"":8,""ArrowDown,ArrowRight"":30}","true","spaceBar","true","","","original","1","50","","",""
"html-keyboard-response","167","793498","0.0-4.0-2.0-1.25","spark_pilot_2","7372","7","15","Male","","","","","","","null","<div style=""font-size:60px;"">+</div>","null","fixation","","","","","","","","","","","51","","",""
"revaluation","168","799524","0.0-4.0-2.0-0.26","spark_pilot_2","7372","7","15","Male","","false","","","","","[673.1000000238419,359.5]","./assets/img/canyon/memory/6.jpg","[""ArrowDown"",""ArrowRight""]","value training","canyon","30","{""ArrowUp,ArrowLeft"":23,""ArrowUp,ArrowRight"":10,""ArrowDown,ArrowLeft"":8,""ArrowDown,ArrowRight"":30}","true","ArrowDown,ArrowRight","false","","","original","1","52","","",""
"html-keyboard-response","169","800029","0.0-4.0-2.0-1.26","spark_pilot_2","7372","7","15","Male","","","","","","","null","<div style=""font-size:60px;"">+</div>","null","fixation","","","","","","","","","","","53","","",""
"revaluation","170","806054","0.0-4.0-2.0-0.27","spark_pilot_2","7372","7","15","Male","","false","","","","","[753.6999999880791,627.8000000119209]","./assets/img/canyon/memory/24.jpg","[""ArrowDown"",""ArrowRight""]","value training","canyon","30","{""ArrowUp,ArrowLeft"":23,""ArrowUp,ArrowRight"":10,""ArrowDown,ArrowLeft"":8,""ArrowDown,ArrowRight"":30}","true","ArrowDown,ArrowRight","false","","","original","1","54","","",""
"html-keyboard-response","171","806565","0.0-4.0-2.0-1.27","spark_pilot_2","7372","7","15","Male","","","","","","","null","<div style=""font-size:60px;"">+</div>","null","fixation","","","","","","","","","","","55","","",""
"revaluation","172","812589","0.0-4.0-2.0-0.28","spark_pilot_2","7372","7","15","Male","","false","","","","","[896.4000000059605,1144.800000011921]","./assets/img/canyon/memory/5.jpg","[""ArrowDown"",""ArrowRight""]","value training","canyon","30","{""ArrowUp,ArrowLeft"":23,""ArrowUp,ArrowRight"":10,""ArrowDown,ArrowLeft"":8,""ArrowDown,ArrowRight"":30}","true","ArrowDown,ArrowRight","false","","","original","1","56","","",""
"html-keyboard-response","173","813102","0.0-4.0-2.0-1.28","spark_pilot_2","7372","7","15","Male","","","","","","","null","<div style=""font-size:60px;"">+</div>","null","fixation","","","","","","","","","","","57","","",""
"revaluation","174","819133","0.0-4.0-2.0-0.29","spark_pilot_2","7372","7","15","Male","","false","","","","","[897.5,640.1999999880791]","./assets/img/canyon/memory/31.jpg","[""ArrowDown"",""ArrowRight""]","value training","canyon","30","{""ArrowUp,ArrowLeft"":23,""ArrowUp,ArrowRight"":10,""ArrowDown,ArrowLeft"":8,""ArrowDown,ArrowRight"":30}","true","ArrowDown,ArrowRight","false","","","original","1","58","","",""
"html-keyboard-response","175","819644","0.0-4.0-2.0-1.29","spark_pilot_2","7372","7","15","Male","","","","","","","null","<div style=""font-size:60px;"">+</div>","null","fixation","","","","","","","","","","","59","","",""
"revaluation","176","825671","0.0-4.0-2.0-0.30","spark_pilot_2","7372","7","15","Male","","false","","","","","[765.9000000059605,448.40000000596046]","./assets/img/canyon/memory/30.jpg","[""ArrowDown"",""ArrowRight""]","value training","canyon","30","{""ArrowUp,ArrowLeft"":23,""ArrowUp,ArrowRight"":10,""ArrowDown,ArrowLeft"":8,""ArrowDown,ArrowRight"":30}","true","ArrowDown,ArrowRight","false","","","original","1","60","","",""
"html-keyboard-response","177","826181","0.0-4.0-2.0-1.30","spark_pilot_2","7372","7","15","Male","","","","","","","null","<div style=""font-size:60px;"">+</div>","null","fixation","","","","","","","","","","","61","","",""
"revaluation","178","832207","0.0-4.0-2.0-0.31","spark_pilot_2","7372","7","15","Male","","false","","","","","[1136.199999988079,515.3000000119209]","./assets/img/canyon/memory/11.jpg","[""ArrowDown"",""ArrowRight""]","value training","canyon","30","{""ArrowUp,ArrowLeft"":23,""ArrowUp,ArrowRight"":10,""ArrowDown,ArrowLeft"":8,""ArrowDown,ArrowRight"":30}","true","ArrowDown,ArrowRight","false","","","original","1","62","","",""
"html-keyboard-response","179","832717","0.0-4.0-2.0-1.31","spark_pilot_2","7372","7","15","Male","","","","","","","null","<div style=""font-size:60px;"">+</div>","null","fixation","","","","","","","","","","","63","","",""
"revaluation","180","838740","0.0-4.0-2.0-0.32","spark_pilot_2","7372","7","15","Male","","false","","","","","[904.3000000119209,454.69999998807907]","./assets/img/canyon/memory/22.jpg","[""ArrowDown"",""ArrowRight""]","value training","canyon","30","{""ArrowUp,ArrowLeft"":23,""ArrowUp,ArrowRight"":10,""ArrowDown,ArrowLeft"":8,""ArrowDown,ArrowRight"":30}","true","ArrowDown,ArrowRight","false","","","original","1","64","","",""
"html-keyboard-response","181","839243","0.0-4.0-2.0-1.32","spark_pilot_2","7372","7","15","Male","","","","","","","null","<div style=""font-size:60px;"">+</div>","null","fixation","","","","","","","","","","","65","","",""
"revaluation","182","845268","0.0-4.0-2.0-0.33","spark_pilot_2","7372","7","15","Male","","false","","","","","[721.2000000178814,470.40000000596046]","./assets/img/canyon/memory/18.jpg","[""ArrowDown"",""ArrowRight""]","value training","canyon","30","{""ArrowUp,ArrowLeft"":23,""ArrowUp,ArrowRight"":10,""ArrowDown,ArrowLeft"":8,""ArrowDown,ArrowRight"":30}","true","ArrowDown,ArrowRight","false","","","original","1","66","","",""
"html-keyboard-response","183","845773","0.0-4.0-2.0-1.33","spark_pilot_2","7372","7","15","Male","","","","","","","null","<div style=""font-size:60px;"">+</div>","null","fixation","","","","","","","","","","","67","","",""
"revaluation","184","851800","0.0-4.0-2.0-0.34","spark_pilot_2","7372","7","15","Male","","false","","","","","[780.9000000059605,408.39999997615814]","./assets/img/canyon/memory/20.jpg","[""ArrowDown"",""ArrowRight""]","value training","canyon","30","{""ArrowUp,ArrowLeft"":23,""ArrowUp,ArrowRight"":10,""ArrowDown,ArrowLeft"":8,""ArrowDown,ArrowRight"":30}","true","ArrowDown,ArrowRight","false","","","original","1","68","","",""
"html-keyboard-response","185","852310","0.0-4.0-2.0-1.34","spark_pilot_2","7372","7","15","Male","","","","","","","null","<div style=""font-size:60px;"">+</div>","null","fixation","","","","","","","","","","","69","","",""
"revaluation","186","858336","0.0-4.0-2.0-0.35","spark_pilot_2","7372","7","15","Male","","false","","","","","[756,397.90000000596046]","./assets/img/canyon/memory/28.jpg","[""ArrowDown"",""ArrowRight""]","value training","canyon","30","{""ArrowUp,ArrowLeft"":23,""ArrowUp,ArrowRight"":10,""ArrowDown,ArrowLeft"":8,""ArrowDown,ArrowRight"":30}","true","ArrowDown,ArrowRight","false","","","original","1","70","","",""
"html-keyboard-response","187","858845","0.0-4.0-2.0-1.35","spark_pilot_2","7372","7","15","Male","","","","","","","null","<div style=""font-size:60px;"">+</div>","null","fixation","","","","","","","","","","","71","","",""
"revaluation","188","864873","0.0-4.0-2.0-0.36","spark_pilot_2","7372","7","15","Male","","false","","","","","[733.3000000119209,964.5]","./assets/img/canyon/memory/34.jpg","[""ArrowDown"",""ArrowRight""]","value training","canyon","30","{""ArrowUp,ArrowLeft"":23,""ArrowUp,ArrowRight"":10,""ArrowDown,ArrowLeft"":8,""ArrowDown,ArrowRight"":30}","true","ArrowDown,ArrowRight","false","","","original","1","72","","",""
"html-keyboard-response","189","865383","0.0-4.0-2.0-1.36","spark_pilot_2","7372","7","15","Male","","","","","","","null","<div style=""font-size:60px;"">+</div>","null","fixation","","","","","","","","","","","73","","",""
"revaluation","190","871404","0.0-4.0-2.0-0.37","spark_pilot_2","7372","7","15","Male","","false","","","","","[1389.199999988079,1153.5999999940395]","./assets/img/canyon/memory/6.jpg","[""ArrowDown"",""ArrowRight""]","value training","canyon","30","{""ArrowUp,ArrowLeft"":23,""ArrowUp,ArrowRight"":10,""ArrowDown,ArrowLeft"":8,""ArrowDown,ArrowRight"":30}","true","ArrowDown,ArrowRight","false","","","original","1","74","","",""
"html-keyboard-response","191","871908","0.0-4.0-2.0-1.37","spark_pilot_2","7372","7","15","Male","","","","","","","null","<div style=""font-size:60px;"">+</div>","null","fixation","","","","","","","","","","","75","","",""
"revaluation","192","877935","0.0-4.0-2.0-0.38","spark_pilot_2","7372","7","15","Male","","false","","","","","[756.2999999821186,527.2999999821186]","./assets/img/canyon/memory/4.jpg","[""ArrowDown"",""ArrowRight""]","value training","canyon","30","{""ArrowUp,ArrowLeft"":23,""ArrowUp,ArrowRight"":10,""ArrowDown,ArrowLeft"":8,""ArrowDown,ArrowRight"":30}","true","ArrowDown,ArrowRight","false","","","original","1","76","","",""
"html-keyboard-response","193","878444","0.0-4.0-2.0-1.38","spark_pilot_2","7372","7","15","Male","","","","","","","null","<div style=""font-size:60px;"">+</div>","null","fixation","","","","","","","","","","","77","","",""
"revaluation","194","884471","0.0-4.0-2.0-0.39","spark_pilot_2","7372","7","15","Male","","false","","","","","[1093.5,1291.4000000059605]","./assets/img/canyon/memory/11.jpg","[""ArrowDown"",""ArrowRight""]","value training","canyon","30","{""ArrowUp,ArrowLeft"":23,""ArrowUp,ArrowRight"":10,""ArrowDown,ArrowLeft"":8,""ArrowDown,ArrowRight"":30}","true","ArrowDown,ArrowRight","false","","","original","1","78","","",""
"html-keyboard-response","195","884981","0.0-4.0-2.0-1.39","spark_pilot_2","7372","7","15","Male","","","","","","","null","<div style=""font-size:60px;"">+</div>","null","fixation","","","","","","","","","","","79","","",""
"revaluation","196","891008","0.0-4.0-2.0-0.40","spark_pilot_2","7372","7","15","Male","","false","","","","","[730.7000000178814,677.5]","./assets/img/canyon/memory/31.jpg","[""ArrowDown"",""ArrowRight""]","value training","canyon","30","{""ArrowUp,ArrowLeft"":23,""ArrowUp,ArrowRight"":10,""ArrowDown,ArrowLeft"":8,""ArrowDown,ArrowRight"":30}","true","ArrowDown,ArrowRight","false","","","original","1","80","","",""
"html-keyboard-response","197","891518","0.0-4.0-2.0-1.40","spark_pilot_2","7372","7","15","Male","","","","","","","null","<div style=""font-size:60px;"">+</div>","null","fixation","","","","","","","","","","","81","","",""
"revaluation","198","897542","0.0-4.0-2.0-0.41","spark_pilot_2","7372","7","15","Male","","false","","","","","[609.5,607.0999999940395]","./assets/img/canyon/memory/19.jpg","[""ArrowDown"",""ArrowRight""]","value training","canyon","30","{""ArrowUp,ArrowLeft"":23,""ArrowUp,ArrowRight"":10,""ArrowDown,ArrowLeft"":8,""ArrowDown,ArrowRight"":30}","true","ArrowDown,ArrowRight","false","","","original","1","82","","",""
"html-keyboard-response","199","898047","0.0-4.0-2.0-1.41","spark_pilot_2","7372","7","15","Male","","","","","","","null","<div style=""font-size:60px;"">+</div>","null","fixation","","","","","","","","","","","83","","",""
"revaluation","200","904081","0.0-4.0-2.0-0.42","spark_pilot_2","7372","7","15","Male","","false","","","","","[668.4000000059605,735.9000000059605]","./assets/img/canyon/memory/2.jpg","[""ArrowDown"",""ArrowRight""]","value training","canyon","30","{""ArrowUp,ArrowLeft"":23,""ArrowUp,ArrowRight"":10,""ArrowDown,ArrowLeft"":8,""ArrowDown,ArrowRight"":30}","true","ArrowDown,ArrowRight","false","","","original","1","84","","",""
"html-keyboard-response","201","904591","0.0-4.0-2.0-1.42","spark_pilot_2","7372","7","15","Male","","","","","","","null","<div style=""font-size:60px;"">+</div>","null","fixation","","","","","","","","","","","85","","",""
"revaluation","202","910618","0.0-4.0-2.0-0.43","spark_pilot_2","7372","7","15","Male","","false","","","","","[581.5,1200.5999999940395]","./assets/img/canyon/memory/29.jpg","[""ArrowDown"",""ArrowRight""]","value training","canyon","30","{""ArrowUp,ArrowLeft"":23,""ArrowUp,ArrowRight"":10,""ArrowDown,ArrowLeft"":8,""ArrowDown,ArrowRight"":30}","true","ArrowDown,ArrowRight","false","","","original","1","86","","",""
"html-keyboard-response","203","911129","0.0-4.0-2.0-1.43","spark_pilot_2","7372","7","15","Male","","","","","","","null","<div style=""font-size:60px;"">+</div>","null","fixation","","","","","","","","","","","87","","",""
"revaluation","204","915142","0.0-4.0-2.0-0.44","spark_pilot_2","7372","7","15","Male","","false","","","","","[673.3999999761581]","./assets/img/canyon/catch/6.jpg","[""spaceBar""]","value training","canyon","0","{""ArrowUp,ArrowLeft"":23,""ArrowUp,ArrowRight"":10,""ArrowDown,ArrowLeft"":8,""ArrowDown,ArrowRight"":30}","true","spaceBar","true","","","original","1","88","","",""
"html-keyboard-response","205","915647","0.0-4.0-2.0-1.44","spark_pilot_2","7372","7","15","Male","","","","","","","null","<div style=""font-size:60px;"">+</div>","null","fixation","","","","","","","","","","","89","","",""
"revaluation","206","921671","0.0-4.0-2.0-0.45","spark_pilot_2","7372","7","15","Male","","false","","","","","[1245.199999988079,1805.800000011921]","./assets/img/canyon/memory/20.jpg","[""ArrowDown"",""ArrowRight""]","value training","canyon","30","{""ArrowUp,ArrowLeft"":23,""ArrowUp,ArrowRight"":10,""ArrowDown,ArrowLeft"":8,""ArrowDown,ArrowRight"":30}","true","ArrowDown,ArrowRight","false","","","original","1","90","","",""
"html-keyboard-response","207","922175","0.0-4.0-2.0-1.45","spark_pilot_2","7372","7","15","Male","","","","","","","null","<div style=""font-size:60px;"">+</div>","null","fixation","","","","","","","","","","","91","","",""
"revaluation","208","928202","0.0-4.0-2.0-0.46","spark_pilot_2","7372","7","15","Male","","false","","","","","[651.1999999880791,713.5999999940395]","./assets/img/canyon/memory/3.jpg","[""ArrowDown"",""ArrowRight""]","value training","canyon","30","{""ArrowUp,ArrowLeft"":23,""ArrowUp,ArrowRight"":10,""ArrowDown,ArrowLeft"":8,""ArrowDown,ArrowRight"":30}","true","ArrowDown,ArrowRight","false","","","original","1","92","","",""
"html-keyboard-response","209","928713","0.0-4.0-2.0-1.46","spark_pilot_2","7372","7","15","Male","","","","","","","null","<div style=""font-size:60px;"">+</div>","null","fixation","","","","","","","","","","","93","","",""
"revaluation","210","934738","0.0-4.0-2.0-0.47","spark_pilot_2","7372","7","15","Male","","false","","","","","[665.5,575]","./assets/img/canyon/memory/38.jpg","[""ArrowDown"",""ArrowRight""]","value training","canyon","30","{""ArrowUp,ArrowLeft"":23,""ArrowUp,ArrowRight"":10,""ArrowDown,ArrowLeft"":8,""ArrowDown,ArrowRight"":30}","true","ArrowDown,ArrowRight","false","","","original","1","94","","",""
"html-keyboard-response","211","935249","0.0-4.0-2.0-1.47","spark_pilot_2","7372","7","15","Male","","","","","","","null","<div style=""font-size:60px;"">+</div>","null","fixation","","","","","","","","","","","95","","",""
"revaluation","212","941275","0.0-4.0-2.0-0.48","spark_pilot_2","7372","7","15","Male","","false","","","","","[654.6999999880791,622.4000000059605]","./assets/img/canyon/memory/17.jpg","[""ArrowDown"",""ArrowRight""]","value training","canyon","30","{""ArrowUp,ArrowLeft"":23,""ArrowUp,ArrowRight"":10,""ArrowDown,ArrowLeft"":8,""ArrowDown,ArrowRight"":30}","true","ArrowDown,ArrowRight","false","","","original","1","96","","",""
"html-keyboard-response","213","941785","0.0-4.0-2.0-1.48","spark_pilot_2","7372","7","15","Male","","","","","","","null","<div style=""font-size:60px;"">+</div>","null","fixation","","","","","","","","","","","97","","",""
"revaluation","214","947806","0.0-4.0-2.0-0.49","spark_pilot_2","7372","7","15","Male","","true","","","","","[959.0999999940395]","./assets/img/canyon/memory/29.jpg","[""ArrowDown""]","value training","canyon","-5","{""ArrowUp,ArrowLeft"":23,""ArrowUp,ArrowRight"":10,""ArrowDown,ArrowLeft"":8,""ArrowDown,ArrowRight"":30}","false","ArrowDown","false","","","original","1","98","","",""
"html-keyboard-response","215","948310","0.0-4.0-2.0-1.49","spark_pilot_2","7372","7","15","Male","","","","","","","null","<div style=""font-size:60px;"">+</div>","null","fixation","","","","","","","","","","","99","","",""
"learning-instructions","216","969798","0.0-4.0-3.0-0.0","spark_pilot_2","7372","7","15","Male","","","","","","","8445.40000000596","<p> Now, you will travel with a friend who will choose whether you go up or down first. </p>
            <p> On these turns, you will just see the animal that they found. You will still get to choose which chest to search for treasure.</p>","","instructions","","","","","","","","","","","","","",""
"revaluation","217","973815","0.0-4.0-4.0-0.0","spark_pilot_2","7372","7","15","Male","","true","","","","","[]","./assets/img/canyon/animals/giraffe.jpg","[]","revaluation","canyon","-5","{""ArrowUp,ArrowLeft"":23,""ArrowUp,ArrowRight"":10,""ArrowDown,ArrowLeft"":8,""ArrowDown,ArrowRight"":30}","false","ArrowUp","","","","original","1","0","","",""
"html-keyboard-response","218","974331","0.0-4.0-4.0-1.0","spark_pilot_2","7372","7","15","Male","","","","","","","null","<div style=""font-size:60px;"">+</div>","null","fixation","","","","","","","","","","","1","","",""
"revaluation","219","978338","0.0-4.0-4.0-0.1","spark_pilot_2","7372","7","15","Male","","false","","","","","[468]","./assets/img/canyon/animals/lion.jpg","[""ArrowRight""]","revaluation","canyon","30","{""ArrowUp,ArrowLeft"":23,""ArrowUp,ArrowRight"":10,""ArrowDown,ArrowLeft"":8,""ArrowDown,ArrowRight"":30}","true","ArrowDown,ArrowRight","","","","original","1","2","","",""
"html-keyboard-response","220","978848","0.0-4.0-4.0-1.1","spark_pilot_2","7372","7","15","Male","","","","","","","null","<div style=""font-size:60px;"">+</div>","null","fixation","","","","","","","","","","","3","","",""
"revaluation","221","982866","0.0-4.0-4.0-0.2","spark_pilot_2","7372","7","15","Male","","false","","","","","[582.4000000059605]","./assets/img/canyon/animals/giraffe.jpg","[""ArrowLeft""]","revaluation","canyon","23","{""ArrowUp,ArrowLeft"":23,""ArrowUp,ArrowRight"":10,""ArrowDown,ArrowLeft"":8,""ArrowDown,ArrowRight"":30}","true","ArrowUp,ArrowLeft","","","","original","1","4","","",""
"html-keyboard-response","222","983376","0.0-4.0-4.0-1.2","spark_pilot_2","7372","7","15","Male","","","","","","","null","<div style=""font-size:60px;"">+</div>","null","fixation","","","","","","","","","","","5","","",""
"revaluation","223","987394","0.0-4.0-4.0-0.3","spark_pilot_2","7372","7","15","Male","","false","","","","","[478]","./assets/img/canyon/animals/giraffe.jpg","[""ArrowRight""]","revaluation","canyon","10","{""ArrowUp,ArrowLeft"":23,""ArrowUp,ArrowRight"":10,""ArrowDown,ArrowLeft"":8,""ArrowDown,ArrowRight"":30}","false","ArrowUp,ArrowRight","","","","original","1","6","","",""
"html-keyboard-response","224","987904","0.0-4.0-4.0-1.3","spark_pilot_2","7372","7","15","Male","","","","","","","null","<div style=""font-size:60px;"">+</div>","null","fixation","","","","","","","","","","","7","","",""
"revaluation","225","991923","0.0-4.0-4.0-0.4","spark_pilot_2","7372","7","15","Male","","false","","","","","[457.40000000596046]","./assets/img/canyon/animals/giraffe.jpg","[""ArrowLeft""]","revaluation","canyon","23","{""ArrowUp,ArrowLeft"":23,""ArrowUp,ArrowRight"":10,""ArrowDown,ArrowLeft"":8,""ArrowDown,ArrowRight"":30}","true","ArrowUp,ArrowLeft","","","","original","1","8","","",""
"html-keyboard-response","226","992433","0.0-4.0-4.0-1.4","spark_pilot_2","7372","7","15","Male","","","","","","","null","<div style=""font-size:60px;"">+</div>","null","fixation","","","","","","","","","","","9","","",""
"revaluation","227","996450","0.0-4.0-4.0-0.5","spark_pilot_2","7372","7","15","Male","","false","","","","","[578.7000000178814]","./assets/img/canyon/animals/giraffe.jpg","[""ArrowLeft""]","revaluation","canyon","23","{""ArrowUp,ArrowLeft"":23,""ArrowUp,ArrowRight"":10,""ArrowDown,ArrowLeft"":8,""ArrowDown,ArrowRight"":30}","true","ArrowUp,ArrowLeft","","","","original","1","10","","",""
"html-keyboard-response","228","996961","0.0-4.0-4.0-1.5","spark_pilot_2","7372","7","15","Male","","","","","","","null","<div style=""font-size:60px;"">+</div>","null","fixation","","","","","","","","","","","11","","",""
"revaluation","229","1000979","0.0-4.0-4.0-0.6","spark_pilot_2","7372","7","15","Male","","false","","","","","[638.5999999940395]","./assets/img/canyon/animals/giraffe.jpg","[""ArrowLeft""]","revaluation","canyon","23","{""ArrowUp,ArrowLeft"":23,""ArrowUp,ArrowRight"":10,""ArrowDown,ArrowLeft"":8,""ArrowDown,ArrowRight"":30}","true","ArrowUp,ArrowLeft","","","","original","1","12","","",""
"html-keyboard-response","230","1001489","0.0-4.0-4.0-1.6","spark_pilot_2","7372","7","15","Male","","","","","","","null","<div style=""font-size:60px;"">+</div>","null","fixation","","","","","","","","","","","13","","",""
"revaluation","231","1005506","0.0-4.0-4.0-0.7","spark_pilot_2","7372","7","15","Male","","false","","","","","[585.7000000178814]","./assets/img/canyon/animals/lion.jpg","[""ArrowRight""]","revaluation","canyon","30","{""ArrowUp,ArrowLeft"":23,""ArrowUp,ArrowRight"":10,""ArrowDown,ArrowLeft"":8,""ArrowDown,ArrowRight"":30}","true","ArrowDown,ArrowRight","","","","original","1","14","","",""
"html-keyboard-response","232","1006017","0.0-4.0-4.0-1.7","spark_pilot_2","7372","7","15","Male","","","","","","","null","<div style=""font-size:60px;"">+</div>","null","fixation","","","","","","","","","","","15","","",""
"revaluation","233","1010035","0.0-4.0-4.0-0.8","spark_pilot_2","7372","7","15","Male","","false","","","","","[424.09999999403954]","./assets/img/canyon/animals/lion.jpg","[""ArrowRight""]","revaluation","canyon","30","{""ArrowUp,ArrowLeft"":23,""ArrowUp,ArrowRight"":10,""ArrowDown,ArrowLeft"":8,""ArrowDown,ArrowRight"":30}","true","ArrowDown,ArrowRight","","","","original","1","16","","",""
"html-keyboard-response","234","1010539","0.0-4.0-4.0-1.8","spark_pilot_2","7372","7","15","Male","","","","","","","null","<div style=""font-size:60px;"">+</div>","null","fixation","","","","","","","","","","","17","","",""
"revaluation","235","1014554","0.0-4.0-4.0-0.9","spark_pilot_2","7372","7","15","Male","","false","","","","","[536.9000000059605]","./assets/img/canyon/animals/lion.jpg","[""ArrowLeft""]","revaluation","canyon","8","{""ArrowUp,ArrowLeft"":23,""ArrowUp,ArrowRight"":10,""ArrowDown,ArrowLeft"":8,""ArrowDown,ArrowRight"":30}","false","ArrowDown,ArrowLeft","","","","original","1","18","","",""
"html-keyboard-response","236","1015067","0.0-4.0-4.0-1.9","spark_pilot_2","7372","7","15","Male","","","","","","","null","<div style=""font-size:60px;"">+</div>","null","fixation","","","","","","","","","","","19","","",""
"revaluation","237","1019081","0.0-4.0-4.0-0.10","spark_pilot_2","7372","7","15","Male","","false","","","","","[577.3000000119209]","./assets/img/canyon/animals/giraffe.jpg","[""ArrowLeft""]","revaluation","canyon","23","{""ArrowUp,ArrowLeft"":23,""ArrowUp,ArrowRight"":10,""ArrowDown,ArrowLeft"":8,""ArrowDown,ArrowRight"":30}","true","ArrowUp,ArrowLeft","","","","original","1","20","","",""
"html-keyboard-response","238","1019584","0.0-4.0-4.0-1.10","spark_pilot_2","7372","7","15","Male","","","","","","","null","<div style=""font-size:60px;"">+</div>","null","fixation","","","","","","","","","","","21","","",""
"revaluation","239","1023601","0.0-4.0-4.0-0.11","spark_pilot_2","7372","7","15","Male","","false","","","","","[359.7999999821186]","./assets/img/canyon/animals/lion.jpg","[""ArrowRight""]","revaluation","canyon","30","{""ArrowUp,ArrowLeft"":23,""ArrowUp,ArrowRight"":10,""ArrowDown,ArrowLeft"":8,""ArrowDown,ArrowRight"":30}","true","ArrowDown,ArrowRight","","","","original","1","22","","",""
"html-keyboard-response","240","1024106","0.0-4.0-4.0-1.11","spark_pilot_2","7372","7","15","Male","","","","","","","null","<div style=""font-size:60px;"">+</div>","null","fixation","","","","","","","","","","","23","","",""
"revaluation","241","1028124","0.0-4.0-4.0-0.12","spark_pilot_2","7372","7","15","Male","","false","","","","","[527.3000000119209]","./assets/img/canyon/animals/lion.jpg","[""ArrowRight""]","revaluation","canyon","30","{""ArrowUp,ArrowLeft"":23,""ArrowUp,ArrowRight"":10,""ArrowDown,ArrowLeft"":8,""ArrowDown,ArrowRight"":30}","true","ArrowDown,ArrowRight","","","","original","1","24","","",""
"html-keyboard-response","242","1028634","0.0-4.0-4.0-1.12","spark_pilot_2","7372","7","15","Male","","","","","","","null","<div style=""font-size:60px;"">+</div>","null","fixation","","","","","","","","","","","25","","",""
"revaluation","243","1032640","0.0-4.0-4.0-0.13","spark_pilot_2","7372","7","15","Male","","false","","","","","[600.6999999880791]","./assets/img/canyon/animals/giraffe.jpg","[""ArrowLeft""]","revaluation","canyon","23","{""ArrowUp,ArrowLeft"":23,""ArrowUp,ArrowRight"":10,""ArrowDown,ArrowLeft"":8,""ArrowDown,ArrowRight"":30}","true","ArrowUp,ArrowLeft","","","","original","1","26","","",""
"html-keyboard-response","244","1033145","0.0-4.0-4.0-1.13","spark_pilot_2","7372","7","15","Male","","","","","","","null","<div style=""font-size:60px;"">+</div>","null","fixation","","","","","","","","","","","27","","",""
"revaluation","245","1037162","0.0-4.0-4.0-0.14","spark_pilot_2","7372","7","15","Male","","false","","","","","[798.6999999880791]","./assets/img/canyon/animals/lion.jpg","[""ArrowRight""]","revaluation","canyon","30","{""ArrowUp,ArrowLeft"":23,""ArrowUp,ArrowRight"":10,""ArrowDown,ArrowLeft"":8,""ArrowDown,ArrowRight"":30}","true","ArrowDown,ArrowRight","","","","original","1","28","","",""
"html-keyboard-response","246","1037667","0.0-4.0-4.0-1.14","spark_pilot_2","7372","7","15","Male","","","","","","","null","<div style=""font-size:60px;"">+</div>","null","fixation","","","","","","","","","","","29","","",""
"revaluation","247","1041684","0.0-4.0-4.0-0.15","spark_pilot_2","7372","7","15","Male","","false","","","","","[1065.2999999821186]","./assets/img/canyon/animals/lion.jpg","[""ArrowRight""]","revaluation","canyon","30","{""ArrowUp,ArrowLeft"":23,""ArrowUp,ArrowRight"":10,""ArrowDown,ArrowLeft"":8,""ArrowDown,ArrowRight"":30}","true","ArrowDown,ArrowRight","","","","original","1","30","","",""
"html-keyboard-response","248","1042195","0.0-4.0-4.0-1.15","spark_pilot_2","7372","7","15","Male","","","","","","","null","<div style=""font-size:60px;"">+</div>","null","fixation","","","","","","","","","","","31","","",""
"revaluation","249","1046213","0.0-4.0-4.0-0.16","spark_pilot_2","7372","7","15","Male","","false","","","","","[701.4000000059605]","./assets/img/canyon/animals/lion.jpg","[""ArrowRight""]","revaluation","canyon","30","{""ArrowUp,ArrowLeft"":23,""ArrowUp,ArrowRight"":10,""ArrowDown,ArrowLeft"":8,""ArrowDown,ArrowRight"":30}","true","ArrowDown,ArrowRight","","","","original","1","32","","",""
"html-keyboard-response","250","1046723","0.0-4.0-4.0-1.16","spark_pilot_2","7372","7","15","Male","","","","","","","null","<div style=""font-size:60px;"">+</div>","null","fixation","","","","","","","","","","","33","","",""
"revaluation","251","1050741","0.0-4.0-4.0-0.17","spark_pilot_2","7372","7","15","Male","","false","","","","","[953.5]","./assets/img/canyon/animals/giraffe.jpg","[""ArrowLeft""]","revaluation","canyon","23","{""ArrowUp,ArrowLeft"":23,""ArrowUp,ArrowRight"":10,""ArrowDown,ArrowLeft"":8,""ArrowDown,ArrowRight"":30}","true","ArrowUp,ArrowLeft","","","","original","1","34","","",""
"html-keyboard-response","252","1051251","0.0-4.0-4.0-1.17","spark_pilot_2","7372","7","15","Male","","","","","","","null","<div style=""font-size:60px;"">+</div>","null","fixation","","","","","","","","","","","35","","",""
"learning-instructions","253","1064398","0.0-4.0-5.0-0.0","spark_pilot_2","7372","7","15","Male","","","","","","","1484.7999999821186","<p> Time to play the dot game! </p>
            <p> For one minute, click the red dots on the following screen as they appear. </p>
            <p><b> Don't look away, as you will earn bonus for clicking dots</b>. </p>","","instructions","","","","","","","","","","","","","",""
"revaluation","254","1124405","0.0-4.0-6.0-0.0","spark_pilot_2","7372","7","15","Male","","","","","","","[113,99,76,81,64,71,84]","","","rest","","70","","","","","0","60000","","","","","",""
"learning-instructions","255","1135536","0.0-4.0-7.0-0.0","spark_pilot_2","7372","7","15","Male","","","","","","","4871.5","<p> You have almost finished this part of the game! </p>
            <p> We are going to ask you to make a few more choices. </p>","","instructions","","","","","","","","","","","","","",""
"learning-instructions","256","1150554","0.0-4.0-7.0-0.1","spark_pilot_2","7372","7","15","Male","","","","","","","1046.6000000238419","<p> First, you need to decide whether to go up or down. When you see each picture, use the arrow keys to make your choice. </p>
            <p><b>You will not see which animal you found, but try to get to the one that will give you the most treasure.</b></p>","","instructions","","","","","","","","","","","","","",""
"revaluation","257","1152101","0.0-4.0-8.0-0.0","spark_pilot_2","7372","7","15","Male","","false","","","","","[1544.300000011921]","./assets/img/canyon/test/2.jpg","[""ArrowDown""]","first stage test","canyon","0","{""ArrowUp,ArrowLeft"":23,""ArrowUp,ArrowRight"":10,""ArrowDown,ArrowLeft"":8,""ArrowDown,ArrowRight"":30}","true","ArrowDown","false","","","original","1","","","",""
"html-keyboard-response","258","1152606","0.0-4.0-8.0-1.0","spark_pilot_2","7372","7","15","Male","","","","","","","null","<div style=""font-size:60px;"">+</div>","null","fixation","","","","","","","","","","","","","",""
"revaluation","259","1154290","0.0-4.0-8.0-0.1","spark_pilot_2","7372","7","15","Male","","false","","","","","[1680.4000000059605]","./assets/img/canyon/test/0.jpg","[""ArrowDown""]","first stage test","canyon","0","{""ArrowUp,ArrowLeft"":23,""ArrowUp,ArrowRight"":10,""ArrowDown,ArrowLeft"":8,""ArrowDown,ArrowRight"":30}","true","ArrowDown","false","","","original","1","","","",""
"html-keyboard-response","260","1154800","0.0-4.0-8.0-1.1","spark_pilot_2","7372","7","15","Male","","","","","","","null","<div style=""font-size:60px;"">+</div>","null","fixation","","","","","","","","","","","","","",""
"revaluation","261","1155416","0.0-4.0-8.0-0.2","spark_pilot_2","7372","7","15","Male","","false","","","","","[612.0999999940395]","./assets/img/canyon/test/1.jpg","[""ArrowUp""]","first stage test","canyon","0","{""ArrowUp,ArrowLeft"":23,""ArrowUp,ArrowRight"":10,""ArrowDown,ArrowLeft"":8,""ArrowDown,ArrowRight"":30}","false","ArrowUp","false","","","original","1","","","",""
"html-keyboard-response","262","1155927","0.0-4.0-8.0-1.2","spark_pilot_2","7372","7","15","Male","","","","","","","null","<div style=""font-size:60px;"">+</div>","null","fixation","","","","","","","","","","","","","",""
"revaluation","263","1156392","0.0-4.0-8.0-0.3","spark_pilot_2","7372","7","15","Male","","false","","","","","[462]","./assets/img/canyon/test/3.jpg","[""ArrowUp""]","first stage test","canyon","0","{""ArrowUp,ArrowLeft"":23,""ArrowUp,ArrowRight"":10,""ArrowDown,ArrowLeft"":8,""ArrowDown,ArrowRight"":30}","false","ArrowUp","false","","","original","1","","","",""
"html-keyboard-response","264","1156896","0.0-4.0-8.0-1.3","spark_pilot_2","7372","7","15","Male","","","","","","","null","<div style=""font-size:60px;"">+</div>","null","fixation","","","","","","","","","","","","","",""
"learning-instructions","265","1169581","0.0-4.0-9.0-0.0","spark_pilot_2","7372","7","15","Male","","","","","","","1340","<p> Now you will see the animals again and can search their chests for treasure. </p>
            <p> This time, you will not see how much treasure you earned, but you will earn more bonus money for making better choices. </p>","","instructions","","","","","","","","","","","","","",""
"revaluation","266","1170010","0.0-4.0-10.0-0.0","spark_pilot_2","7372","7","15","Male","","false","","","","","[427]","./assets/img/canyon/animals/giraffe.jpg","[""ArrowRight""]","second stage test","canyon","0","{""ArrowUp,ArrowLeft"":23,""ArrowUp,ArrowRight"":10,""ArrowDown,ArrowLeft"":8,""ArrowDown,ArrowRight"":30}","false","ArrowUp,ArrowRight","","","","original","1","","","",""
"html-keyboard-response","267","1170521","0.0-4.0-10.0-1.0","spark_pilot_2","7372","7","15","Male","","","","","","","null","<div style=""font-size:60px;"">+</div>","null","fixation","","","","","","","","","","","","","",""
"revaluation","268","1171033","0.0-4.0-10.0-0.1","spark_pilot_2","7372","7","15","Male","","false","","","","","[509.30000001192093]","./assets/img/canyon/animals/giraffe.jpg","[""ArrowRight""]","second stage test","canyon","0","{""ArrowUp,ArrowLeft"":23,""ArrowUp,ArrowRight"":10,""ArrowDown,ArrowLeft"":8,""ArrowDown,ArrowRight"":30}","false","ArrowUp,ArrowRight","","","","original","1","","","",""
"html-keyboard-response","269","1171542","0.0-4.0-10.0-1.1","spark_pilot_2","7372","7","15","Male","","","","","","","null","<div style=""font-size:60px;"">+</div>","null","fixation","","","","","","","","","","","","","",""
"revaluation","270","1171979","0.0-4.0-10.0-0.2","spark_pilot_2","7372","7","15","Male","","false","","","","","[432.90000000596046]","./assets/img/canyon/animals/giraffe.jpg","[""ArrowLeft""]","second stage test","canyon","0","{""ArrowUp,ArrowLeft"":23,""ArrowUp,ArrowRight"":10,""ArrowDown,ArrowLeft"":8,""ArrowDown,ArrowRight"":30}","true","ArrowUp,ArrowLeft","","","","original","1","","","",""
"html-keyboard-response","271","1172489","0.0-4.0-10.0-1.2","spark_pilot_2","7372","7","15","Male","","","","","","","null","<div style=""font-size:60px;"">+</div>","null","fixation","","","","","","","","","","","","","",""
"revaluation","272","1172913","0.0-4.0-10.0-0.3","spark_pilot_2","7372","7","15","Male","","false","","","","","[420.09999999403954]","./assets/img/canyon/animals/giraffe.jpg","[""ArrowLeft""]","second stage test","canyon","0","{""ArrowUp,ArrowLeft"":23,""ArrowUp,ArrowRight"":10,""ArrowDown,ArrowLeft"":8,""ArrowDown,ArrowRight"":30}","true","ArrowUp,ArrowLeft","","","","original","1","","","",""
"html-keyboard-response","273","1173417","0.0-4.0-10.0-1.3","spark_pilot_2","7372","7","15","Male","","","","","","","null","<div style=""font-size:60px;"">+</div>","null","fixation","","","","","","","","","","","","","",""
"revaluation","274","1173883","0.0-4.0-10.0-0.4","spark_pilot_2","7372","7","15","Male","","false","","","","","[462.2000000178814]","./assets/img/canyon/animals/lion.jpg","[""ArrowRight""]","second stage test","canyon","0","{""ArrowUp,ArrowLeft"":23,""ArrowUp,ArrowRight"":10,""ArrowDown,ArrowLeft"":8,""ArrowDown,ArrowRight"":30}","true","ArrowDown,ArrowRight","","","","original","1","","","",""
"html-keyboard-response","275","1174393","0.0-4.0-10.0-1.4","spark_pilot_2","7372","7","15","Male","","","","","","","null","<div style=""font-size:60px;"">+</div>","null","fixation","","","","","","","","","","","","","",""
"revaluation","276","1174841","0.0-4.0-10.0-0.5","spark_pilot_2","7372","7","15","Male","","false","","","","","[445.80000001192093]","./assets/img/canyon/animals/lion.jpg","[""ArrowRight""]","second stage test","canyon","0","{""ArrowUp,ArrowLeft"":23,""ArrowUp,ArrowRight"":10,""ArrowDown,ArrowLeft"":8,""ArrowDown,ArrowRight"":30}","true","ArrowDown,ArrowRight","","","","original","1","","","",""
"html-keyboard-response","277","1175345","0.0-4.0-10.0-1.5","spark_pilot_2","7372","7","15","Male","","","","","","","null","<div style=""font-size:60px;"">+</div>","null","fixation","","","","","","","","","","","","","",""
"revaluation","278","1175757","0.0-4.0-10.0-0.6","spark_pilot_2","7372","7","15","Male","","false","","","","","[408.19999998807907]","./assets/img/canyon/animals/lion.jpg","[""ArrowRight""]","second stage test","canyon","0","{""ArrowUp,ArrowLeft"":23,""ArrowUp,ArrowRight"":10,""ArrowDown,ArrowLeft"":8,""ArrowDown,ArrowRight"":30}","true","ArrowDown,ArrowRight","","","","original","1","","","",""
"html-keyboard-response","279","1176262","0.0-4.0-10.0-1.6","spark_pilot_2","7372","7","15","Male","","","","","","","null","<div style=""font-size:60px;"">+</div>","null","fixation","","","","","","","","","","","","","",""
"revaluation","280","1176636","0.0-4.0-10.0-0.7","spark_pilot_2","7372","7","15","Male","","false","","","","","[369.90000000596046]","./assets/img/canyon/animals/lion.jpg","[""ArrowRight""]","second stage test","canyon","0","{""ArrowUp,ArrowLeft"":23,""ArrowUp,ArrowRight"":10,""ArrowDown,ArrowLeft"":8,""ArrowDown,ArrowRight"":30}","true","ArrowDown,ArrowRight","","","","original","1","","","",""
"html-keyboard-response","281","1177144","0.0-4.0-10.0-1.7","spark_pilot_2","7372","7","15","Male","","","","","","","null","<div style=""font-size:60px;"">+</div>","null","fixation","","","","","","","","","","","","","",""
"learning-instructions","282","1181303","0.0-4.0-0.1-0.2","spark_pilot_2","7372","7","15","Male","","","","","","","1434","<p> This time you are searching for treasure in the <b>ocean</b>.</p>","","instructions","","","","","","","","","","","","","",""
"learning-instructions","283","1199298","0.0-4.0-0.1-0.3","spark_pilot_2","7372","7","15","Male","","","","","","","740.8000000119209","<p><b>New</b> animals with <b>new</b> treasure chests live here. You need to explore to discover where the animal with the best treasure chest is.</p>
                    <p> Like before, once you figure out which animal has the chest with the most treasure, you should try to get to that animal and select that chest! </p>","","instructions","","","","","","","","","","","","","",""
"learning-instructions","284","1214654","0.0-4.0-1.1-0.1","spark_pilot_2","7372","7","15","Male","","","","","","","620.5","<p> Remember, when you see a picture of the place, use the up and down keys to <b>find an animal</b>.</p>
            <p> When you encounter an animal, you should use the left and right keys to <b>select a treasure chest</b>.</p>
            <p> Don't forget to look out for the robber! </p>","","instructions","","","","","","","","","","","","","",""
"revaluation","285","1220684","0.0-4.0-2.1-0.50","spark_pilot_2","7372","7","15","Male","","false","","","","","[794.5999999940395,507.09999999403954]","./assets/img/ocean/memory/5.jpg","[""ArrowDown"",""ArrowRight""]","value training","ocean","17","{""ArrowUp,ArrowLeft"":26,""ArrowUp,ArrowRight"":10,""ArrowDown,ArrowLeft"":5,""ArrowDown,ArrowRight"":17}","false","ArrowDown,ArrowRight","false","","","revaluation","2","0","","",""
"html-keyboard-response","286","1221191","0.0-4.0-2.1-1.50","spark_pilot_2","7372","7","15","Male","","","","","","","null","<div style=""font-size:60px;"">+</div>","null","fixation","","","","","","","","","","","1","","",""
"revaluation","287","1227219","0.0-4.0-2.1-0.51","spark_pilot_2","7372","7","15","Male","","false","","","","","[456.80000001192093,358.5]","./assets/img/ocean/memory/11.jpg","[""ArrowDown"",""ArrowLeft""]","value training","ocean","5","{""ArrowUp,ArrowLeft"":26,""ArrowUp,ArrowRight"":10,""ArrowDown,ArrowLeft"":5,""ArrowDown,ArrowRight"":17}","false","ArrowDown,ArrowLeft","false","","","revaluation","2","2","","",""
"html-keyboard-response","288","1227731","0.0-4.0-2.1-1.51","spark_pilot_2","7372","7","15","Male","","","","","","","null","<div style=""font-size:60px;"">+</div>","null","fixation","","","","","","","","","","","3","","",""
"revaluation","289","1233763","0.0-4.0-2.1-0.52","spark_pilot_2","7372","7","15","Male","","false","","","","","[641.5,429.7000000178814]","./assets/img/ocean/memory/19.jpg","[""ArrowUp"",""ArrowRight""]","value training","ocean","10","{""ArrowUp,ArrowLeft"":26,""ArrowUp,ArrowRight"":10,""ArrowDown,ArrowLeft"":5,""ArrowDown,ArrowRight"":17}","false","ArrowUp,ArrowRight","false","","","revaluation","2","4","","",""
"html-keyboard-response","290","1234273","0.0-4.0-2.1-1.52","spark_pilot_2","7372","7","15","Male","","","","","","","null","<div style=""font-size:60px;"">+</div>","null","fixation","","","","","","","","","","","5","","",""
"revaluation","291","1240299","0.0-4.0-2.1-0.53","spark_pilot_2","7372","7","15","Male","","false","","","","","[398.09999999403954,428.5]","./assets/img/ocean/memory/20.jpg","[""ArrowUp"",""ArrowLeft""]","value training","ocean","26","{""ArrowUp,ArrowLeft"":26,""ArrowUp,ArrowRight"":10,""ArrowDown,ArrowLeft"":5,""ArrowDown,ArrowRight"":17}","true","ArrowUp,ArrowLeft","false","","","revaluation","2","6","","",""
"html-keyboard-response","292","1240810","0.0-4.0-2.1-1.53","spark_pilot_2","7372","7","15","Male","","","","","","","null","<div style=""font-size:60px;"">+</div>","null","fixation","","","","","","","","","","","7","","",""
"revaluation","293","1246832","0.0-4.0-2.1-0.54","spark_pilot_2","7372","7","15","Male","","false","","","","","[1908.699999988079,601.4000000059605]","./assets/img/ocean/memory/6.jpg","[""ArrowUp"",""ArrowLeft""]","value training","ocean","26","{""ArrowUp,ArrowLeft"":26,""ArrowUp,ArrowRight"":10,""ArrowDown,ArrowLeft"":5,""ArrowDown,ArrowRight"":17}","true","ArrowUp,ArrowLeft","false","","","revaluation","2","8","","",""
"html-keyboard-response","294","1247335","0.0-4.0-2.1-1.54","spark_pilot_2","7372","7","15","Male","","","","","","","null","<div style=""font-size:60px;"">+</div>","null","fixation","","","","","","","","","","","9","","",""
"revaluation","295","1253354","0.0-4.0-2.1-0.55","spark_pilot_2","7372","7","15","Male","","false","","","","","[494.80000001192093,448.59999999403954]","./assets/img/ocean/memory/9.jpg","[""ArrowUp"",""ArrowLeft""]","value training","ocean","26","{""ArrowUp,ArrowLeft"":26,""ArrowUp,ArrowRight"":10,""ArrowDown,ArrowLeft"":5,""ArrowDown,ArrowRight"":17}","true","ArrowUp,ArrowLeft","false","","","revaluation","2","10","","",""
"html-keyboard-response","296","1253867","0.0-4.0-2.1-1.55","spark_pilot_2","7372","7","15","Male","","","","","","","null","<div style=""font-size:60px;"">+</div>","null","fixation","","","","","","","","","","","11","","",""
"revaluation","297","1259893","0.0-4.0-2.1-0.56","spark_pilot_2","7372","7","15","Male","","false","","","","","[514.2000000178814,507.39999997615814]","./assets/img/ocean/memory/4.jpg","[""ArrowUp"",""ArrowLeft""]","value training","ocean","26","{""ArrowUp,ArrowLeft"":26,""ArrowUp,ArrowRight"":10,""ArrowDown,ArrowLeft"":5,""ArrowDown,ArrowRight"":17}","true","ArrowUp,ArrowLeft","false","","","revaluation","2","12","","",""
"html-keyboard-response","298","1260403","0.0-4.0-2.1-1.56","spark_pilot_2","7372","7","15","Male","","","","","","","null","<div style=""font-size:60px;"">+</div>","null","fixation","","","","","","","","","","","13","","",""
"revaluation","299","1266435","0.0-4.0-2.1-0.57","spark_pilot_2","7372","7","15","Male","","false","","","","","[440.09999999403954,544.5]","./assets/img/ocean/memory/3.jpg","[""ArrowUp"",""ArrowLeft""]","value training","ocean","26","{""ArrowUp,ArrowLeft"":26,""ArrowUp,ArrowRight"":10,""ArrowDown,ArrowLeft"":5,""ArrowDown,ArrowRight"":17}","true","ArrowUp,ArrowLeft","false","","","revaluation","2","14","","",""
"html-keyboard-response","300","1266945","0.0-4.0-2.1-1.57","spark_pilot_2","7372","7","15","Male","","","","","","","null","<div style=""font-size:60px;"">+</div>","null","fixation","","","","","","","","","","","15","","",""
"revaluation","301","1272971","0.0-4.0-2.1-0.58","spark_pilot_2","7372","7","15","Male","","false","","","","","[881.7000000178814,950.5999999940395]","./assets/img/ocean/memory/26.jpg","[""ArrowUp"",""ArrowLeft""]","value training","ocean","26","{""ArrowUp,ArrowLeft"":26,""ArrowUp,ArrowRight"":10,""ArrowDown,ArrowLeft"":5,""ArrowDown,ArrowRight"":17}","true","ArrowUp,ArrowLeft","false","","","revaluation","2","16","","",""
"html-keyboard-response","302","1273482","0.0-4.0-2.1-1.58","spark_pilot_2","7372","7","15","Male","","","","","","","null","<div style=""font-size:60px;"">+</div>","null","fixation","","","","","","","","","","","17","","",""
"revaluation","303","1277499","0.0-4.0-2.1-0.59","spark_pilot_2","7372","7","15","Male","","false","","","","","[1105.800000011921]","./assets/img/ocean/catch/5.jpg","[""spaceBar""]","value training","ocean","0","{""ArrowUp,ArrowLeft"":26,""ArrowUp,ArrowRight"":10,""ArrowDown,ArrowLeft"":5,""ArrowDown,ArrowRight"":17}","true","spaceBar","true","","","revaluation","2","18","","",""
"html-keyboard-response","304","1278010","0.0-4.0-2.1-1.59","spark_pilot_2","7372","7","15","Male","","","","","","","null","<div style=""font-size:60px;"">+</div>","null","fixation","","","","","","","","","","","19","","",""
"revaluation","305","1284036","0.0-4.0-2.1-0.60","spark_pilot_2","7372","7","15","Male","","false","","","","","[1084.699999988079,428.19999998807907]","./assets/img/ocean/memory/28.jpg","[""ArrowUp"",""ArrowLeft""]","value training","ocean","26","{""ArrowUp,ArrowLeft"":26,""ArrowUp,ArrowRight"":10,""ArrowDown,ArrowLeft"":5,""ArrowDown,ArrowRight"":17}","true","ArrowUp,ArrowLeft","false","","","revaluation","2","20","","",""
"html-keyboard-response","306","1284546","0.0-4.0-2.1-1.60","spark_pilot_2","7372","7","15","Male","","","","","","","null","<div style=""font-size:60px;"">+</div>","null","fixation","","","","","","","","","","","21","","",""
"revaluation","307","1290572","0.0-4.0-2.1-0.61","spark_pilot_2","7372","7","15","Male","","false","","","","","[512.2000000178814,427.80000001192093]","./assets/img/ocean/memory/38.jpg","[""ArrowUp"",""ArrowLeft""]","value training","ocean","26","{""ArrowUp,ArrowLeft"":26,""ArrowUp,ArrowRight"":10,""ArrowDown,ArrowLeft"":5,""ArrowDown,ArrowRight"":17}","true","ArrowUp,ArrowLeft","false","","","revaluation","2","22","","",""
"html-keyboard-response","308","1291083","0.0-4.0-2.1-1.61","spark_pilot_2","7372","7","15","Male","","","","","","","null","<div style=""font-size:60px;"">+</div>","null","fixation","","","","","","","","","","","23","","",""
