"trial_type","trial_index","time_elapsed","internal_node_id","task_version","subject_id","assigned_condition","age","gender","success","timeout","failed_images","failed_audio","failed_video","browser_interaction","rt","stimulus","response","task_part","environment","score","rewardMap","correct","fullState","isCatch","numberMissed","duration","condition","order","trial_num","key_press","ground_truth","bonus"
"pavlovia","0","1009","0.0-0.0","spark_pilot_2","7961","8","14","Male","","","","","","","","","","","","","","","","","","","","","","","",""
"preload","1","10749","0.0-1.0","spark_pilot_2","7961","8","14","Male","true","false","[]","[]","[]","[{""event"":""fullscreenenter"",""trial"":2,""time"":18335}]","","","","","","","","","","","","","","","","","",""
"fullscreen","2","19327","0.0-2.0","spark_pilot_2","7961","8","14","Male","true","","","","","","","","","","","","","","","","","","","","","","",""
"audio-button-response","3","20994","0.0-3.0-0.0-0.0","spark_pilot_2","7961","8","14","Male","","","","","","","1648","./assets/audio/audiotest/turtle.mp3","2","audio_test","","","","","","","","","","","","","",""
"learning-instructions","4","29409","0.0-3.0-1.0-0.0","spark_pilot_2","7961","8","14","Male","","","","","","","1432.199999988079","<p> Welcome! Please remember to stay in fullscreen mode and don't click away from the experiment. </p>","","instructions","","","","","","","","","","","","","",""
"learning-instructions","5","39337","0.0-3.0-1.0-0.1","spark_pilot_2","7961","8","14","Male","","","","","","","1530.6000000238419","<p> Today you will be playing a game to earn treasure. </p>
            <p> At the end of the experiment, you will earn a bonus based on how much treasure you find. </p>
            <img src='./assets/img/instructions/treasure.jpg' class='instructions-image'>","","instructions","","","","","","","","","","","","","",""
"learning-instructions","6","48865","0.0-3.0-1.0-0.2","spark_pilot_2","7961","8","14","Male","","","","","","","1288","<p> Animals have hidden treasure in treasure chests. </p>
            <p> You need to first find an animal and then choose which of their treasure chests to search. </p>
            <img src='./assets/img/space/animals/cat.jpg' class='instructions-image'>","","instructions","","","","","","","","","","","","","",""
"learning-instructions","7","62969","0.0-3.0-1.0-0.3","spark_pilot_2","7961","8","14","Male","","","","","","","962.7000000476837","<p> In each round, you will search for treasure in a different place. In the real game, there will be two rounds. </p>
            <p> You will begin with a separate, practice round where you will search for treasure in outer space. </p>
            <img src='./assets/img/space/0.jpg' class='instructions-image'>","","instructions","","","","","","","","","","","","","",""
"learning-instructions","8","76017","0.0-3.0-1.0-0.4","spark_pilot_2","7961","8","14","Male","","","","","","","1651.300000011921","<p> On every turn, you will see a picture of the place that you are in, but the specific image may be different each time. </p>
            <p> For example, both of these images mean you are in outer space. </p>
            <img src='./assets/img/instructions/outerspace.jpg' class='instructions-image'>","","instructions","","","","","","","","","","","","","",""
"learning-instructions","9","85089","0.0-3.0-1.0-0.5","spark_pilot_2","7961","8","14","Male","","","","","","","1264.2999999523163","<p> You need to decide which direction to travel in. </p>
            <p> You can choose between going <b>up or down</b> by using the arrow keys. </p>
            <img src='./assets/img/instructions/updown.jpg' class='instructions-image'>","","instructions","","","","","","","","","","","","","",""
"learning-instructions","10","94712","0.0-3.0-1.0-0.6","spark_pilot_2","7961","8","14","Male","","","","","","","827.4000000357628","<p> You will have <b>2 seconds</b> to make your choice. </p>
            <p> If you do not make a choice within 2 seconds, you will not find an animal or earn treasure. </p>
            <img src='./assets/img/instructions/2seconds.jpg' class='instructions-image'>","","instructions","","","","","","","","","","","","","",""
"learning-instructions","11","102785","0.0-3.0-1.0-0.7","spark_pilot_2","7961","8","14","Male","","","","","","","1048.699999988079","<p> Let’s try practicing that now! </p>
            <p> When you see a picture of the place you are in, press the <b>up</b> key to travel up. </p>
            <img src='./assets/img/instructions/pressUp.jpg' class='instructions-image'>","","instructions","","","","","","","","","","","","","",""
"revaluation","12","106810","0.0-3.0-2.0-0.0","spark_pilot_2","7961","8","14","Male","","false","","","","","[1001.6000000238419]","./assets/img/space/0.jpg","[""ArrowUp""]","first stage practice","space","0","null","null","ArrowUp","false","","","","","","","",""
"html-keyboard-response","13","107313","0.0-3.0-2.0-1.0","spark_pilot_2","7961","8","14","Male","","","","","","","null","<div style=""font-size:60px;"">+</div>","null","fixation","","","","","","","","","","","","","",""
"revaluation","14","111334","0.0-3.0-2.0-0.1","spark_pilot_2","7961","8","14","Male","","false","","","","","[667.3999999761581]","./assets/img/space/1.jpg","[""ArrowUp""]","first stage practice","space","0","null","null","ArrowUp","false","","","","","","","",""
"html-keyboard-response","15","111849","0.0-3.0-2.0-1.1","spark_pilot_2","7961","8","14","Male","","","","","","","null","<div style=""font-size:60px;"">+</div>","null","fixation","","","","","","","","","","","","","",""
"revaluation","16","115865","0.0-3.0-2.0-0.2","spark_pilot_2","7961","8","14","Male","","false","","","","","[373.0999999642372]","./assets/img/space/2.jpg","[""ArrowUp""]","first stage practice","space","0","null","null","ArrowUp","false","","","","","","","",""
"html-keyboard-response","17","116378","0.0-3.0-2.0-1.2","spark_pilot_2","7961","8","14","Male","","","","","","","null","<div style=""font-size:60px;"">+</div>","null","fixation","","","","","","","","","","","","","",""
"learning-instructions","18","123809","0.0-3.0-3.0-0.0","spark_pilot_2","7961","8","14","Male","","","","","","","2742.5","<p> Great job! Now try pressing the <b>down</b> key to travel down. </p>
            <img src='./assets/img/instructions/pressDown.jpg' class='instructions-image'>","","instructions","","","","","","","","","","","","","",""
"revaluation","19","127816","0.0-3.0-4.0-0.0","spark_pilot_2","7961","8","14","Male","","false","","","","","[2.899999976158142]","./assets/img/space/3.jpg","[""ArrowDown""]","first stage practice","space","0","null","null","ArrowDown","false","","","","","","","",""
"html-keyboard-response","20","128331","0.0-3.0-4.0-1.0","spark_pilot_2","7961","8","14","Male","","","","","","","null","<div style=""font-size:60px;"">+</div>","null","fixation","","","","","","","","","","","","","",""
"revaluation","21","132345","0.0-3.0-4.0-0.1","spark_pilot_2","7961","8","14","Male","","false","","","","","[35.10000002384186]","./assets/img/space/4.jpg","[""ArrowDown""]","first stage practice","space","0","null","null","ArrowDown","false","","","","","","","",""
"html-keyboard-response","22","132846","0.0-3.0-4.0-1.1","spark_pilot_2","7961","8","14","Male","","","","","","","null","<div style=""font-size:60px;"">+</div>","null","fixation","","","","","","","","","","","","","",""
"revaluation","23","136867","0.0-3.0-4.0-0.2","spark_pilot_2","7961","8","14","Male","","false","","","","","[25.80000001192093]","./assets/img/space/5.jpg","[""ArrowDown""]","first stage practice","space","0","null","null","ArrowDown","false","","","","","","","",""
"html-keyboard-response","24","137379","0.0-3.0-4.0-1.2","spark_pilot_2","7961","8","14","Male","","","","","","","null","<div style=""font-size:60px;"">+</div>","null","fixation","","","","","","","","","","","","","",""
"learning-instructions","25","148754","0.0-3.0-5.0-0.0","spark_pilot_2","7961","8","14","Male","","","","","","","1536.699999988079","<p> The animals don’t move, so the animal in the upper part of a place will stay in the upper part of a place, and the animal in the lower part of a place will stay in the lower part of a place. </p>","","instructions","","","","","","","","","","","","","",""
"learning-instructions","26","161777","0.0-3.0-5.0-0.1","spark_pilot_2","7961","8","14","Male","","","","","","","3900.699999988079","<p> Each animal has two treasure chests for you to choose from. </p>
            <p> The amount of treasure in each chest can range from <b> 0 to 40 pieces.</b></p>","","instructions","","","","","","","","","","","","","",""
"learning-instructions","27","175289","0.0-3.0-5.0-0.2","spark_pilot_2","7961","8","14","Male","","","","","","","2333.400000035763","<p> You should decide which chest to search for treasure by using the <b>left</b> and <b>right</b> arrow keys. </p>
            <p><b> Pay attention to which animal is on the screen, as the animals have different treasure chests. </b></p>
            <img src='./assets/img/instructions/leftright.jpg' class='instructions-image'>","","instructions","","","","","","","","","","","","","",""
"learning-instructions","28","184265","0.0-3.0-5.0-0.3","spark_pilot_2","7961","8","14","Male","","","","","","","2618","<p> Let’s try practicing that now. </p>
            <p> When you see an animal, choose which chest to search for treasure. </p>
            <img src='./assets/img/instructions/chooseChest.jpg' class='instructions-image'>","","instructions","","","","","","","","","","","","","",""
"revaluation","29","188283","0.0-3.0-6.0-0.0","spark_pilot_2","7961","8","14","Male","","false","","","","","[854.8999999761581]","./assets/img/space/animals/rabbit.jpg","[""ArrowLeft""]","second stage practice","space","15","{""ArrowUp,ArrowLeft"":3,""ArrowUp,ArrowRight"":36,""ArrowDown,ArrowLeft"":15,""ArrowDown,ArrowRight"":23}","false","ArrowDown,ArrowLeft","","","","","","","","",""
"html-keyboard-response","30","188799","0.0-3.0-6.0-1.0","spark_pilot_2","7961","8","14","Male","","","","","","","null","<div style=""font-size:60px;"">+</div>","null","fixation","","","","","","","","","","","","","",""
"revaluation","31","192824","0.0-3.0-6.0-0.1","spark_pilot_2","7961","8","14","Male","","false","","","","","[608.8999999761581]","./assets/img/space/animals/cat.jpg","[""ArrowRight""]","second stage practice","space","36","{""ArrowUp,ArrowLeft"":3,""ArrowUp,ArrowRight"":36,""ArrowDown,ArrowLeft"":15,""ArrowDown,ArrowRight"":23}","true","ArrowUp,ArrowRight","","","","","","","","",""
"html-keyboard-response","32","193329","0.0-3.0-6.0-1.1","spark_pilot_2","7961","8","14","Male","","","","","","","null","<div style=""font-size:60px;"">+</div>","null","fixation","","","","","","","","","","","","","",""
"revaluation","33","197352","0.0-3.0-6.0-0.2","spark_pilot_2","7961","8","14","Male","","false","","","","","[1053.6000000238419]","./assets/img/space/animals/rabbit.jpg","[""ArrowRight""]","second stage practice","space","23","{""ArrowUp,ArrowLeft"":3,""ArrowUp,ArrowRight"":36,""ArrowDown,ArrowLeft"":15,""ArrowDown,ArrowRight"":23}","true","ArrowDown,ArrowRight","","","","","","","","",""
"html-keyboard-response","34","197863","0.0-3.0-6.0-1.2","spark_pilot_2","7961","8","14","Male","","","","","","","null","<div style=""font-size:60px;"">+</div>","null","fixation","","","","","","","","","","","","","",""
"revaluation","35","201884","0.0-3.0-6.0-0.3","spark_pilot_2","7961","8","14","Male","","false","","","","","[407.2999999523163]","./assets/img/space/animals/cat.jpg","[""ArrowRight""]","second stage practice","space","36","{""ArrowUp,ArrowLeft"":3,""ArrowUp,ArrowRight"":36,""ArrowDown,ArrowLeft"":15,""ArrowDown,ArrowRight"":23}","true","ArrowUp,ArrowRight","","","","","","","","",""
"html-keyboard-response","36","202397","0.0-3.0-6.0-1.3","spark_pilot_2","7961","8","14","Male","","","","","","","null","<div style=""font-size:60px;"">+</div>","null","fixation","","","","","","","","","","","","","",""
"learning-instructions","37","220593","0.0-3.0-7.0-0.0","spark_pilot_2","7961","8","14","Male","","","","","","","1317.7999999523163","<p> Great job. Now let’s try putting it together. </p>
            <p> On each turn, you will first see a picture to remind you of the place you are in, and you need to choose whether to go up or down. </p>
            <p> Then you will see an animal and choose which of its chests to search for treasure. </p>","","instructions","","","","","","","","","","","","","",""
"learning-instructions","38","230585","0.0-3.0-7.0-0.1","spark_pilot_2","7961","8","14","Male","","","","","","","1739.199999988079","<p> When you choose whether to go up or down, try to go to the animal with the chest with the most treasure. </p>
            <p> Try practicing that now! </p>","","instructions","","","","","","","","","","","","","",""
"revaluation","39","236613","0.0-3.0-8.0-0.0","spark_pilot_2","7961","8","14","Male","","false","","","","","[742.9000000357628,425.39999997615814]","./assets/img/space/6.jpg","[""ArrowUp"",""ArrowRight""]","full practice","space","36","{""ArrowUp,ArrowLeft"":3,""ArrowUp,ArrowRight"":36,""ArrowDown,ArrowLeft"":15,""ArrowDown,ArrowRight"":23}","true","ArrowUp,ArrowRight","false","","","","","","","",""
"html-keyboard-response","40","237130","0.0-3.0-8.0-1.0","spark_pilot_2","7961","8","14","Male","","","","","","","null","<div style=""font-size:60px;"">+</div>","null","fixation","","","","","","","","","","","","","",""
"revaluation","41","243152","0.0-3.0-8.0-0.1","spark_pilot_2","7961","8","14","Male","","false","","","","","[308.7999999523163,392.5999999642372]","./assets/img/space/7.jpg","[""ArrowUp"",""ArrowRight""]","full practice","space","36","{""ArrowUp,ArrowLeft"":3,""ArrowUp,ArrowRight"":36,""ArrowDown,ArrowLeft"":15,""ArrowDown,ArrowRight"":23}","true","ArrowUp,ArrowRight","false","","","","","","","",""
"html-keyboard-response","42","243663","0.0-3.0-8.0-1.1","spark_pilot_2","7961","8","14","Male","","","","","","","null","<div style=""font-size:60px;"">+</div>","null","fixation","","","","","","","","","","","","","",""
"revaluation","43","249700","0.0-3.0-8.0-0.2","spark_pilot_2","7961","8","14","Male","","false","","","","","[527.9000000357628,503.7000000476837]","./assets/img/space/8.jpg","[""ArrowUp"",""ArrowRight""]","full practice","space","36","{""ArrowUp,ArrowLeft"":3,""ArrowUp,ArrowRight"":36,""ArrowDown,ArrowLeft"":15,""ArrowDown,ArrowRight"":23}","true","ArrowUp,ArrowRight","false","","","","","","","",""
"html-keyboard-response","44","250214","0.0-3.0-8.0-1.2","spark_pilot_2","7961","8","14","Male","","","","","","","null","<div style=""font-size:60px;"">+</div>","null","fixation","","","","","","","","","","","","","",""
"revaluation","45","256246","0.0-3.0-8.0-0.3","spark_pilot_2","7961","8","14","Male","","false","","","","","[152.70000004768372,418.19999998807907]","./assets/img/space/9.jpg","[""ArrowUp"",""ArrowRight""]","full practice","space","36","{""ArrowUp,ArrowLeft"":3,""ArrowUp,ArrowRight"":36,""ArrowDown,ArrowLeft"":15,""ArrowDown,ArrowRight"":23}","true","ArrowUp,ArrowRight","false","","","","","","","",""
"html-keyboard-response","46","256747","0.0-3.0-8.0-1.3","spark_pilot_2","7961","8","14","Male","","","","","","","null","<div style=""font-size:60px;"">+</div>","null","fixation","","","","","","","","","","","","","",""
"revaluation","47","262761","0.0-3.0-8.0-0.4","spark_pilot_2","7961","8","14","Male","","false","","","","","[116,444.60000002384186]","./assets/img/space/10.jpg","[""ArrowUp"",""ArrowRight""]","full practice","space","36","{""ArrowUp,ArrowLeft"":3,""ArrowUp,ArrowRight"":36,""ArrowDown,ArrowLeft"":15,""ArrowDown,ArrowRight"":23}","true","ArrowUp,ArrowRight","false","","","","","","","",""
"html-keyboard-response","48","263263","0.0-3.0-8.0-1.4","spark_pilot_2","7961","8","14","Male","","","","","","","null","<div style=""font-size:60px;"">+</div>","null","fixation","","","","","","","","","","","","","",""
"learning-instructions","49","274328","0.0-3.0-9.0-0.0","spark_pilot_2","7961","8","14","Male","","","","","","","781.1999999880791","<p> One last thing: sometimes, you will see a robber. The robber can be anywhere in the picture. </p>
            <p> If you do not stop them, you will lose treasure. </p>
            <img src='./assets/img/instructions/robber.jpg' class='instructions-image'>","","instructions","","","","","","","","","","","","","",""
"learning-instructions","50","282513","0.0-3.0-9.0-0.1","spark_pilot_2","7961","8","14","Male","","","","","","","1033.300000011921","<p> If you see the robber, you should <b>press the space bar</b> rather than using the arrow keys. </p>
            <p> Try practicing that now! </p>","","instructions","","","","","","","","","","","","","",""
"revaluation","51","286534","0.0-3.0-10.0-0.0","spark_pilot_2","7961","8","14","Male","","false","","","","","[815.3999999761581]","./assets/img/space/catch/0.jpg","[""spaceBar""]","catch practice","space","0","{""ArrowUp,ArrowLeft"":3,""ArrowUp,ArrowRight"":36,""ArrowDown,ArrowLeft"":15,""ArrowDown,ArrowRight"":23}","true","spaceBar","true","","","","","","","",""
"html-keyboard-response","52","287047","0.0-3.0-10.0-1.0","spark_pilot_2","7961","8","14","Male","","","","","","","null","<div style=""font-size:60px;"">+</div>","null","fixation","","","","","","","","","","","","","",""
"revaluation","53","291063","0.0-3.0-10.0-0.1","spark_pilot_2","7961","8","14","Male","","false","","","","","[888.1999999880791]","./assets/img/space/catch/1.jpg","[""spaceBar""]","catch practice","space","0","{""ArrowUp,ArrowLeft"":3,""ArrowUp,ArrowRight"":36,""ArrowDown,ArrowLeft"":15,""ArrowDown,ArrowRight"":23}","true","spaceBar","true","","","","","","","",""
"html-keyboard-response","54","291574","0.0-3.0-10.0-1.1","spark_pilot_2","7961","8","14","Male","","","","","","","null","<div style=""font-size:60px;"">+</div>","null","fixation","","","","","","","","","","","","","",""
"revaluation","55","295591","0.0-3.0-10.0-0.2","spark_pilot_2","7961","8","14","Male","","false","","","","","[617.1000000238419]","./assets/img/space/catch/2.jpg","[""spaceBar""]","catch practice","space","0","{""ArrowUp,ArrowLeft"":3,""ArrowUp,ArrowRight"":36,""ArrowDown,ArrowLeft"":15,""ArrowDown,ArrowRight"":23}","true","spaceBar","true","","","","","","","",""
"html-keyboard-response","56","296107","0.0-3.0-10.0-1.2","spark_pilot_2","7961","8","14","Male","","","","","","","null","<div style=""font-size:60px;"">+</div>","null","fixation","","","","","","","","","","","","","",""
"learning-instructions","57","312009","0.0-3.0-11.0-0.0","spark_pilot_2","7961","8","14","Male","","","","","","","2330.5","<p> After you explore a place to find treasure, it will be time to play a different game. </p>
            <p> During this game, red dots will appear on the screen and fall down slowly. </p>
            <p><b> You must click on them before they reach the bottom. </b></p>
            <img src='./assets/img/instructions/dotGame.jpg' class='instructions-image'>","","instructions","","","","","","","","","","","","","",""
"learning-instructions","58","320313","0.0-3.0-11.0-0.1","spark_pilot_2","7961","8","14","Male","","","","","","","2644.400000035763","<p> For every dot you click, you will earn additional treasure. </p>
            <p> Let’s try practicing that now. </p>","","instructions","","","","","","","","","","","","","",""
"revaluation","59","335320","0.0-3.0-12.0-0.0","spark_pilot_2","7961","8","14","Male","","","","","","","[67]","","","rest practice","","10","","","","","0","15000","","","","","",""
"learning-instructions","60","342801","0.0-3.0-13.0-0.0-0.0","spark_pilot_2","7961","8","14","Male","","","","","","","2242.5","<p> Now, you will practice a shortened version of the game to get a sense of how it all fits together. </p>","","instructions","","","","","","","","","","","","","",""
"learning-instructions","61","347345","0.0-3.0-13.0-0.0-0.1","spark_pilot_2","7961","8","14","Male","","","","","","","1367.300000011921","<p>This time you are searching for treasure in outer space.</p>","","instructions","","","","","","","","","","","","","",""
"learning-instructions","62","362577","0.0-3.0-13.0-1.0-0.0","spark_pilot_2","7961","8","14","Male","","","","","","","480","<p> Remember, when you see a picture of the place, use the up and down keys to <b>find an animal</b>.</p>
            <p> When you encounter an animal, you should use the left and right keys to <b>select a treasure chest</b>.</p>
            <p> Don't forget to look out for the robber! </p>","","instructions","","","","","","","","","","","","","",""
"revaluation","63","368618","0.0-3.0-13.0-2.0-0.0","spark_pilot_2","7961","8","14","Male","","false","","","","","[1407.300000011921,929.3000000119209]","./assets/img/space/11.jpg","[""ArrowUp"",""ArrowRight""]","practice block","space","36","{""ArrowUp,ArrowLeft"":3,""ArrowUp,ArrowRight"":36,""ArrowDown,ArrowLeft"":15,""ArrowDown,ArrowRight"":23}","true","ArrowUp,ArrowRight","false","","","","","","","",""
"html-keyboard-response","64","369132","0.0-3.0-13.0-2.0-1.0","spark_pilot_2","7961","8","14","Male","","","","","","","null","<div style=""font-size:60px;"">+</div>","null","fixation","","","","","","","","","","","","","",""
"revaluation","65","375151","0.0-3.0-13.0-2.0-0.1","spark_pilot_2","7961","8","14","Male","","false","","","","","[611,1065.3999999761581]","./assets/img/space/12.jpg","[""ArrowUp"",""ArrowRight""]","practice block","space","36","{""ArrowUp,ArrowLeft"":3,""ArrowUp,ArrowRight"":36,""ArrowDown,ArrowLeft"":15,""ArrowDown,ArrowRight"":23}","true","ArrowUp,ArrowRight","false","","","","","","","",""
"html-keyboard-response","66","375663","0.0-3.0-13.0-2.0-1.1","spark_pilot_2","7961","8","14","Male","","","","","","","null","<div style=""font-size:60px;"">+</div>","null","fixation","","","","","","","","","","","","","",""
"revaluation","67","381695","0.0-3.0-13.0-2.0-0.2","spark_pilot_2","7961","8","14","Male","","false","","","","","[1071.5,411.30000001192093]","./assets/img/space/13.jpg","[""ArrowUp"",""ArrowRight""]","practice block","space","36","{""ArrowUp,ArrowLeft"":3,""ArrowUp,ArrowRight"":36,""ArrowDown,ArrowLeft"":15,""ArrowDown,ArrowRight"":23}","true","ArrowUp,ArrowRight","false","","","","","","","",""
"html-keyboard-response","68","382197","0.0-3.0-13.0-2.0-1.2","spark_pilot_2","7961","8","14","Male","","","","","","","null","<div style=""font-size:60px;"">+</div>","null","fixation","","","","","","","","","","","","","",""
"revaluation","69","388233","0.0-3.0-13.0-2.0-0.3","spark_pilot_2","7961","8","14","Male","","false","","","","","[1240.3999999761581,377.69999998807907]","./assets/img/space/14.jpg","[""ArrowUp"",""ArrowRight""]","practice block","space","36","{""ArrowUp,ArrowLeft"":3,""ArrowUp,ArrowRight"":36,""ArrowDown,ArrowLeft"":15,""ArrowDown,ArrowRight"":23}","true","ArrowUp,ArrowRight","false","","","","","","","",""
"html-keyboard-response","70","388744","0.0-3.0-13.0-2.0-1.3","spark_pilot_2","7961","8","14","Male","","","","","","","null","<div style=""font-size:60px;"">+</div>","null","fixation","","","","","","","","","","","","","",""
"revaluation","71","394771","0.0-3.0-13.0-2.0-0.4","spark_pilot_2","7961","8","14","Male","","false","","","","","[1303.5,923.7000000476837]","./assets/img/space/11.jpg","[""ArrowUp"",""ArrowRight""]","practice block","space","36","{""ArrowUp,ArrowLeft"":3,""ArrowUp,ArrowRight"":36,""ArrowDown,ArrowLeft"":15,""ArrowDown,ArrowRight"":23}","true","ArrowUp,ArrowRight","false","","","","","","","",""
"html-keyboard-response","72","395272","0.0-3.0-13.0-2.0-1.4","spark_pilot_2","7961","8","14","Male","","","","","","","null","<div style=""font-size:60px;"">+</div>","null","fixation","","","","","","","","","","","","","",""
"revaluation","73","401280","0.0-3.0-13.0-2.0-0.5","spark_pilot_2","7961","8","14","Male","","false","","","","","[916.8999999761581,436.30000001192093]","./assets/img/space/12.jpg","[""ArrowUp"",""ArrowRight""]","practice block","space","36","{""ArrowUp,ArrowLeft"":3,""ArrowUp,ArrowRight"":36,""ArrowDown,ArrowLeft"":15,""ArrowDown,ArrowRight"":23}","true","ArrowUp,ArrowRight","false","","","","","","","",""
"html-keyboard-response","74","401782","0.0-3.0-13.0-2.0-1.5","spark_pilot_2","7961","8","14","Male","","","","","","","null","<div style=""font-size:60px;"">+</div>","null","fixation","","","","","","","","","","","","","",""
"revaluation","75","407797","0.0-3.0-13.0-2.0-0.6","spark_pilot_2","7961","8","14","Male","","false","","","","","[1272.2000000476837,733.6999999880791]","./assets/img/space/13.jpg","[""ArrowUp"",""ArrowRight""]","practice block","space","36","{""ArrowUp,ArrowLeft"":3,""ArrowUp,ArrowRight"":36,""ArrowDown,ArrowLeft"":15,""ArrowDown,ArrowRight"":23}","true","ArrowUp,ArrowRight","false","","","","","","","",""
"html-keyboard-response","76","408299","0.0-3.0-13.0-2.0-1.6","spark_pilot_2","7961","8","14","Male","","","","","","","null","<div style=""font-size:60px;"">+</div>","null","fixation","","","","","","","","","","","","","",""
"revaluation","77","414303","0.0-3.0-13.0-2.0-0.7","spark_pilot_2","7961","8","14","Male","","false","","","","","[1283.800000011921,690.5999999642372]","./assets/img/space/14.jpg","[""ArrowUp"",""ArrowRight""]","practice block","space","36","{""ArrowUp,ArrowLeft"":3,""ArrowUp,ArrowRight"":36,""ArrowDown,ArrowLeft"":15,""ArrowDown,ArrowRight"":23}","true","ArrowUp,ArrowRight","false","","","","","","","",""
"html-keyboard-response","78","414809","0.0-3.0-13.0-2.0-1.7","spark_pilot_2","7961","8","14","Male","","","","","","","null","<div style=""font-size:60px;"">+</div>","null","fixation","","","","","","","","","","","","","",""
"revaluation","79","418814","0.0-3.0-13.0-2.0-0.8","spark_pilot_2","7961","8","14","Male","","false","","","","","[885.1999999880791]","./assets/img/space/catch/3.jpg","[""spaceBar""]","practice block","space","0","{""ArrowUp,ArrowLeft"":3,""ArrowUp,ArrowRight"":36,""ArrowDown,ArrowLeft"":15,""ArrowDown,ArrowRight"":23}","true","spaceBar","true","","","","","","","",""
"html-keyboard-response","80","419315","0.0-3.0-13.0-2.0-1.8","spark_pilot_2","7961","8","14","Male","","","","","","","null","<div style=""font-size:60px;"">+</div>","null","fixation","","","","","","","","","","","","","",""
"learning-instructions","81","433840","0.0-3.0-13.0-3.0-0.0","spark_pilot_2","7961","8","14","Male","","","","","","","1579.3999999761581","<p> Now, you will travel with a friend who will choose whether you go up or down first. </p>
            <p> On these turns, you will just see the animal that they found. You will still get to choose which chest to search for treasure.</p>","","instructions","","","","","","","","","","","","","",""
"revaluation","82","437857","0.0-3.0-13.0-4.0-0.0","spark_pilot_2","7961","8","14","Male","","false","","","","","[688.0999999642372]","./assets/img/space/animals/cat.jpg","[""ArrowRight""]","practice block","space","36","{""ArrowUp,ArrowLeft"":3,""ArrowUp,ArrowRight"":36,""ArrowDown,ArrowLeft"":15,""ArrowDown,ArrowRight"":23}","true","ArrowUp,ArrowRight","","","","","","","","",""
"html-keyboard-response","83","438360","0.0-3.0-13.0-4.0-1.0","spark_pilot_2","7961","8","14","Male","","","","","","","null","<div style=""font-size:60px;"">+</div>","null","fixation","","","","","","","","","","","","","",""
"revaluation","84","442379","0.0-3.0-13.0-4.0-0.1","spark_pilot_2","7961","8","14","Male","","false","","","","","[821.3999999761581]","./assets/img/space/animals/rabbit.jpg","[""ArrowRight""]","practice block","space","23","{""ArrowUp,ArrowLeft"":3,""ArrowUp,ArrowRight"":36,""ArrowDown,ArrowLeft"":15,""ArrowDown,ArrowRight"":23}","true","ArrowDown,ArrowRight","","","","","","","","",""
"html-keyboard-response","85","442894","0.0-3.0-13.0-4.0-1.1","spark_pilot_2","7961","8","14","Male","","","","","","","null","<div style=""font-size:60px;"">+</div>","null","fixation","","","","","","","","","","","","","",""
"revaluation","86","446909","0.0-3.0-13.0-4.0-0.2","spark_pilot_2","7961","8","14","Male","","false","","","","","[479.30000001192093]","./assets/img/space/animals/cat.jpg","[""ArrowRight""]","practice block","space","36","{""ArrowUp,ArrowLeft"":3,""ArrowUp,ArrowRight"":36,""ArrowDown,ArrowLeft"":15,""ArrowDown,ArrowRight"":23}","true","ArrowUp,ArrowRight","","","","","","","","",""
"html-keyboard-response","87","447410","0.0-3.0-13.0-4.0-1.2","spark_pilot_2","7961","8","14","Male","","","","","","","null","<div style=""font-size:60px;"">+</div>","null","fixation","","","","","","","","","","","","","",""
"revaluation","88","451435","0.0-3.0-13.0-4.0-0.3","spark_pilot_2","7961","8","14","Male","","false","","","","","[556.3000000119209]","./assets/img/space/animals/rabbit.jpg","[""ArrowLeft""]","practice block","space","15","{""ArrowUp,ArrowLeft"":3,""ArrowUp,ArrowRight"":36,""ArrowDown,ArrowLeft"":15,""ArrowDown,ArrowRight"":23}","false","ArrowDown,ArrowLeft","","","","","","","","",""
"html-keyboard-response","89","451947","0.0-3.0-13.0-4.0-1.3","spark_pilot_2","7961","8","14","Male","","","","","","","null","<div style=""font-size:60px;"">+</div>","null","fixation","","","","","","","","","","","","","",""
"learning-instructions","90","460256","0.0-3.0-13.0-5.0-0.0","spark_pilot_2","7961","8","14","Male","","","","","","","955.5999999642372","<p> Time to play the dot game! </p>
            <p> For 15 seconds, click the red dots on the following screen as they appear. </p>","","instructions","","","","","","","","","","","","","",""
"revaluation","91","475258","0.0-3.0-13.0-6.0-0.0","spark_pilot_2","7961","8","14","Male","","","","","","","[43]","","","rest practice","","10","","","","","0","15000","","","","","",""
"learning-instructions","92","483936","0.0-3.0-13.0-7.0-0.0","spark_pilot_2","7961","8","14","Male","","","","","","","2557.100000023842","<p> You have almost finished this part of the game! </p>
            <p> We are going to ask you to make a few more choices. </p>","","instructions","","","","","","","","","","","","","",""
"learning-instructions","93","500088","0.0-3.0-13.0-7.0-0.1","spark_pilot_2","7961","8","14","Male","","","","","","","2158.399999976158","<p> First, you need to decide whether to go up or down. When you see each picture, use the arrow keys to make your choice. </p>
            <p><b>You will not see which animal you found, but try to get to the one that will give you the most treasure.</b></p>","","instructions","","","","","","","","","","","","","",""
"revaluation","94","500960","0.0-3.0-13.0-8.0","spark_pilot_2","7961","8","14","Male","","false","","","","","[871.6000000238419]","./assets/img/space/15.jpg","[""ArrowUp""]","practice block","space","0","{""ArrowUp,ArrowLeft"":3,""ArrowUp,ArrowRight"":36,""ArrowDown,ArrowLeft"":15,""ArrowDown,ArrowRight"":23}","true","ArrowUp","false","","","","","","","",""
"html-keyboard-response","95","501463","0.0-3.0-13.0-9.0","spark_pilot_2","7961","8","14","Male","","","","","","","null","<div style=""font-size:60px;"">+</div>","null","fixation","","","","","","","","","","","","","",""
"learning-instructions","96","513328","0.0-3.0-13.0-10.0-0.0","spark_pilot_2","7961","8","14","Male","","","","","","","508.9000000357628","<p> Now you will see the animals again and can search their chests for treasure. </p>
            <p> This time, you will not see how much treasure you earned, but you will earn more bonus money for making better choices. </p>","","instructions","","","","","","","","","","","","","",""
"revaluation","97","514240","0.0-3.0-13.0-11.0-0.0","spark_pilot_2","7961","8","14","Male","","false","","","","","[911]","./assets/img/space/animals/cat.jpg","[""ArrowRight""]","practice block","space","0","{""ArrowUp,ArrowLeft"":3,""ArrowUp,ArrowRight"":36,""ArrowDown,ArrowLeft"":15,""ArrowDown,ArrowRight"":23}","true","ArrowUp,ArrowRight","","","","","","","","",""
"html-keyboard-response","98","514746","0.0-3.0-13.0-11.0-1.0","spark_pilot_2","7961","8","14","Male","","","","","","","null","<div style=""font-size:60px;"">+</div>","null","fixation","","","","","","","","","","","","","",""
"revaluation","99","515392","0.0-3.0-13.0-11.0-0.1","spark_pilot_2","7961","8","14","Male","","false","","","","","[641.5999999642372]","./assets/img/space/animals/rabbit.jpg","[""ArrowRight""]","practice block","space","0","{""ArrowUp,ArrowLeft"":3,""ArrowUp,ArrowRight"":36,""ArrowDown,ArrowLeft"":15,""ArrowDown,ArrowRight"":23}","true","ArrowDown,ArrowRight","","","","","","","","",""
"html-keyboard-response","100","515894","0.0-3.0-13.0-11.0-1.1","spark_pilot_2","7961","8","14","Male","","","","","","","null","<div style=""font-size:60px;"">+</div>","null","fixation","","","","","","","","","","","","","",""
"learning-instructions","101","521920","0.0-3.0-14.0-0.0","spark_pilot_2","7961","8","14","Male","","","","","","","1382","<p> Before you start, we're going to ask you a few questions about how the game works. </p>","","instructions","","","","","","","","","","","","","",""
"comp-q","102","528584","0.0-3.0-15.0-0.0-0.0","spark_pilot_2","7961","8","14","Male","","","","","","","1091.800000011921","<p> <b> True or False? </b> </p>
            <p> There can be 50 pieces of treasure in a given animal's chest. </p>","1","comp_question","","","","true","","","","","","","","","",""
"comp-q","103","536064","0.0-3.0-15.0-0.0-1.0","spark_pilot_2","7961","8","14","Male","","","","","","","833.7000000476837","<p> <b> That's right! </b> The amount of treasure in each chest can range from 0 to 40 pieces. </p>","0","comp_answer","","","","","","","","","","","","","",""
"comp-q","104","544584","0.0-3.0-15.0-0.1-0.1","spark_pilot_2","7961","8","14","Male","","","","","","","1415.300000011921","<p> <b> True or False? </b> </p><p> In this game, all animals have the same amount of treasure in their left and right chests. </p>","1","comp_question","","","","true","","","","","","","","","",""
"comp-q","105","551087","0.0-3.0-15.0-0.1-1.1","spark_pilot_2","7961","8","14","Male","","","","","","","1279","<p> <b> That's right! </b> Animals have different amounts of treasure in their treasure chests. </p>","0","comp_answer","","","","","","","","","","","","","",""
"comp-q","106","558128","0.0-3.0-15.0-0.2-0.2","spark_pilot_2","7961","8","14","Male","","","","","","","1198.8999999761581","<p> <b> True or False? </b> </p><p> The same animal will always be there if you go up in the same place. </p>","0","comp_question","","","","true","","","","","","","","","",""
"comp-q","107","566223","0.0-3.0-15.0-0.2-1.2","spark_pilot_2","7961","8","14","Male","","","","","","","1654.300000011921","<p> <b> That's right! </b> One animal lives in the upper part and one lives in the lower part of every place. </p>","0","comp_answer","","","","","","","","","","","","","",""
"comp-q","108","575257","0.0-3.0-15.0-0.3-0.3","spark_pilot_2","7961","8","14","Male","","","","","","","3515.800000011921","<p> <b> True or False? </b> </p><p> If you see a different picture, it means you are in a new place. </p>","1","comp_question","","","","true","","","","","","","","","",""
"comp-q","109","589240","0.0-3.0-15.0-0.3-1.3","spark_pilot_2","7961","8","14","Male","","","","","","","2769.399999976158","<p> <b> That's right! </b> Lots of different images may show the same place. For example,  you may see three different images that all remind you that you are in outer space. </p>","0","comp_answer","","","","","","","","","","","","","",""
"learning-instructions","110","601264","0.0-3.0-16.0-0.0","spark_pilot_2","7961","8","14","Male","","","","","","","2194.5","<p> Good job. Remember to do your best because the amount of treasure you earn will be converted into bonus money. </p>
            <p> It’s time to start the real game! </p>","","instructions","","","","","","","","","","","","","",""
"learning-instructions","111","606168","0.0-4.0-0.0-0.0","spark_pilot_2","7961","8","14","Male","","","","","","","2137.399999976158","<p> This time you are searching for treasure in the <b>canyon</b>.</p>","","instructions","","","","","","","","","","","","","",""
"learning-instructions","112","624905","0.0-4.0-0.0-0.1","spark_pilot_2","7961","8","14","Male","","","","","","","1455.699999988079","<p><b>New</b> animals with <b>new</b> treasure chests live here. You need to explore to discover where the animal with the best treasure chest is.</p>
                    <p> Like before, once you figure out which animal has the chest with the most treasure, you should try to get to that animal and select that chest! </p>","","instructions","","","","","","","","","","","","","",""
"learning-instructions","113","643328","0.0-4.0-1.0-0.0","spark_pilot_2","7961","8","14","Male","","","","","","","3697.699999988079","<p> Remember, when you see a picture of the place, use the up and down keys to <b>find an animal</b>.</p>
            <p> When you encounter an animal, you should use the left and right keys to <b>select a treasure chest</b>.</p>
            <p> Don't forget to look out for the robber! </p>","","instructions","","","","","","","","","","","","","",""
"revaluation","114","647347","0.0-4.0-2.0-0.0","spark_pilot_2","7961","8","14","Male","","false","","","","","[750.5]","./assets/img/canyon/catch/3.jpg","[""spaceBar""]","value training","canyon","0","{""ArrowUp,ArrowLeft"":26,""ArrowUp,ArrowRight"":10,""ArrowDown,ArrowLeft"":5,""ArrowDown,ArrowRight"":17}","true","spaceBar","true","","","revaluation","1","0","","",""
"html-keyboard-response","115","647863","0.0-4.0-2.0-1.0","spark_pilot_2","7961","8","14","Male","","","","","","","null","<div style=""font-size:60px;"">+</div>","null","fixation","","","","","","","","","","","1","","",""
"revaluation","116","653899","0.0-4.0-2.0-0.1","spark_pilot_2","7961","8","14","Male","","false","","","","","[567.0999999642372,509.5]","./assets/img/canyon/memory/35.jpg","[""ArrowUp"",""ArrowRight""]","value training","canyon","10","{""ArrowUp,ArrowLeft"":26,""ArrowUp,ArrowRight"":10,""ArrowDown,ArrowLeft"":5,""ArrowDown,ArrowRight"":17}","false","ArrowUp,ArrowRight","false","","","revaluation","1","2","","",""
"html-keyboard-response","117","654407","0.0-4.0-2.0-1.1","spark_pilot_2","7961","8","14","Male","","","","","","","null","<div style=""font-size:60px;"">+</div>","null","fixation","","","","","","","","","","","3","","",""
"revaluation","118","660429","0.0-4.0-2.0-0.2","spark_pilot_2","7961","8","14","Male","","false","","","","","[791.0999999642372,724]","./assets/img/canyon/memory/23.jpg","[""ArrowDown"",""ArrowLeft""]","value training","canyon","5","{""ArrowUp,ArrowLeft"":26,""ArrowUp,ArrowRight"":10,""ArrowDown,ArrowLeft"":5,""ArrowDown,ArrowRight"":17}","false","ArrowDown,ArrowLeft","false","","","revaluation","1","4","","",""
"html-keyboard-response","119","660931","0.0-4.0-2.0-1.2","spark_pilot_2","7961","8","14","Male","","","","","","","null","<div style=""font-size:60px;"">+</div>","null","fixation","","","","","","","","","","","5","","",""
"revaluation","120","666967","0.0-4.0-2.0-0.3","spark_pilot_2","7961","8","14","Male","","false","","","","","[602.4000000357628,467.7999999523163]","./assets/img/canyon/memory/22.jpg","[""ArrowUp"",""ArrowLeft""]","value training","canyon","26","{""ArrowUp,ArrowLeft"":26,""ArrowUp,ArrowRight"":10,""ArrowDown,ArrowLeft"":5,""ArrowDown,ArrowRight"":17}","true","ArrowUp,ArrowLeft","false","","","revaluation","1","6","","",""
"html-keyboard-response","121","667480","0.0-4.0-2.0-1.3","spark_pilot_2","7961","8","14","Male","","","","","","","null","<div style=""font-size:60px;"">+</div>","null","fixation","","","","","","","","","","","7","","",""
"revaluation","122","673502","0.0-4.0-2.0-0.4","spark_pilot_2","7961","8","14","Male","","false","","","","","[437.60000002384186,453.5999999642372]","./assets/img/canyon/memory/12.jpg","[""ArrowDown"",""ArrowRight""]","value training","canyon","17","{""ArrowUp,ArrowLeft"":26,""ArrowUp,ArrowRight"":10,""ArrowDown,ArrowLeft"":5,""ArrowDown,ArrowRight"":17}","false","ArrowDown,ArrowRight","false","","","revaluation","1","8","","",""
"html-keyboard-response","123","674004","0.0-4.0-2.0-1.4","spark_pilot_2","7961","8","14","Male","","","","","","","null","<div style=""font-size:60px;"">+</div>","null","fixation","","","","","","","","","","","9","","",""
"revaluation","124","680009","0.0-4.0-2.0-0.5","spark_pilot_2","7961","8","14","Male","","false","","","","","[345.30000001192093,424.9000000357628]","./assets/img/canyon/memory/37.jpg","[""ArrowUp"",""ArrowLeft""]","value training","canyon","26","{""ArrowUp,ArrowLeft"":26,""ArrowUp,ArrowRight"":10,""ArrowDown,ArrowLeft"":5,""ArrowDown,ArrowRight"":17}","true","ArrowUp,ArrowLeft","false","","","revaluation","1","10","","",""
"html-keyboard-response","125","680511","0.0-4.0-2.0-1.5","spark_pilot_2","7961","8","14","Male","","","","","","","null","<div style=""font-size:60px;"">+</div>","null","fixation","","","","","","","","","","","11","","",""
"revaluation","126","686518","0.0-4.0-2.0-0.6","spark_pilot_2","7961","8","14","Male","","false","","","","","[622.8999999761581,428.9000000357628]","./assets/img/canyon/memory/29.jpg","[""ArrowUp"",""ArrowLeft""]","value training","canyon","26","{""ArrowUp,ArrowLeft"":26,""ArrowUp,ArrowRight"":10,""ArrowDown,ArrowLeft"":5,""ArrowDown,ArrowRight"":17}","true","ArrowUp,ArrowLeft","false","","","revaluation","1","12","","",""
"html-keyboard-response","127","687019","0.0-4.0-2.0-1.6","spark_pilot_2","7961","8","14","Male","","","","","","","null","<div style=""font-size:60px;"">+</div>","null","fixation","","","","","","","","","","","13","","",""
"revaluation","128","693025","0.0-4.0-2.0-0.7","spark_pilot_2","7961","8","14","Male","","false","","","","","[642.0999999642372,432.5999999642372]","./assets/img/canyon/memory/2.jpg","[""ArrowUp"",""ArrowLeft""]","value training","canyon","26","{""ArrowUp,ArrowLeft"":26,""ArrowUp,ArrowRight"":10,""ArrowDown,ArrowLeft"":5,""ArrowDown,ArrowRight"":17}","true","ArrowUp,ArrowLeft","false","","","revaluation","1","14","","",""
"html-keyboard-response","129","693535","0.0-4.0-2.0-1.7","spark_pilot_2","7961","8","14","Male","","","","","","","null","<div style=""font-size:60px;"">+</div>","null","fixation","","","","","","","","","","","15","","",""
"revaluation","130","699541","0.0-4.0-2.0-0.8","spark_pilot_2","7961","8","14","Male","","false","","","","","[959.2000000476837,477.60000002384186]","./assets/img/canyon/memory/1.jpg","[""ArrowUp"",""ArrowLeft""]","value training","canyon","26","{""ArrowUp,ArrowLeft"":26,""ArrowUp,ArrowRight"":10,""ArrowDown,ArrowLeft"":5,""ArrowDown,ArrowRight"":17}","true","ArrowUp,ArrowLeft","false","","","revaluation","1","16","","",""
"html-keyboard-response","131","700044","0.0-4.0-2.0-1.8","spark_pilot_2","7961","8","14","Male","","","","","","","null","<div style=""font-size:60px;"">+</div>","null","fixation","","","","","","","","","","","17","","",""
"revaluation","132","706050","0.0-4.0-2.0-0.9","spark_pilot_2","7961","8","14","Male","","false","","","","","[688.4000000357628,528.6999999880791]","./assets/img/canyon/memory/2.jpg","[""ArrowUp"",""ArrowLeft""]","value training","canyon","26","{""ArrowUp,ArrowLeft"":26,""ArrowUp,ArrowRight"":10,""ArrowDown,ArrowLeft"":5,""ArrowDown,ArrowRight"":17}","true","ArrowUp,ArrowLeft","false","","","revaluation","1","18","","",""
"html-keyboard-response","133","706552","0.0-4.0-2.0-1.9","spark_pilot_2","7961","8","14","Male","","","","","","","null","<div style=""font-size:60px;"">+</div>","null","fixation","","","","","","","","","","","19","","",""
"revaluation","134","712557","0.0-4.0-2.0-0.10","spark_pilot_2","7961","8","14","Male","","false","","","","","[709.5,404.69999998807907]","./assets/img/canyon/memory/5.jpg","[""ArrowUp"",""ArrowLeft""]","value training","canyon","26","{""ArrowUp,ArrowLeft"":26,""ArrowUp,ArrowRight"":10,""ArrowDown,ArrowLeft"":5,""ArrowDown,ArrowRight"":17}","true","ArrowUp,ArrowLeft","false","","","revaluation","1","20","","",""
"html-keyboard-response","135","713059","0.0-4.0-2.0-1.10","spark_pilot_2","7961","8","14","Male","","","","","","","null","<div style=""font-size:60px;"">+</div>","null","fixation","","","","","","","","","","","21","","",""
"revaluation","136","719063","0.0-4.0-2.0-0.11","spark_pilot_2","7961","8","14","Male","","false","","","","","[906.0999999642372,409.7999999523163]","./assets/img/canyon/memory/26.jpg","[""ArrowUp"",""ArrowLeft""]","value training","canyon","26","{""ArrowUp,ArrowLeft"":26,""ArrowUp,ArrowRight"":10,""ArrowDown,ArrowLeft"":5,""ArrowDown,ArrowRight"":17}","true","ArrowUp,ArrowLeft","false","","","revaluation","1","22","","",""
"html-keyboard-response","137","719565","0.0-4.0-2.0-1.11","spark_pilot_2","7961","8","14","Male","","","","","","","null","<div style=""font-size:60px;"">+</div>","null","fixation","","","","","","","","","","","23","","",""
"revaluation","138","725573","0.0-4.0-2.0-0.12","spark_pilot_2","7961","8","14","Male","","false","","","","","[719.5,350]","./assets/img/canyon/memory/38.jpg","[""ArrowUp"",""ArrowLeft""]","value training","canyon","26","{""ArrowUp,ArrowLeft"":26,""ArrowUp,ArrowRight"":10,""ArrowDown,ArrowLeft"":5,""ArrowDown,ArrowRight"":17}","true","ArrowUp,ArrowLeft","false","","","revaluation","1","24","","",""
"html-keyboard-response","139","726076","0.0-4.0-2.0-1.12","spark_pilot_2","7961","8","14","Male","","","","","","","null","<div style=""font-size:60px;"">+</div>","null","fixation","","","","","","","","","","","25","","",""
"revaluation","140","730079","0.0-4.0-2.0-0.13","spark_pilot_2","7961","8","14","Male","","false","","","","","[786.9000000357628]","./assets/img/canyon/catch/0.jpg","[""spaceBar""]","value training","canyon","0","{""ArrowUp,ArrowLeft"":26,""ArrowUp,ArrowRight"":10,""ArrowDown,ArrowLeft"":5,""ArrowDown,ArrowRight"":17}","true","spaceBar","true","","","revaluation","1","26","","",""
"html-keyboard-response","141","730582","0.0-4.0-2.0-1.13","spark_pilot_2","7961","8","14","Male","","","","","","","null","<div style=""font-size:60px;"">+</div>","null","fixation","","","","","","","","","","","27","","",""
"revaluation","142","736588","0.0-4.0-2.0-0.14","spark_pilot_2","7961","8","14","Male","","false","","","","","[775.6000000238419,630.1999999880791]","./assets/img/canyon/memory/19.jpg","[""ArrowUp"",""ArrowLeft""]","value training","canyon","26","{""ArrowUp,ArrowLeft"":26,""ArrowUp,ArrowRight"":10,""ArrowDown,ArrowLeft"":5,""ArrowDown,ArrowRight"":17}","true","ArrowUp,ArrowLeft","false","","","revaluation","1","28","","",""
"html-keyboard-response","143","737090","0.0-4.0-2.0-1.14","spark_pilot_2","7961","8","14","Male","","","","","","","null","<div style=""font-size:60px;"">+</div>","null","fixation","","","","","","","","","","","29","","",""
"revaluation","144","743097","0.0-4.0-2.0-0.15","spark_pilot_2","7961","8","14","Male","","false","","","","","[715,362.5]","./assets/img/canyon/memory/18.jpg","[""ArrowUp"",""ArrowLeft""]","value training","canyon","26","{""ArrowUp,ArrowLeft"":26,""ArrowUp,ArrowRight"":10,""ArrowDown,ArrowLeft"":5,""ArrowDown,ArrowRight"":17}","true","ArrowUp,ArrowLeft","false","","","revaluation","1","30","","",""
"html-keyboard-response","145","743599","0.0-4.0-2.0-1.15","spark_pilot_2","7961","8","14","Male","","","","","","","null","<div style=""font-size:60px;"">+</div>","null","fixation","","","","","","","","","","","31","","",""
"revaluation","146","749604","0.0-4.0-2.0-0.16","spark_pilot_2","7961","8","14","Male","","false","","","","","[1102.6000000238419,542.3999999761581]","./assets/img/canyon/memory/37.jpg","[""ArrowUp"",""ArrowLeft""]","value training","canyon","26","{""ArrowUp,ArrowLeft"":26,""ArrowUp,ArrowRight"":10,""ArrowDown,ArrowLeft"":5,""ArrowDown,ArrowRight"":17}","true","ArrowUp,ArrowLeft","false","","","revaluation","1","32","","",""
"html-keyboard-response","147","750106","0.0-4.0-2.0-1.16","spark_pilot_2","7961","8","14","Male","","","","","","","null","<div style=""font-size:60px;"">+</div>","null","fixation","","","","","","","","","","","33","","",""
"revaluation","148","754112","0.0-4.0-2.0-0.17","spark_pilot_2","7961","8","14","Male","","false","","","","","[851]","./assets/img/canyon/catch/5.jpg","[""spaceBar""]","value training","canyon","0","{""ArrowUp,ArrowLeft"":26,""ArrowUp,ArrowRight"":10,""ArrowDown,ArrowLeft"":5,""ArrowDown,ArrowRight"":17}","true","spaceBar","true","","","revaluation","1","34","","",""
"html-keyboard-response","149","754615","0.0-4.0-2.0-1.17","spark_pilot_2","7961","8","14","Male","","","","","","","null","<div style=""font-size:60px;"">+</div>","null","fixation","","","","","","","","","","","35","","",""
"revaluation","150","760620","0.0-4.0-2.0-0.18","spark_pilot_2","7961","8","14","Male","","false","","","","","[646.9000000357628,389.19999998807907]","./assets/img/canyon/memory/13.jpg","[""ArrowUp"",""ArrowLeft""]","value training","canyon","26","{""ArrowUp,ArrowLeft"":26,""ArrowUp,ArrowRight"":10,""ArrowDown,ArrowLeft"":5,""ArrowDown,ArrowRight"":17}","true","ArrowUp,ArrowLeft","false","","","revaluation","1","36","","",""
"html-keyboard-response","151","761122","0.0-4.0-2.0-1.18","spark_pilot_2","7961","8","14","Male","","","","","","","null","<div style=""font-size:60px;"">+</div>","null","fixation","","","","","","","","","","","37","","",""
"revaluation","152","765127","0.0-4.0-2.0-0.19","spark_pilot_2","7961","8","14","Male","","false","","","","","[763.1999999880791]","./assets/img/canyon/catch/6.jpg","[""spaceBar""]","value training","canyon","0","{""ArrowUp,ArrowLeft"":26,""ArrowUp,ArrowRight"":10,""ArrowDown,ArrowLeft"":5,""ArrowDown,ArrowRight"":17}","true","spaceBar","true","","","revaluation","1","38","","",""
"html-keyboard-response","153","765629","0.0-4.0-2.0-1.19","spark_pilot_2","7961","8","14","Male","","","","","","","null","<div style=""font-size:60px;"">+</div>","null","fixation","","","","","","","","","","","39","","",""
"revaluation","154","771637","0.0-4.0-2.0-0.20","spark_pilot_2","7961","8","14","Male","","false","","","","","[799.8000000119209,398]","./assets/img/canyon/memory/12.jpg","[""ArrowUp"",""ArrowLeft""]","value training","canyon","26","{""ArrowUp,ArrowLeft"":26,""ArrowUp,ArrowRight"":10,""ArrowDown,ArrowLeft"":5,""ArrowDown,ArrowRight"":17}","true","ArrowUp,ArrowLeft","false","","","revaluation","1","40","","",""
"html-keyboard-response","155","772139","0.0-4.0-2.0-1.20","spark_pilot_2","7961","8","14","Male","","","","","","","null","<div style=""font-size:60px;"">+</div>","null","fixation","","","","","","","","","","","41","","",""
"revaluation","156","778146","0.0-4.0-2.0-0.21","spark_pilot_2","7961","8","14","Male","","false","","","","","[785.6000000238419,400.30000001192093]","./assets/img/canyon/memory/19.jpg","[""ArrowUp"",""ArrowLeft""]","value training","canyon","26","{""ArrowUp,ArrowLeft"":26,""ArrowUp,ArrowRight"":10,""ArrowDown,ArrowLeft"":5,""ArrowDown,ArrowRight"":17}","true","ArrowUp,ArrowLeft","false","","","revaluation","1","42","","",""
"html-keyboard-response","157","778648","0.0-4.0-2.0-1.21","spark_pilot_2","7961","8","14","Male","","","","","","","null","<div style=""font-size:60px;"">+</div>","null","fixation","","","","","","","","","","","43","","",""
"revaluation","158","784653","0.0-4.0-2.0-0.22","spark_pilot_2","7961","8","14","Male","","false","","","","","[901.8999999761581,548.1999999880791]","./assets/img/canyon/memory/5.jpg","[""ArrowUp"",""ArrowLeft""]","value training","canyon","26","{""ArrowUp,ArrowLeft"":26,""ArrowUp,ArrowRight"":10,""ArrowDown,ArrowLeft"":5,""ArrowDown,ArrowRight"":17}","true","ArrowUp,ArrowLeft","false","","","revaluation","1","44","","",""
"html-keyboard-response","159","785155","0.0-4.0-2.0-1.22","spark_pilot_2","7961","8","14","Male","","","","","","","null","<div style=""font-size:60px;"">+</div>","null","fixation","","","","","","","","","","","45","","",""
"revaluation","160","791160","0.0-4.0-2.0-0.23","spark_pilot_2","7961","8","14","Male","","false","","","","","[1050.1000000238419,649.5]","./assets/img/canyon/memory/13.jpg","[""ArrowUp"",""ArrowLeft""]","value training","canyon","26","{""ArrowUp,ArrowLeft"":26,""ArrowUp,ArrowRight"":10,""ArrowDown,ArrowLeft"":5,""ArrowDown,ArrowRight"":17}","true","ArrowUp,ArrowLeft","false","","","revaluation","1","46","","",""
"html-keyboard-response","161","791662","0.0-4.0-2.0-1.23","spark_pilot_2","7961","8","14","Male","","","","","","","null","<div style=""font-size:60px;"">+</div>","null","fixation","","","","","","","","","","","47","","",""
"revaluation","162","797669","0.0-4.0-2.0-0.24","spark_pilot_2","7961","8","14","Male","","false","","","","","[1326.3999999761581,605.4000000357628]","./assets/img/canyon/memory/15.jpg","[""ArrowUp"",""ArrowLeft""]","value training","canyon","26","{""ArrowUp,ArrowLeft"":26,""ArrowUp,ArrowRight"":10,""ArrowDown,ArrowLeft"":5,""ArrowDown,ArrowRight"":17}","true","ArrowUp,ArrowLeft","false","","","revaluation","1","48","","",""
"html-keyboard-response","163","798172","0.0-4.0-2.0-1.24","spark_pilot_2","7961","8","14","Male","","","","","","","null","<div style=""font-size:60px;"">+</div>","null","fixation","","","","","","","","","","","49","","",""
"revaluation","164","804179","0.0-4.0-2.0-0.25","spark_pilot_2","7961","8","14","Male","","false","","","","","[848.7999999523163,527.8000000119209]","./assets/img/canyon/memory/26.jpg","[""ArrowUp"",""ArrowLeft""]","value training","canyon","26","{""ArrowUp,ArrowLeft"":26,""ArrowUp,ArrowRight"":10,""ArrowDown,ArrowLeft"":5,""ArrowDown,ArrowRight"":17}","true","ArrowUp,ArrowLeft","false","","","revaluation","1","50","","",""
"html-keyboard-response","165","804681","0.0-4.0-2.0-1.25","spark_pilot_2","7961","8","14","Male","","","","","","","null","<div style=""font-size:60px;"">+</div>","null","fixation","","","","","","","","","","","51","","",""
"revaluation","166","808685","0.0-4.0-2.0-0.26","spark_pilot_2","7961","8","14","Male","","false","","","","","[917.5]","./assets/img/canyon/catch/2.jpg","[""spaceBar""]","value training","canyon","0","{""ArrowUp,ArrowLeft"":26,""ArrowUp,ArrowRight"":10,""ArrowDown,ArrowLeft"":5,""ArrowDown,ArrowRight"":17}","true","spaceBar","true","","","revaluation","1","52","","",""
"html-keyboard-response","167","809187","0.0-4.0-2.0-1.26","spark_pilot_2","7961","8","14","Male","","","","","","","null","<div style=""font-size:60px;"">+</div>","null","fixation","","","","","","","","","","","53","","",""
"revaluation","168","815194","0.0-4.0-2.0-0.27","spark_pilot_2","7961","8","14","Male","","false","","","","","[825.5,455.89999997615814]","./assets/img/canyon/memory/7.jpg","[""ArrowUp"",""ArrowLeft""]","value training","canyon","26","{""ArrowUp,ArrowLeft"":26,""ArrowUp,ArrowRight"":10,""ArrowDown,ArrowLeft"":5,""ArrowDown,ArrowRight"":17}","true","ArrowUp,ArrowLeft","false","","","revaluation","1","54","","",""
"html-keyboard-response","169","815696","0.0-4.0-2.0-1.27","spark_pilot_2","7961","8","14","Male","","","","","","","null","<div style=""font-size:60px;"">+</div>","null","fixation","","","","","","","","","","","55","","",""
"revaluation","170","821703","0.0-4.0-2.0-0.28","spark_pilot_2","7961","8","14","Male","","false","","","","","[989.3999999761581,587.6999999880791]","./assets/img/canyon/memory/23.jpg","[""ArrowUp"",""ArrowLeft""]","value training","canyon","26","{""ArrowUp,ArrowLeft"":26,""ArrowUp,ArrowRight"":10,""ArrowDown,ArrowLeft"":5,""ArrowDown,ArrowRight"":17}","true","ArrowUp,ArrowLeft","false","","","revaluation","1","56","","",""
"html-keyboard-response","171","822205","0.0-4.0-2.0-1.28","spark_pilot_2","7961","8","14","Male","","","","","","","null","<div style=""font-size:60px;"">+</div>","null","fixation","","","","","","","","","","","57","","",""
"revaluation","172","828211","0.0-4.0-2.0-0.29","spark_pilot_2","7961","8","14","Male","","false","","","","","[1088,591.8999999761581]","./assets/img/canyon/memory/14.jpg","[""ArrowUp"",""ArrowLeft""]","value training","canyon","26","{""ArrowUp,ArrowLeft"":26,""ArrowUp,ArrowRight"":10,""ArrowDown,ArrowLeft"":5,""ArrowDown,ArrowRight"":17}","true","ArrowUp,ArrowLeft","false","","","revaluation","1","58","","",""
"html-keyboard-response","173","828713","0.0-4.0-2.0-1.29","spark_pilot_2","7961","8","14","Male","","","","","","","null","<div style=""font-size:60px;"">+</div>","null","fixation","","","","","","","","","","","59","","",""
"revaluation","174","834717","0.0-4.0-2.0-0.30","spark_pilot_2","7961","8","14","Male","","false","","","","","[1174.5,533.6999999880791]","./assets/img/canyon/memory/1.jpg","[""ArrowUp"",""ArrowLeft""]","value training","canyon","26","{""ArrowUp,ArrowLeft"":26,""ArrowUp,ArrowRight"":10,""ArrowDown,ArrowLeft"":5,""ArrowDown,ArrowRight"":17}","true","ArrowUp,ArrowLeft","false","","","revaluation","1","60","","",""
"html-keyboard-response","175","835219","0.0-4.0-2.0-1.30","spark_pilot_2","7961","8","14","Male","","","","","","","null","<div style=""font-size:60px;"">+</div>","null","fixation","","","","","","","","","","","61","","",""
"revaluation","176","839225","0.0-4.0-2.0-0.31","spark_pilot_2","7961","8","14","Male","","false","","","","","[698.1999999880791]","./assets/img/canyon/catch/1.jpg","[""spaceBar""]","value training","canyon","0","{""ArrowUp,ArrowLeft"":26,""ArrowUp,ArrowRight"":10,""ArrowDown,ArrowLeft"":5,""ArrowDown,ArrowRight"":17}","true","spaceBar","true","","","revaluation","1","62","","",""
"html-keyboard-response","177","839727","0.0-4.0-2.0-1.31","spark_pilot_2","7961","8","14","Male","","","","","","","null","<div style=""font-size:60px;"">+</div>","null","fixation","","","","","","","","","","","63","","",""
"revaluation","178","845734","0.0-4.0-2.0-0.32","spark_pilot_2","7961","8","14","Male","","false","","","","","[1086.5,509.7999999523163]","./assets/img/canyon/memory/18.jpg","[""ArrowUp"",""ArrowLeft""]","value training","canyon","26","{""ArrowUp,ArrowLeft"":26,""ArrowUp,ArrowRight"":10,""ArrowDown,ArrowLeft"":5,""ArrowDown,ArrowRight"":17}","true","ArrowUp,ArrowLeft","false","","","revaluation","1","64","","",""
"html-keyboard-response","179","846236","0.0-4.0-2.0-1.32","spark_pilot_2","7961","8","14","Male","","","","","","","null","<div style=""font-size:60px;"">+</div>","null","fixation","","","","","","","","","","","65","","",""
"revaluation","180","852242","0.0-4.0-2.0-0.33","spark_pilot_2","7961","8","14","Male","","false","","","","","[1008.8000000119209,800]","./assets/img/canyon/memory/7.jpg","[""ArrowUp"",""ArrowLeft""]","value training","canyon","26","{""ArrowUp,ArrowLeft"":26,""ArrowUp,ArrowRight"":10,""ArrowDown,ArrowLeft"":5,""ArrowDown,ArrowRight"":17}","true","ArrowUp,ArrowLeft","false","","","revaluation","1","66","","",""
"html-keyboard-response","181","852743","0.0-4.0-2.0-1.33","spark_pilot_2","7961","8","14","Male","","","","","","","null","<div style=""font-size:60px;"">+</div>","null","fixation","","","","","","","","","","","67","","",""
"revaluation","182","858750","0.0-4.0-2.0-0.34","spark_pilot_2","7961","8","14","Male","","false","","","","","[997.8999999761581,308.39999997615814]","./assets/img/canyon/memory/22.jpg","[""ArrowUp"",""ArrowLeft""]","value training","canyon","26","{""ArrowUp,ArrowLeft"":26,""ArrowUp,ArrowRight"":10,""ArrowDown,ArrowLeft"":5,""ArrowDown,ArrowRight"":17}","true","ArrowUp,ArrowLeft","false","","","revaluation","1","68","","",""
"html-keyboard-response","183","859252","0.0-4.0-2.0-1.34","spark_pilot_2","7961","8","14","Male","","","","","","","null","<div style=""font-size:60px;"">+</div>","null","fixation","","","","","","","","","","","69","","",""
"revaluation","184","865258","0.0-4.0-2.0-0.35","spark_pilot_2","7961","8","14","Male","","false","","","","","[1032.699999988079,327.80000001192093]","./assets/img/canyon/memory/38.jpg","[""ArrowUp"",""ArrowLeft""]","value training","canyon","26","{""ArrowUp,ArrowLeft"":26,""ArrowUp,ArrowRight"":10,""ArrowDown,ArrowLeft"":5,""ArrowDown,ArrowRight"":17}","true","ArrowUp,ArrowLeft","false","","","revaluation","1","70","","",""
"html-keyboard-response","185","865760","0.0-4.0-2.0-1.35","spark_pilot_2","7961","8","14","Male","","","","","","","null","<div style=""font-size:60px;"">+</div>","null","fixation","","","","","","","","","","","71","","",""
"revaluation","186","871766","0.0-4.0-2.0-0.36","spark_pilot_2","7961","8","14","Male","","false","","","","","[796.1999999880791,347.9000000357628]","./assets/img/canyon/memory/35.jpg","[""ArrowUp"",""ArrowLeft""]","value training","canyon","26","{""ArrowUp,ArrowLeft"":26,""ArrowUp,ArrowRight"":10,""ArrowDown,ArrowLeft"":5,""ArrowDown,ArrowRight"":17}","true","ArrowUp,ArrowLeft","false","","","revaluation","1","72","","",""
"html-keyboard-response","187","872267","0.0-4.0-2.0-1.36","spark_pilot_2","7961","8","14","Male","","","","","","","null","<div style=""font-size:60px;"">+</div>","null","fixation","","","","","","","","","","","73","","",""
"revaluation","188","876272","0.0-4.0-2.0-0.37","spark_pilot_2","7961","8","14","Male","","false","","","","","[819.6000000238419]","./assets/img/canyon/catch/7.jpg","[""spaceBar""]","value training","canyon","0","{""ArrowUp,ArrowLeft"":26,""ArrowUp,ArrowRight"":10,""ArrowDown,ArrowLeft"":5,""ArrowDown,ArrowRight"":17}","true","spaceBar","true","","","revaluation","1","74","","",""
"html-keyboard-response","189","876774","0.0-4.0-2.0-1.37","spark_pilot_2","7961","8","14","Male","","","","","","","null","<div style=""font-size:60px;"">+</div>","null","fixation","","","","","","","","","","","75","","",""
"revaluation","190","882780","0.0-4.0-2.0-0.38","spark_pilot_2","7961","8","14","Male","","false","","","","","[1111.5,518.5]","./assets/img/canyon/memory/32.jpg","[""ArrowUp"",""ArrowLeft""]","value training","canyon","26","{""ArrowUp,ArrowLeft"":26,""ArrowUp,ArrowRight"":10,""ArrowDown,ArrowLeft"":5,""ArrowDown,ArrowRight"":17}","true","ArrowUp,ArrowLeft","false","","","revaluation","1","76","","",""
"html-keyboard-response","191","883282","0.0-4.0-2.0-1.38","spark_pilot_2","7961","8","14","Male","","","","","","","null","<div style=""font-size:60px;"">+</div>","null","fixation","","","","","","","","","","","77","","",""
"revaluation","192","889289","0.0-4.0-2.0-0.39","spark_pilot_2","7961","8","14","Male","","false","","","","","[1082.8999999761581,714.1999999880791]","./assets/img/canyon/memory/4.jpg","[""ArrowUp"",""ArrowLeft""]","value training","canyon","26","{""ArrowUp,ArrowLeft"":26,""ArrowUp,ArrowRight"":10,""ArrowDown,ArrowLeft"":5,""ArrowDown,ArrowRight"":17}","true","ArrowUp,ArrowLeft","false","","","revaluation","1","78","","",""
"html-keyboard-response","193","889791","0.0-4.0-2.0-1.39","spark_pilot_2","7961","8","14","Male","","","","","","","null","<div style=""font-size:60px;"">+</div>","null","fixation","","","","","","","","","","","79","","",""
"revaluation","194","895797","0.0-4.0-2.0-0.40","spark_pilot_2","7961","8","14","Male","","false","","","","","[1022.4000000357628,364.7000000476837]","./assets/img/canyon/memory/15.jpg","[""ArrowUp"",""ArrowLeft""]","value training","canyon","26","{""ArrowUp,ArrowLeft"":26,""ArrowUp,ArrowRight"":10,""ArrowDown,ArrowLeft"":5,""ArrowDown,ArrowRight"":17}","true","ArrowUp,ArrowLeft","false","","","revaluation","1","80","","",""
"html-keyboard-response","195","896298","0.0-4.0-2.0-1.40","spark_pilot_2","7961","8","14","Male","","","","","","","null","<div style=""font-size:60px;"">+</div>","null","fixation","","","","","","","","","","","81","","",""
"revaluation","196","902305","0.0-4.0-2.0-0.41","spark_pilot_2","7961","8","14","Male","","false","","","","","[834.4000000357628,416.89999997615814]","./assets/img/canyon/memory/3.jpg","[""ArrowUp"",""ArrowLeft""]","value training","canyon","26","{""ArrowUp,ArrowLeft"":26,""ArrowUp,ArrowRight"":10,""ArrowDown,ArrowLeft"":5,""ArrowDown,ArrowRight"":17}","true","ArrowUp,ArrowLeft","false","","","revaluation","1","82","","",""
"html-keyboard-response","197","902807","0.0-4.0-2.0-1.41","spark_pilot_2","7961","8","14","Male","","","","","","","null","<div style=""font-size:60px;"">+</div>","null","fixation","","","","","","","","","","","83","","",""
"revaluation","198","908815","0.0-4.0-2.0-0.42","spark_pilot_2","7961","8","14","Male","","false","","","","","[741.3999999761581,643.8999999761581]","./assets/img/canyon/memory/40.jpg","[""ArrowUp"",""ArrowLeft""]","value training","canyon","26","{""ArrowUp,ArrowLeft"":26,""ArrowUp,ArrowRight"":10,""ArrowDown,ArrowLeft"":5,""ArrowDown,ArrowRight"":17}","true","ArrowUp,ArrowLeft","false","","","revaluation","1","84","","",""
"html-keyboard-response","199","909316","0.0-4.0-2.0-1.42","spark_pilot_2","7961","8","14","Male","","","","","","","null","<div style=""font-size:60px;"">+</div>","null","fixation","","","","","","","","","","","85","","",""
"revaluation","200","915324","0.0-4.0-2.0-0.43","spark_pilot_2","7961","8","14","Male","","false","","","","","[1096.0999999642372,471.30000001192093]","./assets/img/canyon/memory/29.jpg","[""ArrowUp"",""ArrowLeft""]","value training","canyon","26","{""ArrowUp,ArrowLeft"":26,""ArrowUp,ArrowRight"":10,""ArrowDown,ArrowLeft"":5,""ArrowDown,ArrowRight"":17}","true","ArrowUp,ArrowLeft","false","","","revaluation","1","86","","",""
"html-keyboard-response","201","915826","0.0-4.0-2.0-1.43","spark_pilot_2","7961","8","14","Male","","","","","","","null","<div style=""font-size:60px;"">+</div>","null","fixation","","","","","","","","","","","87","","",""
"revaluation","202","921832","0.0-4.0-2.0-0.44","spark_pilot_2","7961","8","14","Male","","false","","","","","[730.0999999642372,569.8000000119209]","./assets/img/canyon/memory/40.jpg","[""ArrowUp"",""ArrowLeft""]","value training","canyon","26","{""ArrowUp,ArrowLeft"":26,""ArrowUp,ArrowRight"":10,""ArrowDown,ArrowLeft"":5,""ArrowDown,ArrowRight"":17}","true","ArrowUp,ArrowLeft","false","","","revaluation","1","88","","",""
"html-keyboard-response","203","922334","0.0-4.0-2.0-1.44","spark_pilot_2","7961","8","14","Male","","","","","","","null","<div style=""font-size:60px;"">+</div>","null","fixation","","","","","","","","","","","89","","",""
"revaluation","204","928340","0.0-4.0-2.0-0.45","spark_pilot_2","7961","8","14","Male","","false","","","","","[687.4000000357628,478.9000000357628]","./assets/img/canyon/memory/4.jpg","[""ArrowUp"",""ArrowLeft""]","value training","canyon","26","{""ArrowUp,ArrowLeft"":26,""ArrowUp,ArrowRight"":10,""ArrowDown,ArrowLeft"":5,""ArrowDown,ArrowRight"":17}","true","ArrowUp,ArrowLeft","false","","","revaluation","1","90","","",""
"html-keyboard-response","205","928842","0.0-4.0-2.0-1.45","spark_pilot_2","7961","8","14","Male","","","","","","","null","<div style=""font-size:60px;"">+</div>","null","fixation","","","","","","","","","","","91","","",""
"revaluation","206","934849","0.0-4.0-2.0-0.46","spark_pilot_2","7961","8","14","Male","","false","","","","","[705.8999999761581,449]","./assets/img/canyon/memory/3.jpg","[""ArrowUp"",""ArrowLeft""]","value training","canyon","26","{""ArrowUp,ArrowLeft"":26,""ArrowUp,ArrowRight"":10,""ArrowDown,ArrowLeft"":5,""ArrowDown,ArrowRight"":17}","true","ArrowUp,ArrowLeft","false","","","revaluation","1","92","","",""
"html-keyboard-response","207","935352","0.0-4.0-2.0-1.46","spark_pilot_2","7961","8","14","Male","","","","","","","null","<div style=""font-size:60px;"">+</div>","null","fixation","","","","","","","","","","","93","","",""
"revaluation","208","941358","0.0-4.0-2.0-0.47","spark_pilot_2","7961","8","14","Male","","false","","","","","[965.7000000476837,499.2000000476837]","./assets/img/canyon/memory/32.jpg","[""ArrowUp"",""ArrowLeft""]","value training","canyon","26","{""ArrowUp,ArrowLeft"":26,""ArrowUp,ArrowRight"":10,""ArrowDown,ArrowLeft"":5,""ArrowDown,ArrowRight"":17}","true","ArrowUp,ArrowLeft","false","","","revaluation","1","94","","",""
"html-keyboard-response","209","941860","0.0-4.0-2.0-1.47","spark_pilot_2","7961","8","14","Male","","","","","","","null","<div style=""font-size:60px;"">+</div>","null","fixation","","","","","","","","","","","95","","",""
"revaluation","210","947867","0.0-4.0-2.0-0.48","spark_pilot_2","7961","8","14","Male","","false","","","","","[872.6000000238419,471]","./assets/img/canyon/memory/14.jpg","[""ArrowUp"",""ArrowLeft""]","value training","canyon","26","{""ArrowUp,ArrowLeft"":26,""ArrowUp,ArrowRight"":10,""ArrowDown,ArrowLeft"":5,""ArrowDown,ArrowRight"":17}","true","ArrowUp,ArrowLeft","false","","","revaluation","1","96","","",""
"html-keyboard-response","211","948369","0.0-4.0-2.0-1.48","spark_pilot_2","7961","8","14","Male","","","","","","","null","<div style=""font-size:60px;"">+</div>","null","fixation","","","","","","","","","","","97","","",""
"revaluation","212","952374","0.0-4.0-2.0-0.49","spark_pilot_2","7961","8","14","Male","","false","","","","","[796.1999999880791]","./assets/img/canyon/catch/4.jpg","[""spaceBar""]","value training","canyon","0","{""ArrowUp,ArrowLeft"":26,""ArrowUp,ArrowRight"":10,""ArrowDown,ArrowLeft"":5,""ArrowDown,ArrowRight"":17}","true","spaceBar","true","","","revaluation","1","98","","",""
"html-keyboard-response","213","952876","0.0-4.0-2.0-1.49","spark_pilot_2","7961","8","14","Male","","","","","","","null","<div style=""font-size:60px;"">+</div>","null","fixation","","","","","","","","","","","99","","",""
"learning-instructions","214","967936","0.0-4.0-3.0-0.0","spark_pilot_2","7961","8","14","Male","","","","","","","2131.5","<p> Now, you will travel with a friend who will choose whether you go up or down first. </p>
            <p> On these turns, you will just see the animal that they found. You will still get to choose which chest to search for treasure.</p>","","instructions","","","","","","","","","","","","","",""
"revaluation","215","971948","0.0-4.0-4.0-0.0","spark_pilot_2","7961","8","14","Male","","false","","","","","[1503.1000000238419]","./assets/img/canyon/animals/giraffe.jpg","[""ArrowRight""]","revaluation","canyon","11","{""ArrowUp,ArrowLeft"":2,""ArrowUp,ArrowRight"":11,""ArrowDown,ArrowLeft"":8,""ArrowDown,ArrowRight"":27}","true","ArrowUp,ArrowRight","","","","revaluation","1","0","","",""
"html-keyboard-response","216","972464","0.0-4.0-4.0-1.0","spark_pilot_2","7961","8","14","Male","","","","","","","null","<div style=""font-size:60px;"">+</div>","null","fixation","","","","","","","","","","","1","","",""
"revaluation","217","976484","0.0-4.0-4.0-0.1","spark_pilot_2","7961","8","14","Male","","false","","","","","[573.3999999761581]","./assets/img/canyon/animals/giraffe.jpg","[""ArrowLeft""]","revaluation","canyon","2","{""ArrowUp,ArrowLeft"":2,""ArrowUp,ArrowRight"":11,""ArrowDown,ArrowLeft"":8,""ArrowDown,ArrowRight"":27}","false","ArrowUp,ArrowLeft","","","","revaluation","1","2","","",""
"html-keyboard-response","218","976996","0.0-4.0-4.0-1.1","spark_pilot_2","7961","8","14","Male","","","","","","","null","<div style=""font-size:60px;"">+</div>","null","fixation","","","","","","","","","","","3","","",""
"revaluation","219","981018","0.0-4.0-4.0-0.2","spark_pilot_2","7961","8","14","Male","","false","","","","","[713.2999999523163]","./assets/img/canyon/animals/giraffe.jpg","[""ArrowLeft""]","revaluation","canyon","2","{""ArrowUp,ArrowLeft"":2,""ArrowUp,ArrowRight"":11,""ArrowDown,ArrowLeft"":8,""ArrowDown,ArrowRight"":27}","false","ArrowUp,ArrowLeft","","","","revaluation","1","4","","",""
"html-keyboard-response","220","981530","0.0-4.0-4.0-1.2","spark_pilot_2","7961","8","14","Male","","","","","","","null","<div style=""font-size:60px;"">+</div>","null","fixation","","","","","","","","","","","5","","",""
"revaluation","221","985559","0.0-4.0-4.0-0.3","spark_pilot_2","7961","8","14","Male","","false","","","","","[657.8000000119209]","./assets/img/canyon/animals/lion.jpg","[""ArrowRight""]","revaluation","canyon","27","{""ArrowUp,ArrowLeft"":2,""ArrowUp,ArrowRight"":11,""ArrowDown,ArrowLeft"":8,""ArrowDown,ArrowRight"":27}","true","ArrowDown,ArrowRight","","","","revaluation","1","6","","",""
"html-keyboard-response","222","986061","0.0-4.0-4.0-1.3","spark_pilot_2","7961","8","14","Male","","","","","","","null","<div style=""font-size:60px;"">+</div>","null","fixation","","","","","","","","","","","7","","",""
"revaluation","223","990079","0.0-4.0-4.0-0.4","spark_pilot_2","7961","8","14","Male","","false","","","","","[447.60000002384186]","./assets/img/canyon/animals/giraffe.jpg","[""ArrowRight""]","revaluation","canyon","11","{""ArrowUp,ArrowLeft"":2,""ArrowUp,ArrowRight"":11,""ArrowDown,ArrowLeft"":8,""ArrowDown,ArrowRight"":27}","true","ArrowUp,ArrowRight","","","","revaluation","1","8","","",""
"html-keyboard-response","224","990594","0.0-4.0-4.0-1.4","spark_pilot_2","7961","8","14","Male","","","","","","","null","<div style=""font-size:60px;"">+</div>","null","fixation","","","","","","","","","","","9","","",""
"revaluation","225","994617","0.0-4.0-4.0-0.5","spark_pilot_2","7961","8","14","Male","","false","","","","","[395.10000002384186]","./assets/img/canyon/animals/lion.jpg","[""ArrowLeft""]","revaluation","canyon","8","{""ArrowUp,ArrowLeft"":2,""ArrowUp,ArrowRight"":11,""ArrowDown,ArrowLeft"":8,""ArrowDown,ArrowRight"":27}","false","ArrowDown,ArrowLeft","","","","revaluation","1","10","","",""
"html-keyboard-response","226","995129","0.0-4.0-4.0-1.5","spark_pilot_2","7961","8","14","Male","","","","","","","null","<div style=""font-size:60px;"">+</div>","null","fixation","","","","","","","","","","","11","","",""
"revaluation","227","999133","0.0-4.0-4.0-0.6","spark_pilot_2","7961","8","14","Male","","false","","","","","[372.5]","./assets/img/canyon/animals/giraffe.jpg","[""ArrowRight""]","revaluation","canyon","11","{""ArrowUp,ArrowLeft"":2,""ArrowUp,ArrowRight"":11,""ArrowDown,ArrowLeft"":8,""ArrowDown,ArrowRight"":27}","true","ArrowUp,ArrowRight","","","","revaluation","1","12","","",""
"html-keyboard-response","228","999634","0.0-4.0-4.0-1.6","spark_pilot_2","7961","8","14","Male","","","","","","","null","<div style=""font-size:60px;"">+</div>","null","fixation","","","","","","","","","","","13","","",""
"revaluation","229","1003639","0.0-4.0-4.0-0.7","spark_pilot_2","7961","8","14","Male","","false","","","","","[522.0999999642372]","./assets/img/canyon/animals/lion.jpg","[""ArrowRight""]","revaluation","canyon","27","{""ArrowUp,ArrowLeft"":2,""ArrowUp,ArrowRight"":11,""ArrowDown,ArrowLeft"":8,""ArrowDown,ArrowRight"":27}","true","ArrowDown,ArrowRight","","","","revaluation","1","14","","",""
"html-keyboard-response","230","1004141","0.0-4.0-4.0-1.7","spark_pilot_2","7961","8","14","Male","","","","","","","null","<div style=""font-size:60px;"">+</div>","null","fixation","","","","","","","","","","","15","","",""
"revaluation","231","1008147","0.0-4.0-4.0-0.8","spark_pilot_2","7961","8","14","Male","","false","","","","","[447]","./assets/img/canyon/animals/lion.jpg","[""ArrowRight""]","revaluation","canyon","27","{""ArrowUp,ArrowLeft"":2,""ArrowUp,ArrowRight"":11,""ArrowDown,ArrowLeft"":8,""ArrowDown,ArrowRight"":27}","true","ArrowDown,ArrowRight","","","","revaluation","1","16","","",""
"html-keyboard-response","232","1008649","0.0-4.0-4.0-1.8","spark_pilot_2","7961","8","14","Male","","","","","","","null","<div style=""font-size:60px;"">+</div>","null","fixation","","","","","","","","","","","17","","",""
"revaluation","233","1012656","0.0-4.0-4.0-0.9","spark_pilot_2","7961","8","14","Male","","false","","","","","[499.60000002384186]","./assets/img/canyon/animals/giraffe.jpg","[""ArrowRight""]","revaluation","canyon","11","{""ArrowUp,ArrowLeft"":2,""ArrowUp,ArrowRight"":11,""ArrowDown,ArrowLeft"":8,""ArrowDown,ArrowRight"":27}","true","ArrowUp,ArrowRight","","","","revaluation","1","18","","",""
"html-keyboard-response","234","1013157","0.0-4.0-4.0-1.9","spark_pilot_2","7961","8","14","Male","","","","","","","null","<div style=""font-size:60px;"">+</div>","null","fixation","","","","","","","","","","","19","","",""
"revaluation","235","1017163","0.0-4.0-4.0-0.10","spark_pilot_2","7961","8","14","Male","","false","","","","","[502.2000000476837]","./assets/img/canyon/animals/giraffe.jpg","[""ArrowRight""]","revaluation","canyon","11","{""ArrowUp,ArrowLeft"":2,""ArrowUp,ArrowRight"":11,""ArrowDown,ArrowLeft"":8,""ArrowDown,ArrowRight"":27}","true","ArrowUp,ArrowRight","","","","revaluation","1","20","","",""
"html-keyboard-response","236","1017666","0.0-4.0-4.0-1.10","spark_pilot_2","7961","8","14","Male","","","","","","","null","<div style=""font-size:60px;"">+</div>","null","fixation","","","","","","","","","","","21","","",""
"revaluation","237","1021671","0.0-4.0-4.0-0.11","spark_pilot_2","7961","8","14","Male","","false","","","","","[634.3000000119209]","./assets/img/canyon/animals/lion.jpg","[""ArrowRight""]","revaluation","canyon","27","{""ArrowUp,ArrowLeft"":2,""ArrowUp,ArrowRight"":11,""ArrowDown,ArrowLeft"":8,""ArrowDown,ArrowRight"":27}","true","ArrowDown,ArrowRight","","","","revaluation","1","22","","",""
"html-keyboard-response","238","1022173","0.0-4.0-4.0-1.11","spark_pilot_2","7961","8","14","Male","","","","","","","null","<div style=""font-size:60px;"">+</div>","null","fixation","","","","","","","","","","","23","","",""
"revaluation","239","1026178","0.0-4.0-4.0-0.12","spark_pilot_2","7961","8","14","Male","","false","","","","","[560.2000000476837]","./assets/img/canyon/animals/giraffe.jpg","[""ArrowRight""]","revaluation","canyon","11","{""ArrowUp,ArrowLeft"":2,""ArrowUp,ArrowRight"":11,""ArrowDown,ArrowLeft"":8,""ArrowDown,ArrowRight"":27}","true","ArrowUp,ArrowRight","","","","revaluation","1","24","","",""
"html-keyboard-response","240","1026680","0.0-4.0-4.0-1.12","spark_pilot_2","7961","8","14","Male","","","","","","","null","<div style=""font-size:60px;"">+</div>","null","fixation","","","","","","","","","","","25","","",""
"revaluation","241","1030685","0.0-4.0-4.0-0.13","spark_pilot_2","7961","8","14","Male","","false","","","","","[532.5999999642372]","./assets/img/canyon/animals/lion.jpg","[""ArrowRight""]","revaluation","canyon","27","{""ArrowUp,ArrowLeft"":2,""ArrowUp,ArrowRight"":11,""ArrowDown,ArrowLeft"":8,""ArrowDown,ArrowRight"":27}","true","ArrowDown,ArrowRight","","","","revaluation","1","26","","",""
"html-keyboard-response","242","1031188","0.0-4.0-4.0-1.13","spark_pilot_2","7961","8","14","Male","","","","","","","null","<div style=""font-size:60px;"">+</div>","null","fixation","","","","","","","","","","","27","","",""
"revaluation","243","1035193","0.0-4.0-4.0-0.14","spark_pilot_2","7961","8","14","Male","","false","","","","","[472.19999998807907]","./assets/img/canyon/animals/lion.jpg","[""ArrowRight""]","revaluation","canyon","27","{""ArrowUp,ArrowLeft"":2,""ArrowUp,ArrowRight"":11,""ArrowDown,ArrowLeft"":8,""ArrowDown,ArrowRight"":27}","true","ArrowDown,ArrowRight","","","","revaluation","1","28","","",""
"html-keyboard-response","244","1035695","0.0-4.0-4.0-1.14","spark_pilot_2","7961","8","14","Male","","","","","","","null","<div style=""font-size:60px;"">+</div>","null","fixation","","","","","","","","","","","29","","",""
"revaluation","245","1039701","0.0-4.0-4.0-0.15","spark_pilot_2","7961","8","14","Male","","false","","","","","[732.8000000119209]","./assets/img/canyon/animals/giraffe.jpg","[""ArrowRight""]","revaluation","canyon","11","{""ArrowUp,ArrowLeft"":2,""ArrowUp,ArrowRight"":11,""ArrowDown,ArrowLeft"":8,""ArrowDown,ArrowRight"":27}","true","ArrowUp,ArrowRight","","","","revaluation","1","30","","",""
"html-keyboard-response","246","1040203","0.0-4.0-4.0-1.15","spark_pilot_2","7961","8","14","Male","","","","","","","null","<div style=""font-size:60px;"">+</div>","null","fixation","","","","","","","","","","","31","","",""
"revaluation","247","1044208","0.0-4.0-4.0-0.16","spark_pilot_2","7961","8","14","Male","","false","","","","","[848.6999999880791]","./assets/img/canyon/animals/lion.jpg","[""ArrowRight""]","revaluation","canyon","27","{""ArrowUp,ArrowLeft"":2,""ArrowUp,ArrowRight"":11,""ArrowDown,ArrowLeft"":8,""ArrowDown,ArrowRight"":27}","true","ArrowDown,ArrowRight","","","","revaluation","1","32","","",""
"html-keyboard-response","248","1044710","0.0-4.0-4.0-1.16","spark_pilot_2","7961","8","14","Male","","","","","","","null","<div style=""font-size:60px;"">+</div>","null","fixation","","","","","","","","","","","33","","",""
"revaluation","249","1048715","0.0-4.0-4.0-0.17","spark_pilot_2","7961","8","14","Male","","false","","","","","[438.60000002384186]","./assets/img/canyon/animals/lion.jpg","[""ArrowRight""]","revaluation","canyon","27","{""ArrowUp,ArrowLeft"":2,""ArrowUp,ArrowRight"":11,""ArrowDown,ArrowLeft"":8,""ArrowDown,ArrowRight"":27}","true","ArrowDown,ArrowRight","","","","revaluation","1","34","","",""
"html-keyboard-response","250","1049218","0.0-4.0-4.0-1.17","spark_pilot_2","7961","8","14","Male","","","","","","","null","<div style=""font-size:60px;"">+</div>","null","fixation","","","","","","","","","","","35","","",""
"learning-instructions","251","1061031","0.0-4.0-5.0-0.0","spark_pilot_2","7961","8","14","Male","","","","","","","366.19999998807907","<p> Time to play the dot game! </p>
            <p> For one minute, click the red dots on the following screen as they appear. </p>
            <p><b> Don't look away, as you will earn bonus for clicking dots</b>. </p>","","instructions","","","","","","","","","","","","","",""
"revaluation","252","1121033","0.0-4.0-6.0-0.0","spark_pilot_2","7961","8","14","Male","","","","","","","[72,45,79,60,61,64,65]","","","rest","","70","","","","","0","60000","","","","","",""
"learning-instructions","253","1128471","0.0-4.0-7.0-0.0","spark_pilot_2","7961","8","14","Male","","","","","","","1303.7000000476837","<p> You have almost finished this part of the game! </p>
            <p> We are going to ask you to make a few more choices. </p>","","instructions","","","","","","","","","","","","","",""
"learning-instructions","254","1146159","0.0-4.0-7.0-0.1","spark_pilot_2","7961","8","14","Male","","","","","","","3720.699999988079","<p> First, you need to decide whether to go up or down. When you see each picture, use the arrow keys to make your choice. </p>
            <p><b>You will not see which animal you found, but try to get to the one that will give you the most treasure.</b></p>","","instructions","","","","","","","","","","","","","",""
"revaluation","255","1146960","0.0-4.0-8.0-0.0","spark_pilot_2","7961","8","14","Male","","false","","","","","[799]","./assets/img/canyon/test/0.jpg","[""ArrowUp""]","first stage test","canyon","0","{""ArrowUp,ArrowLeft"":2,""ArrowUp,ArrowRight"":11,""ArrowDown,ArrowLeft"":8,""ArrowDown,ArrowRight"":27}","false","ArrowUp","false","","","revaluation","1","","","",""
"html-keyboard-response","256","1147465","0.0-4.0-8.0-1.0","spark_pilot_2","7961","8","14","Male","","","","","","","null","<div style=""font-size:60px;"">+</div>","null","fixation","","","","","","","","","","","","","",""
"revaluation","257","1148496","0.0-4.0-8.0-0.1","spark_pilot_2","7961","8","14","Male","","false","","","","","[1026.800000011921]","./assets/img/canyon/test/2.jpg","[""ArrowUp""]","first stage test","canyon","0","{""ArrowUp,ArrowLeft"":2,""ArrowUp,ArrowRight"":11,""ArrowDown,ArrowLeft"":8,""ArrowDown,ArrowRight"":27}","false","ArrowUp","false","","","revaluation","1","","","",""
"html-keyboard-response","258","1149011","0.0-4.0-8.0-1.1","spark_pilot_2","7961","8","14","Male","","","","","","","null","<div style=""font-size:60px;"">+</div>","null","fixation","","","","","","","","","","","","","",""
"revaluation","259","1151056","0.0-4.0-8.0-0.2","spark_pilot_2","7961","8","14","Male","","false","","","","","[2041.699999988079]","./assets/img/canyon/test/3.jpg","[""ArrowDown""]","first stage test","canyon","0","{""ArrowUp,ArrowLeft"":2,""ArrowUp,ArrowRight"":11,""ArrowDown,ArrowLeft"":8,""ArrowDown,ArrowRight"":27}","true","ArrowDown","false","","","revaluation","1","","","",""
"html-keyboard-response","260","1151561","0.0-4.0-8.0-1.2","spark_pilot_2","7961","8","14","Male","","","","","","","null","<div style=""font-size:60px;"">+</div>","null","fixation","","","","","","","","","","","","","",""
"revaluation","261","1152207","0.0-4.0-8.0-0.3","spark_pilot_2","7961","8","14","Male","","false","","","","","[643.0999999642372]","./assets/img/canyon/test/1.jpg","[""ArrowDown""]","first stage test","canyon","0","{""ArrowUp,ArrowLeft"":2,""ArrowUp,ArrowRight"":11,""ArrowDown,ArrowLeft"":8,""ArrowDown,ArrowRight"":27}","true","ArrowDown","false","","","revaluation","1","","","",""
"html-keyboard-response","262","1152711","0.0-4.0-8.0-1.3","spark_pilot_2","7961","8","14","Male","","","","","","","null","<div style=""font-size:60px;"">+</div>","null","fixation","","","","","","","","","","","","","",""
"learning-instructions","263","1165903","0.0-4.0-9.0-0.0","spark_pilot_2","7961","8","14","Male","","","","","","","1854.800000011921","<p> Now you will see the animals again and can search their chests for treasure. </p>
            <p> This time, you will not see how much treasure you earned, but you will earn more bonus money for making better choices. </p>","","instructions","","","","","","","","","","","","","",""
"revaluation","264","1167247","0.0-4.0-10.0-0.0","spark_pilot_2","7961","8","14","Male","","false","","","","","[1342.300000011921]","./assets/img/canyon/animals/giraffe.jpg","[""ArrowRight""]","second stage test","canyon","0","{""ArrowUp,ArrowLeft"":2,""ArrowUp,ArrowRight"":11,""ArrowDown,ArrowLeft"":8,""ArrowDown,ArrowRight"":27}","true","ArrowUp,ArrowRight","","","","revaluation","1","","","",""
"html-keyboard-response","265","1167755","0.0-4.0-10.0-1.0","spark_pilot_2","7961","8","14","Male","","","","","","","null","<div style=""font-size:60px;"">+</div>","null","fixation","","","","","","","","","","","","","",""
"revaluation","266","1168896","0.0-4.0-10.0-0.1","spark_pilot_2","7961","8","14","Male","","false","","","","","[1137]","./assets/img/canyon/animals/giraffe.jpg","[""ArrowRight""]","second stage test","canyon","0","{""ArrowUp,ArrowLeft"":2,""ArrowUp,ArrowRight"":11,""ArrowDown,ArrowLeft"":8,""ArrowDown,ArrowRight"":27}","true","ArrowUp,ArrowRight","","","","revaluation","1","","","",""
"html-keyboard-response","267","1169413","0.0-4.0-10.0-1.1","spark_pilot_2","7961","8","14","Male","","","","","","","null","<div style=""font-size:60px;"">+</div>","null","fixation","","","","","","","","","","","","","",""
"revaluation","268","1169936","0.0-4.0-10.0-0.2","spark_pilot_2","7961","8","14","Male","","false","","","","","[519.8999999761581]","./assets/img/canyon/animals/giraffe.jpg","[""ArrowRight""]","second stage test","canyon","0","{""ArrowUp,ArrowLeft"":2,""ArrowUp,ArrowRight"":11,""ArrowDown,ArrowLeft"":8,""ArrowDown,ArrowRight"":27}","true","ArrowUp,ArrowRight","","","","revaluation","1","","","",""
"html-keyboard-response","269","1170446","0.0-4.0-10.0-1.2","spark_pilot_2","7961","8","14","Male","","","","","","","null","<div style=""font-size:60px;"">+</div>","null","fixation","","","","","","","","","","","","","",""
"revaluation","270","1170896","0.0-4.0-10.0-0.3","spark_pilot_2","7961","8","14","Male","","false","","","","","[446.80000001192093]","./assets/img/canyon/animals/giraffe.jpg","[""ArrowRight""]","second stage test","canyon","0","{""ArrowUp,ArrowLeft"":2,""ArrowUp,ArrowRight"":11,""ArrowDown,ArrowLeft"":8,""ArrowDown,ArrowRight"":27}","true","ArrowUp,ArrowRight","","","","revaluation","1","","","",""
"html-keyboard-response","271","1171411","0.0-4.0-10.0-1.3","spark_pilot_2","7961","8","14","Male","","","","","","","null","<div style=""font-size:60px;"">+</div>","null","fixation","","","","","","","","","","","","","",""
"revaluation","272","1171936","0.0-4.0-10.0-0.4","spark_pilot_2","7961","8","14","Male","","false","","","","","[521.5]","./assets/img/canyon/animals/lion.jpg","[""ArrowRight""]","second stage test","canyon","0","{""ArrowUp,ArrowLeft"":2,""ArrowUp,ArrowRight"":11,""ArrowDown,ArrowLeft"":8,""ArrowDown,ArrowRight"":27}","true","ArrowDown,ArrowRight","","","","revaluation","1","","","",""
"html-keyboard-response","273","1172445","0.0-4.0-10.0-1.4","spark_pilot_2","7961","8","14","Male","","","","","","","null","<div style=""font-size:60px;"">+</div>","null","fixation","","","","","","","","","","","","","",""
"revaluation","274","1172816","0.0-4.0-10.0-0.5","spark_pilot_2","7961","8","14","Male","","false","","","","","[367.10000002384186]","./assets/img/canyon/animals/lion.jpg","[""ArrowRight""]","second stage test","canyon","0","{""ArrowUp,ArrowLeft"":2,""ArrowUp,ArrowRight"":11,""ArrowDown,ArrowLeft"":8,""ArrowDown,ArrowRight"":27}","true","ArrowDown,ArrowRight","","","","revaluation","1","","","",""
"html-keyboard-response","275","1173329","0.0-4.0-10.0-1.5","spark_pilot_2","7961","8","14","Male","","","","","","","null","<div style=""font-size:60px;"">+</div>","null","fixation","","","","","","","","","","","","","",""
"revaluation","276","1173776","0.0-4.0-10.0-0.6","spark_pilot_2","7961","8","14","Male","","false","","","","","[444.9000000357628]","./assets/img/canyon/animals/lion.jpg","[""ArrowRight""]","second stage test","canyon","0","{""ArrowUp,ArrowLeft"":2,""ArrowUp,ArrowRight"":11,""ArrowDown,ArrowLeft"":8,""ArrowDown,ArrowRight"":27}","true","ArrowDown,ArrowRight","","","","revaluation","1","","","",""
"html-keyboard-response","277","1174279","0.0-4.0-10.0-1.6","spark_pilot_2","7961","8","14","Male","","","","","","","null","<div style=""font-size:60px;"">+</div>","null","fixation","","","","","","","","","","","","","",""
"revaluation","278","1174719","0.0-4.0-10.0-0.7","spark_pilot_2","7961","8","14","Male","","false","","","","","[437.69999998807907]","./assets/img/canyon/animals/lion.jpg","[""ArrowRight""]","second stage test","canyon","0","{""ArrowUp,ArrowLeft"":2,""ArrowUp,ArrowRight"":11,""ArrowDown,ArrowLeft"":8,""ArrowDown,ArrowRight"":27}","true","ArrowDown,ArrowRight","","","","revaluation","1","","","",""
"html-keyboard-response","279","1175230","0.0-4.0-10.0-1.7","spark_pilot_2","7961","8","14","Male","","","","","","","null","<div style=""font-size:60px;"">+</div>","null","fixation","","","","","","","","","","","","","",""
"learning-instructions","280","1180822","0.0-4.0-0.1-0.2","spark_pilot_2","7961","8","14","Male","","","","","","","2894.400000035763","<p> This time you are searching for treasure in the <b>ocean</b>.</p>","","instructions","","","","","","","","","","","","","",""
"learning-instructions","281","1200342","0.0-4.0-0.1-0.3","spark_pilot_2","7961","8","14","Male","","","","","","","2275.5","<p><b>New</b> animals with <b>new</b> treasure chests live here. You need to explore to discover where the animal with the best treasure chest is.</p>
                    <p> Like before, once you figure out which animal has the chest with the most treasure, you should try to get to that animal and select that chest! </p>","","instructions","","","","","","","","","","","","","",""
"learning-instructions","282","1221182","0.0-4.0-1.1-0.1","spark_pilot_2","7961","8","14","Male","","","","","","","6116.200000047684","<p> Remember, when you see a picture of the place, use the up and down keys to <b>find an animal</b>.</p>
            <p> When you encounter an animal, you should use the left and right keys to <b>select a treasure chest</b>.</p>
            <p> Don't forget to look out for the robber! </p>","","instructions","","","","","","","","","","","","","",""
"revaluation","283","1227214","0.0-4.0-2.1-0.50","spark_pilot_2","7961","8","14","Male","","false","","","","","[1519.699999988079,706.7000000476837]","./assets/img/ocean/memory/40.jpg","[""ArrowUp"",""ArrowLeft""]","value training","ocean","23","{""ArrowUp,ArrowLeft"":23,""ArrowUp,ArrowRight"":10,""ArrowDown,ArrowLeft"":8,""ArrowDown,ArrowRight"":30}","false","ArrowUp,ArrowLeft","false","","","original","2","0","","",""
"html-keyboard-response","284","1227727","0.0-4.0-2.1-1.50","spark_pilot_2","7961","8","14","Male","","","","","","","null","<div style=""font-size:60px;"">+</div>","null","fixation","","","","","","","","","","","1","","",""
"revaluation","285","1231748","0.0-4.0-2.1-0.51","spark_pilot_2","7961","8","14","Male","","false","","","","","[380.19999998807907]","./assets/img/ocean/catch/2.jpg","[""ArrowUp""]","value training","ocean","-10","{""ArrowUp,ArrowLeft"":23,""ArrowUp,ArrowRight"":10,""ArrowDown,ArrowLeft"":8,""ArrowDown,ArrowRight"":30}","false","ArrowUp","true","","","original","2","2","","",""
"html-keyboard-response","286","1232261","0.0-4.0-2.1-1.51","spark_pilot_2","7961","8","14","Male","","","","","","","null","<div style=""font-size:60px;"">+</div>","null","fixation","","","","","","","","","","","3","","",""
"revaluation","287","1238297","0.0-4.0-2.1-0.52","spark_pilot_2","7961","8","14","Male","","false","","","","","[1127,460.60000002384186]","./assets/img/ocean/memory/14.jpg","[""ArrowUp"",""ArrowRight""]","value training","ocean","10","{""ArrowUp,ArrowLeft"":23,""ArrowUp,ArrowRight"":10,""ArrowDown,ArrowLeft"":8,""ArrowDown,ArrowRight"":30}","false","ArrowUp,ArrowRight","false","","","original","2","4","","",""
"html-keyboard-response","288","1238811","0.0-4.0-2.1-1.52","spark_pilot_2","7961","8","14","Male","","","","","","","null","<div style=""font-size:60px;"">+</div>","null","fixation","","","","","","","","","","","5","","",""
"revaluation","289","1244847","0.0-4.0-2.1-0.53","spark_pilot_2","7961","8","14","Male","","false","","","","","[783.5,545.3000000119209]","./assets/img/ocean/memory/13.jpg","[""ArrowDown"",""ArrowLeft""]","value training","ocean","8","{""ArrowUp,ArrowLeft"":23,""ArrowUp,ArrowRight"":10,""ArrowDown,ArrowLeft"":8,""ArrowDown,ArrowRight"":30}","false","ArrowDown,ArrowLeft","false","","","original","2","6","","",""
"html-keyboard-response","290","1245349","0.0-4.0-2.1-1.53","spark_pilot_2","7961","8","14","Male","","","","","","","null","<div style=""font-size:60px;"">+</div>","null","fixation","","","","","","","","","","","7","","",""
"revaluation","291","1251353","0.0-4.0-2.1-0.54","spark_pilot_2","7961","8","14","Male","","false","","","","","[665.2000000476837,423.5999999642372]","./assets/img/ocean/memory/29.jpg","[""ArrowDown"",""ArrowRight""]","value training","ocean","30","{""ArrowUp,ArrowLeft"":23,""ArrowUp,ArrowRight"":10,""ArrowDown,ArrowLeft"":8,""ArrowDown,ArrowRight"":30}","true","ArrowDown,ArrowRight","false","","","original","2","8","","",""
"html-keyboard-response","292","1251865","0.0-4.0-2.1-1.54","spark_pilot_2","7961","8","14","Male","","","","","","","null","<div style=""font-size:60px;"">+</div>","null","fixation","","","","","","","","","","","9","","",""
"revaluation","293","1257873","0.0-4.0-2.1-0.55","spark_pilot_2","7961","8","14","Male","","false","","","","","[819.3000000119209,304.4000000357628]","./assets/img/ocean/memory/37.jpg","[""ArrowDown"",""ArrowRight""]","value training","ocean","30","{""ArrowUp,ArrowLeft"":23,""ArrowUp,ArrowRight"":10,""ArrowDown,ArrowLeft"":8,""ArrowDown,ArrowRight"":30}","true","ArrowDown,ArrowRight","false","","","original","2","10","","",""
"html-keyboard-response","294","1258388","0.0-4.0-2.1-1.55","spark_pilot_2","7961","8","14","Male","","","","","","","null","<div style=""font-size:60px;"">+</div>","null","fixation","","","","","","","","","","","11","","",""
"revaluation","295","1262393","0.0-4.0-2.1-0.56","spark_pilot_2","7961","8","14","Male","","false","","","","","[648.6000000238419]","./assets/img/ocean/catch/0.jpg","[""spaceBar""]","value training","ocean","0","{""ArrowUp,ArrowLeft"":23,""ArrowUp,ArrowRight"":10,""ArrowDown,ArrowLeft"":8,""ArrowDown,ArrowRight"":30}","true","spaceBar","true","","","original","2","12","","",""
"html-keyboard-response","296","1262895","0.0-4.0-2.1-1.56","spark_pilot_2","7961","8","14","Male","","","","","","","null","<div style=""font-size:60px;"">+</div>","null","fixation","","","","","","","","","","","13","","",""
"revaluation","297","1268900","0.0-4.0-2.1-0.57","spark_pilot_2","7961","8","14","Male","","false","","","","","[1101.5,589.1000000238419]","./assets/img/ocean/memory/18.jpg","[""ArrowDown"",""ArrowRight""]","value training","ocean","30","{""ArrowUp,ArrowLeft"":23,""ArrowUp,ArrowRight"":10,""ArrowDown,ArrowLeft"":8,""ArrowDown,ArrowRight"":30}","true","ArrowDown,ArrowRight","false","","","original","2","14","","",""
"html-keyboard-response","298","1269402","0.0-4.0-2.1-1.57","spark_pilot_2","7961","8","14","Male","","","","","","","null","<div style=""font-size:60px;"">+</div>","null","fixation","","","","","","","","","","","15","","",""
"revaluation","299","1275408","0.0-4.0-2.1-0.58","spark_pilot_2","7961","8","14","Male","","false","","","","","[674.5,593.1999999880791]","./assets/img/ocean/memory/13.jpg","[""ArrowDown"",""ArrowRight""]","value training","ocean","30","{""ArrowUp,ArrowLeft"":23,""ArrowUp,ArrowRight"":10,""ArrowDown,ArrowLeft"":8,""ArrowDown,ArrowRight"":30}","true","ArrowDown,ArrowRight","false","","","original","2","16","","",""
"html-keyboard-response","300","1275910","0.0-4.0-2.1-1.58","spark_pilot_2","7961","8","14","Male","","","","","","","null","<div style=""font-size:60px;"">+</div>","null","fixation","","","","","","","","","","","17","","",""
"revaluation","301","1281917","0.0-4.0-2.1-0.59","spark_pilot_2","7961","8","14","Male","","false","","","","","[805,324.5999999642372]","./assets/img/ocean/memory/35.jpg","[""ArrowDown"",""ArrowRight""]","value training","ocean","30","{""ArrowUp,ArrowLeft"":23,""ArrowUp,ArrowRight"":10,""ArrowDown,ArrowLeft"":8,""ArrowDown,ArrowRight"":30}","true","ArrowDown,ArrowRight","false","","","original","2","18","","",""
"html-keyboard-response","302","1282418","0.0-4.0-2.1-1.59","spark_pilot_2","7961","8","14","Male","","","","","","","null","<div style=""font-size:60px;"">+</div>","null","fixation","","","","","","","","","","","19","","",""
"revaluation","303","1288424","0.0-4.0-2.1-0.60","spark_pilot_2","7961","8","14","Male","","false","","","","","[618.5999999642372,841.5]","./assets/img/ocean/memory/4.jpg","[""ArrowDown"",""ArrowRight""]","value training","ocean","30","{""ArrowUp,ArrowLeft"":23,""ArrowUp,ArrowRight"":10,""ArrowDown,ArrowLeft"":8,""ArrowDown,ArrowRight"":30}","true","ArrowDown,ArrowRight","false","","","original","2","20","","",""
"html-keyboard-response","304","1288938","0.0-4.0-2.1-1.60","spark_pilot_2","7961","8","14","Male","","","","","","","null","<div style=""font-size:60px;"">+</div>","null","fixation","","","","","","","","","","","21","","",""
"revaluation","305","1294943","0.0-4.0-2.1-0.61","spark_pilot_2","7961","8","14","Male","","false","","","","","[721.6999999880791,369.39999997615814]","./assets/img/ocean/memory/22.jpg","[""ArrowUp"",""ArrowRight""]","value training","ocean","10","{""ArrowUp,ArrowLeft"":23,""ArrowUp,ArrowRight"":10,""ArrowDown,ArrowLeft"":8,""ArrowDown,ArrowRight"":30}","false","ArrowUp,ArrowRight","false","","","original","2","22","","",""
"html-keyboard-response","306","1295447","0.0-4.0-2.1-1.61","spark_pilot_2","7961","8","14","Male","","","","","","","null","<div style=""font-size:60px;"">+</div>","null","fixation","","","","","","","","","","","23","","",""
"revaluation","307","1301453","0.0-4.0-2.1-0.62","spark_pilot_2","7961","8","14","Male","","false","","","","","[100.89999997615814,196.4000000357628]","./assets/img/ocean/memory/5.jpg","[""ArrowDown"",""ArrowRight""]","value training","ocean","30","{""ArrowUp,ArrowLeft"":23,""ArrowUp,ArrowRight"":10,""ArrowDown,ArrowLeft"":8,""ArrowDown,ArrowRight"":30}","true","ArrowDown,ArrowRight","false","","","original","2","24","","",""
