"trial_type","trial_index","time_elapsed","internal_node_id","task_version","subject_id","assigned_condition","age","gender","success","timeout","failed_images","failed_audio","failed_video","browser_interaction","rt","stimulus","response","task_part","environment","score","rewardMap","correct","fullState","isCatch","numberMissed","duration","condition","order","trial_num","key_press","ground_truth","bonus"
"pavlovia","0","1458","0.0-0.0","spark_pilot_2","7513","3","23","Male","","","","","","","","","","","","","","","","","","","","","","","",""
"preload","1","11491","0.0-1.0","spark_pilot_2","7513","3","23","Male","true","false","[]","[]","[]","[{""event"":""fullscreenenter"",""trial"":2,""time"":23839}]","","","","","","","","","","","","","","","","","",""
"fullscreen","2","24837","0.0-2.0","spark_pilot_2","7513","3","23","Male","true","","","","","","","","","","","","","","","","","","","","","","",""
"audio-button-response","3","28358","0.0-3.0-0.0-0.0","spark_pilot_2","7513","3","23","Male","","","","","","","3395","./assets/audio/audiotest/turtle.mp3","2","audio_test","","","","","","","","","","","","","",""
"learning-instructions","4","40084","0.0-3.0-1.0-0.0","spark_pilot_2","7513","3","23","Male","","","","","","","4722","<p> Welcome! Please remember to stay in fullscreen mode and don't click away from the experiment. </p>","","instructions","","","","","","","","","","","","","",""
"learning-instructions","5","50026","0.0-3.0-1.0-0.1","spark_pilot_2","7513","3","23","Male","","","","","","","1500.3999999761581","<p> Today you will be playing a game to earn treasure. </p>
            <p> At the end of the experiment, you will earn a bonus based on how much treasure you find. </p>
            <img src='./assets/img/instructions/treasure.jpg' class='instructions-image'>","","instructions","","","","","","","","","","","","","",""
"learning-instructions","6","59230","0.0-3.0-1.0-0.2","spark_pilot_2","7513","3","23","Male","","","","","","","888","<p> Animals have hidden treasure in treasure chests. </p>
            <p> You need to first find an animal and then choose which of their treasure chests to search. </p>
            <img src='./assets/img/space/animals/cat.jpg' class='instructions-image'>","","instructions","","","","","","","","","","","","","",""
"learning-instructions","7","73906","0.0-3.0-1.0-0.3","spark_pilot_2","7513","3","23","Male","","","","","","","1469.1999999284744","<p> In each round, you will search for treasure in a different place. In the real game, there will be two rounds. </p>
            <p> You will begin with a separate, practice round where you will search for treasure in outer space. </p>
            <img src='./assets/img/space/0.jpg' class='instructions-image'>","","instructions","","","","","","","","","","","","","",""
"learning-instructions","8","87049","0.0-3.0-1.0-0.4","spark_pilot_2","7513","3","23","Male","","","","","","","1676.2000000476837","<p> On every turn, you will see a picture of the place that you are in, but the specific image may be different each time. </p>
            <p> For example, both of these images mean you are in outer space. </p>
            <img src='./assets/img/instructions/outerspace.jpg' class='instructions-image'>","","instructions","","","","","","","","","","","","","",""
"learning-instructions","9","96903","0.0-3.0-1.0-0.5","spark_pilot_2","7513","3","23","Male","","","","","","","1988.2000000476837","<p> You need to decide which direction to travel in. </p>
            <p> You can choose between going <b>up or down</b> by using the arrow keys. </p>
            <img src='./assets/img/instructions/updown.jpg' class='instructions-image'>","","instructions","","","","","","","","","","","","","",""
"learning-instructions","10","107559","0.0-3.0-1.0-0.6","spark_pilot_2","7513","3","23","Male","","","","","","","1804.2000000476837","<p> You will have <b>2 seconds</b> to make your choice. </p>
            <p> If you do not make a choice within 2 seconds, you will not find an animal or earn treasure. </p>
            <img src='./assets/img/instructions/2seconds.jpg' class='instructions-image'>","","instructions","","","","","","","","","","","","","",""
"learning-instructions","11","118502","0.0-3.0-1.0-0.7","spark_pilot_2","7513","3","23","Male","","","","","","","3875.7000000476837","<p> Let’s try practicing that now! </p>
            <p> When you see a picture of the place you are in, press the <b>up</b> key to travel up. </p>
            <img src='./assets/img/instructions/pressUp.jpg' class='instructions-image'>","","instructions","","","","","","","","","","","","","",""
"revaluation","12","122520","0.0-3.0-2.0-0.0","spark_pilot_2","7513","3","23","Male","","false","","","","","[830.7000000476837]","./assets/img/space/0.jpg","[""ArrowUp""]","first stage practice","space","0","null","null","ArrowUp","false","","","","","","","",""
"html-keyboard-response","13","123027","0.0-3.0-2.0-1.0","spark_pilot_2","7513","3","23","Male","","","","","","","null","<div style=""font-size:60px;"">+</div>","null","fixation","","","","","","","","","","","","","",""
"revaluation","14","127040","0.0-3.0-2.0-0.1","spark_pilot_2","7513","3","23","Male","","false","","","","","[1337.5999999046326]","./assets/img/space/1.jpg","[""ArrowUp""]","first stage practice","space","0","null","null","ArrowUp","false","","","","","","","",""
"html-keyboard-response","15","127544","0.0-3.0-2.0-1.1","spark_pilot_2","7513","3","23","Male","","","","","","","null","<div style=""font-size:60px;"">+</div>","null","fixation","","","","","","","","","","","","","",""
"revaluation","16","131565","0.0-3.0-2.0-0.2","spark_pilot_2","7513","3","23","Male","","false","","","","","[886.5]","./assets/img/space/2.jpg","[""ArrowUp""]","first stage practice","space","0","null","null","ArrowUp","false","","","","","","","",""
"html-keyboard-response","17","132074","0.0-3.0-2.0-1.2","spark_pilot_2","7513","3","23","Male","","","","","","","null","<div style=""font-size:60px;"">+</div>","null","fixation","","","","","","","","","","","","","",""
"learning-instructions","18","137947","0.0-3.0-3.0-0.0","spark_pilot_2","7513","3","23","Male","","","","","","","1157.7999999523163","<p> Great job! Now try pressing the <b>down</b> key to travel down. </p>
            <img src='./assets/img/instructions/pressDown.jpg' class='instructions-image'>","","instructions","","","","","","","","","","","","","",""
"revaluation","19","141963","0.0-3.0-4.0-0.0","spark_pilot_2","7513","3","23","Male","","false","","","","","[656.5999999046326]","./assets/img/space/3.jpg","[""ArrowDown""]","first stage practice","space","0","null","null","ArrowDown","false","","","","","","","",""
"html-keyboard-response","20","142472","0.0-3.0-4.0-1.0","spark_pilot_2","7513","3","23","Male","","","","","","","null","<div style=""font-size:60px;"">+</div>","null","fixation","","","","","","","","","","","","","",""
"revaluation","21","146489","0.0-3.0-4.0-0.1","spark_pilot_2","7513","3","23","Male","","false","","","","","[291.60000002384186]","./assets/img/space/4.jpg","[""ArrowDown""]","first stage practice","space","0","null","null","ArrowDown","false","","","","","","","",""
"html-keyboard-response","22","146993","0.0-3.0-4.0-1.1","spark_pilot_2","7513","3","23","Male","","","","","","","null","<div style=""font-size:60px;"">+</div>","null","fixation","","","","","","","","","","","","","",""
"revaluation","23","151009","0.0-3.0-4.0-0.2","spark_pilot_2","7513","3","23","Male","","false","","","","","[432.7000000476837]","./assets/img/space/5.jpg","[""ArrowDown""]","first stage practice","space","0","null","null","ArrowDown","false","","","","","","","",""
"html-keyboard-response","24","151514","0.0-3.0-4.0-1.2","spark_pilot_2","7513","3","23","Male","","","","","","","null","<div style=""font-size:60px;"">+</div>","null","fixation","","","","","","","","","","","","","",""
"learning-instructions","25","162718","0.0-3.0-5.0-0.0","spark_pilot_2","7513","3","23","Male","","","","","","","1314.9000000953674","<p> The animals don’t move, so the animal in the upper part of a place will stay in the upper part of a place, and the animal in the lower part of a place will stay in the lower part of a place. </p>","","instructions","","","","","","","","","","","","","",""
"learning-instructions","26","176461","0.0-3.0-5.0-0.1","spark_pilot_2","7513","3","23","Male","","","","","","","4575.600000023842","<p> Each animal has two treasure chests for you to choose from. </p>
            <p> The amount of treasure in each chest can range from <b> 0 to 40 pieces.</b></p>","","instructions","","","","","","","","","","","","","",""
"learning-instructions","27","189924","0.0-3.0-5.0-0.2","spark_pilot_2","7513","3","23","Male","","","","","","","2230","<p> You should decide which chest to search for treasure by using the <b>left</b> and <b>right</b> arrow keys. </p>
            <p><b> Pay attention to which animal is on the screen, as the animals have different treasure chests. </b></p>
            <img src='./assets/img/instructions/leftright.jpg' class='instructions-image'>","","instructions","","","","","","","","","","","","","",""
"learning-instructions","28","197669","0.0-3.0-5.0-0.3","spark_pilot_2","7513","3","23","Male","","","","","","","1355.8999999761581","<p> Let’s try practicing that now. </p>
            <p> When you see an animal, choose which chest to search for treasure. </p>
            <img src='./assets/img/instructions/chooseChest.jpg' class='instructions-image'>","","instructions","","","","","","","","","","","","","",""
"revaluation","29","201682","0.0-3.0-6.0-0.0","spark_pilot_2","7513","3","23","Male","","false","","","","","[718.5]","./assets/img/space/animals/cat.jpg","[""ArrowLeft""]","second stage practice","space","3","{""ArrowUp,ArrowLeft"":3,""ArrowUp,ArrowRight"":36,""ArrowDown,ArrowLeft"":15,""ArrowDown,ArrowRight"":23}","false","ArrowUp,ArrowLeft","","","","","","","","",""
"html-keyboard-response","30","202189","0.0-3.0-6.0-1.0","spark_pilot_2","7513","3","23","Male","","","","","","","null","<div style=""font-size:60px;"">+</div>","null","fixation","","","","","","","","","","","","","",""
"revaluation","31","206202","0.0-3.0-6.0-0.1","spark_pilot_2","7513","3","23","Male","","false","","","","","[795.8999999761581]","./assets/img/space/animals/rabbit.jpg","[""ArrowLeft""]","second stage practice","space","15","{""ArrowUp,ArrowLeft"":3,""ArrowUp,ArrowRight"":36,""ArrowDown,ArrowLeft"":15,""ArrowDown,ArrowRight"":23}","false","ArrowDown,ArrowLeft","","","","","","","","",""
"html-keyboard-response","32","206706","0.0-3.0-6.0-1.1","spark_pilot_2","7513","3","23","Male","","","","","","","null","<div style=""font-size:60px;"">+</div>","null","fixation","","","","","","","","","","","","","",""
"revaluation","33","210725","0.0-3.0-6.0-0.2","spark_pilot_2","7513","3","23","Male","","false","","","","","[882.6000000238419]","./assets/img/space/animals/cat.jpg","[""ArrowRight""]","second stage practice","space","36","{""ArrowUp,ArrowLeft"":3,""ArrowUp,ArrowRight"":36,""ArrowDown,ArrowLeft"":15,""ArrowDown,ArrowRight"":23}","true","ArrowUp,ArrowRight","","","","","","","","",""
"html-keyboard-response","34","211237","0.0-3.0-6.0-1.2","spark_pilot_2","7513","3","23","Male","","","","","","","null","<div style=""font-size:60px;"">+</div>","null","fixation","","","","","","","","","","","","","",""
"revaluation","35","215254","0.0-3.0-6.0-0.3","spark_pilot_2","7513","3","23","Male","","false","","","","","[1211.3999999761581]","./assets/img/space/animals/rabbit.jpg","[""ArrowRight""]","second stage practice","space","23","{""ArrowUp,ArrowLeft"":3,""ArrowUp,ArrowRight"":36,""ArrowDown,ArrowLeft"":15,""ArrowDown,ArrowRight"":23}","true","ArrowDown,ArrowRight","","","","","","","","",""
"html-keyboard-response","36","215765","0.0-3.0-6.0-1.3","spark_pilot_2","7513","3","23","Male","","","","","","","null","<div style=""font-size:60px;"">+</div>","null","fixation","","","","","","","","","","","","","",""
"learning-instructions","37","234031","0.0-3.0-7.0-0.0","spark_pilot_2","7513","3","23","Male","","","","","","","1380.7999999523163","<p> Great job. Now let’s try putting it together. </p>
            <p> On each turn, you will first see a picture to remind you of the place you are in, and you need to choose whether to go up or down. </p>
            <p> Then you will see an animal and choose which of its chests to search for treasure. </p>","","instructions","","","","","","","","","","","","","",""
"learning-instructions","38","243318","0.0-3.0-7.0-0.1","spark_pilot_2","7513","3","23","Male","","","","","","","991.3999999761581","<p> When you choose whether to go up or down, try to go to the animal with the chest with the most treasure. </p>
            <p> Try practicing that now! </p>","","instructions","","","","","","","","","","","","","",""
"revaluation","39","249342","0.0-3.0-8.0-0.0","spark_pilot_2","7513","3","23","Male","","false","","","","","[1158.3999999761581,768.8999999761581]","./assets/img/space/6.jpg","[""ArrowUp"",""ArrowLeft""]","full practice","space","3","{""ArrowUp,ArrowLeft"":3,""ArrowUp,ArrowRight"":36,""ArrowDown,ArrowLeft"":15,""ArrowDown,ArrowRight"":23}","false","ArrowUp,ArrowLeft","false","","","","","","","",""
"html-keyboard-response","40","249851","0.0-3.0-8.0-1.0","spark_pilot_2","7513","3","23","Male","","","","","","","null","<div style=""font-size:60px;"">+</div>","null","fixation","","","","","","","","","","","","","",""
"revaluation","41","255877","0.0-3.0-8.0-0.1","spark_pilot_2","7513","3","23","Male","","false","","","","","[1577.3999999761581,615]","./assets/img/space/7.jpg","[""ArrowUp"",""ArrowRight""]","full practice","space","36","{""ArrowUp,ArrowLeft"":3,""ArrowUp,ArrowRight"":36,""ArrowDown,ArrowLeft"":15,""ArrowDown,ArrowRight"":23}","true","ArrowUp,ArrowRight","false","","","","","","","",""
"html-keyboard-response","42","256383","0.0-3.0-8.0-1.1","spark_pilot_2","7513","3","23","Male","","","","","","","null","<div style=""font-size:60px;"">+</div>","null","fixation","","","","","","","","","","","","","",""
"revaluation","43","262403","0.0-3.0-8.0-0.2","spark_pilot_2","7513","3","23","Male","","false","","","","","[740.2000000476837,354.10000002384186]","./assets/img/space/8.jpg","[""ArrowUp"",""ArrowRight""]","full practice","space","36","{""ArrowUp,ArrowLeft"":3,""ArrowUp,ArrowRight"":36,""ArrowDown,ArrowLeft"":15,""ArrowDown,ArrowRight"":23}","true","ArrowUp,ArrowRight","false","","","","","","","",""
"html-keyboard-response","44","262910","0.0-3.0-8.0-1.2","spark_pilot_2","7513","3","23","Male","","","","","","","null","<div style=""font-size:60px;"">+</div>","null","fixation","","","","","","","","","","","","","",""
"revaluation","45","266926","0.0-3.0-8.0-0.3","spark_pilot_2","7513","3","23","Male","","true","","","","","[]","./assets/img/space/9.jpg","[]","full practice","space","-5","{""ArrowUp,ArrowLeft"":3,""ArrowUp,ArrowRight"":36,""ArrowDown,ArrowLeft"":15,""ArrowDown,ArrowRight"":23}","false","","false","","","","","","","",""
"html-keyboard-response","46","267438","0.0-3.0-8.0-1.3","spark_pilot_2","7513","3","23","Male","","","","","","","null","<div style=""font-size:60px;"">+</div>","null","fixation","","","","","","","","","","","","","",""
"revaluation","47","273460","0.0-3.0-8.0-0.4","spark_pilot_2","7513","3","23","Male","","false","","","","","[861,768.6000000238419]","./assets/img/space/10.jpg","[""ArrowUp"",""ArrowRight""]","full practice","space","36","{""ArrowUp,ArrowLeft"":3,""ArrowUp,ArrowRight"":36,""ArrowDown,ArrowLeft"":15,""ArrowDown,ArrowRight"":23}","true","ArrowUp,ArrowRight","false","","","","","","","",""
"html-keyboard-response","48","273964","0.0-3.0-8.0-1.4","spark_pilot_2","7513","3","23","Male","","","","","","","null","<div style=""font-size:60px;"">+</div>","null","fixation","","","","","","","","","","","","","",""
"learning-instructions","49","285370","0.0-3.0-9.0-0.0","spark_pilot_2","7513","3","23","Male","","","","","","","990.9000000953674","<p> One last thing: sometimes, you will see a robber. The robber can be anywhere in the picture. </p>
            <p> If you do not stop them, you will lose treasure. </p>
            <img src='./assets/img/instructions/robber.jpg' class='instructions-image'>","","instructions","","","","","","","","","","","","","",""
"learning-instructions","50","292984","0.0-3.0-9.0-0.1","spark_pilot_2","7513","3","23","Male","","","","","","","418.5","<p> If you see the robber, you should <b>press the space bar</b> rather than using the arrow keys. </p>
            <p> Try practicing that now! </p>","","instructions","","","","","","","","","","","","","",""
"revaluation","51","296995","0.0-3.0-10.0-0.0","spark_pilot_2","7513","3","23","Male","","false","","","","","[805.5]","./assets/img/space/catch/0.jpg","[""spaceBar""]","catch practice","space","0","{""ArrowUp,ArrowLeft"":3,""ArrowUp,ArrowRight"":36,""ArrowDown,ArrowLeft"":15,""ArrowDown,ArrowRight"":23}","true","spaceBar","true","","","","","","","",""
"html-keyboard-response","52","297499","0.0-3.0-10.0-1.0","spark_pilot_2","7513","3","23","Male","","","","","","","null","<div style=""font-size:60px;"">+</div>","null","fixation","","","","","","","","","","","","","",""
"revaluation","53","301516","0.0-3.0-10.0-0.1","spark_pilot_2","7513","3","23","Male","","false","","","","","[497.5]","./assets/img/space/catch/1.jpg","[""spaceBar""]","catch practice","space","0","{""ArrowUp,ArrowLeft"":3,""ArrowUp,ArrowRight"":36,""ArrowDown,ArrowLeft"":15,""ArrowDown,ArrowRight"":23}","true","spaceBar","true","","","","","","","",""
"html-keyboard-response","54","302020","0.0-3.0-10.0-1.1","spark_pilot_2","7513","3","23","Male","","","","","","","null","<div style=""font-size:60px;"">+</div>","null","fixation","","","","","","","","","","","","","",""
"revaluation","55","306037","0.0-3.0-10.0-0.2","spark_pilot_2","7513","3","23","Male","","false","","","","","[493.7000000476837]","./assets/img/space/catch/2.jpg","[""spaceBar""]","catch practice","space","0","{""ArrowUp,ArrowLeft"":3,""ArrowUp,ArrowRight"":36,""ArrowDown,ArrowLeft"":15,""ArrowDown,ArrowRight"":23}","true","spaceBar","true","","","","","","","",""
"html-keyboard-response","56","306540","0.0-3.0-10.0-1.2","spark_pilot_2","7513","3","23","Male","","","","","","","null","<div style=""font-size:60px;"">+</div>","null","fixation","","","","","","","","","","","","","",""
"learning-instructions","57","321089","0.0-3.0-11.0-0.0","spark_pilot_2","7513","3","23","Male","","","","","","","827.6000000238419","<p> After you explore a place to find treasure, it will be time to play a different game. </p>
            <p> During this game, red dots will appear on the screen and fall down slowly. </p>
            <p><b> You must click on them before they reach the bottom. </b></p>
            <img src='./assets/img/instructions/dotGame.jpg' class='instructions-image'>","","instructions","","","","","","","","","","","","","",""
"learning-instructions","58","327778","0.0-3.0-11.0-0.1","spark_pilot_2","7513","3","23","Male","","","","","","","994.1999999284744","<p> For every dot you click, you will earn additional treasure. </p>
            <p> Let’s try practicing that now. </p>","","instructions","","","","","","","","","","","","","",""
"revaluation","59","342793","0.0-3.0-12.0-0.0","spark_pilot_2","7513","3","23","Male","","","","","","","[84]","","","rest practice","","10","","","","","0","15000","","","","","",""
"learning-instructions","60","349112","0.0-3.0-13.0-0.0-0.0","spark_pilot_2","7513","3","23","Male","","","","","","","1054.7000000476837","<p> Now, you will practice a shortened version of the game to get a sense of how it all fits together. </p>","","instructions","","","","","","","","","","","","","",""
"learning-instructions","61","354004","0.0-3.0-13.0-0.0-0.1","spark_pilot_2","7513","3","23","Male","","","","","","","1690.5","<p>This time you are searching for treasure in outer space.</p>","","instructions","","","","","","","","","","","","","",""
"learning-instructions","62","370218","0.0-3.0-13.0-1.0-0.0","spark_pilot_2","7513","3","23","Male","","","","","","","1378.6000000238419","<p> Remember, when you see a picture of the place, use the up and down keys to <b>find an animal</b>.</p>
            <p> When you encounter an animal, you should use the left and right keys to <b>select a treasure chest</b>.</p>
            <p> Don't forget to look out for the robber! </p>","","instructions","","","","","","","","","","","","","",""
"revaluation","63","376238","0.0-3.0-13.0-2.0-0.0","spark_pilot_2","7513","3","23","Male","","false","","","","","[1959,1054.1000000238419]","./assets/img/space/11.jpg","[""ArrowUp"",""ArrowRight""]","practice block","space","36","{""ArrowUp,ArrowLeft"":3,""ArrowUp,ArrowRight"":36,""ArrowDown,ArrowLeft"":15,""ArrowDown,ArrowRight"":23}","true","ArrowUp,ArrowRight","false","","","","","","","",""
"html-keyboard-response","64","376741","0.0-3.0-13.0-2.0-1.0","spark_pilot_2","7513","3","23","Male","","","","","","","null","<div style=""font-size:60px;"">+</div>","null","fixation","","","","","","","","","","","","","",""
"revaluation","65","382766","0.0-3.0-13.0-2.0-0.1","spark_pilot_2","7513","3","23","Male","","false","","","","","[764.7000000476837,540]","./assets/img/space/12.jpg","[""ArrowUp"",""ArrowRight""]","practice block","space","36","{""ArrowUp,ArrowLeft"":3,""ArrowUp,ArrowRight"":36,""ArrowDown,ArrowLeft"":15,""ArrowDown,ArrowRight"":23}","true","ArrowUp,ArrowRight","false","","","","","","","",""
"html-keyboard-response","66","383270","0.0-3.0-13.0-2.0-1.1","spark_pilot_2","7513","3","23","Male","","","","","","","null","<div style=""font-size:60px;"">+</div>","null","fixation","","","","","","","","","","","","","",""
"revaluation","67","389294","0.0-3.0-13.0-2.0-0.2","spark_pilot_2","7513","3","23","Male","","false","","","","","[841.7999999523163,1165.3999999761581]","./assets/img/space/13.jpg","[""ArrowDown"",""ArrowRight""]","practice block","space","23","{""ArrowUp,ArrowLeft"":3,""ArrowUp,ArrowRight"":36,""ArrowDown,ArrowLeft"":15,""ArrowDown,ArrowRight"":23}","false","ArrowDown,ArrowRight","false","","","","","","","",""
"html-keyboard-response","68","389798","0.0-3.0-13.0-2.0-1.2","spark_pilot_2","7513","3","23","Male","","","","","","","null","<div style=""font-size:60px;"">+</div>","null","fixation","","","","","","","","","","","","","",""
"revaluation","69","395826","0.0-3.0-13.0-2.0-0.3","spark_pilot_2","7513","3","23","Male","","false","","","","","[1537.1999999284744,755]","./assets/img/space/14.jpg","[""ArrowUp"",""ArrowRight""]","practice block","space","36","{""ArrowUp,ArrowLeft"":3,""ArrowUp,ArrowRight"":36,""ArrowDown,ArrowLeft"":15,""ArrowDown,ArrowRight"":23}","true","ArrowUp,ArrowRight","false","","","","","","","",""
"html-keyboard-response","70","396337","0.0-3.0-13.0-2.0-1.3","spark_pilot_2","7513","3","23","Male","","","","","","","null","<div style=""font-size:60px;"">+</div>","null","fixation","","","","","","","","","","","","","",""
"revaluation","71","402360","0.0-3.0-13.0-2.0-0.4","spark_pilot_2","7513","3","23","Male","","false","","","","","[1851.1000000238419,635.3999999761581]","./assets/img/space/11.jpg","[""ArrowUp"",""ArrowRight""]","practice block","space","36","{""ArrowUp,ArrowLeft"":3,""ArrowUp,ArrowRight"":36,""ArrowDown,ArrowLeft"":15,""ArrowDown,ArrowRight"":23}","true","ArrowUp,ArrowRight","false","","","","","","","",""
"html-keyboard-response","72","402864","0.0-3.0-13.0-2.0-1.4","spark_pilot_2","7513","3","23","Male","","","","","","","null","<div style=""font-size:60px;"">+</div>","null","fixation","","","","","","","","","","","","","",""
"revaluation","73","408888","0.0-3.0-13.0-2.0-0.5","spark_pilot_2","7513","3","23","Male","","false","","","","","[917.7999999523163,538.1000000238419]","./assets/img/space/12.jpg","[""ArrowUp"",""ArrowRight""]","practice block","space","36","{""ArrowUp,ArrowLeft"":3,""ArrowUp,ArrowRight"":36,""ArrowDown,ArrowLeft"":15,""ArrowDown,ArrowRight"":23}","true","ArrowUp,ArrowRight","false","","","","","","","",""
"html-keyboard-response","74","409395","0.0-3.0-13.0-2.0-1.5","spark_pilot_2","7513","3","23","Male","","","","","","","null","<div style=""font-size:60px;"">+</div>","null","fixation","","","","","","","","","","","","","",""
"revaluation","75","415424","0.0-3.0-13.0-2.0-0.6","spark_pilot_2","7513","3","23","Male","","false","","","","","[1006.8999999761581,466.8000000715256]","./assets/img/space/13.jpg","[""ArrowUp"",""ArrowRight""]","practice block","space","36","{""ArrowUp,ArrowLeft"":3,""ArrowUp,ArrowRight"":36,""ArrowDown,ArrowLeft"":15,""ArrowDown,ArrowRight"":23}","true","ArrowUp,ArrowRight","false","","","","","","","",""
"html-keyboard-response","76","415928","0.0-3.0-13.0-2.0-1.6","spark_pilot_2","7513","3","23","Male","","","","","","","null","<div style=""font-size:60px;"">+</div>","null","fixation","","","","","","","","","","","","","",""
"revaluation","77","421952","0.0-3.0-13.0-2.0-0.7","spark_pilot_2","7513","3","23","Male","","false","","","","","[1774.1000000238419,467.8000000715256]","./assets/img/space/14.jpg","[""ArrowUp"",""ArrowRight""]","practice block","space","36","{""ArrowUp,ArrowLeft"":3,""ArrowUp,ArrowRight"":36,""ArrowDown,ArrowLeft"":15,""ArrowDown,ArrowRight"":23}","true","ArrowUp,ArrowRight","false","","","","","","","",""
"html-keyboard-response","78","422456","0.0-3.0-13.0-2.0-1.7","spark_pilot_2","7513","3","23","Male","","","","","","","null","<div style=""font-size:60px;"">+</div>","null","fixation","","","","","","","","","","","","","",""
"revaluation","79","426473","0.0-3.0-13.0-2.0-0.8","spark_pilot_2","7513","3","23","Male","","false","","","","","[697.7000000476837]","./assets/img/space/catch/3.jpg","[""spaceBar""]","practice block","space","0","{""ArrowUp,ArrowLeft"":3,""ArrowUp,ArrowRight"":36,""ArrowDown,ArrowLeft"":15,""ArrowDown,ArrowRight"":23}","true","spaceBar","true","","","","","","","",""
"html-keyboard-response","80","426976","0.0-3.0-13.0-2.0-1.8","spark_pilot_2","7513","3","23","Male","","","","","","","null","<div style=""font-size:60px;"">+</div>","null","fixation","","","","","","","","","","","","","",""
"learning-instructions","81","441257","0.0-3.0-13.0-3.0-0.0","spark_pilot_2","7513","3","23","Male","","","","","","","1251","<p> Now, you will travel with a friend who will choose whether you go up or down first. </p>
            <p> On these turns, you will just see the animal that they found. You will still get to choose which chest to search for treasure.</p>","","instructions","","","","","","","","","","","","","",""
"revaluation","82","445271","0.0-3.0-13.0-4.0-0.0","spark_pilot_2","7513","3","23","Male","","false","","","","","[751.6999999284744]","./assets/img/space/animals/rabbit.jpg","[""ArrowRight""]","practice block","space","23","{""ArrowUp,ArrowLeft"":3,""ArrowUp,ArrowRight"":36,""ArrowDown,ArrowLeft"":15,""ArrowDown,ArrowRight"":23}","true","ArrowDown,ArrowRight","","","","","","","","",""
"html-keyboard-response","83","445779","0.0-3.0-13.0-4.0-1.0","spark_pilot_2","7513","3","23","Male","","","","","","","null","<div style=""font-size:60px;"">+</div>","null","fixation","","","","","","","","","","","","","",""
"revaluation","84","449791","0.0-3.0-13.0-4.0-0.1","spark_pilot_2","7513","3","23","Male","","false","","","","","[503.5]","./assets/img/space/animals/rabbit.jpg","[""ArrowRight""]","practice block","space","23","{""ArrowUp,ArrowLeft"":3,""ArrowUp,ArrowRight"":36,""ArrowDown,ArrowLeft"":15,""ArrowDown,ArrowRight"":23}","true","ArrowDown,ArrowRight","","","","","","","","",""
"html-keyboard-response","85","450295","0.0-3.0-13.0-4.0-1.1","spark_pilot_2","7513","3","23","Male","","","","","","","null","<div style=""font-size:60px;"">+</div>","null","fixation","","","","","","","","","","","","","",""
"revaluation","86","454311","0.0-3.0-13.0-4.0-0.2","spark_pilot_2","7513","3","23","Male","","false","","","","","[681.7000000476837]","./assets/img/space/animals/cat.jpg","[""ArrowRight""]","practice block","space","36","{""ArrowUp,ArrowLeft"":3,""ArrowUp,ArrowRight"":36,""ArrowDown,ArrowLeft"":15,""ArrowDown,ArrowRight"":23}","true","ArrowUp,ArrowRight","","","","","","","","",""
"html-keyboard-response","87","454815","0.0-3.0-13.0-4.0-1.2","spark_pilot_2","7513","3","23","Male","","","","","","","null","<div style=""font-size:60px;"">+</div>","null","fixation","","","","","","","","","","","","","",""
"revaluation","88","458831","0.0-3.0-13.0-4.0-0.3","spark_pilot_2","7513","3","23","Male","","false","","","","","[493]","./assets/img/space/animals/cat.jpg","[""ArrowRight""]","practice block","space","36","{""ArrowUp,ArrowLeft"":3,""ArrowUp,ArrowRight"":36,""ArrowDown,ArrowLeft"":15,""ArrowDown,ArrowRight"":23}","true","ArrowUp,ArrowRight","","","","","","","","",""
"html-keyboard-response","89","459335","0.0-3.0-13.0-4.0-1.3","spark_pilot_2","7513","3","23","Male","","","","","","","null","<div style=""font-size:60px;"">+</div>","null","fixation","","","","","","","","","","","","","",""
"learning-instructions","90","467570","0.0-3.0-13.0-5.0-0.0","spark_pilot_2","7513","3","23","Male","","","","","","","840.1999999284744","<p> Time to play the dot game! </p>
            <p> For 15 seconds, click the red dots on the following screen as they appear. </p>","","instructions","","","","","","","","","","","","","",""
"revaluation","91","482576","0.0-3.0-13.0-6.0-0.0","spark_pilot_2","7513","3","23","Male","","","","","","","[64]","","","rest practice","","10","","","","","0","15000","","","","","",""
"learning-instructions","92","491216","0.0-3.0-13.0-7.0-0.0","spark_pilot_2","7513","3","23","Male","","","","","","","2485.100000023842","<p> You have almost finished this part of the game! </p>
            <p> We are going to ask you to make a few more choices. </p>","","instructions","","","","","","","","","","","","","",""
"learning-instructions","93","506108","0.0-3.0-13.0-7.0-0.1","spark_pilot_2","7513","3","23","Male","","","","","","","826.9000000953674","<p> First, you need to decide whether to go up or down. When you see each picture, use the arrow keys to make your choice. </p>
            <p><b>You will not see which animal you found, but try to get to the one that will give you the most treasure.</b></p>","","instructions","","","","","","","","","","","","","",""
"revaluation","94","507305","0.0-3.0-13.0-8.0","spark_pilot_2","7513","3","23","Male","","false","","","","","[1195.6000000238419]","./assets/img/space/15.jpg","[""ArrowUp""]","practice block","space","0","{""ArrowUp,ArrowLeft"":3,""ArrowUp,ArrowRight"":36,""ArrowDown,ArrowLeft"":15,""ArrowDown,ArrowRight"":23}","true","ArrowUp","false","","","","","","","",""
"html-keyboard-response","95","507812","0.0-3.0-13.0-9.0","spark_pilot_2","7513","3","23","Male","","","","","","","null","<div style=""font-size:60px;"">+</div>","null","fixation","","","","","","","","","","","","","",""
"learning-instructions","96","522824","0.0-3.0-13.0-10.0-0.0","spark_pilot_2","7513","3","23","Male","","","","","","","3593.2000000476837","<p> Now you will see the animals again and can search their chests for treasure. </p>
            <p> This time, you will not see how much treasure you earned, but you will earn more bonus money for making better choices. </p>","","instructions","","","","","","","","","","","","","",""
"revaluation","97","523646","0.0-3.0-13.0-11.0-0.0","spark_pilot_2","7513","3","23","Male","","false","","","","","[820.8999999761581]","./assets/img/space/animals/cat.jpg","[""ArrowRight""]","practice block","space","0","{""ArrowUp,ArrowLeft"":3,""ArrowUp,ArrowRight"":36,""ArrowDown,ArrowLeft"":15,""ArrowDown,ArrowRight"":23}","true","ArrowUp,ArrowRight","","","","","","","","",""
"html-keyboard-response","98","524157","0.0-3.0-13.0-11.0-1.0","spark_pilot_2","7513","3","23","Male","","","","","","","null","<div style=""font-size:60px;"">+</div>","null","fixation","","","","","","","","","","","","","",""
"revaluation","99","525129","0.0-3.0-13.0-11.0-0.1","spark_pilot_2","7513","3","23","Male","","false","","","","","[970.6000000238419]","./assets/img/space/animals/rabbit.jpg","[""ArrowRight""]","practice block","space","0","{""ArrowUp,ArrowLeft"":3,""ArrowUp,ArrowRight"":36,""ArrowDown,ArrowLeft"":15,""ArrowDown,ArrowRight"":23}","true","ArrowDown,ArrowRight","","","","","","","","",""
"html-keyboard-response","100","525634","0.0-3.0-13.0-11.0-1.1","spark_pilot_2","7513","3","23","Male","","","","","","","null","<div style=""font-size:60px;"">+</div>","null","fixation","","","","","","","","","","","","","",""
"learning-instructions","101","532006","0.0-3.0-14.0-0.0","spark_pilot_2","7513","3","23","Male","","","","","","","1776.3999999761581","<p> Before you start, we're going to ask you a few questions about how the game works. </p>","","instructions","","","","","","","","","","","","","",""
"comp-q","102","538683","0.0-3.0-15.0-0.0-0.0","spark_pilot_2","7513","3","23","Male","","","","","","","1066.8999999761581","<p> <b> True or False? </b> </p>
            <p> There can be 50 pieces of treasure in a given animal's chest. </p>","1","comp_question","","","","true","","","","","","","","","",""
"comp-q","103","546264","0.0-3.0-15.0-0.0-1.0","spark_pilot_2","7513","3","23","Male","","","","","","","895.3999999761581","<p> <b> That's right! </b> The amount of treasure in each chest can range from 0 to 40 pieces. </p>","0","comp_answer","","","","","","","","","","","","","",""
"comp-q","104","554023","0.0-3.0-15.0-0.1-0.1","spark_pilot_2","7513","3","23","Male","","","","","","","613.3999999761581","<p> <b> True or False? </b> </p><p> In this game, all animals have the same amount of treasure in their left and right chests. </p>","1","comp_question","","","","true","","","","","","","","","",""
"comp-q","105","560032","0.0-3.0-15.0-0.1-1.1","spark_pilot_2","7513","3","23","Male","","","","","","","754.8999999761581","<p> <b> That's right! </b> Animals have different amounts of treasure in their treasure chests. </p>","0","comp_answer","","","","","","","","","","","","","",""
"comp-q","106","566434","0.0-3.0-15.0-0.2-0.2","spark_pilot_2","7513","3","23","Male","","","","","","","535.5","<p> <b> True or False? </b> </p><p> The same animal will always be there if you go up in the same place. </p>","0","comp_question","","","","true","","","","","","","","","",""
"comp-q","107","573648","0.0-3.0-15.0-0.2-1.2","spark_pilot_2","7513","3","23","Male","","","","","","","738.7000000476837","<p> <b> That's right! </b> One animal lives in the upper part and one lives in the lower part of every place. </p>","0","comp_answer","","","","","","","","","","","","","",""
"comp-q","108","579714","0.0-3.0-15.0-0.3-0.3","spark_pilot_2","7513","3","23","Male","","","","","","","512.2000000476837","<p> <b> True or False? </b> </p><p> If you see a different picture, it means you are in a new place. </p>","1","comp_question","","","","true","","","","","","","","","",""
"comp-q","109","592636","0.0-3.0-15.0-0.3-1.3","spark_pilot_2","7513","3","23","Male","","","","","","","1651.1000000238419","<p> <b> That's right! </b> Lots of different images may show the same place. For example,  you may see three different images that all remind you that you are in outer space. </p>","0","comp_answer","","","","","","","","","","","","","",""
"learning-instructions","110","603867","0.0-3.0-16.0-0.0","spark_pilot_2","7513","3","23","Male","","","","","","","1338.9000000953674","<p> Good job. Remember to do your best because the amount of treasure you earn will be converted into bonus money. </p>
            <p> It’s time to start the real game! </p>","","instructions","","","","","","","","","","","","","",""
"learning-instructions","111","607008","0.0-4.0-0.0-0.0","spark_pilot_2","7513","3","23","Male","","","","","","","420.7000000476837","<p> This time you are searching for treasure in the <b>ocean</b>.</p>","","instructions","","","","","","","","","","","","","",""
"learning-instructions","112","624883","0.0-4.0-0.0-0.1","spark_pilot_2","7513","3","23","Male","","","","","","","429.39999997615814","<p><b>New</b> animals with <b>new</b> treasure chests live here. You need to explore to discover where the animal with the best treasure chest is.</p>
                    <p> Like before, once you figure out which animal has the chest with the most treasure, you should try to get to that animal and select that chest! </p>","","instructions","","","","","","","","","","","","","",""
"learning-instructions","113","640684","0.0-4.0-1.0-0.0","spark_pilot_2","7513","3","23","Male","","","","","","","1070","<p> Remember, when you see a picture of the place, use the up and down keys to <b>find an animal</b>.</p>
            <p> When you encounter an animal, you should use the left and right keys to <b>select a treasure chest</b>.</p>
            <p> Don't forget to look out for the robber! </p>","","instructions","","","","","","","","","","","","","",""
"revaluation","114","646709","0.0-4.0-2.0-0.0","spark_pilot_2","7513","3","23","Male","","false","","","","","[1220.8999999761581,745.5]","./assets/img/ocean/memory/11.jpg","[""ArrowUp"",""ArrowRight""]","value training","ocean","10","{""ArrowUp,ArrowLeft"":23,""ArrowUp,ArrowRight"":10,""ArrowDown,ArrowLeft"":8,""ArrowDown,ArrowRight"":30}","false","ArrowUp,ArrowRight","false","","","original","1","0","","",""
"html-keyboard-response","115","647221","0.0-4.0-2.0-1.0","spark_pilot_2","7513","3","23","Male","","","","","","","null","<div style=""font-size:60px;"">+</div>","null","fixation","","","","","","","","","","","1","","",""
"revaluation","116","653245","0.0-4.0-2.0-0.1","spark_pilot_2","7513","3","23","Male","","false","","","","","[1787.6999999284744,646.3999999761581]","./assets/img/ocean/memory/20.jpg","[""ArrowUp"",""ArrowLeft""]","value training","ocean","23","{""ArrowUp,ArrowLeft"":23,""ArrowUp,ArrowRight"":10,""ArrowDown,ArrowLeft"":8,""ArrowDown,ArrowRight"":30}","false","ArrowUp,ArrowLeft","false","","","original","1","2","","",""
"html-keyboard-response","117","653749","0.0-4.0-2.0-1.1","spark_pilot_2","7513","3","23","Male","","","","","","","null","<div style=""font-size:60px;"">+</div>","null","fixation","","","","","","","","","","","3","","",""
"revaluation","118","659773","0.0-4.0-2.0-0.2","spark_pilot_2","7513","3","23","Male","","false","","","","","[971.6999999284744,591.8999999761581]","./assets/img/ocean/memory/41.jpg","[""ArrowDown"",""ArrowLeft""]","value training","ocean","8","{""ArrowUp,ArrowLeft"":23,""ArrowUp,ArrowRight"":10,""ArrowDown,ArrowLeft"":8,""ArrowDown,ArrowRight"":30}","false","ArrowDown,ArrowLeft","false","","","original","1","4","","",""
"html-keyboard-response","119","660277","0.0-4.0-2.0-1.2","spark_pilot_2","7513","3","23","Male","","","","","","","null","<div style=""font-size:60px;"">+</div>","null","fixation","","","","","","","","","","","5","","",""
"revaluation","120","664292","0.0-4.0-2.0-0.3","spark_pilot_2","7513","3","23","Male","","false","","","","","[713.1000000238419]","./assets/img/ocean/catch/5.jpg","[""ArrowDown""]","value training","ocean","-10","{""ArrowUp,ArrowLeft"":23,""ArrowUp,ArrowRight"":10,""ArrowDown,ArrowLeft"":8,""ArrowDown,ArrowRight"":30}","false","ArrowDown","true","","","original","1","6","","",""
"html-keyboard-response","121","664796","0.0-4.0-2.0-1.3","spark_pilot_2","7513","3","23","Male","","","","","","","null","<div style=""font-size:60px;"">+</div>","null","fixation","","","","","","","","","","","7","","",""
"revaluation","122","670822","0.0-4.0-2.0-0.4","spark_pilot_2","7513","3","23","Male","","false","","","","","[833.1999999284744,343.10000002384186]","./assets/img/ocean/memory/1.jpg","[""ArrowDown"",""ArrowRight""]","value training","ocean","30","{""ArrowUp,ArrowLeft"":23,""ArrowUp,ArrowRight"":10,""ArrowDown,ArrowLeft"":8,""ArrowDown,ArrowRight"":30}","true","ArrowDown,ArrowRight","false","","","original","1","8","","",""
"html-keyboard-response","123","671326","0.0-4.0-2.0-1.4","spark_pilot_2","7513","3","23","Male","","","","","","","null","<div style=""font-size:60px;"">+</div>","null","fixation","","","","","","","","","","","9","","",""
"revaluation","124","677350","0.0-4.0-2.0-0.5","spark_pilot_2","7513","3","23","Male","","false","","","","","[833.8999999761581,524.1999999284744]","./assets/img/ocean/memory/4.jpg","[""ArrowUp"",""ArrowRight""]","value training","ocean","10","{""ArrowUp,ArrowLeft"":23,""ArrowUp,ArrowRight"":10,""ArrowDown,ArrowLeft"":8,""ArrowDown,ArrowRight"":30}","false","ArrowUp,ArrowRight","false","","","original","1","10","","",""
"html-keyboard-response","125","677854","0.0-4.0-2.0-1.5","spark_pilot_2","7513","3","23","Male","","","","","","","null","<div style=""font-size:60px;"">+</div>","null","fixation","","","","","","","","","","","11","","",""
"revaluation","126","683878","0.0-4.0-2.0-0.6","spark_pilot_2","7513","3","23","Male","","false","","","","","[750.8999999761581,310]","./assets/img/ocean/memory/18.jpg","[""ArrowDown"",""ArrowRight""]","value training","ocean","30","{""ArrowUp,ArrowLeft"":23,""ArrowUp,ArrowRight"":10,""ArrowDown,ArrowLeft"":8,""ArrowDown,ArrowRight"":30}","true","ArrowDown,ArrowRight","false","","","original","1","12","","",""
"html-keyboard-response","127","684382","0.0-4.0-2.0-1.6","spark_pilot_2","7513","3","23","Male","","","","","","","null","<div style=""font-size:60px;"">+</div>","null","fixation","","","","","","","","","","","13","","",""
"revaluation","128","688399","0.0-4.0-2.0-0.7","spark_pilot_2","7513","3","23","Male","","false","","","","","[579.5]","./assets/img/ocean/catch/2.jpg","[""spaceBar""]","value training","ocean","0","{""ArrowUp,ArrowLeft"":23,""ArrowUp,ArrowRight"":10,""ArrowDown,ArrowLeft"":8,""ArrowDown,ArrowRight"":30}","true","spaceBar","true","","","original","1","14","","",""
"html-keyboard-response","129","688902","0.0-4.0-2.0-1.7","spark_pilot_2","7513","3","23","Male","","","","","","","null","<div style=""font-size:60px;"">+</div>","null","fixation","","","","","","","","","","","15","","",""
"revaluation","130","694926","0.0-4.0-2.0-0.8","spark_pilot_2","7513","3","23","Male","","false","","","","","[510.7999999523163,360]","./assets/img/ocean/memory/23.jpg","[""ArrowDown"",""ArrowRight""]","value training","ocean","30","{""ArrowUp,ArrowLeft"":23,""ArrowUp,ArrowRight"":10,""ArrowDown,ArrowLeft"":8,""ArrowDown,ArrowRight"":30}","true","ArrowDown,ArrowRight","false","","","original","1","16","","",""
"html-keyboard-response","131","695430","0.0-4.0-2.0-1.8","spark_pilot_2","7513","3","23","Male","","","","","","","null","<div style=""font-size:60px;"">+</div>","null","fixation","","","","","","","","","","","17","","",""
"revaluation","132","701455","0.0-4.0-2.0-0.9","spark_pilot_2","7513","3","23","Male","","false","","","","","[658.2000000476837,388.60000002384186]","./assets/img/ocean/memory/35.jpg","[""ArrowDown"",""ArrowRight""]","value training","ocean","30","{""ArrowUp,ArrowLeft"":23,""ArrowUp,ArrowRight"":10,""ArrowDown,ArrowLeft"":8,""ArrowDown,ArrowRight"":30}","true","ArrowDown,ArrowRight","false","","","original","1","18","","",""
"html-keyboard-response","133","701958","0.0-4.0-2.0-1.9","spark_pilot_2","7513","3","23","Male","","","","","","","null","<div style=""font-size:60px;"">+</div>","null","fixation","","","","","","","","","","","19","","",""
"revaluation","134","707983","0.0-4.0-2.0-0.10","spark_pilot_2","7513","3","23","Male","","false","","","","","[607.8999999761581,507.1999999284744]","./assets/img/ocean/memory/33.jpg","[""ArrowDown"",""ArrowRight""]","value training","ocean","30","{""ArrowUp,ArrowLeft"":23,""ArrowUp,ArrowRight"":10,""ArrowDown,ArrowLeft"":8,""ArrowDown,ArrowRight"":30}","true","ArrowDown,ArrowRight","false","","","original","1","20","","",""
"html-keyboard-response","135","708487","0.0-4.0-2.0-1.10","spark_pilot_2","7513","3","23","Male","","","","","","","null","<div style=""font-size:60px;"">+</div>","null","fixation","","","","","","","","","","","21","","",""
"revaluation","136","714511","0.0-4.0-2.0-0.11","spark_pilot_2","7513","3","23","Male","","false","","","","","[643.8999999761581,325.1999999284744]","./assets/img/ocean/memory/9.jpg","[""ArrowDown"",""ArrowRight""]","value training","ocean","30","{""ArrowUp,ArrowLeft"":23,""ArrowUp,ArrowRight"":10,""ArrowDown,ArrowLeft"":8,""ArrowDown,ArrowRight"":30}","true","ArrowDown,ArrowRight","false","","","original","1","22","","",""
"html-keyboard-response","137","715015","0.0-4.0-2.0-1.11","spark_pilot_2","7513","3","23","Male","","","","","","","null","<div style=""font-size:60px;"">+</div>","null","fixation","","","","","","","","","","","23","","",""
"revaluation","138","721039","0.0-4.0-2.0-0.12","spark_pilot_2","7513","3","23","Male","","false","","","","","[719.2000000476837,326.5]","./assets/img/ocean/memory/27.jpg","[""ArrowDown"",""ArrowRight""]","value training","ocean","30","{""ArrowUp,ArrowLeft"":23,""ArrowUp,ArrowRight"":10,""ArrowDown,ArrowLeft"":8,""ArrowDown,ArrowRight"":30}","true","ArrowDown,ArrowRight","false","","","original","1","24","","",""
"html-keyboard-response","139","721543","0.0-4.0-2.0-1.12","spark_pilot_2","7513","3","23","Male","","","","","","","null","<div style=""font-size:60px;"">+</div>","null","fixation","","","","","","","","","","","25","","",""
"revaluation","140","727567","0.0-4.0-2.0-0.13","spark_pilot_2","7513","3","23","Male","","false","","","","","[546.6999999284744,408.7000000476837]","./assets/img/ocean/memory/28.jpg","[""ArrowDown"",""ArrowRight""]","value training","ocean","30","{""ArrowUp,ArrowLeft"":23,""ArrowUp,ArrowRight"":10,""ArrowDown,ArrowLeft"":8,""ArrowDown,ArrowRight"":30}","true","ArrowDown,ArrowRight","false","","","original","1","26","","",""
"html-keyboard-response","141","728071","0.0-4.0-2.0-1.13","spark_pilot_2","7513","3","23","Male","","","","","","","null","<div style=""font-size:60px;"">+</div>","null","fixation","","","","","","","","","","","27","","",""
"revaluation","142","732088","0.0-4.0-2.0-0.14","spark_pilot_2","7513","3","23","Male","","false","","","","","[589.3999999761581]","./assets/img/ocean/catch/6.jpg","[""spaceBar""]","value training","ocean","0","{""ArrowUp,ArrowLeft"":23,""ArrowUp,ArrowRight"":10,""ArrowDown,ArrowLeft"":8,""ArrowDown,ArrowRight"":30}","true","spaceBar","true","","","original","1","28","","",""
"html-keyboard-response","143","732591","0.0-4.0-2.0-1.14","spark_pilot_2","7513","3","23","Male","","","","","","","null","<div style=""font-size:60px;"">+</div>","null","fixation","","","","","","","","","","","29","","",""
"revaluation","144","738616","0.0-4.0-2.0-0.15","spark_pilot_2","7513","3","23","Male","","false","","","","","[528.3999999761581,335.10000002384186]","./assets/img/ocean/memory/18.jpg","[""ArrowDown"",""ArrowRight""]","value training","ocean","30","{""ArrowUp,ArrowLeft"":23,""ArrowUp,ArrowRight"":10,""ArrowDown,ArrowLeft"":8,""ArrowDown,ArrowRight"":30}","true","ArrowDown,ArrowRight","false","","","original","1","30","","",""
"html-keyboard-response","145","739119","0.0-4.0-2.0-1.15","spark_pilot_2","7513","3","23","Male","","","","","","","null","<div style=""font-size:60px;"">+</div>","null","fixation","","","","","","","","","","","31","","",""
"revaluation","146","743136","0.0-4.0-2.0-0.16","spark_pilot_2","7513","3","23","Male","","false","","","","","[571.3999999761581]","./assets/img/ocean/catch/4.jpg","[""spaceBar""]","value training","ocean","0","{""ArrowUp,ArrowLeft"":23,""ArrowUp,ArrowRight"":10,""ArrowDown,ArrowLeft"":8,""ArrowDown,ArrowRight"":30}","true","spaceBar","true","","","original","1","32","","",""
"html-keyboard-response","147","743639","0.0-4.0-2.0-1.16","spark_pilot_2","7513","3","23","Male","","","","","","","null","<div style=""font-size:60px;"">+</div>","null","fixation","","","","","","","","","","","33","","",""
"revaluation","148","749664","0.0-4.0-2.0-0.17","spark_pilot_2","7513","3","23","Male","","false","","","","","[442.60000002384186,336.10000002384186]","./assets/img/ocean/memory/4.jpg","[""ArrowDown"",""ArrowRight""]","value training","ocean","30","{""ArrowUp,ArrowLeft"":23,""ArrowUp,ArrowRight"":10,""ArrowDown,ArrowLeft"":8,""ArrowDown,ArrowRight"":30}","true","ArrowDown,ArrowRight","false","","","original","1","34","","",""
"html-keyboard-response","149","750168","0.0-4.0-2.0-1.17","spark_pilot_2","7513","3","23","Male","","","","","","","null","<div style=""font-size:60px;"">+</div>","null","fixation","","","","","","","","","","","35","","",""
"revaluation","150","756192","0.0-4.0-2.0-0.18","spark_pilot_2","7513","3","23","Male","","false","","","","","[717.6000000238419,412]","./assets/img/ocean/memory/35.jpg","[""ArrowDown"",""ArrowRight""]","value training","ocean","30","{""ArrowUp,ArrowLeft"":23,""ArrowUp,ArrowRight"":10,""ArrowDown,ArrowLeft"":8,""ArrowDown,ArrowRight"":30}","true","ArrowDown,ArrowRight","false","","","original","1","36","","",""
"html-keyboard-response","151","756696","0.0-4.0-2.0-1.18","spark_pilot_2","7513","3","23","Male","","","","","","","null","<div style=""font-size:60px;"">+</div>","null","fixation","","","","","","","","","","","37","","",""
"revaluation","152","762720","0.0-4.0-2.0-0.19","spark_pilot_2","7513","3","23","Male","","false","","","","","[647.1999999284744,295.89999997615814]","./assets/img/ocean/memory/37.jpg","[""ArrowDown"",""ArrowRight""]","value training","ocean","30","{""ArrowUp,ArrowLeft"":23,""ArrowUp,ArrowRight"":10,""ArrowDown,ArrowLeft"":8,""ArrowDown,ArrowRight"":30}","true","ArrowDown,ArrowRight","false","","","original","1","38","","",""
"html-keyboard-response","153","763224","0.0-4.0-2.0-1.19","spark_pilot_2","7513","3","23","Male","","","","","","","null","<div style=""font-size:60px;"">+</div>","null","fixation","","","","","","","","","","","39","","",""
"revaluation","154","769248","0.0-4.0-2.0-0.20","spark_pilot_2","7513","3","23","Male","","false","","","","","[592.6000000238419,312.89999997615814]","./assets/img/ocean/memory/32.jpg","[""ArrowDown"",""ArrowRight""]","value training","ocean","30","{""ArrowUp,ArrowLeft"":23,""ArrowUp,ArrowRight"":10,""ArrowDown,ArrowLeft"":8,""ArrowDown,ArrowRight"":30}","true","ArrowDown,ArrowRight","false","","","original","1","40","","",""
"html-keyboard-response","155","769752","0.0-4.0-2.0-1.20","spark_pilot_2","7513","3","23","Male","","","","","","","null","<div style=""font-size:60px;"">+</div>","null","fixation","","","","","","","","","","","41","","",""
"revaluation","156","775776","0.0-4.0-2.0-0.21","spark_pilot_2","7513","3","23","Male","","false","","","","","[592.8999999761581,329.39999997615814]","./assets/img/ocean/memory/32.jpg","[""ArrowDown"",""ArrowRight""]","value training","ocean","30","{""ArrowUp,ArrowLeft"":23,""ArrowUp,ArrowRight"":10,""ArrowDown,ArrowLeft"":8,""ArrowDown,ArrowRight"":30}","true","ArrowDown,ArrowRight","false","","","original","1","42","","",""
"html-keyboard-response","157","776280","0.0-4.0-2.0-1.21","spark_pilot_2","7513","3","23","Male","","","","","","","null","<div style=""font-size:60px;"">+</div>","null","fixation","","","","","","","","","","","43","","",""
"revaluation","158","782305","0.0-4.0-2.0-0.22","spark_pilot_2","7513","3","23","Male","","false","","","","","[609.8999999761581,307.6999999284744]","./assets/img/ocean/memory/9.jpg","[""ArrowDown"",""ArrowRight""]","value training","ocean","30","{""ArrowUp,ArrowLeft"":23,""ArrowUp,ArrowRight"":10,""ArrowDown,ArrowLeft"":8,""ArrowDown,ArrowRight"":30}","true","ArrowDown,ArrowRight","false","","","original","1","44","","",""
"html-keyboard-response","159","782808","0.0-4.0-2.0-1.22","spark_pilot_2","7513","3","23","Male","","","","","","","null","<div style=""font-size:60px;"">+</div>","null","fixation","","","","","","","","","","","45","","",""
"revaluation","160","786825","0.0-4.0-2.0-0.23","spark_pilot_2","7513","3","23","Male","","false","","","","","[521.5]","./assets/img/ocean/catch/7.jpg","[""spaceBar""]","value training","ocean","0","{""ArrowUp,ArrowLeft"":23,""ArrowUp,ArrowRight"":10,""ArrowDown,ArrowLeft"":8,""ArrowDown,ArrowRight"":30}","true","spaceBar","true","","","original","1","46","","",""
"html-keyboard-response","161","787328","0.0-4.0-2.0-1.23","spark_pilot_2","7513","3","23","Male","","","","","","","null","<div style=""font-size:60px;"">+</div>","null","fixation","","","","","","","","","","","47","","",""
"revaluation","162","793353","0.0-4.0-2.0-0.24","spark_pilot_2","7513","3","23","Male","","false","","","","","[754.7000000476837,327.2999999523163]","./assets/img/ocean/memory/33.jpg","[""ArrowDown"",""ArrowRight""]","value training","ocean","30","{""ArrowUp,ArrowLeft"":23,""ArrowUp,ArrowRight"":10,""ArrowDown,ArrowLeft"":8,""ArrowDown,ArrowRight"":30}","true","ArrowDown,ArrowRight","false","","","original","1","48","","",""
"html-keyboard-response","163","793857","0.0-4.0-2.0-1.24","spark_pilot_2","7513","3","23","Male","","","","","","","null","<div style=""font-size:60px;"">+</div>","null","fixation","","","","","","","","","","","49","","",""
"revaluation","164","799881","0.0-4.0-2.0-0.25","spark_pilot_2","7513","3","23","Male","","false","","","","","[754.6000000238419,278.5]","./assets/img/ocean/memory/20.jpg","[""ArrowDown"",""ArrowRight""]","value training","ocean","30","{""ArrowUp,ArrowLeft"":23,""ArrowUp,ArrowRight"":10,""ArrowDown,ArrowLeft"":8,""ArrowDown,ArrowRight"":30}","true","ArrowDown,ArrowRight","false","","","original","1","50","","",""
"html-keyboard-response","165","800385","0.0-4.0-2.0-1.25","spark_pilot_2","7513","3","23","Male","","","","","","","null","<div style=""font-size:60px;"">+</div>","null","fixation","","","","","","","","","","","51","","",""
"revaluation","166","806409","0.0-4.0-2.0-0.26","spark_pilot_2","7513","3","23","Male","","false","","","","","[489.7999999523163,323.10000002384186]","./assets/img/ocean/memory/23.jpg","[""ArrowDown"",""ArrowRight""]","value training","ocean","30","{""ArrowUp,ArrowLeft"":23,""ArrowUp,ArrowRight"":10,""ArrowDown,ArrowLeft"":8,""ArrowDown,ArrowRight"":30}","true","ArrowDown,ArrowRight","false","","","original","1","52","","",""
"html-keyboard-response","167","806913","0.0-4.0-2.0-1.26","spark_pilot_2","7513","3","23","Male","","","","","","","null","<div style=""font-size:60px;"">+</div>","null","fixation","","","","","","","","","","","53","","",""
"revaluation","168","812937","0.0-4.0-2.0-0.27","spark_pilot_2","7513","3","23","Male","","false","","","","","[631.2999999523163,320]","./assets/img/ocean/memory/37.jpg","[""ArrowDown"",""ArrowRight""]","value training","ocean","30","{""ArrowUp,ArrowLeft"":23,""ArrowUp,ArrowRight"":10,""ArrowDown,ArrowLeft"":8,""ArrowDown,ArrowRight"":30}","true","ArrowDown,ArrowRight","false","","","original","1","54","","",""
"html-keyboard-response","169","813441","0.0-4.0-2.0-1.27","spark_pilot_2","7513","3","23","Male","","","","","","","null","<div style=""font-size:60px;"">+</div>","null","fixation","","","","","","","","","","","55","","",""
"revaluation","170","819465","0.0-4.0-2.0-0.28","spark_pilot_2","7513","3","23","Male","","false","","","","","[530.3000000715256,290.39999997615814]","./assets/img/ocean/memory/25.jpg","[""ArrowDown"",""ArrowRight""]","value training","ocean","30","{""ArrowUp,ArrowLeft"":23,""ArrowUp,ArrowRight"":10,""ArrowDown,ArrowLeft"":8,""ArrowDown,ArrowRight"":30}","true","ArrowDown,ArrowRight","false","","","original","1","56","","",""
"html-keyboard-response","171","819969","0.0-4.0-2.0-1.28","spark_pilot_2","7513","3","23","Male","","","","","","","null","<div style=""font-size:60px;"">+</div>","null","fixation","","","","","","","","","","","57","","",""
"revaluation","172","825994","0.0-4.0-2.0-0.29","spark_pilot_2","7513","3","23","Male","","false","","","","","[583,583.3999999761581]","./assets/img/ocean/memory/19.jpg","[""ArrowDown"",""ArrowRight""]","value training","ocean","30","{""ArrowUp,ArrowLeft"":23,""ArrowUp,ArrowRight"":10,""ArrowDown,ArrowLeft"":8,""ArrowDown,ArrowRight"":30}","true","ArrowDown,ArrowRight","false","","","original","1","58","","",""
"html-keyboard-response","173","826497","0.0-4.0-2.0-1.29","spark_pilot_2","7513","3","23","Male","","","","","","","null","<div style=""font-size:60px;"">+</div>","null","fixation","","","","","","","","","","","59","","",""
"revaluation","174","832522","0.0-4.0-2.0-0.30","spark_pilot_2","7513","3","23","Male","","false","","","","","[584.7999999523163,283.2999999523163]","./assets/img/ocean/memory/10.jpg","[""ArrowDown"",""ArrowRight""]","value training","ocean","30","{""ArrowUp,ArrowLeft"":23,""ArrowUp,ArrowRight"":10,""ArrowDown,ArrowLeft"":8,""ArrowDown,ArrowRight"":30}","true","ArrowDown,ArrowRight","false","","","original","1","60","","",""
"html-keyboard-response","175","833026","0.0-4.0-2.0-1.30","spark_pilot_2","7513","3","23","Male","","","","","","","null","<div style=""font-size:60px;"">+</div>","null","fixation","","","","","","","","","","","61","","",""
"revaluation","176","839050","0.0-4.0-2.0-0.31","spark_pilot_2","7513","3","23","Male","","false","","","","","[473,244]","./assets/img/ocean/memory/28.jpg","[""ArrowDown"",""ArrowRight""]","value training","ocean","30","{""ArrowUp,ArrowLeft"":23,""ArrowUp,ArrowRight"":10,""ArrowDown,ArrowLeft"":8,""ArrowDown,ArrowRight"":30}","true","ArrowDown,ArrowRight","false","","","original","1","62","","",""
"html-keyboard-response","177","839554","0.0-4.0-2.0-1.31","spark_pilot_2","7513","3","23","Male","","","","","","","null","<div style=""font-size:60px;"">+</div>","null","fixation","","","","","","","","","","","63","","",""
"revaluation","178","845581","0.0-4.0-2.0-0.32","spark_pilot_2","7513","3","23","Male","","false","","","","","[643.6999999284744,387.7999999523163]","./assets/img/ocean/memory/11.jpg","[""ArrowDown"",""ArrowRight""]","value training","ocean","30","{""ArrowUp,ArrowLeft"":23,""ArrowUp,ArrowRight"":10,""ArrowDown,ArrowLeft"":8,""ArrowDown,ArrowRight"":30}","true","ArrowDown,ArrowRight","false","","","original","1","64","","",""
"html-keyboard-response","179","846090","0.0-4.0-2.0-1.32","spark_pilot_2","7513","3","23","Male","","","","","","","null","<div style=""font-size:60px;"">+</div>","null","fixation","","","","","","","","","","","65","","",""
"revaluation","180","852114","0.0-4.0-2.0-0.33","spark_pilot_2","7513","3","23","Male","","false","","","","","[506,272.7999999523163]","./assets/img/ocean/memory/5.jpg","[""ArrowDown"",""ArrowRight""]","value training","ocean","30","{""ArrowUp,ArrowLeft"":23,""ArrowUp,ArrowRight"":10,""ArrowDown,ArrowLeft"":8,""ArrowDown,ArrowRight"":30}","true","ArrowDown,ArrowRight","false","","","original","1","66","","",""
"html-keyboard-response","181","852618","0.0-4.0-2.0-1.33","spark_pilot_2","7513","3","23","Male","","","","","","","null","<div style=""font-size:60px;"">+</div>","null","fixation","","","","","","","","","","","67","","",""
"revaluation","182","858643","0.0-4.0-2.0-0.34","spark_pilot_2","7513","3","23","Male","","false","","","","","[815.1000000238419,272.7000000476837]","./assets/img/ocean/memory/0.jpg","[""ArrowDown"",""ArrowRight""]","value training","ocean","30","{""ArrowUp,ArrowLeft"":23,""ArrowUp,ArrowRight"":10,""ArrowDown,ArrowLeft"":8,""ArrowDown,ArrowRight"":30}","true","ArrowDown,ArrowRight","false","","","original","1","68","","",""
"html-keyboard-response","183","859146","0.0-4.0-2.0-1.34","spark_pilot_2","7513","3","23","Male","","","","","","","null","<div style=""font-size:60px;"">+</div>","null","fixation","","","","","","","","","","","69","","",""
"revaluation","184","863162","0.0-4.0-2.0-0.35","spark_pilot_2","7513","3","23","Male","","false","","","","","[504.7000000476837]","./assets/img/ocean/catch/0.jpg","[""spaceBar""]","value training","ocean","0","{""ArrowUp,ArrowLeft"":23,""ArrowUp,ArrowRight"":10,""ArrowDown,ArrowLeft"":8,""ArrowDown,ArrowRight"":30}","true","spaceBar","true","","","original","1","70","","",""
"html-keyboard-response","185","863666","0.0-4.0-2.0-1.35","spark_pilot_2","7513","3","23","Male","","","","","","","null","<div style=""font-size:60px;"">+</div>","null","fixation","","","","","","","","","","","71","","",""
"revaluation","186","869690","0.0-4.0-2.0-0.36","spark_pilot_2","7513","3","23","Male","","false","","","","","[529,985.2999999523163]","./assets/img/ocean/memory/27.jpg","[""ArrowDown"",""ArrowRight""]","value training","ocean","30","{""ArrowUp,ArrowLeft"":23,""ArrowUp,ArrowRight"":10,""ArrowDown,ArrowLeft"":8,""ArrowDown,ArrowRight"":30}","true","ArrowDown,ArrowRight","false","","","original","1","72","","",""
"html-keyboard-response","187","870194","0.0-4.0-2.0-1.36","spark_pilot_2","7513","3","23","Male","","","","","","","null","<div style=""font-size:60px;"">+</div>","null","fixation","","","","","","","","","","","73","","",""
"revaluation","188","874211","0.0-4.0-2.0-0.37","spark_pilot_2","7513","3","23","Male","","false","","","","","[607.3999999761581]","./assets/img/ocean/catch/1.jpg","[""spaceBar""]","value training","ocean","0","{""ArrowUp,ArrowLeft"":23,""ArrowUp,ArrowRight"":10,""ArrowDown,ArrowLeft"":8,""ArrowDown,ArrowRight"":30}","true","spaceBar","true","","","original","1","74","","",""
"html-keyboard-response","189","874715","0.0-4.0-2.0-1.37","spark_pilot_2","7513","3","23","Male","","","","","","","null","<div style=""font-size:60px;"">+</div>","null","fixation","","","","","","","","","","","75","","",""
"revaluation","190","880739","0.0-4.0-2.0-0.38","spark_pilot_2","7513","3","23","Male","","false","","","","","[546.6000000238419,506.89999997615814]","./assets/img/ocean/memory/10.jpg","[""ArrowDown"",""ArrowRight""]","value training","ocean","30","{""ArrowUp,ArrowLeft"":23,""ArrowUp,ArrowRight"":10,""ArrowDown,ArrowLeft"":8,""ArrowDown,ArrowRight"":30}","true","ArrowDown,ArrowRight","false","","","original","1","76","","",""
"html-keyboard-response","191","881243","0.0-4.0-2.0-1.38","spark_pilot_2","7513","3","23","Male","","","","","","","null","<div style=""font-size:60px;"">+</div>","null","fixation","","","","","","","","","","","77","","",""
"revaluation","192","887267","0.0-4.0-2.0-0.39","spark_pilot_2","7513","3","23","Male","","false","","","","","[485.2000000476837,500.39999997615814]","./assets/img/ocean/memory/5.jpg","[""ArrowDown"",""ArrowRight""]","value training","ocean","30","{""ArrowUp,ArrowLeft"":23,""ArrowUp,ArrowRight"":10,""ArrowDown,ArrowLeft"":8,""ArrowDown,ArrowRight"":30}","true","ArrowDown,ArrowRight","false","","","original","1","78","","",""
"html-keyboard-response","193","887771","0.0-4.0-2.0-1.39","spark_pilot_2","7513","3","23","Male","","","","","","","null","<div style=""font-size:60px;"">+</div>","null","fixation","","","","","","","","","","","79","","",""
"revaluation","194","893795","0.0-4.0-2.0-0.40","spark_pilot_2","7513","3","23","Male","","false","","","","","[535.6000000238419,326.10000002384186]","./assets/img/ocean/memory/0.jpg","[""ArrowDown"",""ArrowRight""]","value training","ocean","30","{""ArrowUp,ArrowLeft"":23,""ArrowUp,ArrowRight"":10,""ArrowDown,ArrowLeft"":8,""ArrowDown,ArrowRight"":30}","true","ArrowDown,ArrowRight","false","","","original","1","80","","",""
"html-keyboard-response","195","894299","0.0-4.0-2.0-1.40","spark_pilot_2","7513","3","23","Male","","","","","","","null","<div style=""font-size:60px;"">+</div>","null","fixation","","","","","","","","","","","81","","",""
"revaluation","196","900324","0.0-4.0-2.0-0.41","spark_pilot_2","7513","3","23","Male","","false","","","","","[469.89999997615814,412.60000002384186]","./assets/img/ocean/memory/6.jpg","[""ArrowDown"",""ArrowRight""]","value training","ocean","30","{""ArrowUp,ArrowLeft"":23,""ArrowUp,ArrowRight"":10,""ArrowDown,ArrowLeft"":8,""ArrowDown,ArrowRight"":30}","true","ArrowDown,ArrowRight","false","","","original","1","82","","",""
"html-keyboard-response","197","900827","0.0-4.0-2.0-1.41","spark_pilot_2","7513","3","23","Male","","","","","","","null","<div style=""font-size:60px;"">+</div>","null","fixation","","","","","","","","","","","83","","",""
"revaluation","198","906852","0.0-4.0-2.0-0.42","spark_pilot_2","7513","3","23","Male","","false","","","","","[555.8999999761581,505.5]","./assets/img/ocean/memory/30.jpg","[""ArrowDown"",""ArrowRight""]","value training","ocean","30","{""ArrowUp,ArrowLeft"":23,""ArrowUp,ArrowRight"":10,""ArrowDown,ArrowLeft"":8,""ArrowDown,ArrowRight"":30}","true","ArrowDown,ArrowRight","false","","","original","1","84","","",""
"html-keyboard-response","199","907355","0.0-4.0-2.0-1.42","spark_pilot_2","7513","3","23","Male","","","","","","","null","<div style=""font-size:60px;"">+</div>","null","fixation","","","","","","","","","","","85","","",""
"revaluation","200","913380","0.0-4.0-2.0-0.43","spark_pilot_2","7513","3","23","Male","","false","","","","","[428.89999997615814,296.7000000476837]","./assets/img/ocean/memory/41.jpg","[""ArrowDown"",""ArrowRight""]","value training","ocean","30","{""ArrowUp,ArrowLeft"":23,""ArrowUp,ArrowRight"":10,""ArrowDown,ArrowLeft"":8,""ArrowDown,ArrowRight"":30}","true","ArrowDown,ArrowRight","false","","","original","1","86","","",""
"html-keyboard-response","201","913883","0.0-4.0-2.0-1.43","spark_pilot_2","7513","3","23","Male","","","","","","","null","<div style=""font-size:60px;"">+</div>","null","fixation","","","","","","","","","","","87","","",""
"revaluation","202","919908","0.0-4.0-2.0-0.44","spark_pilot_2","7513","3","23","Male","","false","","","","","[665.8999999761581,268.5]","./assets/img/ocean/memory/19.jpg","[""ArrowDown"",""ArrowRight""]","value training","ocean","30","{""ArrowUp,ArrowLeft"":23,""ArrowUp,ArrowRight"":10,""ArrowDown,ArrowLeft"":8,""ArrowDown,ArrowRight"":30}","true","ArrowDown,ArrowRight","false","","","original","1","88","","",""
"html-keyboard-response","203","920412","0.0-4.0-2.0-1.44","spark_pilot_2","7513","3","23","Male","","","","","","","null","<div style=""font-size:60px;"">+</div>","null","fixation","","","","","","","","","","","89","","",""
"revaluation","204","926436","0.0-4.0-2.0-0.45","spark_pilot_2","7513","3","23","Male","","false","","","","","[474.7000000476837,296.39999997615814]","./assets/img/ocean/memory/1.jpg","[""ArrowDown"",""ArrowRight""]","value training","ocean","30","{""ArrowUp,ArrowLeft"":23,""ArrowUp,ArrowRight"":10,""ArrowDown,ArrowLeft"":8,""ArrowDown,ArrowRight"":30}","true","ArrowDown,ArrowRight","false","","","original","1","90","","",""
"html-keyboard-response","205","926940","0.0-4.0-2.0-1.45","spark_pilot_2","7513","3","23","Male","","","","","","","null","<div style=""font-size:60px;"">+</div>","null","fixation","","","","","","","","","","","91","","",""
"revaluation","206","930956","0.0-4.0-2.0-0.46","spark_pilot_2","7513","3","23","Male","","false","","","","","[532.1999999284744]","./assets/img/ocean/catch/3.jpg","[""spaceBar""]","value training","ocean","0","{""ArrowUp,ArrowLeft"":23,""ArrowUp,ArrowRight"":10,""ArrowDown,ArrowLeft"":8,""ArrowDown,ArrowRight"":30}","true","spaceBar","true","","","original","1","92","","",""
"html-keyboard-response","207","931460","0.0-4.0-2.0-1.46","spark_pilot_2","7513","3","23","Male","","","","","","","null","<div style=""font-size:60px;"">+</div>","null","fixation","","","","","","","","","","","93","","",""
"revaluation","208","937484","0.0-4.0-2.0-0.47","spark_pilot_2","7513","3","23","Male","","false","","","","","[395.60000002384186,307]","./assets/img/ocean/memory/25.jpg","[""ArrowDown"",""ArrowRight""]","value training","ocean","30","{""ArrowUp,ArrowLeft"":23,""ArrowUp,ArrowRight"":10,""ArrowDown,ArrowLeft"":8,""ArrowDown,ArrowRight"":30}","true","ArrowDown,ArrowRight","false","","","original","1","94","","",""
"html-keyboard-response","209","937988","0.0-4.0-2.0-1.47","spark_pilot_2","7513","3","23","Male","","","","","","","null","<div style=""font-size:60px;"">+</div>","null","fixation","","","","","","","","","","","95","","",""
"revaluation","210","944013","0.0-4.0-2.0-0.48","spark_pilot_2","7513","3","23","Male","","false","","","","","[529.3999999761581,732.3999999761581]","./assets/img/ocean/memory/6.jpg","[""ArrowDown"",""ArrowRight""]","value training","ocean","30","{""ArrowUp,ArrowLeft"":23,""ArrowUp,ArrowRight"":10,""ArrowDown,ArrowLeft"":8,""ArrowDown,ArrowRight"":30}","true","ArrowDown,ArrowRight","false","","","original","1","96","","",""
"html-keyboard-response","211","944516","0.0-4.0-2.0-1.48","spark_pilot_2","7513","3","23","Male","","","","","","","null","<div style=""font-size:60px;"">+</div>","null","fixation","","","","","","","","","","","97","","",""
"revaluation","212","950541","0.0-4.0-2.0-0.49","spark_pilot_2","7513","3","23","Male","","false","","","","","[569.5999999046326,397.59999990463257]","./assets/img/ocean/memory/30.jpg","[""ArrowDown"",""ArrowRight""]","value training","ocean","30","{""ArrowUp,ArrowLeft"":23,""ArrowUp,ArrowRight"":10,""ArrowDown,ArrowLeft"":8,""ArrowDown,ArrowRight"":30}","true","ArrowDown,ArrowRight","false","","","original","1","98","","",""
"html-keyboard-response","213","951044","0.0-4.0-2.0-1.49","spark_pilot_2","7513","3","23","Male","","","","","","","null","<div style=""font-size:60px;"">+</div>","null","fixation","","","","","","","","","","","99","","",""
"learning-instructions","214","965298","0.0-4.0-3.0-0.0","spark_pilot_2","7513","3","23","Male","","","","","","","1314.2000000476837","<p> Now, you will travel with a friend who will choose whether you go up or down first. </p>
            <p> On these turns, you will just see the animal that they found. You will still get to choose which chest to search for treasure.</p>","","instructions","","","","","","","","","","","","","",""
"revaluation","215","969318","0.0-4.0-4.0-0.0","spark_pilot_2","7513","3","23","Male","","false","","","","","[1263.5]","./assets/img/ocean/animals/seahorse.jpg","[""ArrowRight""]","revaluation","ocean","10","{""ArrowUp,ArrowLeft"":23,""ArrowUp,ArrowRight"":10,""ArrowDown,ArrowLeft"":8,""ArrowDown,ArrowRight"":30}","false","ArrowUp,ArrowRight","","","","original","1","0","","",""
"html-keyboard-response","216","969827","0.0-4.0-4.0-1.0","spark_pilot_2","7513","3","23","Male","","","","","","","null","<div style=""font-size:60px;"">+</div>","null","fixation","","","","","","","","","","","1","","",""
"revaluation","217","973846","0.0-4.0-4.0-0.1","spark_pilot_2","7513","3","23","Male","","false","","","","","[617]","./assets/img/ocean/animals/octopus.jpg","[""ArrowRight""]","revaluation","ocean","30","{""ArrowUp,ArrowLeft"":23,""ArrowUp,ArrowRight"":10,""ArrowDown,ArrowLeft"":8,""ArrowDown,ArrowRight"":30}","true","ArrowDown,ArrowRight","","","","original","1","2","","",""
"html-keyboard-response","218","974347","0.0-4.0-4.0-1.1","spark_pilot_2","7513","3","23","Male","","","","","","","null","<div style=""font-size:60px;"">+</div>","null","fixation","","","","","","","","","","","3","","",""
"revaluation","219","978366","0.0-4.0-4.0-0.2","spark_pilot_2","7513","3","23","Male","","false","","","","","[590.2000000476837]","./assets/img/ocean/animals/octopus.jpg","[""ArrowRight""]","revaluation","ocean","30","{""ArrowUp,ArrowLeft"":23,""ArrowUp,ArrowRight"":10,""ArrowDown,ArrowLeft"":8,""ArrowDown,ArrowRight"":30}","true","ArrowDown,ArrowRight","","","","original","1","4","","",""
"html-keyboard-response","220","978871","0.0-4.0-4.0-1.2","spark_pilot_2","7513","3","23","Male","","","","","","","null","<div style=""font-size:60px;"">+</div>","null","fixation","","","","","","","","","","","5","","",""
"revaluation","221","982884","0.0-4.0-4.0-0.3","spark_pilot_2","7513","3","23","Male","","false","","","","","[414.7999999523163]","./assets/img/ocean/animals/seahorse.jpg","[""ArrowLeft""]","revaluation","ocean","23","{""ArrowUp,ArrowLeft"":23,""ArrowUp,ArrowRight"":10,""ArrowDown,ArrowLeft"":8,""ArrowDown,ArrowRight"":30}","true","ArrowUp,ArrowLeft","","","","original","1","6","","",""
"html-keyboard-response","222","983391","0.0-4.0-4.0-1.3","spark_pilot_2","7513","3","23","Male","","","","","","","null","<div style=""font-size:60px;"">+</div>","null","fixation","","","","","","","","","","","7","","",""
"revaluation","223","987404","0.0-4.0-4.0-0.4","spark_pilot_2","7513","3","23","Male","","false","","","","","[477.5]","./assets/img/ocean/animals/seahorse.jpg","[""ArrowLeft""]","revaluation","ocean","23","{""ArrowUp,ArrowLeft"":23,""ArrowUp,ArrowRight"":10,""ArrowDown,ArrowLeft"":8,""ArrowDown,ArrowRight"":30}","true","ArrowUp,ArrowLeft","","","","original","1","8","","",""
"html-keyboard-response","224","987908","0.0-4.0-4.0-1.4","spark_pilot_2","7513","3","23","Male","","","","","","","null","<div style=""font-size:60px;"">+</div>","null","fixation","","","","","","","","","","","9","","",""
"revaluation","225","991927","0.0-4.0-4.0-0.5","spark_pilot_2","7513","3","23","Male","","false","","","","","[510.39999997615814]","./assets/img/ocean/animals/seahorse.jpg","[""ArrowLeft""]","revaluation","ocean","23","{""ArrowUp,ArrowLeft"":23,""ArrowUp,ArrowRight"":10,""ArrowDown,ArrowLeft"":8,""ArrowDown,ArrowRight"":30}","true","ArrowUp,ArrowLeft","","","","original","1","10","","",""
"html-keyboard-response","226","992436","0.0-4.0-4.0-1.5","spark_pilot_2","7513","3","23","Male","","","","","","","null","<div style=""font-size:60px;"">+</div>","null","fixation","","","","","","","","","","","11","","",""
"revaluation","227","996453","0.0-4.0-4.0-0.6","spark_pilot_2","7513","3","23","Male","","false","","","","","[467.89999997615814]","./assets/img/ocean/animals/octopus.jpg","[""ArrowRight""]","revaluation","ocean","30","{""ArrowUp,ArrowLeft"":23,""ArrowUp,ArrowRight"":10,""ArrowDown,ArrowLeft"":8,""ArrowDown,ArrowRight"":30}","true","ArrowDown,ArrowRight","","","","original","1","12","","",""
"html-keyboard-response","228","996957","0.0-4.0-4.0-1.6","spark_pilot_2","7513","3","23","Male","","","","","","","null","<div style=""font-size:60px;"">+</div>","null","fixation","","","","","","","","","","","13","","",""
"revaluation","229","1000974","0.0-4.0-4.0-0.7","spark_pilot_2","7513","3","23","Male","","false","","","","","[603.5]","./assets/img/ocean/animals/seahorse.jpg","[""ArrowLeft""]","revaluation","ocean","23","{""ArrowUp,ArrowLeft"":23,""ArrowUp,ArrowRight"":10,""ArrowDown,ArrowLeft"":8,""ArrowDown,ArrowRight"":30}","true","ArrowUp,ArrowLeft","","","","original","1","14","","",""
"html-keyboard-response","230","1001477","0.0-4.0-4.0-1.7","spark_pilot_2","7513","3","23","Male","","","","","","","null","<div style=""font-size:60px;"">+</div>","null","fixation","","","","","","","","","","","15","","",""
"revaluation","231","1005494","0.0-4.0-4.0-0.8","spark_pilot_2","7513","3","23","Male","","false","","","","","[857.6999999284744]","./assets/img/ocean/animals/seahorse.jpg","[""ArrowLeft""]","revaluation","ocean","23","{""ArrowUp,ArrowLeft"":23,""ArrowUp,ArrowRight"":10,""ArrowDown,ArrowLeft"":8,""ArrowDown,ArrowRight"":30}","true","ArrowUp,ArrowLeft","","","","original","1","16","","",""
"html-keyboard-response","232","1005997","0.0-4.0-4.0-1.8","spark_pilot_2","7513","3","23","Male","","","","","","","null","<div style=""font-size:60px;"">+</div>","null","fixation","","","","","","","","","","","17","","",""
"revaluation","233","1010014","0.0-4.0-4.0-0.9","spark_pilot_2","7513","3","23","Male","","false","","","","","[560.7000000476837]","./assets/img/ocean/animals/octopus.jpg","[""ArrowRight""]","revaluation","ocean","30","{""ArrowUp,ArrowLeft"":23,""ArrowUp,ArrowRight"":10,""ArrowDown,ArrowLeft"":8,""ArrowDown,ArrowRight"":30}","true","ArrowDown,ArrowRight","","","","original","1","18","","",""
"html-keyboard-response","234","1010517","0.0-4.0-4.0-1.9","spark_pilot_2","7513","3","23","Male","","","","","","","null","<div style=""font-size:60px;"">+</div>","null","fixation","","","","","","","","","","","19","","",""
"revaluation","235","1014533","0.0-4.0-4.0-0.10","spark_pilot_2","7513","3","23","Male","","false","","","","","[465.5]","./assets/img/ocean/animals/seahorse.jpg","[""ArrowRight""]","revaluation","ocean","10","{""ArrowUp,ArrowLeft"":23,""ArrowUp,ArrowRight"":10,""ArrowDown,ArrowLeft"":8,""ArrowDown,ArrowRight"":30}","false","ArrowUp,ArrowRight","","","","original","1","20","","",""
"html-keyboard-response","236","1015038","0.0-4.0-4.0-1.10","spark_pilot_2","7513","3","23","Male","","","","","","","null","<div style=""font-size:60px;"">+</div>","null","fixation","","","","","","","","","","","21","","",""
"revaluation","237","1019054","0.0-4.0-4.0-0.11","spark_pilot_2","7513","3","23","Male","","false","","","","","[814.7999999523163]","./assets/img/ocean/animals/seahorse.jpg","[""ArrowLeft""]","revaluation","ocean","23","{""ArrowUp,ArrowLeft"":23,""ArrowUp,ArrowRight"":10,""ArrowDown,ArrowLeft"":8,""ArrowDown,ArrowRight"":30}","true","ArrowUp,ArrowLeft","","","","original","1","22","","",""
"html-keyboard-response","238","1019558","0.0-4.0-4.0-1.11","spark_pilot_2","7513","3","23","Male","","","","","","","null","<div style=""font-size:60px;"">+</div>","null","fixation","","","","","","","","","","","23","","",""
"revaluation","239","1023574","0.0-4.0-4.0-0.12","spark_pilot_2","7513","3","23","Male","","false","","","","","[601.4000000953674]","./assets/img/ocean/animals/octopus.jpg","[""ArrowRight""]","revaluation","ocean","30","{""ArrowUp,ArrowLeft"":23,""ArrowUp,ArrowRight"":10,""ArrowDown,ArrowLeft"":8,""ArrowDown,ArrowRight"":30}","true","ArrowDown,ArrowRight","","","","original","1","24","","",""
"html-keyboard-response","240","1024078","0.0-4.0-4.0-1.12","spark_pilot_2","7513","3","23","Male","","","","","","","null","<div style=""font-size:60px;"">+</div>","null","fixation","","","","","","","","","","","25","","",""
"revaluation","241","1028094","0.0-4.0-4.0-0.13","spark_pilot_2","7513","3","23","Male","","false","","","","","[416.10000002384186]","./assets/img/ocean/animals/octopus.jpg","[""ArrowRight""]","revaluation","ocean","30","{""ArrowUp,ArrowLeft"":23,""ArrowUp,ArrowRight"":10,""ArrowDown,ArrowLeft"":8,""ArrowDown,ArrowRight"":30}","true","ArrowDown,ArrowRight","","","","original","1","26","","",""
"html-keyboard-response","242","1028598","0.0-4.0-4.0-1.13","spark_pilot_2","7513","3","23","Male","","","","","","","null","<div style=""font-size:60px;"">+</div>","null","fixation","","","","","","","","","","","27","","",""
"revaluation","243","1032614","0.0-4.0-4.0-0.14","spark_pilot_2","7513","3","23","Male","","false","","","","","[538.5]","./assets/img/ocean/animals/octopus.jpg","[""ArrowRight""]","revaluation","ocean","30","{""ArrowUp,ArrowLeft"":23,""ArrowUp,ArrowRight"":10,""ArrowDown,ArrowLeft"":8,""ArrowDown,ArrowRight"":30}","true","ArrowDown,ArrowRight","","","","original","1","28","","",""
"html-keyboard-response","244","1033118","0.0-4.0-4.0-1.14","spark_pilot_2","7513","3","23","Male","","","","","","","null","<div style=""font-size:60px;"">+</div>","null","fixation","","","","","","","","","","","29","","",""
"revaluation","245","1037134","0.0-4.0-4.0-0.15","spark_pilot_2","7513","3","23","Male","","false","","","","","[470.5]","./assets/img/ocean/animals/octopus.jpg","[""ArrowRight""]","revaluation","ocean","30","{""ArrowUp,ArrowLeft"":23,""ArrowUp,ArrowRight"":10,""ArrowDown,ArrowLeft"":8,""ArrowDown,ArrowRight"":30}","true","ArrowDown,ArrowRight","","","","original","1","30","","",""
"html-keyboard-response","246","1037638","0.0-4.0-4.0-1.15","spark_pilot_2","7513","3","23","Male","","","","","","","null","<div style=""font-size:60px;"">+</div>","null","fixation","","","","","","","","","","","31","","",""
"revaluation","247","1041654","0.0-4.0-4.0-0.16","spark_pilot_2","7513","3","23","Male","","false","","","","","[509.60000002384186]","./assets/img/ocean/animals/seahorse.jpg","[""ArrowLeft""]","revaluation","ocean","23","{""ArrowUp,ArrowLeft"":23,""ArrowUp,ArrowRight"":10,""ArrowDown,ArrowLeft"":8,""ArrowDown,ArrowRight"":30}","true","ArrowUp,ArrowLeft","","","","original","1","32","","",""
"html-keyboard-response","248","1042158","0.0-4.0-4.0-1.16","spark_pilot_2","7513","3","23","Male","","","","","","","null","<div style=""font-size:60px;"">+</div>","null","fixation","","","","","","","","","","","33","","",""
"revaluation","249","1046175","0.0-4.0-4.0-0.17","spark_pilot_2","7513","3","23","Male","","false","","","","","[454.5]","./assets/img/ocean/animals/octopus.jpg","[""ArrowRight""]","revaluation","ocean","30","{""ArrowUp,ArrowLeft"":23,""ArrowUp,ArrowRight"":10,""ArrowDown,ArrowLeft"":8,""ArrowDown,ArrowRight"":30}","true","ArrowDown,ArrowRight","","","","original","1","34","","",""
"html-keyboard-response","250","1046678","0.0-4.0-4.0-1.17","spark_pilot_2","7513","3","23","Male","","","","","","","null","<div style=""font-size:60px;"">+</div>","null","fixation","","","","","","","","","","","35","","",""
"learning-instructions","251","1058988","0.0-4.0-5.0-0.0","spark_pilot_2","7513","3","23","Male","","","","","","","733.3999999761581","<p> Time to play the dot game! </p>
            <p> For one minute, click the red dots on the following screen as they appear. </p>
            <p><b> Don't look away, as you will earn bonus for clicking dots</b>. </p>","","instructions","","","","","","","","","","","","","",""
"revaluation","252","1118993","0.0-4.0-6.0-0.0","spark_pilot_2","7513","3","23","Male","","","","","","","[72,77,61,63,53,55]","","","rest","","60","","","","","0","60000","","","","","",""
"learning-instructions","253","1126388","0.0-4.0-7.0-0.0","spark_pilot_2","7513","3","23","Male","","","","","","","1233.6000000238419","<p> You have almost finished this part of the game! </p>
            <p> We are going to ask you to make a few more choices. </p>","","instructions","","","","","","","","","","","","","",""
"learning-instructions","254","1141229","0.0-4.0-7.0-0.1","spark_pilot_2","7513","3","23","Male","","","","","","","868.8999999761581","<p> First, you need to decide whether to go up or down. When you see each picture, use the arrow keys to make your choice. </p>
            <p><b>You will not see which animal you found, but try to get to the one that will give you the most treasure.</b></p>","","instructions","","","","","","","","","","","","","",""
"revaluation","255","1142419","0.0-4.0-8.0-0.0","spark_pilot_2","7513","3","23","Male","","false","","","","","[1188.7000000476837]","./assets/img/ocean/test/3.jpg","[""ArrowUp""]","first stage test","ocean","0","{""ArrowUp,ArrowLeft"":23,""ArrowUp,ArrowRight"":10,""ArrowDown,ArrowLeft"":8,""ArrowDown,ArrowRight"":30}","false","ArrowUp","false","","","original","1","","","",""
"html-keyboard-response","256","1142928","0.0-4.0-8.0-1.0","spark_pilot_2","7513","3","23","Male","","","","","","","null","<div style=""font-size:60px;"">+</div>","null","fixation","","","","","","","","","","","","","",""
"revaluation","257","1144408","0.0-4.0-8.0-0.1","spark_pilot_2","7513","3","23","Male","","false","","","","","[1477.6000000238419]","./assets/img/ocean/test/1.jpg","[""ArrowDown""]","first stage test","ocean","0","{""ArrowUp,ArrowLeft"":23,""ArrowUp,ArrowRight"":10,""ArrowDown,ArrowLeft"":8,""ArrowDown,ArrowRight"":30}","true","ArrowDown","false","","","original","1","","","",""
"html-keyboard-response","258","1144912","0.0-4.0-8.0-1.1","spark_pilot_2","7513","3","23","Male","","","","","","","null","<div style=""font-size:60px;"">+</div>","null","fixation","","","","","","","","","","","","","",""
"revaluation","259","1146148","0.0-4.0-8.0-0.2","spark_pilot_2","7513","3","23","Male","","false","","","","","[1233.6999999284744]","./assets/img/ocean/test/2.jpg","[""ArrowDown""]","first stage test","ocean","0","{""ArrowUp,ArrowLeft"":23,""ArrowUp,ArrowRight"":10,""ArrowDown,ArrowLeft"":8,""ArrowDown,ArrowRight"":30}","true","ArrowDown","false","","","original","1","","","",""
"html-keyboard-response","260","1146658","0.0-4.0-8.0-1.2","spark_pilot_2","7513","3","23","Male","","","","","","","null","<div style=""font-size:60px;"">+</div>","null","fixation","","","","","","","","","","","","","",""
"revaluation","261","1148026","0.0-4.0-8.0-0.3","spark_pilot_2","7513","3","23","Male","","false","","","","","[1366.8000000715256]","./assets/img/ocean/test/0.jpg","[""ArrowDown""]","first stage test","ocean","0","{""ArrowUp,ArrowLeft"":23,""ArrowUp,ArrowRight"":10,""ArrowDown,ArrowLeft"":8,""ArrowDown,ArrowRight"":30}","true","ArrowDown","false","","","original","1","","","",""
"html-keyboard-response","262","1148529","0.0-4.0-8.0-1.3","spark_pilot_2","7513","3","23","Male","","","","","","","null","<div style=""font-size:60px;"">+</div>","null","fixation","","","","","","","","","","","","","",""
"learning-instructions","263","1160633","0.0-4.0-9.0-0.0","spark_pilot_2","7513","3","23","Male","","","","","","","761.2000000476837","<p> Now you will see the animals again and can search their chests for treasure. </p>
            <p> This time, you will not see how much treasure you earned, but you will earn more bonus money for making better choices. </p>","","instructions","","","","","","","","","","","","","",""
"revaluation","264","1162346","0.0-4.0-10.0-0.0","spark_pilot_2","7513","3","23","Male","","false","","","","","[1712]","./assets/img/ocean/animals/seahorse.jpg","[""ArrowLeft""]","second stage test","ocean","0","{""ArrowUp,ArrowLeft"":23,""ArrowUp,ArrowRight"":10,""ArrowDown,ArrowLeft"":8,""ArrowDown,ArrowRight"":30}","true","ArrowUp,ArrowLeft","","","","original","1","","","",""
"html-keyboard-response","265","1162850","0.0-4.0-10.0-1.0","spark_pilot_2","7513","3","23","Male","","","","","","","null","<div style=""font-size:60px;"">+</div>","null","fixation","","","","","","","","","","","","","",""
"revaluation","266","1163675","0.0-4.0-10.0-0.1","spark_pilot_2","7513","3","23","Male","","false","","","","","[822.8000000715256]","./assets/img/ocean/animals/seahorse.jpg","[""ArrowLeft""]","second stage test","ocean","0","{""ArrowUp,ArrowLeft"":23,""ArrowUp,ArrowRight"":10,""ArrowDown,ArrowLeft"":8,""ArrowDown,ArrowRight"":30}","true","ArrowUp,ArrowLeft","","","","original","1","","","",""
"html-keyboard-response","267","1164178","0.0-4.0-10.0-1.1","spark_pilot_2","7513","3","23","Male","","","","","","","null","<div style=""font-size:60px;"">+</div>","null","fixation","","","","","","","","","","","","","",""
"revaluation","268","1164957","0.0-4.0-10.0-0.2","spark_pilot_2","7513","3","23","Male","","false","","","","","[776.1999999284744]","./assets/img/ocean/animals/seahorse.jpg","[""ArrowLeft""]","second stage test","ocean","0","{""ArrowUp,ArrowLeft"":23,""ArrowUp,ArrowRight"":10,""ArrowDown,ArrowLeft"":8,""ArrowDown,ArrowRight"":30}","true","ArrowUp,ArrowLeft","","","","original","1","","","",""
"html-keyboard-response","269","1165466","0.0-4.0-10.0-1.2","spark_pilot_2","7513","3","23","Male","","","","","","","null","<div style=""font-size:60px;"">+</div>","null","fixation","","","","","","","","","","","","","",""
"revaluation","270","1166150","0.0-4.0-10.0-0.3","spark_pilot_2","7513","3","23","Male","","false","","","","","[680.6999999284744]","./assets/img/ocean/animals/seahorse.jpg","[""ArrowLeft""]","second stage test","ocean","0","{""ArrowUp,ArrowLeft"":23,""ArrowUp,ArrowRight"":10,""ArrowDown,ArrowLeft"":8,""ArrowDown,ArrowRight"":30}","true","ArrowUp,ArrowLeft","","","","original","1","","","",""
"html-keyboard-response","271","1166658","0.0-4.0-10.0-1.3","spark_pilot_2","7513","3","23","Male","","","","","","","null","<div style=""font-size:60px;"">+</div>","null","fixation","","","","","","","","","","","","","",""
"revaluation","272","1167306","0.0-4.0-10.0-0.4","spark_pilot_2","7513","3","23","Male","","false","","","","","[645.3999999761581]","./assets/img/ocean/animals/octopus.jpg","[""ArrowRight""]","second stage test","ocean","0","{""ArrowUp,ArrowLeft"":23,""ArrowUp,ArrowRight"":10,""ArrowDown,ArrowLeft"":8,""ArrowDown,ArrowRight"":30}","true","ArrowDown,ArrowRight","","","","original","1","","","",""
"html-keyboard-response","273","1167812","0.0-4.0-10.0-1.4","spark_pilot_2","7513","3","23","Male","","","","","","","null","<div style=""font-size:60px;"">+</div>","null","fixation","","","","","","","","","","","","","",""
"revaluation","274","1168304","0.0-4.0-10.0-0.5","spark_pilot_2","7513","3","23","Male","","false","","","","","[489.5]","./assets/img/ocean/animals/octopus.jpg","[""ArrowRight""]","second stage test","ocean","0","{""ArrowUp,ArrowLeft"":23,""ArrowUp,ArrowRight"":10,""ArrowDown,ArrowLeft"":8,""ArrowDown,ArrowRight"":30}","true","ArrowDown,ArrowRight","","","","original","1","","","",""
"html-keyboard-response","275","1168808","0.0-4.0-10.0-1.5","spark_pilot_2","7513","3","23","Male","","","","","","","null","<div style=""font-size:60px;"">+</div>","null","fixation","","","","","","","","","","","","","",""
"revaluation","276","1169270","0.0-4.0-10.0-0.6","spark_pilot_2","7513","3","23","Male","","false","","","","","[459.7999999523163]","./assets/img/ocean/animals/octopus.jpg","[""ArrowRight""]","second stage test","ocean","0","{""ArrowUp,ArrowLeft"":23,""ArrowUp,ArrowRight"":10,""ArrowDown,ArrowLeft"":8,""ArrowDown,ArrowRight"":30}","true","ArrowDown,ArrowRight","","","","original","1","","","",""
"html-keyboard-response","277","1169776","0.0-4.0-10.0-1.6","spark_pilot_2","7513","3","23","Male","","","","","","","null","<div style=""font-size:60px;"">+</div>","null","fixation","","","","","","","","","","","","","",""
"revaluation","278","1170197","0.0-4.0-10.0-0.7","spark_pilot_2","7513","3","23","Male","","false","","","","","[419]","./assets/img/ocean/animals/octopus.jpg","[""ArrowRight""]","second stage test","ocean","0","{""ArrowUp,ArrowLeft"":23,""ArrowUp,ArrowRight"":10,""ArrowDown,ArrowLeft"":8,""ArrowDown,ArrowRight"":30}","true","ArrowDown,ArrowRight","","","","original","1","","","",""
"html-keyboard-response","279","1170704","0.0-4.0-10.0-1.7","spark_pilot_2","7513","3","23","Male","","","","","","","null","<div style=""font-size:60px;"">+</div>","null","fixation","","","","","","","","","","","","","",""
"learning-instructions","280","1174757","0.0-4.0-0.1-0.2","spark_pilot_2","7513","3","23","Male","","","","","","","1276.1999999284744","<p> This time you are searching for treasure in the <b>canyon</b>.</p>","","instructions","","","","","","","","","","","","","",""
"learning-instructions","281","1192921","0.0-4.0-0.1-0.3","spark_pilot_2","7513","3","23","Male","","","","","","","912.6000000238419","<p><b>New</b> animals with <b>new</b> treasure chests live here. You need to explore to discover where the animal with the best treasure chest is.</p>
                    <p> Like before, once you figure out which animal has the chest with the most treasure, you should try to get to that animal and select that chest! </p>","","instructions","","","","","","","","","","","","","",""
"learning-instructions","282","1208298","0.0-4.0-1.1-0.1","spark_pilot_2","7513","3","23","Male","","","","","","","643.6000000238419","<p> Remember, when you see a picture of the place, use the up and down keys to <b>find an animal</b>.</p>
            <p> When you encounter an animal, you should use the left and right keys to <b>select a treasure chest</b>.</p>
            <p> Don't forget to look out for the robber! </p>","","instructions","","","","","","","","","","","","","",""
"revaluation","283","1214325","0.0-4.0-2.1-0.50","spark_pilot_2","7513","3","23","Male","","false","","","","","[1141.8999999761581,643.9000000953674]","./assets/img/canyon/memory/1.jpg","[""ArrowDown"",""ArrowLeft""]","value training","canyon","5","{""ArrowUp,ArrowLeft"":26,""ArrowUp,ArrowRight"":10,""ArrowDown,ArrowLeft"":5,""ArrowDown,ArrowRight"":17}","false","ArrowDown,ArrowLeft","false","","","revaluation","2","0","","",""
"html-keyboard-response","284","1214834","0.0-4.0-2.1-1.50","spark_pilot_2","7513","3","23","Male","","","","","","","null","<div style=""font-size:60px;"">+</div>","null","fixation","","","","","","","","","","","1","","",""
"revaluation","285","1220859","0.0-4.0-2.1-0.51","spark_pilot_2","7513","3","23","Male","","false","","","","","[896.6000000238419,423.60000002384186]","./assets/img/canyon/memory/28.jpg","[""ArrowUp"",""ArrowLeft""]","value training","canyon","26","{""ArrowUp,ArrowLeft"":26,""ArrowUp,ArrowRight"":10,""ArrowDown,ArrowLeft"":5,""ArrowDown,ArrowRight"":17}","true","ArrowUp,ArrowLeft","false","","","revaluation","2","2","","",""
"html-keyboard-response","286","1221365","0.0-4.0-2.1-1.51","spark_pilot_2","7513","3","23","Male","","","","","","","null","<div style=""font-size:60px;"">+</div>","null","fixation","","","","","","","","","","","3","","",""
"revaluation","287","1227388","0.0-4.0-2.1-0.52","spark_pilot_2","7513","3","23","Male","","false","","","","","[582,400.5]","./assets/img/canyon/memory/33.jpg","[""ArrowUp"",""ArrowRight""]","value training","canyon","10","{""ArrowUp,ArrowLeft"":26,""ArrowUp,ArrowRight"":10,""ArrowDown,ArrowLeft"":5,""ArrowDown,ArrowRight"":17}","false","ArrowUp,ArrowRight","false","","","revaluation","2","4","","",""
"html-keyboard-response","288","1227891","0.0-4.0-2.1-1.52","spark_pilot_2","7513","3","23","Male","","","","","","","null","<div style=""font-size:60px;"">+</div>","null","fixation","","","","","","","","","","","5","","",""
"revaluation","289","1233914","0.0-4.0-2.1-0.53","spark_pilot_2","7513","3","23","Male","","false","","","","","[389.60000002384186,294.7999999523163]","./assets/img/canyon/memory/25.jpg","[""ArrowDown"",""ArrowRight""]","value training","canyon","17","{""ArrowUp,ArrowLeft"":26,""ArrowUp,ArrowRight"":10,""ArrowDown,ArrowLeft"":5,""ArrowDown,ArrowRight"":17}","false","ArrowDown,ArrowRight","false","","","revaluation","2","6","","",""
"html-keyboard-response","290","1234418","0.0-4.0-2.1-1.53","spark_pilot_2","7513","3","23","Male","","","","","","","null","<div style=""font-size:60px;"">+</div>","null","fixation","","","","","","","","","","","7","","",""
"revaluation","291","1240443","0.0-4.0-2.1-0.54","spark_pilot_2","7513","3","23","Male","","false","","","","","[464.3000000715256,418.5]","./assets/img/canyon/memory/20.jpg","[""ArrowUp"",""ArrowLeft""]","value training","canyon","26","{""ArrowUp,ArrowLeft"":26,""ArrowUp,ArrowRight"":10,""ArrowDown,ArrowLeft"":5,""ArrowDown,ArrowRight"":17}","true","ArrowUp,ArrowLeft","false","","","revaluation","2","8","","",""
"html-keyboard-response","292","1240947","0.0-4.0-2.1-1.54","spark_pilot_2","7513","3","23","Male","","","","","","","null","<div style=""font-size:60px;"">+</div>","null","fixation","","","","","","","","","","","9","","",""
"revaluation","293","1246971","0.0-4.0-2.1-0.55","spark_pilot_2","7513","3","23","Male","","false","","","","","[430.10000002384186,414.7999999523163]","./assets/img/canyon/memory/37.jpg","[""ArrowUp"",""ArrowLeft""]","value training","canyon","26","{""ArrowUp,ArrowLeft"":26,""ArrowUp,ArrowRight"":10,""ArrowDown,ArrowLeft"":5,""ArrowDown,ArrowRight"":17}","true","ArrowUp,ArrowLeft","false","","","revaluation","2","10","","",""
"html-keyboard-response","294","1247475","0.0-4.0-2.1-1.55","spark_pilot_2","7513","3","23","Male","","","","","","","null","<div style=""font-size:60px;"">+</div>","null","fixation","","","","","","","","","","","11","","",""
"revaluation","295","1253500","0.0-4.0-2.1-0.56","spark_pilot_2","7513","3","23","Male","","false","","","","","[442.2000000476837,367.5]","./assets/img/canyon/memory/18.jpg","[""ArrowUp"",""ArrowLeft""]","value training","canyon","26","{""ArrowUp,ArrowLeft"":26,""ArrowUp,ArrowRight"":10,""ArrowDown,ArrowLeft"":5,""ArrowDown,ArrowRight"":17}","true","ArrowUp,ArrowLeft","false","","","revaluation","2","12","","",""
"html-keyboard-response","296","1254003","0.0-4.0-2.1-1.56","spark_pilot_2","7513","3","23","Male","","","","","","","null","<div style=""font-size:60px;"">+</div>","null","fixation","","","","","","","","","","","13","","",""
"revaluation","297","1258020","0.0-4.0-2.1-0.57","spark_pilot_2","7513","3","23","Male","","false","","","","","[325.89999997615814]","./assets/img/canyon/catch/0.jpg","[""ArrowUp""]","value training","canyon","-10","{""ArrowUp,ArrowLeft"":26,""ArrowUp,ArrowRight"":10,""ArrowDown,ArrowLeft"":5,""ArrowDown,ArrowRight"":17}","false","ArrowUp","true","","","revaluation","2","14","","",""
"html-keyboard-response","298","1258524","0.0-4.0-2.1-1.57","spark_pilot_2","7513","3","23","Male","","","","","","","null","<div style=""font-size:60px;"">+</div>","null","fixation","","","","","","","","","","","15","","",""
"revaluation","299","1264548","0.0-4.0-2.1-0.58","spark_pilot_2","7513","3","23","Male","","false","","","","","[396.60000002384186,403.7000000476837]","./assets/img/canyon/memory/1.jpg","[""ArrowUp"",""ArrowLeft""]","value training","canyon","26","{""ArrowUp,ArrowLeft"":26,""ArrowUp,ArrowRight"":10,""ArrowDown,ArrowLeft"":5,""ArrowDown,ArrowRight"":17}","true","ArrowUp,ArrowLeft","false","","","revaluation","2","16","","",""
"html-keyboard-response","300","1265052","0.0-4.0-2.1-1.58","spark_pilot_2","7513","3","23","Male","","","","","","","null","<div style=""font-size:60px;"">+</div>","null","fixation","","","","","","","","","","","17","","",""
"revaluation","301","1271076","0.0-4.0-2.1-0.59","spark_pilot_2","7513","3","23","Male","","false","","","","","[693,346.5]","./assets/img/canyon/memory/27.jpg","[""ArrowUp"",""ArrowLeft""]","value training","canyon","26","{""ArrowUp,ArrowLeft"":26,""ArrowUp,ArrowRight"":10,""ArrowDown,ArrowLeft"":5,""ArrowDown,ArrowRight"":17}","true","ArrowUp,ArrowLeft","false","","","revaluation","2","18","","",""
"html-keyboard-response","302","1271580","0.0-4.0-2.1-1.59","spark_pilot_2","7513","3","23","Male","","","","","","","null","<div style=""font-size:60px;"">+</div>","null","fixation","","","","","","","","","","","19","","",""
"revaluation","303","1277604","0.0-4.0-2.1-0.60","spark_pilot_2","7513","3","23","Male","","false","","","","","[473,352.1999999284744]","./assets/img/canyon/memory/32.jpg","[""ArrowUp"",""ArrowLeft""]","value training","canyon","26","{""ArrowUp,ArrowLeft"":26,""ArrowUp,ArrowRight"":10,""ArrowDown,ArrowLeft"":5,""ArrowDown,ArrowRight"":17}","true","ArrowUp,ArrowLeft","false","","","revaluation","2","20","","",""
"html-keyboard-response","304","1278108","0.0-4.0-2.1-1.60","spark_pilot_2","7513","3","23","Male","","","","","","","null","<div style=""font-size:60px;"">+</div>","null","fixation","","","","","","","","","","","21","","",""
"revaluation","305","1284132","0.0-4.0-2.1-0.61","spark_pilot_2","7513","3","23","Male","","false","","","","","[605.6999999284744,337.89999997615814]","./assets/img/canyon/memory/23.jpg","[""ArrowUp"",""ArrowLeft""]","value training","canyon","26","{""ArrowUp,ArrowLeft"":26,""ArrowUp,ArrowRight"":10,""ArrowDown,ArrowLeft"":5,""ArrowDown,ArrowRight"":17}","true","ArrowUp,ArrowLeft","false","","","revaluation","2","22","","",""
"html-keyboard-response","306","1284636","0.0-4.0-2.1-1.61","spark_pilot_2","7513","3","23","Male","","","","","","","null","<div style=""font-size:60px;"">+</div>","null","fixation","","","","","","","","","","","23","","",""
"revaluation","307","1290661","0.0-4.0-2.1-0.62","spark_pilot_2","7513","3","23","Male","","false","","","","","[515.3999999761581,764]","./assets/img/canyon/memory/19.jpg","[""ArrowUp"",""ArrowLeft""]","value training","canyon","26","{""ArrowUp,ArrowLeft"":26,""ArrowUp,ArrowRight"":10,""ArrowDown,ArrowLeft"":5,""ArrowDown,ArrowRight"":17}","true","ArrowUp,ArrowLeft","false","","","revaluation","2","24","","",""
"html-keyboard-response","308","1291164","0.0-4.0-2.1-1.62","spark_pilot_2","7513","3","23","Male","","","","","","","null","<div style=""font-size:60px;"">+</div>","null","fixation","","","","","","","","","","","25","","",""
