"trial_type","trial_index","time_elapsed","internal_node_id","task_version","subject_id","assigned_condition","age","gender","success","timeout","failed_images","failed_audio","failed_video","browser_interaction","rt","stimulus","response","task_part","environment","score","rewardMap","correct","fullState","isCatch","numberMissed","duration","condition","order","trial_num","key_press","ground_truth","bonus"
"pavlovia","0","1123","0.0-0.0","spark_pilot_2","7785","2","20","Female","","","","","","","","","","","","","","","","","","","","","","","",""
"preload","1","21202","0.0-1.0","spark_pilot_2","7785","2","20","Female","true","false","[]","[]","[]","[{""event"":""fullscreenenter"",""trial"":2,""time"":26798}]","","","","","","","","","","","","","","","","","",""
"fullscreen","2","27797","0.0-2.0","spark_pilot_2","7785","2","20","Female","true","","","","","","","","","","","","","","","","","","","","","","",""
"audio-button-response","3","30521","0.0-3.0-0.0-0.0","spark_pilot_2","7785","2","20","Female","","","","","","","2176","./assets/audio/audiotest/turtle.mp3","2","audio_test","","","","","","","","","","","","","",""
"learning-instructions","4","38638","0.0-3.0-1.0-0.0","spark_pilot_2","7785","2","20","Female","","","","","","","1144.1000000238419","<p> Welcome! Please remember to stay in fullscreen mode and don't click away from the experiment. </p>","","instructions","","","","","","","","","","","","","",""
"learning-instructions","5","48586","0.0-3.0-1.0-0.1","spark_pilot_2","7785","2","20","Female","","","","","","","1540.6000000238419","<p> Today you will be playing a game to earn treasure. </p>
            <p> At the end of the experiment, you will earn a bonus based on how much treasure you find. </p>
            <img src='./assets/img/instructions/treasure.jpg' class='instructions-image'>","","instructions","","","","","","","","","","","","","",""
"learning-instructions","6","57720","0.0-3.0-1.0-0.2","spark_pilot_2","7785","2","20","Female","","","","","","","871.6000000238419","<p> Animals have hidden treasure in treasure chests. </p>
            <p> You need to first find an animal and then choose which of their treasure chests to search. </p>
            <img src='./assets/img/space/animals/cat.jpg' class='instructions-image'>","","instructions","","","","","","","","","","","","","",""
"learning-instructions","7","71572","0.0-3.0-1.0-0.3","spark_pilot_2","7785","2","20","Female","","","","","","","701.9000000953674","<p> In each round, you will search for treasure in a different place. In the real game, there will be two rounds. </p>
            <p> You will begin with a separate, practice round where you will search for treasure in outer space. </p>
            <img src='./assets/img/space/0.jpg' class='instructions-image'>","","instructions","","","","","","","","","","","","","",""
"learning-instructions","8","83572","0.0-3.0-1.0-0.4","spark_pilot_2","7785","2","20","Female","","","","","","","590","<p> On every turn, you will see a picture of the place that you are in, but the specific image may be different each time. </p>
            <p> For example, both of these images mean you are in outer space. </p>
            <img src='./assets/img/instructions/outerspace.jpg' class='instructions-image'>","","instructions","","","","","","","","","","","","","",""
"learning-instructions","9","92488","0.0-3.0-1.0-0.5","spark_pilot_2","7785","2","20","Female","","","","","","","1089.6000000238419","<p> You need to decide which direction to travel in. </p>
            <p> You can choose between going <b>up or down</b> by using the arrow keys. </p>
            <img src='./assets/img/instructions/updown.jpg' class='instructions-image'>","","instructions","","","","","","","","","","","","","",""
"learning-instructions","10","102171","0.0-3.0-1.0-0.6","spark_pilot_2","7785","2","20","Female","","","","","","","874.5","<p> You will have <b>2 seconds</b> to make your choice. </p>
            <p> If you do not make a choice within 2 seconds, you will not find an animal or earn treasure. </p>
            <img src='./assets/img/instructions/2seconds.jpg' class='instructions-image'>","","instructions","","","","","","","","","","","","","",""
"learning-instructions","11","110155","0.0-3.0-1.0-0.7","spark_pilot_2","7785","2","20","Female","","","","","","","943","<p> Let’s try practicing that now! </p>
            <p> When you see a picture of the place you are in, press the <b>up</b> key to travel up. </p>
            <img src='./assets/img/instructions/pressUp.jpg' class='instructions-image'>","","instructions","","","","","","","","","","","","","",""
"revaluation","12","114174","0.0-3.0-2.0-0.0","spark_pilot_2","7785","2","20","Female","","false","","","","","[1254.1000000238419]","./assets/img/space/0.jpg","[""ArrowUp""]","first stage practice","space","0","null","null","ArrowUp","false","","","","","","","",""
"html-keyboard-response","13","114684","0.0-3.0-2.0-1.0","spark_pilot_2","7785","2","20","Female","","","","","","","null","<div style=""font-size:60px;"">+</div>","null","fixation","","","","","","","","","","","","","",""
"revaluation","14","118703","0.0-3.0-2.0-0.1","spark_pilot_2","7785","2","20","Female","","false","","","","","[1200.3999999761581]","./assets/img/space/1.jpg","[""ArrowUp""]","first stage practice","space","0","null","null","ArrowUp","false","","","","","","","",""
"html-keyboard-response","15","119215","0.0-3.0-2.0-1.1","spark_pilot_2","7785","2","20","Female","","","","","","","null","<div style=""font-size:60px;"">+</div>","null","fixation","","","","","","","","","","","","","",""
"revaluation","16","123233","0.0-3.0-2.0-0.2","spark_pilot_2","7785","2","20","Female","","false","","","","","[683.8999999761581]","./assets/img/space/2.jpg","[""ArrowUp""]","first stage practice","space","0","null","null","ArrowUp","false","","","","","","","",""
"html-keyboard-response","17","123740","0.0-3.0-2.0-1.2","spark_pilot_2","7785","2","20","Female","","","","","","","null","<div style=""font-size:60px;"">+</div>","null","fixation","","","","","","","","","","","","","",""
"learning-instructions","18","129259","0.0-3.0-3.0-0.0","spark_pilot_2","7785","2","20","Female","","","","","","","815.3999999761581","<p> Great job! Now try pressing the <b>down</b> key to travel down. </p>
            <img src='./assets/img/instructions/pressDown.jpg' class='instructions-image'>","","instructions","","","","","","","","","","","","","",""
"revaluation","19","133273","0.0-3.0-4.0-0.0","spark_pilot_2","7785","2","20","Female","","false","","","","","[617.8999999761581]","./assets/img/space/3.jpg","[""ArrowDown""]","first stage practice","space","0","null","null","ArrowDown","false","","","","","","","",""
"html-keyboard-response","20","133784","0.0-3.0-4.0-1.0","spark_pilot_2","7785","2","20","Female","","","","","","","null","<div style=""font-size:60px;"">+</div>","null","fixation","","","","","","","","","","","","","",""
"revaluation","21","137805","0.0-3.0-4.0-0.1","spark_pilot_2","7785","2","20","Female","","false","","","","","[450.89999997615814]","./assets/img/space/4.jpg","[""ArrowDown""]","first stage practice","space","0","null","null","ArrowDown","false","","","","","","","",""
"html-keyboard-response","22","138312","0.0-3.0-4.0-1.1","spark_pilot_2","7785","2","20","Female","","","","","","","null","<div style=""font-size:60px;"">+</div>","null","fixation","","","","","","","","","","","","","",""
"revaluation","23","142333","0.0-3.0-4.0-0.2","spark_pilot_2","7785","2","20","Female","","false","","","","","[547.8999999761581]","./assets/img/space/5.jpg","[""ArrowDown""]","first stage practice","space","0","null","null","ArrowDown","false","","","","","","","",""
"html-keyboard-response","24","142840","0.0-3.0-4.0-1.2","spark_pilot_2","7785","2","20","Female","","","","","","","null","<div style=""font-size:60px;"">+</div>","null","fixation","","","","","","","","","","","","","",""
"learning-instructions","25","153422","0.0-3.0-5.0-0.0","spark_pilot_2","7785","2","20","Female","","","","","","","728.6999999284744","<p> The animals don’t move, so the animal in the upper part of a place will stay in the upper part of a place, and the animal in the lower part of a place will stay in the lower part of a place. </p>","","instructions","","","","","","","","","","","","","",""
"learning-instructions","26","163239","0.0-3.0-5.0-0.1","spark_pilot_2","7785","2","20","Female","","","","","","","683.8999999761581","<p> Each animal has two treasure chests for you to choose from. </p>
            <p> The amount of treasure in each chest can range from <b> 0 to 40 pieces.</b></p>","","instructions","","","","","","","","","","","","","",""
"learning-instructions","27","174939","0.0-3.0-5.0-0.2","spark_pilot_2","7785","2","20","Female","","","","","","","517","<p> You should decide which chest to search for treasure by using the <b>left</b> and <b>right</b> arrow keys. </p>
            <p><b> Pay attention to which animal is on the screen, as the animals have different treasure chests. </b></p>
            <img src='./assets/img/instructions/leftright.jpg' class='instructions-image'>","","instructions","","","","","","","","","","","","","",""
"learning-instructions","28","181855","0.0-3.0-5.0-0.3","spark_pilot_2","7785","2","20","Female","","","","","","","553.4000000953674","<p> Let’s try practicing that now. </p>
            <p> When you see an animal, choose which chest to search for treasure. </p>
            <img src='./assets/img/instructions/chooseChest.jpg' class='instructions-image'>","","instructions","","","","","","","","","","","","","",""
"revaluation","29","185873","0.0-3.0-6.0-0.0","spark_pilot_2","7785","2","20","Female","","false","","","","","[766.2000000476837]","./assets/img/space/animals/cat.jpg","[""ArrowRight""]","second stage practice","space","36","{""ArrowUp,ArrowLeft"":3,""ArrowUp,ArrowRight"":36,""ArrowDown,ArrowLeft"":15,""ArrowDown,ArrowRight"":23}","true","ArrowUp,ArrowRight","","","","","","","","",""
"html-keyboard-response","30","186382","0.0-3.0-6.0-1.0","spark_pilot_2","7785","2","20","Female","","","","","","","null","<div style=""font-size:60px;"">+</div>","null","fixation","","","","","","","","","","","","","",""
"revaluation","31","190401","0.0-3.0-6.0-0.1","spark_pilot_2","7785","2","20","Female","","false","","","","","[648.6000000238419]","./assets/img/space/animals/rabbit.jpg","[""ArrowLeft""]","second stage practice","space","15","{""ArrowUp,ArrowLeft"":3,""ArrowUp,ArrowRight"":36,""ArrowDown,ArrowLeft"":15,""ArrowDown,ArrowRight"":23}","false","ArrowDown,ArrowLeft","","","","","","","","",""
"html-keyboard-response","32","190913","0.0-3.0-6.0-1.1","spark_pilot_2","7785","2","20","Female","","","","","","","null","<div style=""font-size:60px;"">+</div>","null","fixation","","","","","","","","","","","","","",""
"revaluation","33","194936","0.0-3.0-6.0-0.2","spark_pilot_2","7785","2","20","Female","","false","","","","","[590.1000000238419]","./assets/img/space/animals/rabbit.jpg","[""ArrowLeft""]","second stage practice","space","15","{""ArrowUp,ArrowLeft"":3,""ArrowUp,ArrowRight"":36,""ArrowDown,ArrowLeft"":15,""ArrowDown,ArrowRight"":23}","false","ArrowDown,ArrowLeft","","","","","","","","",""
"html-keyboard-response","34","195444","0.0-3.0-6.0-1.2","spark_pilot_2","7785","2","20","Female","","","","","","","null","<div style=""font-size:60px;"">+</div>","null","fixation","","","","","","","","","","","","","",""
"revaluation","35","199465","0.0-3.0-6.0-0.3","spark_pilot_2","7785","2","20","Female","","false","","","","","[621.7000000476837]","./assets/img/space/animals/cat.jpg","[""ArrowRight""]","second stage practice","space","36","{""ArrowUp,ArrowLeft"":3,""ArrowUp,ArrowRight"":36,""ArrowDown,ArrowLeft"":15,""ArrowDown,ArrowRight"":23}","true","ArrowUp,ArrowRight","","","","","","","","",""
"html-keyboard-response","36","199977","0.0-3.0-6.0-1.3","spark_pilot_2","7785","2","20","Female","","","","","","","null","<div style=""font-size:60px;"">+</div>","null","fixation","","","","","","","","","","","","","",""
"learning-instructions","37","217890","0.0-3.0-7.0-0.0","spark_pilot_2","7785","2","20","Female","","","","","","","1094.3999999761581","<p> Great job. Now let’s try putting it together. </p>
            <p> On each turn, you will first see a picture to remind you of the place you are in, and you need to choose whether to go up or down. </p>
            <p> Then you will see an animal and choose which of its chests to search for treasure. </p>","","instructions","","","","","","","","","","","","","",""
"learning-instructions","38","226756","0.0-3.0-7.0-0.1","spark_pilot_2","7785","2","20","Female","","","","","","","606.5","<p> When you choose whether to go up or down, try to go to the animal with the chest with the most treasure. </p>
            <p> Try practicing that now! </p>","","instructions","","","","","","","","","","","","","",""
"revaluation","39","232785","0.0-3.0-8.0-0.0","spark_pilot_2","7785","2","20","Female","","false","","","","","[657.8000000715256,705.0999999046326]","./assets/img/space/6.jpg","[""ArrowUp"",""ArrowRight""]","full practice","space","36","{""ArrowUp,ArrowLeft"":3,""ArrowUp,ArrowRight"":36,""ArrowDown,ArrowLeft"":15,""ArrowDown,ArrowRight"":23}","true","ArrowUp,ArrowRight","false","","","","","","","",""
"html-keyboard-response","40","233297","0.0-3.0-8.0-1.0","spark_pilot_2","7785","2","20","Female","","","","","","","null","<div style=""font-size:60px;"">+</div>","null","fixation","","","","","","","","","","","","","",""
"revaluation","41","239329","0.0-3.0-8.0-0.1","spark_pilot_2","7785","2","20","Female","","false","","","","","[473.5,516.8999999761581]","./assets/img/space/7.jpg","[""ArrowUp"",""ArrowRight""]","full practice","space","36","{""ArrowUp,ArrowLeft"":3,""ArrowUp,ArrowRight"":36,""ArrowDown,ArrowLeft"":15,""ArrowDown,ArrowRight"":23}","true","ArrowUp,ArrowRight","false","","","","","","","",""
"html-keyboard-response","42","239837","0.0-3.0-8.0-1.1","spark_pilot_2","7785","2","20","Female","","","","","","","null","<div style=""font-size:60px;"">+</div>","null","fixation","","","","","","","","","","","","","",""
"revaluation","43","245865","0.0-3.0-8.0-0.2","spark_pilot_2","7785","2","20","Female","","false","","","","","[414.39999997615814,324.5]","./assets/img/space/8.jpg","[""ArrowUp"",""ArrowRight""]","full practice","space","36","{""ArrowUp,ArrowLeft"":3,""ArrowUp,ArrowRight"":36,""ArrowDown,ArrowLeft"":15,""ArrowDown,ArrowRight"":23}","true","ArrowUp,ArrowRight","false","","","","","","","",""
"html-keyboard-response","44","246377","0.0-3.0-8.0-1.2","spark_pilot_2","7785","2","20","Female","","","","","","","null","<div style=""font-size:60px;"">+</div>","null","fixation","","","","","","","","","","","","","",""
"revaluation","45","252409","0.0-3.0-8.0-0.3","spark_pilot_2","7785","2","20","Female","","false","","","","","[447.7999999523163,301.60000002384186]","./assets/img/space/9.jpg","[""ArrowUp"",""ArrowRight""]","full practice","space","36","{""ArrowUp,ArrowLeft"":3,""ArrowUp,ArrowRight"":36,""ArrowDown,ArrowLeft"":15,""ArrowDown,ArrowRight"":23}","true","ArrowUp,ArrowRight","false","","","","","","","",""
"html-keyboard-response","46","252919","0.0-3.0-8.0-1.3","spark_pilot_2","7785","2","20","Female","","","","","","","null","<div style=""font-size:60px;"">+</div>","null","fixation","","","","","","","","","","","","","",""
"revaluation","47","258941","0.0-3.0-8.0-0.4","spark_pilot_2","7785","2","20","Female","","false","","","","","[440.10000002384186,230.70000004768372]","./assets/img/space/10.jpg","[""ArrowUp"",""ArrowRight""]","full practice","space","36","{""ArrowUp,ArrowLeft"":3,""ArrowUp,ArrowRight"":36,""ArrowDown,ArrowLeft"":15,""ArrowDown,ArrowRight"":23}","true","ArrowUp,ArrowRight","false","","","","","","","",""
"html-keyboard-response","48","259447","0.0-3.0-8.0-1.4","spark_pilot_2","7785","2","20","Female","","","","","","","null","<div style=""font-size:60px;"">+</div>","null","fixation","","","","","","","","","","","","","",""
"learning-instructions","49","271107","0.0-3.0-9.0-0.0","spark_pilot_2","7785","2","20","Female","","","","","","","1055","<p> One last thing: sometimes, you will see a robber. The robber can be anywhere in the picture. </p>
            <p> If you do not stop them, you will lose treasure. </p>
            <img src='./assets/img/instructions/robber.jpg' class='instructions-image'>","","instructions","","","","","","","","","","","","","",""
"learning-instructions","50","278790","0.0-3.0-9.0-0.1","spark_pilot_2","7785","2","20","Female","","","","","","","520.2999999523163","<p> If you see the robber, you should <b>press the space bar</b> rather than using the arrow keys. </p>
            <p> Try practicing that now! </p>","","instructions","","","","","","","","","","","","","",""
"revaluation","51","282809","0.0-3.0-10.0-0.0","spark_pilot_2","7785","2","20","Female","","false","","","","","[528.3999999761581]","./assets/img/space/catch/0.jpg","[""spaceBar""]","catch practice","space","0","{""ArrowUp,ArrowLeft"":3,""ArrowUp,ArrowRight"":36,""ArrowDown,ArrowLeft"":15,""ArrowDown,ArrowRight"":23}","true","spaceBar","true","","","","","","","",""
"html-keyboard-response","52","283321","0.0-3.0-10.0-1.0","spark_pilot_2","7785","2","20","Female","","","","","","","null","<div style=""font-size:60px;"">+</div>","null","fixation","","","","","","","","","","","","","",""
"revaluation","53","287343","0.0-3.0-10.0-0.1","spark_pilot_2","7785","2","20","Female","","false","","","","","[407.5]","./assets/img/space/catch/1.jpg","[""spaceBar""]","catch practice","space","0","{""ArrowUp,ArrowLeft"":3,""ArrowUp,ArrowRight"":36,""ArrowDown,ArrowLeft"":15,""ArrowDown,ArrowRight"":23}","true","spaceBar","true","","","","","","","",""
"html-keyboard-response","54","287855","0.0-3.0-10.0-1.1","spark_pilot_2","7785","2","20","Female","","","","","","","null","<div style=""font-size:60px;"">+</div>","null","fixation","","","","","","","","","","","","","",""
"revaluation","55","291873","0.0-3.0-10.0-0.2","spark_pilot_2","7785","2","20","Female","","false","","","","","[403.09999990463257]","./assets/img/space/catch/2.jpg","[""spaceBar""]","catch practice","space","0","{""ArrowUp,ArrowLeft"":3,""ArrowUp,ArrowRight"":36,""ArrowDown,ArrowLeft"":15,""ArrowDown,ArrowRight"":23}","true","spaceBar","true","","","","","","","",""
"html-keyboard-response","56","292385","0.0-3.0-10.0-1.2","spark_pilot_2","7785","2","20","Female","","","","","","","null","<div style=""font-size:60px;"">+</div>","null","fixation","","","","","","","","","","","","","",""
"learning-instructions","57","306857","0.0-3.0-11.0-0.0","spark_pilot_2","7785","2","20","Female","","","","","","","884.6999999284744","<p> After you explore a place to find treasure, it will be time to play a different game. </p>
            <p> During this game, red dots will appear on the screen and fall down slowly. </p>
            <p><b> You must click on them before they reach the bottom. </b></p>
            <img src='./assets/img/instructions/dotGame.jpg' class='instructions-image'>","","instructions","","","","","","","","","","","","","",""
"learning-instructions","58","313507","0.0-3.0-11.0-0.1","spark_pilot_2","7785","2","20","Female","","","","","","","917.4000000953674","<p> For every dot you click, you will earn additional treasure. </p>
            <p> Let’s try practicing that now. </p>","","instructions","","","","","","","","","","","","","",""
"revaluation","59","328521","0.0-3.0-12.0-0.0","spark_pilot_2","7785","2","20","Female","","","","","","","[83]","","","rest practice","","10","","","","","0","15000","","","","","",""
"learning-instructions","60","334874","0.0-3.0-13.0-0.0-0.0","spark_pilot_2","7785","2","20","Female","","","","","","","1094.2999999523163","<p> Now, you will practice a shortened version of the game to get a sense of how it all fits together. </p>","","instructions","","","","","","","","","","","","","",""
"learning-instructions","61","338557","0.0-3.0-13.0-0.0-0.1","spark_pilot_2","7785","2","20","Female","","","","","","","495.2999999523163","<p>This time you are searching for treasure in outer space.</p>","","instructions","","","","","","","","","","","","","",""
"learning-instructions","62","353808","0.0-3.0-13.0-1.0-0.0","spark_pilot_2","7785","2","20","Female","","","","","","","482","<p> Remember, when you see a picture of the place, use the up and down keys to <b>find an animal</b>.</p>
            <p> When you encounter an animal, you should use the left and right keys to <b>select a treasure chest</b>.</p>
            <p> Don't forget to look out for the robber! </p>","","instructions","","","","","","","","","","","","","",""
"revaluation","63","359830","0.0-3.0-13.0-2.0-0.0","spark_pilot_2","7785","2","20","Female","","false","","","","","[635.9000000953674,627.6999999284744]","./assets/img/space/11.jpg","[""ArrowUp"",""ArrowRight""]","practice block","space","36","{""ArrowUp,ArrowLeft"":3,""ArrowUp,ArrowRight"":36,""ArrowDown,ArrowLeft"":15,""ArrowDown,ArrowRight"":23}","true","ArrowUp,ArrowRight","false","","","","","","","",""
"html-keyboard-response","64","360337","0.0-3.0-13.0-2.0-1.0","spark_pilot_2","7785","2","20","Female","","","","","","","null","<div style=""font-size:60px;"">+</div>","null","fixation","","","","","","","","","","","","","",""
"revaluation","65","366370","0.0-3.0-13.0-2.0-0.1","spark_pilot_2","7785","2","20","Female","","false","","","","","[878.5,396.1999999284744]","./assets/img/space/12.jpg","[""ArrowUp"",""ArrowRight""]","practice block","space","36","{""ArrowUp,ArrowLeft"":3,""ArrowUp,ArrowRight"":36,""ArrowDown,ArrowLeft"":15,""ArrowDown,ArrowRight"":23}","true","ArrowUp,ArrowRight","false","","","","","","","",""
"html-keyboard-response","66","366881","0.0-3.0-13.0-2.0-1.1","spark_pilot_2","7785","2","20","Female","","","","","","","null","<div style=""font-size:60px;"">+</div>","null","fixation","","","","","","","","","","","","","",""
"revaluation","67","372914","0.0-3.0-13.0-2.0-0.2","spark_pilot_2","7785","2","20","Female","","false","","","","","[586.2000000476837,421.39999997615814]","./assets/img/space/13.jpg","[""ArrowUp"",""ArrowRight""]","practice block","space","36","{""ArrowUp,ArrowLeft"":3,""ArrowUp,ArrowRight"":36,""ArrowDown,ArrowLeft"":15,""ArrowDown,ArrowRight"":23}","true","ArrowUp,ArrowRight","false","","","","","","","",""
"html-keyboard-response","68","373425","0.0-3.0-13.0-2.0-1.2","spark_pilot_2","7785","2","20","Female","","","","","","","null","<div style=""font-size:60px;"">+</div>","null","fixation","","","","","","","","","","","","","",""
"revaluation","69","379458","0.0-3.0-13.0-2.0-0.3","spark_pilot_2","7785","2","20","Female","","false","","","","","[595,274.1999999284744]","./assets/img/space/14.jpg","[""ArrowUp"",""ArrowRight""]","practice block","space","36","{""ArrowUp,ArrowLeft"":3,""ArrowUp,ArrowRight"":36,""ArrowDown,ArrowLeft"":15,""ArrowDown,ArrowRight"":23}","true","ArrowUp,ArrowRight","false","","","","","","","",""
"html-keyboard-response","70","379965","0.0-3.0-13.0-2.0-1.3","spark_pilot_2","7785","2","20","Female","","","","","","","null","<div style=""font-size:60px;"">+</div>","null","fixation","","","","","","","","","","","","","",""
"revaluation","71","385994","0.0-3.0-13.0-2.0-0.4","spark_pilot_2","7785","2","20","Female","","false","","","","","[733.7999999523163,350.39999997615814]","./assets/img/space/11.jpg","[""ArrowUp"",""ArrowRight""]","practice block","space","36","{""ArrowUp,ArrowLeft"":3,""ArrowUp,ArrowRight"":36,""ArrowDown,ArrowLeft"":15,""ArrowDown,ArrowRight"":23}","true","ArrowUp,ArrowRight","false","","","","","","","",""
"html-keyboard-response","72","386505","0.0-3.0-13.0-2.0-1.4","spark_pilot_2","7785","2","20","Female","","","","","","","null","<div style=""font-size:60px;"">+</div>","null","fixation","","","","","","","","","","","","","",""
"revaluation","73","392538","0.0-3.0-13.0-2.0-0.5","spark_pilot_2","7785","2","20","Female","","false","","","","","[694,317.6999999284744]","./assets/img/space/12.jpg","[""ArrowUp"",""ArrowRight""]","practice block","space","36","{""ArrowUp,ArrowLeft"":3,""ArrowUp,ArrowRight"":36,""ArrowDown,ArrowLeft"":15,""ArrowDown,ArrowRight"":23}","true","ArrowUp,ArrowRight","false","","","","","","","",""
"html-keyboard-response","74","393049","0.0-3.0-13.0-2.0-1.5","spark_pilot_2","7785","2","20","Female","","","","","","","null","<div style=""font-size:60px;"">+</div>","null","fixation","","","","","","","","","","","","","",""
"revaluation","75","399082","0.0-3.0-13.0-2.0-0.6","spark_pilot_2","7785","2","20","Female","","false","","","","","[561.6000000238419,259.89999997615814]","./assets/img/space/13.jpg","[""ArrowUp"",""ArrowRight""]","practice block","space","36","{""ArrowUp,ArrowLeft"":3,""ArrowUp,ArrowRight"":36,""ArrowDown,ArrowLeft"":15,""ArrowDown,ArrowRight"":23}","true","ArrowUp,ArrowRight","false","","","","","","","",""
"html-keyboard-response","76","399593","0.0-3.0-13.0-2.0-1.6","spark_pilot_2","7785","2","20","Female","","","","","","","null","<div style=""font-size:60px;"">+</div>","null","fixation","","","","","","","","","","","","","",""
"revaluation","77","405626","0.0-3.0-13.0-2.0-0.7","spark_pilot_2","7785","2","20","Female","","false","","","","","[516.1000000238419,354.7999999523163]","./assets/img/space/14.jpg","[""ArrowUp"",""ArrowRight""]","practice block","space","36","{""ArrowUp,ArrowLeft"":3,""ArrowUp,ArrowRight"":36,""ArrowDown,ArrowLeft"":15,""ArrowDown,ArrowRight"":23}","true","ArrowUp,ArrowRight","false","","","","","","","",""
"html-keyboard-response","78","406137","0.0-3.0-13.0-2.0-1.7","spark_pilot_2","7785","2","20","Female","","","","","","","null","<div style=""font-size:60px;"">+</div>","null","fixation","","","","","","","","","","","","","",""
"revaluation","79","410159","0.0-3.0-13.0-2.0-0.8","spark_pilot_2","7785","2","20","Female","","false","","","","","[720.2000000476837]","./assets/img/space/catch/3.jpg","[""spaceBar""]","practice block","space","0","{""ArrowUp,ArrowLeft"":3,""ArrowUp,ArrowRight"":36,""ArrowDown,ArrowLeft"":15,""ArrowDown,ArrowRight"":23}","true","spaceBar","true","","","","","","","",""
"html-keyboard-response","80","410671","0.0-3.0-13.0-2.0-1.8","spark_pilot_2","7785","2","20","Female","","","","","","","null","<div style=""font-size:60px;"">+</div>","null","fixation","","","","","","","","","","","","","",""
"learning-instructions","81","425259","0.0-3.0-13.0-3.0-0.0","spark_pilot_2","7785","2","20","Female","","","","","","","1177.9000000953674","<p> Now, you will travel with a friend who will choose whether you go up or down first. </p>
            <p> On these turns, you will just see the animal that they found. You will still get to choose which chest to search for treasure.</p>","","instructions","","","","","","","","","","","","","",""
"revaluation","82","429281","0.0-3.0-13.0-4.0-0.0","spark_pilot_2","7785","2","20","Female","","false","","","","","[779.3999999761581]","./assets/img/space/animals/cat.jpg","[""ArrowRight""]","practice block","space","36","{""ArrowUp,ArrowLeft"":3,""ArrowUp,ArrowRight"":36,""ArrowDown,ArrowLeft"":15,""ArrowDown,ArrowRight"":23}","true","ArrowUp,ArrowRight","","","","","","","","",""
"html-keyboard-response","83","429789","0.0-3.0-13.0-4.0-1.0","spark_pilot_2","7785","2","20","Female","","","","","","","null","<div style=""font-size:60px;"">+</div>","null","fixation","","","","","","","","","","","","","",""
"revaluation","84","433810","0.0-3.0-13.0-4.0-0.1","spark_pilot_2","7785","2","20","Female","","false","","","","","[423.5]","./assets/img/space/animals/rabbit.jpg","[""ArrowRight""]","practice block","space","23","{""ArrowUp,ArrowLeft"":3,""ArrowUp,ArrowRight"":36,""ArrowDown,ArrowLeft"":15,""ArrowDown,ArrowRight"":23}","true","ArrowDown,ArrowRight","","","","","","","","",""
"html-keyboard-response","85","434321","0.0-3.0-13.0-4.0-1.1","spark_pilot_2","7785","2","20","Female","","","","","","","null","<div style=""font-size:60px;"">+</div>","null","fixation","","","","","","","","","","","","","",""
"revaluation","86","438346","0.0-3.0-13.0-4.0-0.2","spark_pilot_2","7785","2","20","Female","","false","","","","","[398.89999997615814]","./assets/img/space/animals/cat.jpg","[""ArrowRight""]","practice block","space","36","{""ArrowUp,ArrowLeft"":3,""ArrowUp,ArrowRight"":36,""ArrowDown,ArrowLeft"":15,""ArrowDown,ArrowRight"":23}","true","ArrowUp,ArrowRight","","","","","","","","",""
"html-keyboard-response","87","438857","0.0-3.0-13.0-4.0-1.2","spark_pilot_2","7785","2","20","Female","","","","","","","null","<div style=""font-size:60px;"">+</div>","null","fixation","","","","","","","","","","","","","",""
"revaluation","88","442882","0.0-3.0-13.0-4.0-0.3","spark_pilot_2","7785","2","20","Female","","false","","","","","[336.59999990463257]","./assets/img/space/animals/rabbit.jpg","[""ArrowRight""]","practice block","space","23","{""ArrowUp,ArrowLeft"":3,""ArrowUp,ArrowRight"":36,""ArrowDown,ArrowLeft"":15,""ArrowDown,ArrowRight"":23}","true","ArrowDown,ArrowRight","","","","","","","","",""
"html-keyboard-response","89","443394","0.0-3.0-13.0-4.0-1.3","spark_pilot_2","7785","2","20","Female","","","","","","","null","<div style=""font-size:60px;"">+</div>","null","fixation","","","","","","","","","","","","","",""
"learning-instructions","90","451543","0.0-3.0-13.0-5.0-0.0","spark_pilot_2","7785","2","20","Female","","","","","","","779.1000000238419","<p> Time to play the dot game! </p>
            <p> For 15 seconds, click the red dots on the following screen as they appear. </p>","","instructions","","","","","","","","","","","","","",""
"revaluation","91","466553","0.0-3.0-13.0-6.0-0.0","spark_pilot_2","7785","2","20","Female","","","","","","","[64]","","","rest practice","","10","","","","","0","15000","","","","","",""
"learning-instructions","92","473577","0.0-3.0-13.0-7.0-0.0","spark_pilot_2","7785","2","20","Female","","","","","","","903.6999999284744","<p> You have almost finished this part of the game! </p>
            <p> We are going to ask you to make a few more choices. </p>","","instructions","","","","","","","","","","","","","",""
"learning-instructions","93","488576","0.0-3.0-13.0-7.0-0.1","spark_pilot_2","7785","2","20","Female","","","","","","","991.0999999046326","<p> First, you need to decide whether to go up or down. When you see each picture, use the arrow keys to make your choice. </p>
            <p><b>You will not see which animal you found, but try to get to the one that will give you the most treasure.</b></p>","","instructions","","","","","","","","","","","","","",""
"revaluation","94","489231","0.0-3.0-13.0-8.0","spark_pilot_2","7785","2","20","Female","","false","","","","","[651.5]","./assets/img/space/15.jpg","[""ArrowUp""]","practice block","space","0","{""ArrowUp,ArrowLeft"":3,""ArrowUp,ArrowRight"":36,""ArrowDown,ArrowLeft"":15,""ArrowDown,ArrowRight"":23}","true","ArrowUp","false","","","","","","","",""
"html-keyboard-response","95","489736","0.0-3.0-13.0-9.0","spark_pilot_2","7785","2","20","Female","","","","","","","null","<div style=""font-size:60px;"">+</div>","null","fixation","","","","","","","","","","","","","",""
"learning-instructions","96","501810","0.0-3.0-13.0-10.0-0.0","spark_pilot_2","7785","2","20","Female","","","","","","","699.3999999761581","<p> Now you will see the animals again and can search their chests for treasure. </p>
            <p> This time, you will not see how much treasure you earned, but you will earn more bonus money for making better choices. </p>","","instructions","","","","","","","","","","","","","",""
"revaluation","97","502302","0.0-3.0-13.0-11.0-0.0","spark_pilot_2","7785","2","20","Female","","false","","","","","[488.39999997615814]","./assets/img/space/animals/cat.jpg","[""ArrowRight""]","practice block","space","0","{""ArrowUp,ArrowLeft"":3,""ArrowUp,ArrowRight"":36,""ArrowDown,ArrowLeft"":15,""ArrowDown,ArrowRight"":23}","true","ArrowUp,ArrowRight","","","","","","","","",""
"html-keyboard-response","98","502810","0.0-3.0-13.0-11.0-1.0","spark_pilot_2","7785","2","20","Female","","","","","","","null","<div style=""font-size:60px;"">+</div>","null","fixation","","","","","","","","","","","","","",""
"revaluation","99","503677","0.0-3.0-13.0-11.0-0.1","spark_pilot_2","7785","2","20","Female","","false","","","","","[863]","./assets/img/space/animals/rabbit.jpg","[""ArrowRight""]","practice block","space","0","{""ArrowUp,ArrowLeft"":3,""ArrowUp,ArrowRight"":36,""ArrowDown,ArrowLeft"":15,""ArrowDown,ArrowRight"":23}","true","ArrowDown,ArrowRight","","","","","","","","",""
"html-keyboard-response","100","504186","0.0-3.0-13.0-11.0-1.1","spark_pilot_2","7785","2","20","Female","","","","","","","null","<div style=""font-size:60px;"">+</div>","null","fixation","","","","","","","","","","","","","",""
"learning-instructions","101","509743","0.0-3.0-14.0-0.0","spark_pilot_2","7785","2","20","Female","","","","","","","974.1999999284744","<p> Before you start, we're going to ask you a few questions about how the game works. </p>","","instructions","","","","","","","","","","","","","",""
"comp-q","102","516228","0.0-3.0-15.0-0.0-0.0","spark_pilot_2","7785","2","20","Female","","","","","","","899.1000000238419","<p> <b> True or False? </b> </p>
            <p> There can be 50 pieces of treasure in a given animal's chest. </p>","1","comp_question","","","","true","","","","","","","","","",""
"comp-q","103","524678","0.0-3.0-15.0-0.0-1.0","spark_pilot_2","7785","2","20","Female","","","","","","","1790.8999999761581","<p> <b> That's right! </b> The amount of treasure in each chest can range from 0 to 40 pieces. </p>","0","comp_answer","","","","","","","","","","","","","",""
"comp-q","104","532394","0.0-3.0-15.0-0.1-0.1","spark_pilot_2","7785","2","20","Female","","","","","","","600.6999999284744","<p> <b> True or False? </b> </p><p> In this game, all animals have the same amount of treasure in their left and right chests. </p>","1","comp_question","","","","true","","","","","","","","","",""
"comp-q","105","538778","0.0-3.0-15.0-0.1-1.1","spark_pilot_2","7785","2","20","Female","","","","","","","1154.6999999284744","<p> <b> That's right! </b> Animals have different amounts of treasure in their treasure chests. </p>","0","comp_answer","","","","","","","","","","","","","",""
"comp-q","106","545144","0.0-3.0-15.0-0.2-0.2","spark_pilot_2","7785","2","20","Female","","","","","","","523.6000000238419","<p> <b> True or False? </b> </p><p> The same animal will always be there if you go up in the same place. </p>","1","comp_question","","","","false","","","","","","","","","",""
"comp-q","107","552227","0.0-3.0-15.0-0.2-1.2","spark_pilot_2","7785","2","20","Female","","","","","","","780.2999999523163","<p> <b>Incorrect.</b> One animal lives in the upper part and one lives in the lower part of every place. </p>","0","comp_answer","","","","","","","","","","","","","",""
"comp-q","108","559012","0.0-3.0-15.0-0.3-0.3","spark_pilot_2","7785","2","20","Female","","","","","","","962.6999999284744","<p> <b> True or False? </b> </p><p> The same animal will always be there if you go up in the same place. </p>","0","comp_question","","","","true","","","","","","","","","",""
"comp-q","109","566828","0.0-3.0-15.0-0.3-1.3","spark_pilot_2","7785","2","20","Female","","","","","","","1375.2000000476837","<p> <b> That's right! </b> One animal lives in the upper part and one lives in the lower part of every place. </p>","0","comp_answer","","","","","","","","","","","","","",""
"comp-q","110","572861","0.0-3.0-15.0-0.4-0.4","spark_pilot_2","7785","2","20","Female","","","","","","","507.3000000715256","<p> <b> True or False? </b> </p><p> If you see a different picture, it means you are in a new place. </p>","0","comp_question","","","","false","","","","","","","","","",""
"comp-q","111","584494","0.0-3.0-15.0-0.4-1.4","spark_pilot_2","7785","2","20","Female","","","","","","","540.6000000238419","<p> <b>Incorrect.</b> Lots of different images may show the same place. For example,  you may see three different images that all remind you that you are in outer space. </p>","0","comp_answer","","","","","","","","","","","","","",""
"comp-q","112","590412","0.0-3.0-15.0-0.5-0.5","spark_pilot_2","7785","2","20","Female","","","","","","","414.90000009536743","<p> <b> True or False? </b> </p><p> If you see a different picture, it means you are in a new place. </p>","1","comp_question","","","","true","","","","","","","","","",""
"comp-q","113","602228","0.0-3.0-15.0-0.5-1.5","spark_pilot_2","7785","2","20","Female","","","","","","","594.1999999284744","<p> <b> That's right! </b> Lots of different images may show the same place. For example,  you may see three different images that all remind you that you are in outer space. </p>","0","comp_answer","","","","","","","","","","","","","",""
"learning-instructions","114","612995","0.0-3.0-16.0-0.0","spark_pilot_2","7785","2","20","Female","","","","","","","913.2999999523163","<p> Good job. Remember to do your best because the amount of treasure you earn will be converted into bonus money. </p>
            <p> It’s time to start the real game! </p>","","instructions","","","","","","","","","","","","","",""
"learning-instructions","115","616678","0.0-4.0-0.0-0.0","spark_pilot_2","7785","2","20","Female","","","","","","","916.5","<p> This time you are searching for treasure in the <b>ocean</b>.</p>","","instructions","","","","","","","","","","","","","",""
"learning-instructions","116","634812","0.0-4.0-0.0-0.1","spark_pilot_2","7785","2","20","Female","","","","","","","836.7999999523163","<p><b>New</b> animals with <b>new</b> treasure chests live here. You need to explore to discover where the animal with the best treasure chest is.</p>
                    <p> Like before, once you figure out which animal has the chest with the most treasure, you should try to get to that animal and select that chest! </p>","","instructions","","","","","","","","","","","","","",""
"learning-instructions","117","650179","0.0-4.0-1.0-0.0","spark_pilot_2","7785","2","20","Female","","","","","","","635.6000000238419","<p> Remember, when you see a picture of the place, use the up and down keys to <b>find an animal</b>.</p>
            <p> When you encounter an animal, you should use the left and right keys to <b>select a treasure chest</b>.</p>
            <p> Don't forget to look out for the robber! </p>","","instructions","","","","","","","","","","","","","",""
"revaluation","118","656211","0.0-4.0-2.0-0.0","spark_pilot_2","7785","2","20","Female","","false","","","","","[531.3999999761581,389.6999999284744]","./assets/img/ocean/memory/0.jpg","[""ArrowDown"",""ArrowRight""]","value training","ocean","30","{""ArrowUp,ArrowLeft"":23,""ArrowUp,ArrowRight"":10,""ArrowDown,ArrowLeft"":8,""ArrowDown,ArrowRight"":30}","true","ArrowDown,ArrowRight","false","","","revaluation","1","0","","",""
"html-keyboard-response","119","656721","0.0-4.0-2.0-1.0","spark_pilot_2","7785","2","20","Female","","","","","","","null","<div style=""font-size:60px;"">+</div>","null","fixation","","","","","","","","","","","1","","",""
"revaluation","120","662747","0.0-4.0-2.0-0.1","spark_pilot_2","7785","2","20","Female","","false","","","","","[393.7999999523163,349.1999999284744]","./assets/img/ocean/memory/17.jpg","[""ArrowDown"",""ArrowRight""]","value training","ocean","30","{""ArrowUp,ArrowLeft"":23,""ArrowUp,ArrowRight"":10,""ArrowDown,ArrowLeft"":8,""ArrowDown,ArrowRight"":30}","true","ArrowDown,ArrowRight","false","","","revaluation","1","2","","",""
"html-keyboard-response","121","663259","0.0-4.0-2.0-1.1","spark_pilot_2","7785","2","20","Female","","","","","","","null","<div style=""font-size:60px;"">+</div>","null","fixation","","","","","","","","","","","3","","",""
"revaluation","122","669291","0.0-4.0-2.0-0.2","spark_pilot_2","7785","2","20","Female","","false","","","","","[765.8000000715256,1324.0999999046326]","./assets/img/ocean/memory/15.jpg","[""ArrowUp"",""ArrowLeft""]","value training","ocean","23","{""ArrowUp,ArrowLeft"":23,""ArrowUp,ArrowRight"":10,""ArrowDown,ArrowLeft"":8,""ArrowDown,ArrowRight"":30}","false","ArrowUp,ArrowLeft","false","","","revaluation","1","4","","",""
"html-keyboard-response","123","669803","0.0-4.0-2.0-1.2","spark_pilot_2","7785","2","20","Female","","","","","","","null","<div style=""font-size:60px;"">+</div>","null","fixation","","","","","","","","","","","5","","",""
"revaluation","124","675835","0.0-4.0-2.0-0.3","spark_pilot_2","7785","2","20","Female","","false","","","","","[805.1000000238419,442]","./assets/img/ocean/memory/13.jpg","[""ArrowDown"",""ArrowRight""]","value training","ocean","30","{""ArrowUp,ArrowLeft"":23,""ArrowUp,ArrowRight"":10,""ArrowDown,ArrowLeft"":8,""ArrowDown,ArrowRight"":30}","true","ArrowDown,ArrowRight","false","","","revaluation","1","6","","",""
"html-keyboard-response","125","676347","0.0-4.0-2.0-1.3","spark_pilot_2","7785","2","20","Female","","","","","","","null","<div style=""font-size:60px;"">+</div>","null","fixation","","","","","","","","","","","7","","",""
"revaluation","126","682376","0.0-4.0-2.0-0.4","spark_pilot_2","7785","2","20","Female","","false","","","","","[557.1000000238419,294.39999997615814]","./assets/img/ocean/memory/23.jpg","[""ArrowUp"",""ArrowRight""]","value training","ocean","10","{""ArrowUp,ArrowLeft"":23,""ArrowUp,ArrowRight"":10,""ArrowDown,ArrowLeft"":8,""ArrowDown,ArrowRight"":30}","false","ArrowUp,ArrowRight","false","","","revaluation","1","8","","",""
"html-keyboard-response","127","682888","0.0-4.0-2.0-1.4","spark_pilot_2","7785","2","20","Female","","","","","","","null","<div style=""font-size:60px;"">+</div>","null","fixation","","","","","","","","","","","9","","",""
"revaluation","128","688915","0.0-4.0-2.0-0.5","spark_pilot_2","7785","2","20","Female","","false","","","","","[555.1999999284744,212]","./assets/img/ocean/memory/9.jpg","[""ArrowDown"",""ArrowRight""]","value training","ocean","30","{""ArrowUp,ArrowLeft"":23,""ArrowUp,ArrowRight"":10,""ArrowDown,ArrowLeft"":8,""ArrowDown,ArrowRight"":30}","true","ArrowDown,ArrowRight","false","","","revaluation","1","10","","",""
"html-keyboard-response","129","689426","0.0-4.0-2.0-1.5","spark_pilot_2","7785","2","20","Female","","","","","","","null","<div style=""font-size:60px;"">+</div>","null","fixation","","","","","","","","","","","11","","",""
"revaluation","130","695459","0.0-4.0-2.0-0.6","spark_pilot_2","7785","2","20","Female","","false","","","","","[549,151.29999995231628]","./assets/img/ocean/memory/15.jpg","[""ArrowDown"",""ArrowRight""]","value training","ocean","30","{""ArrowUp,ArrowLeft"":23,""ArrowUp,ArrowRight"":10,""ArrowDown,ArrowLeft"":8,""ArrowDown,ArrowRight"":30}","true","ArrowDown,ArrowRight","false","","","revaluation","1","12","","",""
"html-keyboard-response","131","695970","0.0-4.0-2.0-1.6","spark_pilot_2","7785","2","20","Female","","","","","","","null","<div style=""font-size:60px;"">+</div>","null","fixation","","","","","","","","","","","13","","",""
"revaluation","132","699992","0.0-4.0-2.0-0.7","spark_pilot_2","7785","2","20","Female","","false","","","","","[708.3999999761581]","./assets/img/ocean/catch/0.jpg","[""spaceBar""]","value training","ocean","0","{""ArrowUp,ArrowLeft"":23,""ArrowUp,ArrowRight"":10,""ArrowDown,ArrowLeft"":8,""ArrowDown,ArrowRight"":30}","true","spaceBar","true","","","revaluation","1","14","","",""
"html-keyboard-response","133","700504","0.0-4.0-2.0-1.7","spark_pilot_2","7785","2","20","Female","","","","","","","null","<div style=""font-size:60px;"">+</div>","null","fixation","","","","","","","","","","","15","","",""
"revaluation","134","704520","0.0-4.0-2.0-0.8","spark_pilot_2","7785","2","20","Female","","false","","","","","[713.8999999761581]","./assets/img/ocean/catch/5.jpg","[""spaceBar""]","value training","ocean","0","{""ArrowUp,ArrowLeft"":23,""ArrowUp,ArrowRight"":10,""ArrowDown,ArrowLeft"":8,""ArrowDown,ArrowRight"":30}","true","spaceBar","true","","","revaluation","1","16","","",""
"html-keyboard-response","135","705032","0.0-4.0-2.0-1.8","spark_pilot_2","7785","2","20","Female","","","","","","","null","<div style=""font-size:60px;"">+</div>","null","fixation","","","","","","","","","","","17","","",""
"revaluation","136","711059","0.0-4.0-2.0-0.9","spark_pilot_2","7785","2","20","Female","","false","","","","","[543.2000000476837,315.7000000476837]","./assets/img/ocean/memory/12.jpg","[""ArrowDown"",""ArrowRight""]","value training","ocean","30","{""ArrowUp,ArrowLeft"":23,""ArrowUp,ArrowRight"":10,""ArrowDown,ArrowLeft"":8,""ArrowDown,ArrowRight"":30}","true","ArrowDown,ArrowRight","false","","","revaluation","1","18","","",""
"html-keyboard-response","137","711571","0.0-4.0-2.0-1.9","spark_pilot_2","7785","2","20","Female","","","","","","","null","<div style=""font-size:60px;"">+</div>","null","fixation","","","","","","","","","","","19","","",""
"revaluation","138","715592","0.0-4.0-2.0-0.10","spark_pilot_2","7785","2","20","Female","","false","","","","","[505.2000000476837]","./assets/img/ocean/catch/6.jpg","[""spaceBar""]","value training","ocean","0","{""ArrowUp,ArrowLeft"":23,""ArrowUp,ArrowRight"":10,""ArrowDown,ArrowLeft"":8,""ArrowDown,ArrowRight"":30}","true","spaceBar","true","","","revaluation","1","20","","",""
"html-keyboard-response","139","716104","0.0-4.0-2.0-1.10","spark_pilot_2","7785","2","20","Female","","","","","","","null","<div style=""font-size:60px;"">+</div>","null","fixation","","","","","","","","","","","21","","",""
"revaluation","140","722131","0.0-4.0-2.0-0.11","spark_pilot_2","7785","2","20","Female","","false","","","","","[587.6999999284744,245.89999997615814]","./assets/img/ocean/memory/25.jpg","[""ArrowDown"",""ArrowRight""]","value training","ocean","30","{""ArrowUp,ArrowLeft"":23,""ArrowUp,ArrowRight"":10,""ArrowDown,ArrowLeft"":8,""ArrowDown,ArrowRight"":30}","true","ArrowDown,ArrowRight","false","","","revaluation","1","22","","",""
"html-keyboard-response","141","722643","0.0-4.0-2.0-1.11","spark_pilot_2","7785","2","20","Female","","","","","","","null","<div style=""font-size:60px;"">+</div>","null","fixation","","","","","","","","","","","23","","",""
"revaluation","142","728675","0.0-4.0-2.0-0.12","spark_pilot_2","7785","2","20","Female","","false","","","","","[568.2000000476837,155]","./assets/img/ocean/memory/17.jpg","[""ArrowDown"",""ArrowRight""]","value training","ocean","30","{""ArrowUp,ArrowLeft"":23,""ArrowUp,ArrowRight"":10,""ArrowDown,ArrowLeft"":8,""ArrowDown,ArrowRight"":30}","true","ArrowDown,ArrowRight","false","","","revaluation","1","24","","",""
"html-keyboard-response","143","729187","0.0-4.0-2.0-1.12","spark_pilot_2","7785","2","20","Female","","","","","","","null","<div style=""font-size:60px;"">+</div>","null","fixation","","","","","","","","","","","25","","",""
"revaluation","144","735219","0.0-4.0-2.0-0.13","spark_pilot_2","7785","2","20","Female","","false","","","","","[456.2000000476837,262.5]","./assets/img/ocean/memory/29.jpg","[""ArrowDown"",""ArrowRight""]","value training","ocean","30","{""ArrowUp,ArrowLeft"":23,""ArrowUp,ArrowRight"":10,""ArrowDown,ArrowLeft"":8,""ArrowDown,ArrowRight"":30}","true","ArrowDown,ArrowRight","false","","","revaluation","1","26","","",""
"html-keyboard-response","145","735731","0.0-4.0-2.0-1.13","spark_pilot_2","7785","2","20","Female","","","","","","","null","<div style=""font-size:60px;"">+</div>","null","fixation","","","","","","","","","","","27","","",""
"revaluation","146","741763","0.0-4.0-2.0-0.14","spark_pilot_2","7785","2","20","Female","","false","","","","","[568.1000000238419,296.7999999523163]","./assets/img/ocean/memory/11.jpg","[""ArrowDown"",""ArrowRight""]","value training","ocean","30","{""ArrowUp,ArrowLeft"":23,""ArrowUp,ArrowRight"":10,""ArrowDown,ArrowLeft"":8,""ArrowDown,ArrowRight"":30}","true","ArrowDown,ArrowRight","false","","","revaluation","1","28","","",""
"html-keyboard-response","147","742275","0.0-4.0-2.0-1.14","spark_pilot_2","7785","2","20","Female","","","","","","","null","<div style=""font-size:60px;"">+</div>","null","fixation","","","","","","","","","","","29","","",""
"revaluation","148","748307","0.0-4.0-2.0-0.15","spark_pilot_2","7785","2","20","Female","","false","","","","","[522.5,226.29999995231628]","./assets/img/ocean/memory/5.jpg","[""ArrowDown"",""ArrowRight""]","value training","ocean","30","{""ArrowUp,ArrowLeft"":23,""ArrowUp,ArrowRight"":10,""ArrowDown,ArrowLeft"":8,""ArrowDown,ArrowRight"":30}","true","ArrowDown,ArrowRight","false","","","revaluation","1","30","","",""
"html-keyboard-response","149","748819","0.0-4.0-2.0-1.15","spark_pilot_2","7785","2","20","Female","","","","","","","null","<div style=""font-size:60px;"">+</div>","null","fixation","","","","","","","","","","","31","","",""
"revaluation","150","754851","0.0-4.0-2.0-0.16","spark_pilot_2","7785","2","20","Female","","false","","","","","[456.10000002384186,289.39999997615814]","./assets/img/ocean/memory/6.jpg","[""ArrowDown"",""ArrowRight""]","value training","ocean","30","{""ArrowUp,ArrowLeft"":23,""ArrowUp,ArrowRight"":10,""ArrowDown,ArrowLeft"":8,""ArrowDown,ArrowRight"":30}","true","ArrowDown,ArrowRight","false","","","revaluation","1","32","","",""
"html-keyboard-response","151","755363","0.0-4.0-2.0-1.16","spark_pilot_2","7785","2","20","Female","","","","","","","null","<div style=""font-size:60px;"">+</div>","null","fixation","","","","","","","","","","","33","","",""
"revaluation","152","761395","0.0-4.0-2.0-0.17","spark_pilot_2","7785","2","20","Female","","false","","","","","[716.6000000238419,324.89999997615814]","./assets/img/ocean/memory/28.jpg","[""ArrowDown"",""ArrowRight""]","value training","ocean","30","{""ArrowUp,ArrowLeft"":23,""ArrowUp,ArrowRight"":10,""ArrowDown,ArrowLeft"":8,""ArrowDown,ArrowRight"":30}","true","ArrowDown,ArrowRight","false","","","revaluation","1","34","","",""
"html-keyboard-response","153","761907","0.0-4.0-2.0-1.17","spark_pilot_2","7785","2","20","Female","","","","","","","null","<div style=""font-size:60px;"">+</div>","null","fixation","","","","","","","","","","","35","","",""
"revaluation","154","767939","0.0-4.0-2.0-0.18","spark_pilot_2","7785","2","20","Female","","false","","","","","[535.0999999046326,219.29999995231628]","./assets/img/ocean/memory/5.jpg","[""ArrowDown"",""ArrowRight""]","value training","ocean","30","{""ArrowUp,ArrowLeft"":23,""ArrowUp,ArrowRight"":10,""ArrowDown,ArrowLeft"":8,""ArrowDown,ArrowRight"":30}","true","ArrowDown,ArrowRight","false","","","revaluation","1","36","","",""
"html-keyboard-response","155","768451","0.0-4.0-2.0-1.18","spark_pilot_2","7785","2","20","Female","","","","","","","null","<div style=""font-size:60px;"">+</div>","null","fixation","","","","","","","","","","","37","","",""
"revaluation","156","774484","0.0-4.0-2.0-0.19","spark_pilot_2","7785","2","20","Female","","false","","","","","[599.5,293.10000002384186]","./assets/img/ocean/memory/41.jpg","[""ArrowDown"",""ArrowRight""]","value training","ocean","30","{""ArrowUp,ArrowLeft"":23,""ArrowUp,ArrowRight"":10,""ArrowDown,ArrowLeft"":8,""ArrowDown,ArrowRight"":30}","true","ArrowDown,ArrowRight","false","","","revaluation","1","38","","",""
"html-keyboard-response","157","774995","0.0-4.0-2.0-1.19","spark_pilot_2","7785","2","20","Female","","","","","","","null","<div style=""font-size:60px;"">+</div>","null","fixation","","","","","","","","","","","39","","",""
"revaluation","158","781028","0.0-4.0-2.0-0.20","spark_pilot_2","7785","2","20","Female","","false","","","","","[678.5,262.5]","./assets/img/ocean/memory/13.jpg","[""ArrowDown"",""ArrowRight""]","value training","ocean","30","{""ArrowUp,ArrowLeft"":23,""ArrowUp,ArrowRight"":10,""ArrowDown,ArrowLeft"":8,""ArrowDown,ArrowRight"":30}","true","ArrowDown,ArrowRight","false","","","revaluation","1","40","","",""
"html-keyboard-response","159","781539","0.0-4.0-2.0-1.20","spark_pilot_2","7785","2","20","Female","","","","","","","null","<div style=""font-size:60px;"">+</div>","null","fixation","","","","","","","","","","","41","","",""
"revaluation","160","787572","0.0-4.0-2.0-0.21","spark_pilot_2","7785","2","20","Female","","false","","","","","[571.9000000953674,228]","./assets/img/ocean/memory/29.jpg","[""ArrowDown"",""ArrowRight""]","value training","ocean","30","{""ArrowUp,ArrowLeft"":23,""ArrowUp,ArrowRight"":10,""ArrowDown,ArrowLeft"":8,""ArrowDown,ArrowRight"":30}","true","ArrowDown,ArrowRight","false","","","revaluation","1","42","","",""
"html-keyboard-response","161","788083","0.0-4.0-2.0-1.21","spark_pilot_2","7785","2","20","Female","","","","","","","null","<div style=""font-size:60px;"">+</div>","null","fixation","","","","","","","","","","","43","","",""
"revaluation","162","794116","0.0-4.0-2.0-0.22","spark_pilot_2","7785","2","20","Female","","false","","","","","[610.2000000476837,266.5]","./assets/img/ocean/memory/0.jpg","[""ArrowDown"",""ArrowRight""]","value training","ocean","30","{""ArrowUp,ArrowLeft"":23,""ArrowUp,ArrowRight"":10,""ArrowDown,ArrowLeft"":8,""ArrowDown,ArrowRight"":30}","true","ArrowDown,ArrowRight","false","","","revaluation","1","44","","",""
"html-keyboard-response","163","794627","0.0-4.0-2.0-1.22","spark_pilot_2","7785","2","20","Female","","","","","","","null","<div style=""font-size:60px;"">+</div>","null","fixation","","","","","","","","","","","45","","",""
"revaluation","164","800660","0.0-4.0-2.0-0.23","spark_pilot_2","7785","2","20","Female","","false","","","","","[411.89999997615814,242.39999997615814]","./assets/img/ocean/memory/31.jpg","[""ArrowDown"",""ArrowLeft""]","value training","ocean","8","{""ArrowUp,ArrowLeft"":23,""ArrowUp,ArrowRight"":10,""ArrowDown,ArrowLeft"":8,""ArrowDown,ArrowRight"":30}","false","ArrowDown,ArrowLeft","false","","","revaluation","1","46","","",""
"html-keyboard-response","165","801171","0.0-4.0-2.0-1.23","spark_pilot_2","7785","2","20","Female","","","","","","","null","<div style=""font-size:60px;"">+</div>","null","fixation","","","","","","","","","","","47","","",""
"revaluation","166","807204","0.0-4.0-2.0-0.24","spark_pilot_2","7785","2","20","Female","","false","","","","","[625.4000000953674,247.20000004768372]","./assets/img/ocean/memory/4.jpg","[""ArrowDown"",""ArrowRight""]","value training","ocean","30","{""ArrowUp,ArrowLeft"":23,""ArrowUp,ArrowRight"":10,""ArrowDown,ArrowLeft"":8,""ArrowDown,ArrowRight"":30}","true","ArrowDown,ArrowRight","false","","","revaluation","1","48","","",""
"html-keyboard-response","167","807715","0.0-4.0-2.0-1.24","spark_pilot_2","7785","2","20","Female","","","","","","","null","<div style=""font-size:60px;"">+</div>","null","fixation","","","","","","","","","","","49","","",""
"revaluation","168","813748","0.0-4.0-2.0-0.25","spark_pilot_2","7785","2","20","Female","","false","","","","","[566.5,257.39999997615814]","./assets/img/ocean/memory/6.jpg","[""ArrowDown"",""ArrowRight""]","value training","ocean","30","{""ArrowUp,ArrowLeft"":23,""ArrowUp,ArrowRight"":10,""ArrowDown,ArrowLeft"":8,""ArrowDown,ArrowRight"":30}","true","ArrowDown,ArrowRight","false","","","revaluation","1","50","","",""
"html-keyboard-response","169","814259","0.0-4.0-2.0-1.25","spark_pilot_2","7785","2","20","Female","","","","","","","null","<div style=""font-size:60px;"">+</div>","null","fixation","","","","","","","","","","","51","","",""
"revaluation","170","820292","0.0-4.0-2.0-0.26","spark_pilot_2","7785","2","20","Female","","false","","","","","[439,225.80000007152557]","./assets/img/ocean/memory/37.jpg","[""ArrowDown"",""ArrowRight""]","value training","ocean","30","{""ArrowUp,ArrowLeft"":23,""ArrowUp,ArrowRight"":10,""ArrowDown,ArrowLeft"":8,""ArrowDown,ArrowRight"":30}","true","ArrowDown,ArrowRight","false","","","revaluation","1","52","","",""
"html-keyboard-response","171","820803","0.0-4.0-2.0-1.26","spark_pilot_2","7785","2","20","Female","","","","","","","null","<div style=""font-size:60px;"">+</div>","null","fixation","","","","","","","","","","","53","","",""
"revaluation","172","826836","0.0-4.0-2.0-0.27","spark_pilot_2","7785","2","20","Female","","false","","","","","[400.60000002384186,251.5]","./assets/img/ocean/memory/25.jpg","[""ArrowDown"",""ArrowRight""]","value training","ocean","30","{""ArrowUp,ArrowLeft"":23,""ArrowUp,ArrowRight"":10,""ArrowDown,ArrowLeft"":8,""ArrowDown,ArrowRight"":30}","true","ArrowDown,ArrowRight","false","","","revaluation","1","54","","",""
"html-keyboard-response","173","827347","0.0-4.0-2.0-1.27","spark_pilot_2","7785","2","20","Female","","","","","","","null","<div style=""font-size:60px;"">+</div>","null","fixation","","","","","","","","","","","55","","",""
"revaluation","174","833380","0.0-4.0-2.0-0.28","spark_pilot_2","7785","2","20","Female","","false","","","","","[503.3000000715256,44.89999997615814]","./assets/img/ocean/memory/4.jpg","[""ArrowDown"",""ArrowRight""]","value training","ocean","30","{""ArrowUp,ArrowLeft"":23,""ArrowUp,ArrowRight"":10,""ArrowDown,ArrowLeft"":8,""ArrowDown,ArrowRight"":30}","true","ArrowDown,ArrowRight","false","","","revaluation","1","56","","",""
"html-keyboard-response","175","833891","0.0-4.0-2.0-1.28","spark_pilot_2","7785","2","20","Female","","","","","","","null","<div style=""font-size:60px;"">+</div>","null","fixation","","","","","","","","","","","57","","",""
"revaluation","176","839924","0.0-4.0-2.0-0.29","spark_pilot_2","7785","2","20","Female","","false","","","","","[512,128.10000002384186]","./assets/img/ocean/memory/31.jpg","[""ArrowDown"",""ArrowRight""]","value training","ocean","30","{""ArrowUp,ArrowLeft"":23,""ArrowUp,ArrowRight"":10,""ArrowDown,ArrowLeft"":8,""ArrowDown,ArrowRight"":30}","true","ArrowDown,ArrowRight","false","","","revaluation","1","58","","",""
"html-keyboard-response","177","840435","0.0-4.0-2.0-1.29","spark_pilot_2","7785","2","20","Female","","","","","","","null","<div style=""font-size:60px;"">+</div>","null","fixation","","","","","","","","","","","59","","",""
"revaluation","178","846468","0.0-4.0-2.0-0.30","spark_pilot_2","7785","2","20","Female","","false","","","","","[472.09999990463257,219.10000002384186]","./assets/img/ocean/memory/37.jpg","[""ArrowDown"",""ArrowRight""]","value training","ocean","30","{""ArrowUp,ArrowLeft"":23,""ArrowUp,ArrowRight"":10,""ArrowDown,ArrowLeft"":8,""ArrowDown,ArrowRight"":30}","true","ArrowDown,ArrowRight","false","","","revaluation","1","60","","",""
"html-keyboard-response","179","846979","0.0-4.0-2.0-1.30","spark_pilot_2","7785","2","20","Female","","","","","","","null","<div style=""font-size:60px;"">+</div>","null","fixation","","","","","","","","","","","61","","",""
"revaluation","180","853012","0.0-4.0-2.0-0.31","spark_pilot_2","7785","2","20","Female","","false","","","","","[433.60000002384186,58.89999997615814]","./assets/img/ocean/memory/34.jpg","[""ArrowDown"",""ArrowRight""]","value training","ocean","30","{""ArrowUp,ArrowLeft"":23,""ArrowUp,ArrowRight"":10,""ArrowDown,ArrowLeft"":8,""ArrowDown,ArrowRight"":30}","true","ArrowDown,ArrowRight","false","","","revaluation","1","62","","",""
"html-keyboard-response","181","853523","0.0-4.0-2.0-1.31","spark_pilot_2","7785","2","20","Female","","","","","","","null","<div style=""font-size:60px;"">+</div>","null","fixation","","","","","","","","","","","63","","",""
"revaluation","182","859556","0.0-4.0-2.0-0.32","spark_pilot_2","7785","2","20","Female","","false","","","","","[610.3000000715256,240.5]","./assets/img/ocean/memory/26.jpg","[""ArrowDown"",""ArrowRight""]","value training","ocean","30","{""ArrowUp,ArrowLeft"":23,""ArrowUp,ArrowRight"":10,""ArrowDown,ArrowLeft"":8,""ArrowDown,ArrowRight"":30}","true","ArrowDown,ArrowRight","false","","","revaluation","1","64","","",""
"html-keyboard-response","183","860067","0.0-4.0-2.0-1.32","spark_pilot_2","7785","2","20","Female","","","","","","","null","<div style=""font-size:60px;"">+</div>","null","fixation","","","","","","","","","","","65","","",""
"revaluation","184","866100","0.0-4.0-2.0-0.33","spark_pilot_2","7785","2","20","Female","","false","","","","","[550,239.5]","./assets/img/ocean/memory/28.jpg","[""ArrowDown"",""ArrowRight""]","value training","ocean","30","{""ArrowUp,ArrowLeft"":23,""ArrowUp,ArrowRight"":10,""ArrowDown,ArrowLeft"":8,""ArrowDown,ArrowRight"":30}","true","ArrowDown,ArrowRight","false","","","revaluation","1","66","","",""
"html-keyboard-response","185","866611","0.0-4.0-2.0-1.33","spark_pilot_2","7785","2","20","Female","","","","","","","null","<div style=""font-size:60px;"">+</div>","null","fixation","","","","","","","","","","","67","","",""
"revaluation","186","872644","0.0-4.0-2.0-0.34","spark_pilot_2","7785","2","20","Female","","false","","","","","[568.1000000238419,246.39999997615814]","./assets/img/ocean/memory/23.jpg","[""ArrowDown"",""ArrowRight""]","value training","ocean","30","{""ArrowUp,ArrowLeft"":23,""ArrowUp,ArrowRight"":10,""ArrowDown,ArrowLeft"":8,""ArrowDown,ArrowRight"":30}","true","ArrowDown,ArrowRight","false","","","revaluation","1","68","","",""
"html-keyboard-response","187","873155","0.0-4.0-2.0-1.34","spark_pilot_2","7785","2","20","Female","","","","","","","null","<div style=""font-size:60px;"">+</div>","null","fixation","","","","","","","","","","","69","","",""
"revaluation","188","879188","0.0-4.0-2.0-0.35","spark_pilot_2","7785","2","20","Female","","false","","","","","[616.5,273.7999999523163]","./assets/img/ocean/memory/11.jpg","[""ArrowDown"",""ArrowRight""]","value training","ocean","30","{""ArrowUp,ArrowLeft"":23,""ArrowUp,ArrowRight"":10,""ArrowDown,ArrowLeft"":8,""ArrowDown,ArrowRight"":30}","true","ArrowDown,ArrowRight","false","","","revaluation","1","70","","",""
"html-keyboard-response","189","879699","0.0-4.0-2.0-1.35","spark_pilot_2","7785","2","20","Female","","","","","","","null","<div style=""font-size:60px;"">+</div>","null","fixation","","","","","","","","","","","71","","",""
"revaluation","190","883721","0.0-4.0-2.0-0.36","spark_pilot_2","7785","2","20","Female","","false","","","","","[728.2999999523163]","./assets/img/ocean/catch/1.jpg","[""spaceBar""]","value training","ocean","0","{""ArrowUp,ArrowLeft"":23,""ArrowUp,ArrowRight"":10,""ArrowDown,ArrowLeft"":8,""ArrowDown,ArrowRight"":30}","true","spaceBar","true","","","revaluation","1","72","","",""
"html-keyboard-response","191","884233","0.0-4.0-2.0-1.36","spark_pilot_2","7785","2","20","Female","","","","","","","null","<div style=""font-size:60px;"">+</div>","null","fixation","","","","","","","","","","","73","","",""
"revaluation","192","890260","0.0-4.0-2.0-0.37","spark_pilot_2","7785","2","20","Female","","false","","","","","[839.7999999523163,311.89999997615814]","./assets/img/ocean/memory/20.jpg","[""ArrowDown"",""ArrowRight""]","value training","ocean","30","{""ArrowUp,ArrowLeft"":23,""ArrowUp,ArrowRight"":10,""ArrowDown,ArrowLeft"":8,""ArrowDown,ArrowRight"":30}","true","ArrowDown,ArrowRight","false","","","revaluation","1","74","","",""
"html-keyboard-response","193","890771","0.0-4.0-2.0-1.37","spark_pilot_2","7785","2","20","Female","","","","","","","null","<div style=""font-size:60px;"">+</div>","null","fixation","","","","","","","","","","","75","","",""
"revaluation","194","896804","0.0-4.0-2.0-0.38","spark_pilot_2","7785","2","20","Female","","false","","","","","[512.7000000476837,111.29999995231628]","./assets/img/ocean/memory/41.jpg","[""ArrowDown"",""ArrowRight""]","value training","ocean","30","{""ArrowUp,ArrowLeft"":23,""ArrowUp,ArrowRight"":10,""ArrowDown,ArrowLeft"":8,""ArrowDown,ArrowRight"":30}","true","ArrowDown,ArrowRight","false","","","revaluation","1","76","","",""
"html-keyboard-response","195","897315","0.0-4.0-2.0-1.38","spark_pilot_2","7785","2","20","Female","","","","","","","null","<div style=""font-size:60px;"">+</div>","null","fixation","","","","","","","","","","","77","","",""
"revaluation","196","901337","0.0-4.0-2.0-0.39","spark_pilot_2","7785","2","20","Female","","false","","","","","[538]","./assets/img/ocean/catch/3.jpg","[""spaceBar""]","value training","ocean","0","{""ArrowUp,ArrowLeft"":23,""ArrowUp,ArrowRight"":10,""ArrowDown,ArrowLeft"":8,""ArrowDown,ArrowRight"":30}","true","spaceBar","true","","","revaluation","1","78","","",""
"html-keyboard-response","197","901849","0.0-4.0-2.0-1.39","spark_pilot_2","7785","2","20","Female","","","","","","","null","<div style=""font-size:60px;"">+</div>","null","fixation","","","","","","","","","","","79","","",""
"revaluation","198","907876","0.0-4.0-2.0-0.40","spark_pilot_2","7785","2","20","Female","","false","","","","","[689.8999999761581,269.7999999523163]","./assets/img/ocean/memory/9.jpg","[""ArrowDown"",""ArrowRight""]","value training","ocean","30","{""ArrowUp,ArrowLeft"":23,""ArrowUp,ArrowRight"":10,""ArrowDown,ArrowLeft"":8,""ArrowDown,ArrowRight"":30}","true","ArrowDown,ArrowRight","false","","","revaluation","1","80","","",""
"html-keyboard-response","199","908387","0.0-4.0-2.0-1.40","spark_pilot_2","7785","2","20","Female","","","","","","","null","<div style=""font-size:60px;"">+</div>","null","fixation","","","","","","","","","","","81","","",""
"revaluation","200","912409","0.0-4.0-2.0-0.41","spark_pilot_2","7785","2","20","Female","","false","","","","","[644.8999999761581]","./assets/img/ocean/catch/4.jpg","[""spaceBar""]","value training","ocean","0","{""ArrowUp,ArrowLeft"":23,""ArrowUp,ArrowRight"":10,""ArrowDown,ArrowLeft"":8,""ArrowDown,ArrowRight"":30}","true","spaceBar","true","","","revaluation","1","82","","",""
"html-keyboard-response","201","912921","0.0-4.0-2.0-1.41","spark_pilot_2","7785","2","20","Female","","","","","","","null","<div style=""font-size:60px;"">+</div>","null","fixation","","","","","","","","","","","83","","",""
"revaluation","202","916937","0.0-4.0-2.0-0.42","spark_pilot_2","7785","2","20","Female","","false","","","","","[481.3000000715256]","./assets/img/ocean/catch/7.jpg","[""spaceBar""]","value training","ocean","0","{""ArrowUp,ArrowLeft"":23,""ArrowUp,ArrowRight"":10,""ArrowDown,ArrowLeft"":8,""ArrowDown,ArrowRight"":30}","true","spaceBar","true","","","revaluation","1","84","","",""
"html-keyboard-response","203","917443","0.0-4.0-2.0-1.42","spark_pilot_2","7785","2","20","Female","","","","","","","null","<div style=""font-size:60px;"">+</div>","null","fixation","","","","","","","","","","","85","","",""
"revaluation","204","923476","0.0-4.0-2.0-0.43","spark_pilot_2","7785","2","20","Female","","false","","","","","[777,343.10000002384186]","./assets/img/ocean/memory/20.jpg","[""ArrowDown"",""ArrowRight""]","value training","ocean","30","{""ArrowUp,ArrowLeft"":23,""ArrowUp,ArrowRight"":10,""ArrowDown,ArrowLeft"":8,""ArrowDown,ArrowRight"":30}","true","ArrowDown,ArrowRight","false","","","revaluation","1","86","","",""
"html-keyboard-response","205","923987","0.0-4.0-2.0-1.43","spark_pilot_2","7785","2","20","Female","","","","","","","null","<div style=""font-size:60px;"">+</div>","null","fixation","","","","","","","","","","","87","","",""
"revaluation","206","930020","0.0-4.0-2.0-0.44","spark_pilot_2","7785","2","20","Female","","false","","","","","[580.5,282.60000002384186]","./assets/img/ocean/memory/26.jpg","[""ArrowDown"",""ArrowRight""]","value training","ocean","30","{""ArrowUp,ArrowLeft"":23,""ArrowUp,ArrowRight"":10,""ArrowDown,ArrowLeft"":8,""ArrowDown,ArrowRight"":30}","true","ArrowDown,ArrowRight","false","","","revaluation","1","88","","",""
"html-keyboard-response","207","930532","0.0-4.0-2.0-1.44","spark_pilot_2","7785","2","20","Female","","","","","","","null","<div style=""font-size:60px;"">+</div>","null","fixation","","","","","","","","","","","89","","",""
"revaluation","208","936564","0.0-4.0-2.0-0.45","spark_pilot_2","7785","2","20","Female","","false","","","","","[647.2000000476837,282.60000002384186]","./assets/img/ocean/memory/30.jpg","[""ArrowDown"",""ArrowRight""]","value training","ocean","30","{""ArrowUp,ArrowLeft"":23,""ArrowUp,ArrowRight"":10,""ArrowDown,ArrowLeft"":8,""ArrowDown,ArrowRight"":30}","true","ArrowDown,ArrowRight","false","","","revaluation","1","90","","",""
"html-keyboard-response","209","937076","0.0-4.0-2.0-1.45","spark_pilot_2","7785","2","20","Female","","","","","","","null","<div style=""font-size:60px;"">+</div>","null","fixation","","","","","","","","","","","91","","",""
"revaluation","210","943108","0.0-4.0-2.0-0.46","spark_pilot_2","7785","2","20","Female","","false","","","","","[574.8000000715256,297.6999999284744]","./assets/img/ocean/memory/34.jpg","[""ArrowDown"",""ArrowRight""]","value training","ocean","30","{""ArrowUp,ArrowLeft"":23,""ArrowUp,ArrowRight"":10,""ArrowDown,ArrowLeft"":8,""ArrowDown,ArrowRight"":30}","true","ArrowDown,ArrowRight","false","","","revaluation","1","92","","",""
"html-keyboard-response","211","943620","0.0-4.0-2.0-1.46","spark_pilot_2","7785","2","20","Female","","","","","","","null","<div style=""font-size:60px;"">+</div>","null","fixation","","","","","","","","","","","93","","",""
"revaluation","212","949652","0.0-4.0-2.0-0.47","spark_pilot_2","7785","2","20","Female","","false","","","","","[534.3000000715256,293]","./assets/img/ocean/memory/12.jpg","[""ArrowDown"",""ArrowRight""]","value training","ocean","30","{""ArrowUp,ArrowLeft"":23,""ArrowUp,ArrowRight"":10,""ArrowDown,ArrowLeft"":8,""ArrowDown,ArrowRight"":30}","true","ArrowDown,ArrowRight","false","","","revaluation","1","94","","",""
"html-keyboard-response","213","950164","0.0-4.0-2.0-1.47","spark_pilot_2","7785","2","20","Female","","","","","","","null","<div style=""font-size:60px;"">+</div>","null","fixation","","","","","","","","","","","95","","",""
"revaluation","214","956196","0.0-4.0-2.0-0.48","spark_pilot_2","7785","2","20","Female","","false","","","","","[652.3000000715256,261.60000002384186]","./assets/img/ocean/memory/30.jpg","[""ArrowDown"",""ArrowRight""]","value training","ocean","30","{""ArrowUp,ArrowLeft"":23,""ArrowUp,ArrowRight"":10,""ArrowDown,ArrowLeft"":8,""ArrowDown,ArrowRight"":30}","true","ArrowDown,ArrowRight","false","","","revaluation","1","96","","",""
"html-keyboard-response","215","956708","0.0-4.0-2.0-1.48","spark_pilot_2","7785","2","20","Female","","","","","","","null","<div style=""font-size:60px;"">+</div>","null","fixation","","","","","","","","","","","97","","",""
"revaluation","216","960730","0.0-4.0-2.0-0.49","spark_pilot_2","7785","2","20","Female","","false","","","","","[492.2000000476837]","./assets/img/ocean/catch/2.jpg","[""spaceBar""]","value training","ocean","0","{""ArrowUp,ArrowLeft"":23,""ArrowUp,ArrowRight"":10,""ArrowDown,ArrowLeft"":8,""ArrowDown,ArrowRight"":30}","true","spaceBar","true","","","revaluation","1","98","","",""
"html-keyboard-response","217","961240","0.0-4.0-2.0-1.49","spark_pilot_2","7785","2","20","Female","","","","","","","null","<div style=""font-size:60px;"">+</div>","null","fixation","","","","","","","","","","","99","","",""
"learning-instructions","218","977551","0.0-4.0-3.0-0.0","spark_pilot_2","7785","2","20","Female","","","","","","","2893.2000000476837","<p> Now, you will travel with a friend who will choose whether you go up or down first. </p>
            <p> On these turns, you will just see the animal that they found. You will still get to choose which chest to search for treasure.</p>","","instructions","","","","","","","","","","","","","",""
"revaluation","219","981573","0.0-4.0-4.0-0.0","spark_pilot_2","7785","2","20","Female","","false","","","","","[789.3999999761581]","./assets/img/ocean/animals/octopus.jpg","[""ArrowRight""]","revaluation","ocean","7","{""ArrowUp,ArrowLeft"":27,""ArrowUp,ArrowRight"":15,""ArrowDown,ArrowLeft"":21,""ArrowDown,ArrowRight"":7}","false","ArrowDown,ArrowRight","","","","revaluation","1","0","","",""
"html-keyboard-response","220","982084","0.0-4.0-4.0-1.0","spark_pilot_2","7785","2","20","Female","","","","","","","null","<div style=""font-size:60px;"">+</div>","null","fixation","","","","","","","","","","","1","","",""
"revaluation","221","986109","0.0-4.0-4.0-0.1","spark_pilot_2","7785","2","20","Female","","false","","","","","[432.10000002384186]","./assets/img/ocean/animals/octopus.jpg","[""ArrowLeft""]","revaluation","ocean","21","{""ArrowUp,ArrowLeft"":27,""ArrowUp,ArrowRight"":15,""ArrowDown,ArrowLeft"":21,""ArrowDown,ArrowRight"":7}","true","ArrowDown,ArrowLeft","","","","revaluation","1","2","","",""
"html-keyboard-response","222","986620","0.0-4.0-4.0-1.1","spark_pilot_2","7785","2","20","Female","","","","","","","null","<div style=""font-size:60px;"">+</div>","null","fixation","","","","","","","","","","","3","","",""
"revaluation","223","990640","0.0-4.0-4.0-0.2","spark_pilot_2","7785","2","20","Female","","false","","","","","[599.7999999523163]","./assets/img/ocean/animals/seahorse.jpg","[""ArrowRight""]","revaluation","ocean","15","{""ArrowUp,ArrowLeft"":27,""ArrowUp,ArrowRight"":15,""ArrowDown,ArrowLeft"":21,""ArrowDown,ArrowRight"":7}","false","ArrowUp,ArrowRight","","","","revaluation","1","4","","",""
"html-keyboard-response","224","991148","0.0-4.0-4.0-1.2","spark_pilot_2","7785","2","20","Female","","","","","","","null","<div style=""font-size:60px;"">+</div>","null","fixation","","","","","","","","","","","5","","",""
"revaluation","225","995168","0.0-4.0-4.0-0.3","spark_pilot_2","7785","2","20","Female","","false","","","","","[690.3999999761581]","./assets/img/ocean/animals/octopus.jpg","[""ArrowRight""]","revaluation","ocean","7","{""ArrowUp,ArrowLeft"":27,""ArrowUp,ArrowRight"":15,""ArrowDown,ArrowLeft"":21,""ArrowDown,ArrowRight"":7}","false","ArrowDown,ArrowRight","","","","revaluation","1","6","","",""
"html-keyboard-response","226","995676","0.0-4.0-4.0-1.3","spark_pilot_2","7785","2","20","Female","","","","","","","null","<div style=""font-size:60px;"">+</div>","null","fixation","","","","","","","","","","","7","","",""
"revaluation","227","999701","0.0-4.0-4.0-0.4","spark_pilot_2","7785","2","20","Female","","false","","","","","[756.2999999523163]","./assets/img/ocean/animals/octopus.jpg","[""ArrowLeft""]","revaluation","ocean","21","{""ArrowUp,ArrowLeft"":27,""ArrowUp,ArrowRight"":15,""ArrowDown,ArrowLeft"":21,""ArrowDown,ArrowRight"":7}","true","ArrowDown,ArrowLeft","","","","revaluation","1","8","","",""
"html-keyboard-response","228","1000212","0.0-4.0-4.0-1.4","spark_pilot_2","7785","2","20","Female","","","","","","","null","<div style=""font-size:60px;"">+</div>","null","fixation","","","","","","","","","","","9","","",""
"revaluation","229","1004237","0.0-4.0-4.0-0.5","spark_pilot_2","7785","2","20","Female","","false","","","","","[512.2000000476837]","./assets/img/ocean/animals/seahorse.jpg","[""ArrowLeft""]","revaluation","ocean","27","{""ArrowUp,ArrowLeft"":27,""ArrowUp,ArrowRight"":15,""ArrowDown,ArrowLeft"":21,""ArrowDown,ArrowRight"":7}","true","ArrowUp,ArrowLeft","","","","revaluation","1","10","","",""
"html-keyboard-response","230","1004748","0.0-4.0-4.0-1.5","spark_pilot_2","7785","2","20","Female","","","","","","","null","<div style=""font-size:60px;"">+</div>","null","fixation","","","","","","","","","","","11","","",""
"revaluation","231","1008770","0.0-4.0-4.0-0.6","spark_pilot_2","7785","2","20","Female","","false","","","","","[605.6999999284744]","./assets/img/ocean/animals/seahorse.jpg","[""ArrowLeft""]","revaluation","ocean","27","{""ArrowUp,ArrowLeft"":27,""ArrowUp,ArrowRight"":15,""ArrowDown,ArrowLeft"":21,""ArrowDown,ArrowRight"":7}","true","ArrowUp,ArrowLeft","","","","revaluation","1","12","","",""
"html-keyboard-response","232","1009282","0.0-4.0-4.0-1.6","spark_pilot_2","7785","2","20","Female","","","","","","","null","<div style=""font-size:60px;"">+</div>","null","fixation","","","","","","","","","","","13","","",""
"revaluation","233","1013298","0.0-4.0-4.0-0.7","spark_pilot_2","7785","2","20","Female","","false","","","","","[344.89999997615814]","./assets/img/ocean/animals/octopus.jpg","[""ArrowLeft""]","revaluation","ocean","21","{""ArrowUp,ArrowLeft"":27,""ArrowUp,ArrowRight"":15,""ArrowDown,ArrowLeft"":21,""ArrowDown,ArrowRight"":7}","true","ArrowDown,ArrowLeft","","","","revaluation","1","14","","",""
"html-keyboard-response","234","1013810","0.0-4.0-4.0-1.7","spark_pilot_2","7785","2","20","Female","","","","","","","null","<div style=""font-size:60px;"">+</div>","null","fixation","","","","","","","","","","","15","","",""
"revaluation","235","1017826","0.0-4.0-4.0-0.8","spark_pilot_2","7785","2","20","Female","","false","","","","","[471.1999999284744]","./assets/img/ocean/animals/octopus.jpg","[""ArrowLeft""]","revaluation","ocean","21","{""ArrowUp,ArrowLeft"":27,""ArrowUp,ArrowRight"":15,""ArrowDown,ArrowLeft"":21,""ArrowDown,ArrowRight"":7}","true","ArrowDown,ArrowLeft","","","","revaluation","1","16","","",""
"html-keyboard-response","236","1018338","0.0-4.0-4.0-1.8","spark_pilot_2","7785","2","20","Female","","","","","","","null","<div style=""font-size:60px;"">+</div>","null","fixation","","","","","","","","","","","17","","",""
"revaluation","237","1022354","0.0-4.0-4.0-0.9","spark_pilot_2","7785","2","20","Female","","false","","","","","[416.3000000715256]","./assets/img/ocean/animals/seahorse.jpg","[""ArrowLeft""]","revaluation","ocean","27","{""ArrowUp,ArrowLeft"":27,""ArrowUp,ArrowRight"":15,""ArrowDown,ArrowLeft"":21,""ArrowDown,ArrowRight"":7}","true","ArrowUp,ArrowLeft","","","","revaluation","1","18","","",""
"html-keyboard-response","238","1022866","0.0-4.0-4.0-1.9","spark_pilot_2","7785","2","20","Female","","","","","","","null","<div style=""font-size:60px;"">+</div>","null","fixation","","","","","","","","","","","19","","",""
"revaluation","239","1026882","0.0-4.0-4.0-0.10","spark_pilot_2","7785","2","20","Female","","false","","","","","[436.10000002384186]","./assets/img/ocean/animals/octopus.jpg","[""ArrowLeft""]","revaluation","ocean","21","{""ArrowUp,ArrowLeft"":27,""ArrowUp,ArrowRight"":15,""ArrowDown,ArrowLeft"":21,""ArrowDown,ArrowRight"":7}","true","ArrowDown,ArrowLeft","","","","revaluation","1","20","","",""
"html-keyboard-response","240","1027394","0.0-4.0-4.0-1.10","spark_pilot_2","7785","2","20","Female","","","","","","","null","<div style=""font-size:60px;"">+</div>","null","fixation","","","","","","","","","","","21","","",""
"revaluation","241","1031410","0.0-4.0-4.0-0.11","spark_pilot_2","7785","2","20","Female","","false","","","","","[333.5]","./assets/img/ocean/animals/seahorse.jpg","[""ArrowLeft""]","revaluation","ocean","27","{""ArrowUp,ArrowLeft"":27,""ArrowUp,ArrowRight"":15,""ArrowDown,ArrowLeft"":21,""ArrowDown,ArrowRight"":7}","true","ArrowUp,ArrowLeft","","","","revaluation","1","22","","",""
"html-keyboard-response","242","1031922","0.0-4.0-4.0-1.11","spark_pilot_2","7785","2","20","Female","","","","","","","null","<div style=""font-size:60px;"">+</div>","null","fixation","","","","","","","","","","","23","","",""
"revaluation","243","1035938","0.0-4.0-4.0-0.12","spark_pilot_2","7785","2","20","Female","","false","","","","","[264.39999997615814]","./assets/img/ocean/animals/seahorse.jpg","[""ArrowLeft""]","revaluation","ocean","27","{""ArrowUp,ArrowLeft"":27,""ArrowUp,ArrowRight"":15,""ArrowDown,ArrowLeft"":21,""ArrowDown,ArrowRight"":7}","true","ArrowUp,ArrowLeft","","","","revaluation","1","24","","",""
"html-keyboard-response","244","1036440","0.0-4.0-4.0-1.12","spark_pilot_2","7785","2","20","Female","","","","","","","null","<div style=""font-size:60px;"">+</div>","null","fixation","","","","","","","","","","","25","","",""
"revaluation","245","1040461","0.0-4.0-4.0-0.13","spark_pilot_2","7785","2","20","Female","","false","","","","","[264.3000000715256]","./assets/img/ocean/animals/octopus.jpg","[""ArrowLeft""]","revaluation","ocean","21","{""ArrowUp,ArrowLeft"":27,""ArrowUp,ArrowRight"":15,""ArrowDown,ArrowLeft"":21,""ArrowDown,ArrowRight"":7}","true","ArrowDown,ArrowLeft","","","","revaluation","1","26","","",""
"html-keyboard-response","246","1040968","0.0-4.0-4.0-1.13","spark_pilot_2","7785","2","20","Female","","","","","","","null","<div style=""font-size:60px;"">+</div>","null","fixation","","","","","","","","","","","27","","",""
"revaluation","247","1044989","0.0-4.0-4.0-0.14","spark_pilot_2","7785","2","20","Female","","false","","","","","[262.7000000476837]","./assets/img/ocean/animals/seahorse.jpg","[""ArrowLeft""]","revaluation","ocean","27","{""ArrowUp,ArrowLeft"":27,""ArrowUp,ArrowRight"":15,""ArrowDown,ArrowLeft"":21,""ArrowDown,ArrowRight"":7}","true","ArrowUp,ArrowLeft","","","","revaluation","1","28","","",""
"html-keyboard-response","248","1045500","0.0-4.0-4.0-1.14","spark_pilot_2","7785","2","20","Female","","","","","","","null","<div style=""font-size:60px;"">+</div>","null","fixation","","","","","","","","","","","29","","",""
"revaluation","249","1049522","0.0-4.0-4.0-0.15","spark_pilot_2","7785","2","20","Female","","false","","","","","[348.39999997615814]","./assets/img/ocean/animals/octopus.jpg","[""ArrowLeft""]","revaluation","ocean","21","{""ArrowUp,ArrowLeft"":27,""ArrowUp,ArrowRight"":15,""ArrowDown,ArrowLeft"":21,""ArrowDown,ArrowRight"":7}","true","ArrowDown,ArrowLeft","","","","revaluation","1","30","","",""
"html-keyboard-response","250","1050034","0.0-4.0-4.0-1.15","spark_pilot_2","7785","2","20","Female","","","","","","","null","<div style=""font-size:60px;"">+</div>","null","fixation","","","","","","","","","","","31","","",""
"revaluation","251","1054050","0.0-4.0-4.0-0.16","spark_pilot_2","7785","2","20","Female","","false","","","","","[432.8000000715256]","./assets/img/ocean/animals/seahorse.jpg","[""ArrowLeft""]","revaluation","ocean","27","{""ArrowUp,ArrowLeft"":27,""ArrowUp,ArrowRight"":15,""ArrowDown,ArrowLeft"":21,""ArrowDown,ArrowRight"":7}","true","ArrowUp,ArrowLeft","","","","revaluation","1","32","","",""
"html-keyboard-response","252","1054562","0.0-4.0-4.0-1.16","spark_pilot_2","7785","2","20","Female","","","","","","","null","<div style=""font-size:60px;"">+</div>","null","fixation","","","","","","","","","","","33","","",""
"revaluation","253","1058578","0.0-4.0-4.0-0.17","spark_pilot_2","7785","2","20","Female","","false","","","","","[431.7999999523163]","./assets/img/ocean/animals/seahorse.jpg","[""ArrowLeft""]","revaluation","ocean","27","{""ArrowUp,ArrowLeft"":27,""ArrowUp,ArrowRight"":15,""ArrowDown,ArrowLeft"":21,""ArrowDown,ArrowRight"":7}","true","ArrowUp,ArrowLeft","","","","revaluation","1","34","","",""
"html-keyboard-response","254","1059090","0.0-4.0-4.0-1.17","spark_pilot_2","7785","2","20","Female","","","","","","","null","<div style=""font-size:60px;"">+</div>","null","fixation","","","","","","","","","","","35","","",""
"learning-instructions","255","1072235","0.0-4.0-5.0-0.0","spark_pilot_2","7785","2","20","Female","","","","","","","1229.6000000238419","<p> Time to play the dot game! </p>
            <p> For one minute, click the red dots on the following screen as they appear. </p>
            <p><b> Don't look away, as you will earn bonus for clicking dots</b>. </p>","","instructions","","","","","","","","","","","","","",""
"revaluation","256","1132239","0.0-4.0-6.0-0.0","spark_pilot_2","7785","2","20","Female","","","","","","","[56,59,52,68,55,67,61]","","","rest","","70","","","","","0","60000","","","","","",""
"learning-instructions","257","1139519","0.0-4.0-7.0-0.0","spark_pilot_2","7785","2","20","Female","","","","","","","679.7000000476837","<p> You have almost finished this part of the game! </p>
            <p> We are going to ask you to make a few more choices. </p>","","instructions","","","","","","","","","","","","","",""
"learning-instructions","258","1154068","0.0-4.0-7.0-0.1","spark_pilot_2","7785","2","20","Female","","","","","","","579.1000000238419","<p> First, you need to decide whether to go up or down. When you see each picture, use the arrow keys to make your choice. </p>
            <p><b>You will not see which animal you found, but try to get to the one that will give you the most treasure.</b></p>","","instructions","","","","","","","","","","","","","",""
"revaluation","259","1154783","0.0-4.0-8.0-0.0","spark_pilot_2","7785","2","20","Female","","false","","","","","[713]","./assets/img/ocean/test/3.jpg","[""ArrowDown""]","first stage test","ocean","0","{""ArrowUp,ArrowLeft"":27,""ArrowUp,ArrowRight"":15,""ArrowDown,ArrowLeft"":21,""ArrowDown,ArrowRight"":7}","false","ArrowDown","false","","","revaluation","1","","","",""
"html-keyboard-response","260","1155293","0.0-4.0-8.0-1.0","spark_pilot_2","7785","2","20","Female","","","","","","","null","<div style=""font-size:60px;"">+</div>","null","fixation","","","","","","","","","","","","","",""
"revaluation","261","1155787","0.0-4.0-8.0-0.1","spark_pilot_2","7785","2","20","Female","","false","","","","","[490.09999990463257]","./assets/img/ocean/test/2.jpg","[""ArrowDown""]","first stage test","ocean","0","{""ArrowUp,ArrowLeft"":27,""ArrowUp,ArrowRight"":15,""ArrowDown,ArrowLeft"":21,""ArrowDown,ArrowRight"":7}","false","ArrowDown","false","","","revaluation","1","","","",""
"html-keyboard-response","262","1156289","0.0-4.0-8.0-1.1","spark_pilot_2","7785","2","20","Female","","","","","","","null","<div style=""font-size:60px;"">+</div>","null","fixation","","","","","","","","","","","","","",""
"revaluation","263","1156645","0.0-4.0-8.0-0.2","spark_pilot_2","7785","2","20","Female","","false","","","","","[352.8000000715256]","./assets/img/ocean/test/0.jpg","[""ArrowDown""]","first stage test","ocean","0","{""ArrowUp,ArrowLeft"":27,""ArrowUp,ArrowRight"":15,""ArrowDown,ArrowLeft"":21,""ArrowDown,ArrowRight"":7}","false","ArrowDown","false","","","revaluation","1","","","",""
"html-keyboard-response","264","1157153","0.0-4.0-8.0-1.2","spark_pilot_2","7785","2","20","Female","","","","","","","null","<div style=""font-size:60px;"">+</div>","null","fixation","","","","","","","","","","","","","",""
"revaluation","265","1157548","0.0-4.0-8.0-0.3","spark_pilot_2","7785","2","20","Female","","false","","","","","[391.2000000476837]","./assets/img/ocean/test/1.jpg","[""ArrowDown""]","first stage test","ocean","0","{""ArrowUp,ArrowLeft"":27,""ArrowUp,ArrowRight"":15,""ArrowDown,ArrowLeft"":21,""ArrowDown,ArrowRight"":7}","false","ArrowDown","false","","","revaluation","1","","","",""
"html-keyboard-response","266","1158052","0.0-4.0-8.0-1.3","spark_pilot_2","7785","2","20","Female","","","","","","","null","<div style=""font-size:60px;"">+</div>","null","fixation","","","","","","","","","","","","","",""
"learning-instructions","267","1170253","0.0-4.0-9.0-0.0","spark_pilot_2","7785","2","20","Female","","","","","","","859.6000000238419","<p> Now you will see the animals again and can search their chests for treasure. </p>
            <p> This time, you will not see how much treasure you earned, but you will earn more bonus money for making better choices. </p>","","instructions","","","","","","","","","","","","","",""
"revaluation","268","1170965","0.0-4.0-10.0-0.0","spark_pilot_2","7785","2","20","Female","","false","","","","","[708]","./assets/img/ocean/animals/seahorse.jpg","[""ArrowLeft""]","second stage test","ocean","0","{""ArrowUp,ArrowLeft"":27,""ArrowUp,ArrowRight"":15,""ArrowDown,ArrowLeft"":21,""ArrowDown,ArrowRight"":7}","true","ArrowUp,ArrowLeft","","","","revaluation","1","","","",""
"html-keyboard-response","269","1171477","0.0-4.0-10.0-1.0","spark_pilot_2","7785","2","20","Female","","","","","","","null","<div style=""font-size:60px;"">+</div>","null","fixation","","","","","","","","","","","","","",""
"revaluation","270","1172153","0.0-4.0-10.0-0.1","spark_pilot_2","7785","2","20","Female","","false","","","","","[671.8000000715256]","./assets/img/ocean/animals/seahorse.jpg","[""ArrowLeft""]","second stage test","ocean","0","{""ArrowUp,ArrowLeft"":27,""ArrowUp,ArrowRight"":15,""ArrowDown,ArrowLeft"":21,""ArrowDown,ArrowRight"":7}","true","ArrowUp,ArrowLeft","","","","revaluation","1","","","",""
"html-keyboard-response","271","1172661","0.0-4.0-10.0-1.1","spark_pilot_2","7785","2","20","Female","","","","","","","null","<div style=""font-size:60px;"">+</div>","null","fixation","","","","","","","","","","","","","",""
"revaluation","272","1173161","0.0-4.0-10.0-0.2","spark_pilot_2","7785","2","20","Female","","false","","","","","[496.2999999523163]","./assets/img/ocean/animals/seahorse.jpg","[""ArrowLeft""]","second stage test","ocean","0","{""ArrowUp,ArrowLeft"":27,""ArrowUp,ArrowRight"":15,""ArrowDown,ArrowLeft"":21,""ArrowDown,ArrowRight"":7}","true","ArrowUp,ArrowLeft","","","","revaluation","1","","","",""
"html-keyboard-response","273","1173669","0.0-4.0-10.0-1.2","spark_pilot_2","7785","2","20","Female","","","","","","","null","<div style=""font-size:60px;"">+</div>","null","fixation","","","","","","","","","","","","","",""
"revaluation","274","1174166","0.0-4.0-10.0-0.3","spark_pilot_2","7785","2","20","Female","","false","","","","","[492.7000000476837]","./assets/img/ocean/animals/seahorse.jpg","[""ArrowLeft""]","second stage test","ocean","0","{""ArrowUp,ArrowLeft"":27,""ArrowUp,ArrowRight"":15,""ArrowDown,ArrowLeft"":21,""ArrowDown,ArrowRight"":7}","true","ArrowUp,ArrowLeft","","","","revaluation","1","","","",""
"html-keyboard-response","275","1174677","0.0-4.0-10.0-1.3","spark_pilot_2","7785","2","20","Female","","","","","","","null","<div style=""font-size:60px;"">+</div>","null","fixation","","","","","","","","","","","","","",""
"revaluation","276","1175223","0.0-4.0-10.0-0.4","spark_pilot_2","7785","2","20","Female","","false","","","","","[541.5]","./assets/img/ocean/animals/octopus.jpg","[""ArrowRight""]","second stage test","ocean","0","{""ArrowUp,ArrowLeft"":27,""ArrowUp,ArrowRight"":15,""ArrowDown,ArrowLeft"":21,""ArrowDown,ArrowRight"":7}","false","ArrowDown,ArrowRight","","","","revaluation","1","","","",""
"html-keyboard-response","277","1175729","0.0-4.0-10.0-1.4","spark_pilot_2","7785","2","20","Female","","","","","","","null","<div style=""font-size:60px;"">+</div>","null","fixation","","","","","","","","","","","","","",""
"revaluation","278","1176092","0.0-4.0-10.0-0.5","spark_pilot_2","7785","2","20","Female","","false","","","","","[359.10000002384186]","./assets/img/ocean/animals/octopus.jpg","[""ArrowRight""]","second stage test","ocean","0","{""ArrowUp,ArrowLeft"":27,""ArrowUp,ArrowRight"":15,""ArrowDown,ArrowLeft"":21,""ArrowDown,ArrowRight"":7}","false","ArrowDown,ArrowRight","","","","revaluation","1","","","",""
"html-keyboard-response","279","1176602","0.0-4.0-10.0-1.5","spark_pilot_2","7785","2","20","Female","","","","","","","null","<div style=""font-size:60px;"">+</div>","null","fixation","","","","","","","","","","","","","",""
"revaluation","280","1176970","0.0-4.0-10.0-0.6","spark_pilot_2","7785","2","20","Female","","false","","","","","[364.60000002384186]","./assets/img/ocean/animals/octopus.jpg","[""ArrowRight""]","second stage test","ocean","0","{""ArrowUp,ArrowLeft"":27,""ArrowUp,ArrowRight"":15,""ArrowDown,ArrowLeft"":21,""ArrowDown,ArrowRight"":7}","false","ArrowDown,ArrowRight","","","","revaluation","1","","","",""
"html-keyboard-response","281","1177476","0.0-4.0-10.0-1.6","spark_pilot_2","7785","2","20","Female","","","","","","","null","<div style=""font-size:60px;"">+</div>","null","fixation","","","","","","","","","","","","","",""
"revaluation","282","1177854","0.0-4.0-10.0-0.7","spark_pilot_2","7785","2","20","Female","","false","","","","","[373.89999997615814]","./assets/img/ocean/animals/octopus.jpg","[""ArrowRight""]","second stage test","ocean","0","{""ArrowUp,ArrowLeft"":27,""ArrowUp,ArrowRight"":15,""ArrowDown,ArrowLeft"":21,""ArrowDown,ArrowRight"":7}","false","ArrowDown,ArrowRight","","","","revaluation","1","","","",""
"html-keyboard-response","283","1178365","0.0-4.0-10.0-1.7","spark_pilot_2","7785","2","20","Female","","","","","","","null","<div style=""font-size:60px;"">+</div>","null","fixation","","","","","","","","","","","","","",""
"learning-instructions","284","1182220","0.0-4.0-0.1-0.2","spark_pilot_2","7785","2","20","Female","","","","","","","1081.6000000238419","<p> This time you are searching for treasure in the <b>canyon</b>.</p>","","instructions","","","","","","","","","","","","","",""
"learning-instructions","285","1201587","0.0-4.0-0.1-0.3","spark_pilot_2","7785","2","20","Female","","","","","","","2112.6999999284744","<p><b>New</b> animals with <b>new</b> treasure chests live here. You need to explore to discover where the animal with the best treasure chest is.</p>
                    <p> Like before, once you figure out which animal has the chest with the most treasure, you should try to get to that animal and select that chest! </p>","","instructions","","","","","","","","","","","","","",""
"learning-instructions","286","1216903","0.0-4.0-1.1-0.1","spark_pilot_2","7785","2","20","Female","","","","","","","586.7000000476837","<p> Remember, when you see a picture of the place, use the up and down keys to <b>find an animal</b>.</p>
            <p> When you encounter an animal, you should use the left and right keys to <b>select a treasure chest</b>.</p>
            <p> Don't forget to look out for the robber! </p>","","instructions","","","","","","","","","","","","","",""
"revaluation","287","1222934","0.0-4.0-2.1-0.50","spark_pilot_2","7785","2","20","Female","","false","","","","","[652.8999999761581,366.89999997615814]","./assets/img/canyon/memory/23.jpg","[""ArrowUp"",""ArrowLeft""]","value training","canyon","26","{""ArrowUp,ArrowLeft"":26,""ArrowUp,ArrowRight"":10,""ArrowDown,ArrowLeft"":5,""ArrowDown,ArrowRight"":17}","true","ArrowUp,ArrowLeft","false","","","original","2","0","","",""
"html-keyboard-response","288","1223445","0.0-4.0-2.1-1.50","spark_pilot_2","7785","2","20","Female","","","","","","","null","<div style=""font-size:60px;"">+</div>","null","fixation","","","","","","","","","","","1","","",""
"revaluation","289","1229476","0.0-4.0-2.1-0.51","spark_pilot_2","7785","2","20","Female","","false","","","","","[629.0999999046326,292.1999999284744]","./assets/img/canyon/memory/15.jpg","[""ArrowUp"",""ArrowLeft""]","value training","canyon","26","{""ArrowUp,ArrowLeft"":26,""ArrowUp,ArrowRight"":10,""ArrowDown,ArrowLeft"":5,""ArrowDown,ArrowRight"":17}","true","ArrowUp,ArrowLeft","false","","","original","2","2","","",""
"html-keyboard-response","290","1229989","0.0-4.0-2.1-1.51","spark_pilot_2","7785","2","20","Female","","","","","","","null","<div style=""font-size:60px;"">+</div>","null","fixation","","","","","","","","","","","3","","",""
"revaluation","291","1236018","0.0-4.0-2.1-0.52","spark_pilot_2","7785","2","20","Female","","false","","","","","[563.1999999284744,452.90000009536743]","./assets/img/canyon/memory/30.jpg","[""ArrowDown"",""ArrowRight""]","value training","canyon","17","{""ArrowUp,ArrowLeft"":26,""ArrowUp,ArrowRight"":10,""ArrowDown,ArrowLeft"":5,""ArrowDown,ArrowRight"":17}","false","ArrowDown,ArrowRight","false","","","original","2","4","","",""
"html-keyboard-response","292","1236529","0.0-4.0-2.1-1.52","spark_pilot_2","7785","2","20","Female","","","","","","","null","<div style=""font-size:60px;"">+</div>","null","fixation","","","","","","","","","","","5","","",""
"revaluation","293","1242557","0.0-4.0-2.1-0.53","spark_pilot_2","7785","2","20","Female","","false","","","","","[581.6000000238419,256.1999999284744]","./assets/img/canyon/memory/29.jpg","[""ArrowUp"",""ArrowLeft""]","value training","canyon","26","{""ArrowUp,ArrowLeft"":26,""ArrowUp,ArrowRight"":10,""ArrowDown,ArrowLeft"":5,""ArrowDown,ArrowRight"":17}","true","ArrowUp,ArrowLeft","false","","","original","2","6","","",""
"html-keyboard-response","294","1243069","0.0-4.0-2.1-1.53","spark_pilot_2","7785","2","20","Female","","","","","","","null","<div style=""font-size:60px;"">+</div>","null","fixation","","","","","","","","","","","7","","",""
"revaluation","295","1247091","0.0-4.0-2.1-0.54","spark_pilot_2","7785","2","20","Female","","false","","","","","[647.1999999284744]","./assets/img/canyon/catch/5.jpg","[""spaceBar""]","value training","canyon","0","{""ArrowUp,ArrowLeft"":26,""ArrowUp,ArrowRight"":10,""ArrowDown,ArrowLeft"":5,""ArrowDown,ArrowRight"":17}","true","spaceBar","true","","","original","2","8","","",""
"html-keyboard-response","296","1247602","0.0-4.0-2.1-1.54","spark_pilot_2","7785","2","20","Female","","","","","","","null","<div style=""font-size:60px;"">+</div>","null","fixation","","","","","","","","","","","9","","",""
"revaluation","297","1253630","0.0-4.0-2.1-0.55","spark_pilot_2","7785","2","20","Female","","false","","","","","[547.4000000953674,240.29999995231628]","./assets/img/canyon/memory/31.jpg","[""ArrowUp"",""ArrowLeft""]","value training","canyon","26","{""ArrowUp,ArrowLeft"":26,""ArrowUp,ArrowRight"":10,""ArrowDown,ArrowLeft"":5,""ArrowDown,ArrowRight"":17}","true","ArrowUp,ArrowLeft","false","","","original","2","10","","",""
"html-keyboard-response","298","1254141","0.0-4.0-2.1-1.55","spark_pilot_2","7785","2","20","Female","","","","","","","null","<div style=""font-size:60px;"">+</div>","null","fixation","","","","","","","","","","","11","","",""
"revaluation","299","1260174","0.0-4.0-2.1-0.56","spark_pilot_2","7785","2","20","Female","","false","","","","","[557.1000000238419,228.10000002384186]","./assets/img/canyon/memory/34.jpg","[""ArrowUp"",""ArrowLeft""]","value training","canyon","26","{""ArrowUp,ArrowLeft"":26,""ArrowUp,ArrowRight"":10,""ArrowDown,ArrowLeft"":5,""ArrowDown,ArrowRight"":17}","true","ArrowUp,ArrowLeft","false","","","original","2","12","","",""
"html-keyboard-response","300","1260685","0.0-4.0-2.1-1.56","spark_pilot_2","7785","2","20","Female","","","","","","","null","<div style=""font-size:60px;"">+</div>","null","fixation","","","","","","","","","","","13","","",""
"revaluation","301","1266718","0.0-4.0-2.1-0.57","spark_pilot_2","7785","2","20","Female","","false","","","","","[709,282.7999999523163]","./assets/img/canyon/memory/26.jpg","[""ArrowUp"",""ArrowLeft""]","value training","canyon","26","{""ArrowUp,ArrowLeft"":26,""ArrowUp,ArrowRight"":10,""ArrowDown,ArrowLeft"":5,""ArrowDown,ArrowRight"":17}","true","ArrowUp,ArrowLeft","false","","","original","2","14","","",""
"html-keyboard-response","302","1267229","0.0-4.0-2.1-1.57","spark_pilot_2","7785","2","20","Female","","","","","","","null","<div style=""font-size:60px;"">+</div>","null","fixation","","","","","","","","","","","15","","",""
"revaluation","303","1273262","0.0-4.0-2.1-0.58","spark_pilot_2","7785","2","20","Female","","false","","","","","[512.1000000238419,244.39999997615814]","./assets/img/canyon/memory/4.jpg","[""ArrowUp"",""ArrowLeft""]","value training","canyon","26","{""ArrowUp,ArrowLeft"":26,""ArrowUp,ArrowRight"":10,""ArrowDown,ArrowLeft"":5,""ArrowDown,ArrowRight"":17}","true","ArrowUp,ArrowLeft","false","","","original","2","16","","",""
"html-keyboard-response","304","1273773","0.0-4.0-2.1-1.58","spark_pilot_2","7785","2","20","Female","","","","","","","null","<div style=""font-size:60px;"">+</div>","null","fixation","","","","","","","","","","","17","","",""
"revaluation","305","1279806","0.0-4.0-2.1-0.59","spark_pilot_2","7785","2","20","Female","","false","","","","","[531,245.5]","./assets/img/canyon/memory/6.jpg","[""ArrowUp"",""ArrowLeft""]","value training","canyon","26","{""ArrowUp,ArrowLeft"":26,""ArrowUp,ArrowRight"":10,""ArrowDown,ArrowLeft"":5,""ArrowDown,ArrowRight"":17}","true","ArrowUp,ArrowLeft","false","","","original","2","18","","",""
