"trial_type","trial_index","time_elapsed","internal_node_id","task_version","subject_id","assigned_condition","age","gender","success","timeout","failed_images","failed_audio","failed_video","browser_interaction","rt","stimulus","response","task_part","environment","score","rewardMap","correct","fullState","isCatch","numberMissed","duration","condition","order","trial_num","key_press","ground_truth","bonus"
"pavlovia","0","3096","0.0-0.0","spark_pilot_2","7420","5","17","Female","","","","","","","","","","","","","","","","","","","","","","","",""
"preload","1","13559","0.0-1.0","spark_pilot_2","7420","5","17","Female","true","false","[]","[]","[]","[{""event"":""fullscreenenter"",""trial"":2,""time"":34580},{""event"":""fullscreenexit"",""trial"":11,""time"":145676},{""event"":""blur"",""trial"":38,""time"":282072},{""event"":""focus"",""trial"":38,""time"":282874},{""event"":""blur"",""trial"":38,""time"":283248},{""event"":""focus"",""trial"":38,""time"":284595},{""event"":""blur"",""trial"":55,""time"":357044},{""event"":""focus"",""trial"":57,""time"":357994},{""event"":""blur"",""trial"":57,""time"":362111},{""event"":""focus"",""trial"":57,""time"":363450},{""event"":""blur"",""trial"":57,""time"":366167},{""event"":""focus"",""trial"":57,""time"":368027},{""event"":""blur"",""trial"":57,""time"":368030},{""event"":""focus"",""trial"":57,""time"":374164},{""event"":""blur"",""trial"":57,""time"":375936},{""event"":""focus"",""trial"":57,""time"":378523},{""event"":""blur"",""trial"":57,""time"":378542},{""event"":""focus"",""trial"":57,""time"":378561},{""event"":""blur"",""trial"":57,""time"":382254},{""event"":""focus"",""trial"":57,""time"":386616},{""event"":""blur"",""trial"":61,""time"":419980},{""event"":""focus"",""trial"":61,""time"":422321},{""event"":""blur"",""trial"":93,""time"":563288},{""event"":""focus"",""trial"":93,""time"":563952},{""event"":""blur"",""trial"":103,""time"":612156},{""event"":""focus"",""trial"":103,""time"":613330},{""event"":""blur"",""trial"":106,""time"":636781},{""event"":""focus"",""trial"":106,""time"":637614},{""event"":""blur"",""trial"":107,""time"":656988},{""event"":""focus"",""trial"":107,""time"":657519},{""event"":""blur"",""trial"":113,""time"":728559},{""event"":""focus"",""trial"":113,""time"":729800}]","","","","","","","","","","","","","","","","","",""
"fullscreen","2","35557","0.0-2.0","spark_pilot_2","7420","5","17","Female","true","","","","","","","","","","","","","","","","","","","","","","",""
"audio-button-response","3","37452","0.0-3.0-0.0-0.0","spark_pilot_2","7420","5","17","Female","","","","","","","1901","./assets/audio/audiotest/turtle.mp3","2","audio_test","","","","","","","","","","","","","",""
"learning-instructions","4","48949","0.0-3.0-1.0-0.0","spark_pilot_2","7420","5","17","Female","","","","","","","4516.699999928474","<p> Welcome! Please remember to stay in fullscreen mode and don't click away from the experiment. </p>","","instructions","","","","","","","","","","","","","",""
"learning-instructions","5","60272","0.0-3.0-1.0-0.1","spark_pilot_2","7420","5","17","Female","","","","","","","2899.899999976158","<p> Today you will be playing a game to earn treasure. </p>
            <p> At the end of the experiment, you will earn a bonus based on how much treasure you find. </p>
            <img src='./assets/img/instructions/treasure.jpg' class='instructions-image'>","","instructions","","","","","","","","","","","","","",""
"learning-instructions","6","83780","0.0-3.0-1.0-0.2","spark_pilot_2","7420","5","17","Female","","","","","","","15208","<p> Animals have hidden treasure in treasure chests. </p>
            <p> You need to first find an animal and then choose which of their treasure chests to search. </p>
            <img src='./assets/img/space/animals/cat.jpg' class='instructions-image'>","","instructions","","","","","","","","","","","","","",""
"learning-instructions","7","100720","0.0-3.0-1.0-0.3","spark_pilot_2","7420","5","17","Female","","","","","","","3767.2000000476837","<p> In each round, you will search for treasure in a different place. In the real game, there will be two rounds. </p>
            <p> You will begin with a separate, practice round where you will search for treasure in outer space. </p>
            <img src='./assets/img/space/0.jpg' class='instructions-image'>","","instructions","","","","","","","","","","","","","",""
"learning-instructions","8","117303","0.0-3.0-1.0-0.4","spark_pilot_2","7420","5","17","Female","","","","","","","5141.5","<p> On every turn, you will see a picture of the place that you are in, but the specific image may be different each time. </p>
            <p> For example, both of these images mean you are in outer space. </p>
            <img src='./assets/img/instructions/outerspace.jpg' class='instructions-image'>","","instructions","","","","","","","","","","","","","",""
"learning-instructions","9","127075","0.0-3.0-1.0-0.5","spark_pilot_2","7420","5","17","Female","","","","","","","1913.6000000238419","<p> You need to decide which direction to travel in. </p>
            <p> You can choose between going <b>up or down</b> by using the arrow keys. </p>
            <img src='./assets/img/instructions/updown.jpg' class='instructions-image'>","","instructions","","","","","","","","","","","","","",""
"learning-instructions","10","140471","0.0-3.0-1.0-0.6","spark_pilot_2","7420","5","17","Female","","","","","","[{""event"":""fullscreenenter"",""trial"":2,""time"":34580},{""event"":""fullscreenexit"",""trial"":11,""time"":145676},{""event"":""blur"",""trial"":38,""time"":282072},{""event"":""focus"",""trial"":38,""time"":282874},{""event"":""blur"",""trial"":38,""time"":283248},{""event"":""focus"",""trial"":38,""time"":284595},{""event"":""blur"",""trial"":55,""time"":357044},{""event"":""focus"",""trial"":57,""time"":357994},{""event"":""blur"",""trial"":57,""time"":362111},{""event"":""focus"",""trial"":57,""time"":363450},{""event"":""blur"",""trial"":57,""time"":366167},{""event"":""focus"",""trial"":57,""time"":368027},{""event"":""blur"",""trial"":57,""time"":368030},{""event"":""focus"",""trial"":57,""time"":374164},{""event"":""blur"",""trial"":57,""time"":375936},{""event"":""focus"",""trial"":57,""time"":378523},{""event"":""blur"",""trial"":57,""time"":378542},{""event"":""focus"",""trial"":57,""time"":378561},{""event"":""blur"",""trial"":57,""time"":382254},{""event"":""focus"",""trial"":57,""time"":386616},{""event"":""blur"",""trial"":61,""time"":419980},{""event"":""focus"",""trial"":61,""time"":422321},{""event"":""blur"",""trial"":93,""time"":563288},{""event"":""focus"",""trial"":93,""time"":563952},{""event"":""blur"",""trial"":103,""time"":612156},{""event"":""focus"",""trial"":103,""time"":613330},{""event"":""blur"",""trial"":106,""time"":636781},{""event"":""focus"",""trial"":106,""time"":637614},{""event"":""blur"",""trial"":107,""time"":656988},{""event"":""focus"",""trial"":107,""time"":657519},{""event"":""blur"",""trial"":113,""time"":728559},{""event"":""focus"",""trial"":113,""time"":729800}]","4559.399999976158","<p> You will have <b>2 seconds</b> to make your choice. </p>
            <p> If you do not make a choice within 2 seconds, you will not find an animal or earn treasure. </p>
            <img src='./assets/img/instructions/2seconds.jpg' class='instructions-image'>","","instructions","","","","","","","","","","","","","",""
"learning-instructions","11","150823","0.0-3.0-1.0-0.7","spark_pilot_2","7420","5","17","Female","","","","","","","3311.5","<p> Let’s try practicing that now! </p>
            <p> When you see a picture of the place you are in, press the <b>up</b> key to travel up. </p>
            <img src='./assets/img/instructions/pressUp.jpg' class='instructions-image'>","","instructions","","","","","","","","","","","","","",""
"revaluation","12","154830","0.0-3.0-2.0-0.0","spark_pilot_2","7420","5","17","Female","","false","","","","","[1132.3999999761581]","./assets/img/space/0.jpg","[""ArrowUp""]","first stage practice","space","0","null","null","ArrowUp","false","","","","","","","",""
"html-keyboard-response","13","155331","0.0-3.0-2.0-1.0","spark_pilot_2","7420","5","17","Female","","","","","","","null","<div style=""font-size:60px;"">+</div>","null","fixation","","","","","","","","","","","","","",""
"revaluation","14","159336","0.0-3.0-2.0-0.1","spark_pilot_2","7420","5","17","Female","","false","","","","","[272.6999999284744]","./assets/img/space/1.jpg","[""ArrowUp""]","first stage practice","space","0","null","null","ArrowUp","false","","","","","","","",""
"html-keyboard-response","15","159837","0.0-3.0-2.0-1.1","spark_pilot_2","7420","5","17","Female","","","","","","","null","<div style=""font-size:60px;"">+</div>","null","fixation","","","","","","","","","","","","","",""
"revaluation","16","163841","0.0-3.0-2.0-0.2","spark_pilot_2","7420","5","17","Female","","false","","","","","[360.40000009536743]","./assets/img/space/2.jpg","[""ArrowUp""]","first stage practice","space","0","null","null","ArrowUp","false","","","","","","","",""
"html-keyboard-response","17","164343","0.0-3.0-2.0-1.2","spark_pilot_2","7420","5","17","Female","","","","","","","null","<div style=""font-size:60px;"">+</div>","null","fixation","","","","","","","","","","","","","",""
"learning-instructions","18","171277","0.0-3.0-3.0-0.0","spark_pilot_2","7420","5","17","Female","","","","","","","2215.5","<p> Great job! Now try pressing the <b>down</b> key to travel down. </p>
            <img src='./assets/img/instructions/pressDown.jpg' class='instructions-image'>","","instructions","","","","","","","","","","","","","",""
"revaluation","19","175281","0.0-3.0-4.0-0.0","spark_pilot_2","7420","5","17","Female","","false","","","","","[924.7999999523163]","./assets/img/space/3.jpg","[""ArrowDown""]","first stage practice","space","0","null","null","ArrowDown","false","","","","","","","",""
"html-keyboard-response","20","175782","0.0-3.0-4.0-1.0","spark_pilot_2","7420","5","17","Female","","","","","","","null","<div style=""font-size:60px;"">+</div>","null","fixation","","","","","","","","","","","","","",""
"revaluation","21","179786","0.0-3.0-4.0-0.1","spark_pilot_2","7420","5","17","Female","","false","","","","","[517]","./assets/img/space/4.jpg","[""ArrowDown""]","first stage practice","space","0","null","null","ArrowDown","false","","","","","","","",""
"html-keyboard-response","22","180287","0.0-3.0-4.0-1.1","spark_pilot_2","7420","5","17","Female","","","","","","","null","<div style=""font-size:60px;"">+</div>","null","fixation","","","","","","","","","","","","","",""
"revaluation","23","184293","0.0-3.0-4.0-0.2","spark_pilot_2","7420","5","17","Female","","false","","","","","[391.2000000476837]","./assets/img/space/5.jpg","[""ArrowDown""]","first stage practice","space","0","null","null","ArrowDown","false","","","","","","","",""
"html-keyboard-response","24","184793","0.0-3.0-4.0-1.2","spark_pilot_2","7420","5","17","Female","","","","","","","null","<div style=""font-size:60px;"">+</div>","null","fixation","","","","","","","","","","","","","",""
"learning-instructions","25","195856","0.0-3.0-5.0-0.0","spark_pilot_2","7420","5","17","Female","","","","","","","1184.6000000238419","<p> The animals don’t move, so the animal in the upper part of a place will stay in the upper part of a place, and the animal in the lower part of a place will stay in the lower part of a place. </p>","","instructions","","","","","","","","","","","","","",""
"learning-instructions","26","206768","0.0-3.0-5.0-0.1","spark_pilot_2","7420","5","17","Female","","","","","","","1767","<p> Each animal has two treasure chests for you to choose from. </p>
            <p> The amount of treasure in each chest can range from <b> 0 to 40 pieces.</b></p>","","instructions","","","","","","","","","","","","","",""
"learning-instructions","27","221048","0.0-3.0-5.0-0.2","spark_pilot_2","7420","5","17","Female","","","","","","","3075.899999976158","<p> You should decide which chest to search for treasure by using the <b>left</b> and <b>right</b> arrow keys. </p>
            <p><b> Pay attention to which animal is on the screen, as the animals have different treasure chests. </b></p>
            <img src='./assets/img/instructions/leftright.jpg' class='instructions-image'>","","instructions","","","","","","","","","","","","","",""
"learning-instructions","28","229363","0.0-3.0-5.0-0.3","spark_pilot_2","7420","5","17","Female","","","","","","","1951.4000000953674","<p> Let’s try practicing that now. </p>
            <p> When you see an animal, choose which chest to search for treasure. </p>
            <img src='./assets/img/instructions/chooseChest.jpg' class='instructions-image'>","","instructions","","","","","","","","","","","","","",""
"revaluation","29","233367","0.0-3.0-6.0-0.0","spark_pilot_2","7420","5","17","Female","","false","","","","","[1054.3999999761581]","./assets/img/space/animals/cat.jpg","[""ArrowLeft""]","second stage practice","space","3","{""ArrowUp,ArrowLeft"":3,""ArrowUp,ArrowRight"":36,""ArrowDown,ArrowLeft"":15,""ArrowDown,ArrowRight"":23}","false","ArrowUp,ArrowLeft","","","","","","","","",""
"html-keyboard-response","30","233868","0.0-3.0-6.0-1.0","spark_pilot_2","7420","5","17","Female","","","","","","","null","<div style=""font-size:60px;"">+</div>","null","fixation","","","","","","","","","","","","","",""
"revaluation","31","237871","0.0-3.0-6.0-0.1","spark_pilot_2","7420","5","17","Female","","false","","","","","[461.89999997615814]","./assets/img/space/animals/cat.jpg","[""ArrowRight""]","second stage practice","space","36","{""ArrowUp,ArrowLeft"":3,""ArrowUp,ArrowRight"":36,""ArrowDown,ArrowLeft"":15,""ArrowDown,ArrowRight"":23}","true","ArrowUp,ArrowRight","","","","","","","","",""
"html-keyboard-response","32","238372","0.0-3.0-6.0-1.1","spark_pilot_2","7420","5","17","Female","","","","","","","null","<div style=""font-size:60px;"">+</div>","null","fixation","","","","","","","","","","","","","",""
"revaluation","33","242377","0.0-3.0-6.0-0.2","spark_pilot_2","7420","5","17","Female","","false","","","","","[1213.6000000238419]","./assets/img/space/animals/rabbit.jpg","[""ArrowLeft""]","second stage practice","space","15","{""ArrowUp,ArrowLeft"":3,""ArrowUp,ArrowRight"":36,""ArrowDown,ArrowLeft"":15,""ArrowDown,ArrowRight"":23}","false","ArrowDown,ArrowLeft","","","","","","","","",""
"html-keyboard-response","34","242879","0.0-3.0-6.0-1.2","spark_pilot_2","7420","5","17","Female","","","","","","","null","<div style=""font-size:60px;"">+</div>","null","fixation","","","","","","","","","","","","","",""
"revaluation","35","246884","0.0-3.0-6.0-0.3","spark_pilot_2","7420","5","17","Female","","false","","","","","[526.5]","./assets/img/space/animals/rabbit.jpg","[""ArrowRight""]","second stage practice","space","23","{""ArrowUp,ArrowLeft"":3,""ArrowUp,ArrowRight"":36,""ArrowDown,ArrowLeft"":15,""ArrowDown,ArrowRight"":23}","true","ArrowDown,ArrowRight","","","","","","","","",""
"html-keyboard-response","36","247386","0.0-3.0-6.0-1.3","spark_pilot_2","7420","5","17","Female","","","","","","","null","<div style=""font-size:60px;"">+</div>","null","fixation","","","","","","","","","","","","","",""
"learning-instructions","37","280616","0.0-3.0-7.0-0.0","spark_pilot_2","7420","5","17","Female","","","","","","[{""event"":""fullscreenenter"",""trial"":2,""time"":34580},{""event"":""fullscreenexit"",""trial"":11,""time"":145676},{""event"":""blur"",""trial"":38,""time"":282072},{""event"":""focus"",""trial"":38,""time"":282874},{""event"":""blur"",""trial"":38,""time"":283248},{""event"":""focus"",""trial"":38,""time"":284595},{""event"":""blur"",""trial"":55,""time"":357044},{""event"":""focus"",""trial"":57,""time"":357994},{""event"":""blur"",""trial"":57,""time"":362111},{""event"":""focus"",""trial"":57,""time"":363450},{""event"":""blur"",""trial"":57,""time"":366167},{""event"":""focus"",""trial"":57,""time"":368027},{""event"":""blur"",""trial"":57,""time"":368030},{""event"":""focus"",""trial"":57,""time"":374164},{""event"":""blur"",""trial"":57,""time"":375936},{""event"":""focus"",""trial"":57,""time"":378523},{""event"":""blur"",""trial"":57,""time"":378542},{""event"":""focus"",""trial"":57,""time"":378561},{""event"":""blur"",""trial"":57,""time"":382254},{""event"":""focus"",""trial"":57,""time"":386616},{""event"":""blur"",""trial"":61,""time"":419980},{""event"":""focus"",""trial"":61,""time"":422321},{""event"":""blur"",""trial"":93,""time"":563288},{""event"":""focus"",""trial"":93,""time"":563952},{""event"":""blur"",""trial"":103,""time"":612156},{""event"":""focus"",""trial"":103,""time"":613330},{""event"":""blur"",""trial"":106,""time"":636781},{""event"":""focus"",""trial"":106,""time"":637614},{""event"":""blur"",""trial"":107,""time"":656988},{""event"":""focus"",""trial"":107,""time"":657519},{""event"":""blur"",""trial"":113,""time"":728559},{""event"":""focus"",""trial"":113,""time"":729800}]","16404","<p> Great job. Now let’s try putting it together. </p>
            <p> On each turn, you will first see a picture to remind you of the place you are in, and you need to choose whether to go up or down. </p>
            <p> Then you will see an animal and choose which of its chests to search for treasure. </p>","","instructions","","","","","","","","","","","","","",""
"learning-instructions","38","290876","0.0-3.0-7.0-0.1","spark_pilot_2","7420","5","17","Female","","","","","","","1984.7000000476837","<p> When you choose whether to go up or down, try to go to the animal with the chest with the most treasure. </p>
            <p> Try practicing that now! </p>","","instructions","","","","","","","","","","","","","",""
"revaluation","39","296881","0.0-3.0-8.0-0.0","spark_pilot_2","7420","5","17","Female","","false","","","","","[1351,817.8000000715256]","./assets/img/space/6.jpg","[""ArrowUp"",""ArrowRight""]","full practice","space","36","{""ArrowUp,ArrowLeft"":3,""ArrowUp,ArrowRight"":36,""ArrowDown,ArrowLeft"":15,""ArrowDown,ArrowRight"":23}","true","ArrowUp,ArrowRight","false","","","","","","","",""
"html-keyboard-response","40","297383","0.0-3.0-8.0-1.0","spark_pilot_2","7420","5","17","Female","","","","","","","null","<div style=""font-size:60px;"">+</div>","null","fixation","","","","","","","","","","","","","",""
"revaluation","41","303388","0.0-3.0-8.0-0.1","spark_pilot_2","7420","5","17","Female","","false","","","","","[351.90000009536743,284.10000002384186]","./assets/img/space/7.jpg","[""ArrowUp"",""ArrowRight""]","full practice","space","36","{""ArrowUp,ArrowLeft"":3,""ArrowUp,ArrowRight"":36,""ArrowDown,ArrowLeft"":15,""ArrowDown,ArrowRight"":23}","true","ArrowUp,ArrowRight","false","","","","","","","",""
"html-keyboard-response","42","303891","0.0-3.0-8.0-1.1","spark_pilot_2","7420","5","17","Female","","","","","","","null","<div style=""font-size:60px;"">+</div>","null","fixation","","","","","","","","","","","","","",""
"revaluation","43","309896","0.0-3.0-8.0-0.2","spark_pilot_2","7420","5","17","Female","","false","","","","","[403.89999997615814,482.3000000715256]","./assets/img/space/8.jpg","[""ArrowUp"",""ArrowRight""]","full practice","space","36","{""ArrowUp,ArrowLeft"":3,""ArrowUp,ArrowRight"":36,""ArrowDown,ArrowLeft"":15,""ArrowDown,ArrowRight"":23}","true","ArrowUp,ArrowRight","false","","","","","","","",""
"html-keyboard-response","44","310398","0.0-3.0-8.0-1.2","spark_pilot_2","7420","5","17","Female","","","","","","","null","<div style=""font-size:60px;"">+</div>","null","fixation","","","","","","","","","","","","","",""
"revaluation","45","316404","0.0-3.0-8.0-0.3","spark_pilot_2","7420","5","17","Female","","false","","","","","[323.2999999523163,1141.8999999761581]","./assets/img/space/9.jpg","[""ArrowUp"",""ArrowRight""]","full practice","space","36","{""ArrowUp,ArrowLeft"":3,""ArrowUp,ArrowRight"":36,""ArrowDown,ArrowLeft"":15,""ArrowDown,ArrowRight"":23}","true","ArrowUp,ArrowRight","false","","","","","","","",""
"html-keyboard-response","46","316906","0.0-3.0-8.0-1.3","spark_pilot_2","7420","5","17","Female","","","","","","","null","<div style=""font-size:60px;"">+</div>","null","fixation","","","","","","","","","","","","","",""
"revaluation","47","322909","0.0-3.0-8.0-0.4","spark_pilot_2","7420","5","17","Female","","false","","","","","[394.2000000476837,374.40000009536743]","./assets/img/space/10.jpg","[""ArrowUp"",""ArrowRight""]","full practice","space","36","{""ArrowUp,ArrowLeft"":3,""ArrowUp,ArrowRight"":36,""ArrowDown,ArrowLeft"":15,""ArrowDown,ArrowRight"":23}","true","ArrowUp,ArrowRight","false","","","","","","","",""
"html-keyboard-response","48","323412","0.0-3.0-8.0-1.4","spark_pilot_2","7420","5","17","Female","","","","","","","null","<div style=""font-size:60px;"">+</div>","null","fixation","","","","","","","","","","","","","",""
"learning-instructions","49","335463","0.0-3.0-9.0-0.0","spark_pilot_2","7420","5","17","Female","","","","","","","1741.2000000476837","<p> One last thing: sometimes, you will see a robber. The robber can be anywhere in the picture. </p>
            <p> If you do not stop them, you will lose treasure. </p>
            <img src='./assets/img/instructions/robber.jpg' class='instructions-image'>","","instructions","","","","","","","","","","","","","",""
"learning-instructions","50","344440","0.0-3.0-9.0-0.1","spark_pilot_2","7420","5","17","Female","","","","","","","1737.7999999523163","<p> If you see the robber, you should <b>press the space bar</b> rather than using the arrow keys. </p>
            <p> Try practicing that now! </p>","","instructions","","","","","","","","","","","","","",""
"revaluation","51","348443","0.0-3.0-10.0-0.0","spark_pilot_2","7420","5","17","Female","","false","","","","","[875]","./assets/img/space/catch/0.jpg","[""spaceBar""]","catch practice","space","0","{""ArrowUp,ArrowLeft"":3,""ArrowUp,ArrowRight"":36,""ArrowDown,ArrowLeft"":15,""ArrowDown,ArrowRight"":23}","true","spaceBar","true","","","","","","","",""
"html-keyboard-response","52","348945","0.0-3.0-10.0-1.0","spark_pilot_2","7420","5","17","Female","","","","","","","null","<div style=""font-size:60px;"">+</div>","null","fixation","","","","","","","","","","","","","",""
"revaluation","53","352949","0.0-3.0-10.0-0.1","spark_pilot_2","7420","5","17","Female","","false","","","","","[539.2000000476837]","./assets/img/space/catch/1.jpg","[""spaceBar""]","catch practice","space","0","{""ArrowUp,ArrowLeft"":3,""ArrowUp,ArrowRight"":36,""ArrowDown,ArrowLeft"":15,""ArrowDown,ArrowRight"":23}","true","spaceBar","true","","","","","","","",""
"html-keyboard-response","54","353450","0.0-3.0-10.0-1.1","spark_pilot_2","7420","5","17","Female","","","","","","[{""event"":""fullscreenenter"",""trial"":2,""time"":34580},{""event"":""fullscreenexit"",""trial"":11,""time"":145676},{""event"":""blur"",""trial"":38,""time"":282072},{""event"":""focus"",""trial"":38,""time"":282874},{""event"":""blur"",""trial"":38,""time"":283248},{""event"":""focus"",""trial"":38,""time"":284595},{""event"":""blur"",""trial"":55,""time"":357044},{""event"":""focus"",""trial"":57,""time"":357994},{""event"":""blur"",""trial"":57,""time"":362111},{""event"":""focus"",""trial"":57,""time"":363450},{""event"":""blur"",""trial"":57,""time"":366167},{""event"":""focus"",""trial"":57,""time"":368027},{""event"":""blur"",""trial"":57,""time"":368030},{""event"":""focus"",""trial"":57,""time"":374164},{""event"":""blur"",""trial"":57,""time"":375936},{""event"":""focus"",""trial"":57,""time"":378523},{""event"":""blur"",""trial"":57,""time"":378542},{""event"":""focus"",""trial"":57,""time"":378561},{""event"":""blur"",""trial"":57,""time"":382254},{""event"":""focus"",""trial"":57,""time"":386616},{""event"":""blur"",""trial"":61,""time"":419980},{""event"":""focus"",""trial"":61,""time"":422321},{""event"":""blur"",""trial"":93,""time"":563288},{""event"":""focus"",""trial"":93,""time"":563952},{""event"":""blur"",""trial"":103,""time"":612156},{""event"":""focus"",""trial"":103,""time"":613330},{""event"":""blur"",""trial"":106,""time"":636781},{""event"":""focus"",""trial"":106,""time"":637614},{""event"":""blur"",""trial"":107,""time"":656988},{""event"":""focus"",""trial"":107,""time"":657519},{""event"":""blur"",""trial"":113,""time"":728559},{""event"":""focus"",""trial"":113,""time"":729800}]","null","<div style=""font-size:60px;"">+</div>","null","fixation","","","","","","","","","","","","","",""
"revaluation","55","357455","0.0-3.0-10.0-0.2","spark_pilot_2","7420","5","17","Female","","false","","","","","[745.4000000953674]","./assets/img/space/catch/2.jpg","[""spaceBar""]","catch practice","space","0","{""ArrowUp,ArrowLeft"":3,""ArrowUp,ArrowRight"":36,""ArrowDown,ArrowLeft"":15,""ArrowDown,ArrowRight"":23}","true","spaceBar","true","","","","","","","",""
"html-keyboard-response","56","357957","0.0-3.0-10.0-1.2","spark_pilot_2","7420","5","17","Female","","","","","","[{""event"":""fullscreenenter"",""trial"":2,""time"":34580},{""event"":""fullscreenexit"",""trial"":11,""time"":145676},{""event"":""blur"",""trial"":38,""time"":282072},{""event"":""focus"",""trial"":38,""time"":282874},{""event"":""blur"",""trial"":38,""time"":283248},{""event"":""focus"",""trial"":38,""time"":284595},{""event"":""blur"",""trial"":55,""time"":357044},{""event"":""focus"",""trial"":57,""time"":357994},{""event"":""blur"",""trial"":57,""time"":362111},{""event"":""focus"",""trial"":57,""time"":363450},{""event"":""blur"",""trial"":57,""time"":366167},{""event"":""focus"",""trial"":57,""time"":368027},{""event"":""blur"",""trial"":57,""time"":368030},{""event"":""focus"",""trial"":57,""time"":374164},{""event"":""blur"",""trial"":57,""time"":375936},{""event"":""focus"",""trial"":57,""time"":378523},{""event"":""blur"",""trial"":57,""time"":378542},{""event"":""focus"",""trial"":57,""time"":378561},{""event"":""blur"",""trial"":57,""time"":382254},{""event"":""focus"",""trial"":57,""time"":386616},{""event"":""blur"",""trial"":61,""time"":419980},{""event"":""focus"",""trial"":61,""time"":422321},{""event"":""blur"",""trial"":93,""time"":563288},{""event"":""focus"",""trial"":93,""time"":563952},{""event"":""blur"",""trial"":103,""time"":612156},{""event"":""focus"",""trial"":103,""time"":613330},{""event"":""blur"",""trial"":106,""time"":636781},{""event"":""focus"",""trial"":106,""time"":637614},{""event"":""blur"",""trial"":107,""time"":656988},{""event"":""focus"",""trial"":107,""time"":657519},{""event"":""blur"",""trial"":113,""time"":728559},{""event"":""focus"",""trial"":113,""time"":729800}]","null","<div style=""font-size:60px;"">+</div>","null","fixation","","","","","","","","","","","","","",""
"learning-instructions","57","386808","0.0-3.0-11.0-0.0","spark_pilot_2","7420","5","17","Female","","","","","","","15256.899999976158","<p> After you explore a place to find treasure, it will be time to play a different game. </p>
            <p> During this game, red dots will appear on the screen and fall down slowly. </p>
            <p><b> You must click on them before they reach the bottom. </b></p>
            <img src='./assets/img/instructions/dotGame.jpg' class='instructions-image'>","","instructions","","","","","","","","","","","","","",""
"learning-instructions","58","394392","0.0-3.0-11.0-0.1","spark_pilot_2","7420","5","17","Female","","","","","","","1900.7999999523163","<p> For every dot you click, you will earn additional treasure. </p>
            <p> Let’s try practicing that now. </p>","","instructions","","","","","","","","","","","","","",""
"revaluation","59","409403","0.0-3.0-12.0-0.0","spark_pilot_2","7420","5","17","Female","","","","","","","[101]","","","rest practice","","10","","","","","0","15000","","","","","",""
"learning-instructions","60","415984","0.0-3.0-13.0-0.0-0.0","spark_pilot_2","7420","5","17","Female","","","","","","[{""event"":""fullscreenenter"",""trial"":2,""time"":34580},{""event"":""fullscreenexit"",""trial"":11,""time"":145676},{""event"":""blur"",""trial"":38,""time"":282072},{""event"":""focus"",""trial"":38,""time"":282874},{""event"":""blur"",""trial"":38,""time"":283248},{""event"":""focus"",""trial"":38,""time"":284595},{""event"":""blur"",""trial"":55,""time"":357044},{""event"":""focus"",""trial"":57,""time"":357994},{""event"":""blur"",""trial"":57,""time"":362111},{""event"":""focus"",""trial"":57,""time"":363450},{""event"":""blur"",""trial"":57,""time"":366167},{""event"":""focus"",""trial"":57,""time"":368027},{""event"":""blur"",""trial"":57,""time"":368030},{""event"":""focus"",""trial"":57,""time"":374164},{""event"":""blur"",""trial"":57,""time"":375936},{""event"":""focus"",""trial"":57,""time"":378523},{""event"":""blur"",""trial"":57,""time"":378542},{""event"":""focus"",""trial"":57,""time"":378561},{""event"":""blur"",""trial"":57,""time"":382254},{""event"":""focus"",""trial"":57,""time"":386616},{""event"":""blur"",""trial"":61,""time"":419980},{""event"":""focus"",""trial"":61,""time"":422321},{""event"":""blur"",""trial"":93,""time"":563288},{""event"":""focus"",""trial"":93,""time"":563952},{""event"":""blur"",""trial"":103,""time"":612156},{""event"":""focus"",""trial"":103,""time"":613330},{""event"":""blur"",""trial"":106,""time"":636781},{""event"":""focus"",""trial"":106,""time"":637614},{""event"":""blur"",""trial"":107,""time"":656988},{""event"":""focus"",""trial"":107,""time"":657519},{""event"":""blur"",""trial"":113,""time"":728559},{""event"":""focus"",""trial"":113,""time"":729800}]","1322.7999999523163","<p> Now, you will practice a shortened version of the game to get a sense of how it all fits together. </p>","","instructions","","","","","","","","","","","","","",""
"learning-instructions","61","423764","0.0-3.0-13.0-0.0-0.1","spark_pilot_2","7420","5","17","Female","","","","","","","4591.5","<p>This time you are searching for treasure in outer space.</p>","","instructions","","","","","","","","","","","","","",""
"learning-instructions","62","439207","0.0-3.0-13.0-1.0-0.0","spark_pilot_2","7420","5","17","Female","","","","","","","545.8999999761581","<p> Remember, when you see a picture of the place, use the up and down keys to <b>find an animal</b>.</p>
            <p> When you encounter an animal, you should use the left and right keys to <b>select a treasure chest</b>.</p>
            <p> Don't forget to look out for the robber! </p>","","instructions","","","","","","","","","","","","","",""
"revaluation","63","445213","0.0-3.0-13.0-2.0-0.0","spark_pilot_2","7420","5","17","Female","","false","","","","","[1760.6000000238419,479.2999999523163]","./assets/img/space/11.jpg","[""ArrowUp"",""ArrowRight""]","practice block","space","36","{""ArrowUp,ArrowLeft"":3,""ArrowUp,ArrowRight"":36,""ArrowDown,ArrowLeft"":15,""ArrowDown,ArrowRight"":23}","true","ArrowUp,ArrowRight","false","","","","","","","",""
"html-keyboard-response","64","445715","0.0-3.0-13.0-2.0-1.0","spark_pilot_2","7420","5","17","Female","","","","","","","null","<div style=""font-size:60px;"">+</div>","null","fixation","","","","","","","","","","","","","",""
"revaluation","65","451721","0.0-3.0-13.0-2.0-0.1","spark_pilot_2","7420","5","17","Female","","false","","","","","[661.7999999523163,291.09999990463257]","./assets/img/space/12.jpg","[""ArrowUp"",""ArrowRight""]","practice block","space","36","{""ArrowUp,ArrowLeft"":3,""ArrowUp,ArrowRight"":36,""ArrowDown,ArrowLeft"":15,""ArrowDown,ArrowRight"":23}","true","ArrowUp,ArrowRight","false","","","","","","","",""
"html-keyboard-response","66","452223","0.0-3.0-13.0-2.0-1.1","spark_pilot_2","7420","5","17","Female","","","","","","","null","<div style=""font-size:60px;"">+</div>","null","fixation","","","","","","","","","","","","","",""
"revaluation","67","458226","0.0-3.0-13.0-2.0-0.2","spark_pilot_2","7420","5","17","Female","","false","","","","","[400.39999997615814,233.09999990463257]","./assets/img/space/13.jpg","[""ArrowUp"",""ArrowRight""]","practice block","space","36","{""ArrowUp,ArrowLeft"":3,""ArrowUp,ArrowRight"":36,""ArrowDown,ArrowLeft"":15,""ArrowDown,ArrowRight"":23}","true","ArrowUp,ArrowRight","false","","","","","","","",""
"html-keyboard-response","68","458727","0.0-3.0-13.0-2.0-1.2","spark_pilot_2","7420","5","17","Female","","","","","","","null","<div style=""font-size:60px;"">+</div>","null","fixation","","","","","","","","","","","","","",""
"revaluation","69","464734","0.0-3.0-13.0-2.0-0.3","spark_pilot_2","7420","5","17","Female","","false","","","","","[324.7999999523163,423.89999997615814]","./assets/img/space/14.jpg","[""ArrowUp"",""ArrowRight""]","practice block","space","36","{""ArrowUp,ArrowLeft"":3,""ArrowUp,ArrowRight"":36,""ArrowDown,ArrowLeft"":15,""ArrowDown,ArrowRight"":23}","true","ArrowUp,ArrowRight","false","","","","","","","",""
"html-keyboard-response","70","465235","0.0-3.0-13.0-2.0-1.3","spark_pilot_2","7420","5","17","Female","","","","","","","null","<div style=""font-size:60px;"">+</div>","null","fixation","","","","","","","","","","","","","",""
"revaluation","71","471241","0.0-3.0-13.0-2.0-0.4","spark_pilot_2","7420","5","17","Female","","false","","","","","[406.60000002384186,259.7999999523163]","./assets/img/space/11.jpg","[""ArrowUp"",""ArrowRight""]","practice block","space","36","{""ArrowUp,ArrowLeft"":3,""ArrowUp,ArrowRight"":36,""ArrowDown,ArrowLeft"":15,""ArrowDown,ArrowRight"":23}","true","ArrowUp,ArrowRight","false","","","","","","","",""
"html-keyboard-response","72","471743","0.0-3.0-13.0-2.0-1.4","spark_pilot_2","7420","5","17","Female","","","","","","","null","<div style=""font-size:60px;"">+</div>","null","fixation","","","","","","","","","","","","","",""
"revaluation","73","477750","0.0-3.0-13.0-2.0-0.5","spark_pilot_2","7420","5","17","Female","","false","","","","","[566.1000000238419,737.7999999523163]","./assets/img/space/12.jpg","[""ArrowUp"",""ArrowRight""]","practice block","space","36","{""ArrowUp,ArrowLeft"":3,""ArrowUp,ArrowRight"":36,""ArrowDown,ArrowLeft"":15,""ArrowDown,ArrowRight"":23}","true","ArrowUp,ArrowRight","false","","","","","","","",""
"html-keyboard-response","74","478253","0.0-3.0-13.0-2.0-1.5","spark_pilot_2","7420","5","17","Female","","","","","","","null","<div style=""font-size:60px;"">+</div>","null","fixation","","","","","","","","","","","","","",""
"revaluation","75","484258","0.0-3.0-13.0-2.0-0.6","spark_pilot_2","7420","5","17","Female","","false","","","","","[491.3000000715256,383.2999999523163]","./assets/img/space/13.jpg","[""ArrowUp"",""ArrowRight""]","practice block","space","36","{""ArrowUp,ArrowLeft"":3,""ArrowUp,ArrowRight"":36,""ArrowDown,ArrowLeft"":15,""ArrowDown,ArrowRight"":23}","true","ArrowUp,ArrowRight","false","","","","","","","",""
"html-keyboard-response","76","484760","0.0-3.0-13.0-2.0-1.6","spark_pilot_2","7420","5","17","Female","","","","","","","null","<div style=""font-size:60px;"">+</div>","null","fixation","","","","","","","","","","","","","",""
"revaluation","77","490766","0.0-3.0-13.0-2.0-0.7","spark_pilot_2","7420","5","17","Female","","false","","","","","[472.40000009536743,912.7999999523163]","./assets/img/space/14.jpg","[""ArrowUp"",""ArrowRight""]","practice block","space","36","{""ArrowUp,ArrowLeft"":3,""ArrowUp,ArrowRight"":36,""ArrowDown,ArrowLeft"":15,""ArrowDown,ArrowRight"":23}","true","ArrowUp,ArrowRight","false","","","","","","","",""
"html-keyboard-response","78","491267","0.0-3.0-13.0-2.0-1.7","spark_pilot_2","7420","5","17","Female","","","","","","","null","<div style=""font-size:60px;"">+</div>","null","fixation","","","","","","","","","","","","","",""
"revaluation","79","495274","0.0-3.0-13.0-2.0-0.8","spark_pilot_2","7420","5","17","Female","","false","","","","","[950.2999999523163]","./assets/img/space/catch/3.jpg","[""spaceBar""]","practice block","space","0","{""ArrowUp,ArrowLeft"":3,""ArrowUp,ArrowRight"":36,""ArrowDown,ArrowLeft"":15,""ArrowDown,ArrowRight"":23}","true","spaceBar","true","","","","","","","",""
"html-keyboard-response","80","495775","0.0-3.0-13.0-2.0-1.8","spark_pilot_2","7420","5","17","Female","","","","","","","null","<div style=""font-size:60px;"">+</div>","null","fixation","","","","","","","","","","","","","",""
"learning-instructions","81","510189","0.0-3.0-13.0-3.0-0.0","spark_pilot_2","7420","5","17","Female","","","","","","","1467.3999999761581","<p> Now, you will travel with a friend who will choose whether you go up or down first. </p>
            <p> On these turns, you will just see the animal that they found. You will still get to choose which chest to search for treasure.</p>","","instructions","","","","","","","","","","","","","",""
"revaluation","82","514198","0.0-3.0-13.0-4.0-0.0","spark_pilot_2","7420","5","17","Female","","true","","","","","[]","./assets/img/space/animals/cat.jpg","[]","practice block","space","-5","{""ArrowUp,ArrowLeft"":3,""ArrowUp,ArrowRight"":36,""ArrowDown,ArrowLeft"":15,""ArrowDown,ArrowRight"":23}","false","ArrowUp","","","","","","","","",""
"html-keyboard-response","83","514700","0.0-3.0-13.0-4.0-1.0","spark_pilot_2","7420","5","17","Female","","","","","","","null","<div style=""font-size:60px;"">+</div>","null","fixation","","","","","","","","","","","","","",""
"revaluation","84","518706","0.0-3.0-13.0-4.0-0.1","spark_pilot_2","7420","5","17","Female","","false","","","","","[933.3999999761581]","./assets/img/space/animals/rabbit.jpg","[""ArrowRight""]","practice block","space","23","{""ArrowUp,ArrowLeft"":3,""ArrowUp,ArrowRight"":36,""ArrowDown,ArrowLeft"":15,""ArrowDown,ArrowRight"":23}","true","ArrowDown,ArrowRight","","","","","","","","",""
"html-keyboard-response","85","519208","0.0-3.0-13.0-4.0-1.1","spark_pilot_2","7420","5","17","Female","","","","","","","null","<div style=""font-size:60px;"">+</div>","null","fixation","","","","","","","","","","","","","",""
"revaluation","86","523213","0.0-3.0-13.0-4.0-0.2","spark_pilot_2","7420","5","17","Female","","false","","","","","[326.7999999523163]","./assets/img/space/animals/rabbit.jpg","[""ArrowRight""]","practice block","space","23","{""ArrowUp,ArrowLeft"":3,""ArrowUp,ArrowRight"":36,""ArrowDown,ArrowLeft"":15,""ArrowDown,ArrowRight"":23}","true","ArrowDown,ArrowRight","","","","","","","","",""
"html-keyboard-response","87","523714","0.0-3.0-13.0-4.0-1.2","spark_pilot_2","7420","5","17","Female","","","","","","","null","<div style=""font-size:60px;"">+</div>","null","fixation","","","","","","","","","","","","","",""
"revaluation","88","527717","0.0-3.0-13.0-4.0-0.3","spark_pilot_2","7420","5","17","Female","","false","","","","","[963.3999999761581]","./assets/img/space/animals/cat.jpg","[""ArrowRight""]","practice block","space","36","{""ArrowUp,ArrowLeft"":3,""ArrowUp,ArrowRight"":36,""ArrowDown,ArrowLeft"":15,""ArrowDown,ArrowRight"":23}","true","ArrowUp,ArrowRight","","","","","","","","",""
"html-keyboard-response","89","528219","0.0-3.0-13.0-4.0-1.3","spark_pilot_2","7420","5","17","Female","","","","","","","null","<div style=""font-size:60px;"">+</div>","null","fixation","","","","","","","","","","","","","",""
"learning-instructions","90","538308","0.0-3.0-13.0-5.0-0.0","spark_pilot_2","7420","5","17","Female","","","","","","","2716.899999976158","<p> Time to play the dot game! </p>
            <p> For 15 seconds, click the red dots on the following screen as they appear. </p>","","instructions","","","","","","","","","","","","","",""
"revaluation","91","553310","0.0-3.0-13.0-6.0-0.0","spark_pilot_2","7420","5","17","Female","","","","","","","[103]","","","rest practice","","10","","","","","0","15000","","","","","",""
"learning-instructions","92","561037","0.0-3.0-13.0-7.0-0.0","spark_pilot_2","7420","5","17","Female","","","","","","[{""event"":""fullscreenenter"",""trial"":2,""time"":34580},{""event"":""fullscreenexit"",""trial"":11,""time"":145676},{""event"":""blur"",""trial"":38,""time"":282072},{""event"":""focus"",""trial"":38,""time"":282874},{""event"":""blur"",""trial"":38,""time"":283248},{""event"":""focus"",""trial"":38,""time"":284595},{""event"":""blur"",""trial"":55,""time"":357044},{""event"":""focus"",""trial"":57,""time"":357994},{""event"":""blur"",""trial"":57,""time"":362111},{""event"":""focus"",""trial"":57,""time"":363450},{""event"":""blur"",""trial"":57,""time"":366167},{""event"":""focus"",""trial"":57,""time"":368027},{""event"":""blur"",""trial"":57,""time"":368030},{""event"":""focus"",""trial"":57,""time"":374164},{""event"":""blur"",""trial"":57,""time"":375936},{""event"":""focus"",""trial"":57,""time"":378523},{""event"":""blur"",""trial"":57,""time"":378542},{""event"":""focus"",""trial"":57,""time"":378561},{""event"":""blur"",""trial"":57,""time"":382254},{""event"":""focus"",""trial"":57,""time"":386616},{""event"":""blur"",""trial"":61,""time"":419980},{""event"":""focus"",""trial"":61,""time"":422321},{""event"":""blur"",""trial"":93,""time"":563288},{""event"":""focus"",""trial"":93,""time"":563952},{""event"":""blur"",""trial"":103,""time"":612156},{""event"":""focus"",""trial"":103,""time"":613330},{""event"":""blur"",""trial"":106,""time"":636781},{""event"":""focus"",""trial"":106,""time"":637614},{""event"":""blur"",""trial"":107,""time"":656988},{""event"":""focus"",""trial"":107,""time"":657519},{""event"":""blur"",""trial"":113,""time"":728559},{""event"":""focus"",""trial"":113,""time"":729800}]","1605.7000000476837","<p> You have almost finished this part of the game! </p>
            <p> We are going to ask you to make a few more choices. </p>","","instructions","","","","","","","","","","","","","",""
"learning-instructions","93","576609","0.0-3.0-13.0-7.0-0.1","spark_pilot_2","7420","5","17","Female","","","","","","","1548.7999999523163","<p> First, you need to decide whether to go up or down. When you see each picture, use the arrow keys to make your choice. </p>
            <p><b>You will not see which animal you found, but try to get to the one that will give you the most treasure.</b></p>","","instructions","","","","","","","","","","","","","",""
"revaluation","94","577709","0.0-3.0-13.0-8.0","spark_pilot_2","7420","5","17","Female","","false","","","","","[1097.6000000238419]","./assets/img/space/15.jpg","[""ArrowUp""]","practice block","space","0","{""ArrowUp,ArrowLeft"":3,""ArrowUp,ArrowRight"":36,""ArrowDown,ArrowLeft"":15,""ArrowDown,ArrowRight"":23}","true","ArrowUp","false","","","","","","","",""
"html-keyboard-response","95","578210","0.0-3.0-13.0-9.0","spark_pilot_2","7420","5","17","Female","","","","","","","null","<div style=""font-size:60px;"">+</div>","null","fixation","","","","","","","","","","","","","",""
"learning-instructions","96","590557","0.0-3.0-13.0-10.0-0.0","spark_pilot_2","7420","5","17","Female","","","","","","","975.9000000953674","<p> Now you will see the animals again and can search their chests for treasure. </p>
            <p> This time, you will not see how much treasure you earned, but you will earn more bonus money for making better choices. </p>","","instructions","","","","","","","","","","","","","",""
"revaluation","97","591354","0.0-3.0-13.0-11.0-0.0","spark_pilot_2","7420","5","17","Female","","false","","","","","[794.3000000715256]","./assets/img/space/animals/cat.jpg","[""ArrowRight""]","practice block","space","0","{""ArrowUp,ArrowLeft"":3,""ArrowUp,ArrowRight"":36,""ArrowDown,ArrowLeft"":15,""ArrowDown,ArrowRight"":23}","true","ArrowUp,ArrowRight","","","","","","","","",""
"html-keyboard-response","98","591855","0.0-3.0-13.0-11.0-1.0","spark_pilot_2","7420","5","17","Female","","","","","","","null","<div style=""font-size:60px;"">+</div>","null","fixation","","","","","","","","","","","","","",""
"revaluation","99","592811","0.0-3.0-13.0-11.0-0.1","spark_pilot_2","7420","5","17","Female","","false","","","","","[953.3999999761581]","./assets/img/space/animals/rabbit.jpg","[""ArrowRight""]","practice block","space","0","{""ArrowUp,ArrowLeft"":3,""ArrowUp,ArrowRight"":36,""ArrowDown,ArrowLeft"":15,""ArrowDown,ArrowRight"":23}","true","ArrowDown,ArrowRight","","","","","","","","",""
"html-keyboard-response","100","593313","0.0-3.0-13.0-11.0-1.1","spark_pilot_2","7420","5","17","Female","","","","","","","null","<div style=""font-size:60px;"">+</div>","null","fixation","","","","","","","","","","","","","",""
"learning-instructions","101","599056","0.0-3.0-14.0-0.0","spark_pilot_2","7420","5","17","Female","","","","","","","1166.2999999523163","<p> Before you start, we're going to ask you a few questions about how the game works. </p>","","instructions","","","","","","","","","","","","","",""
"comp-q","102","605457","0.0-3.0-15.0-0.0-0.0","spark_pilot_2","7420","5","17","Female","","","","","","[{""event"":""fullscreenenter"",""trial"":2,""time"":34580},{""event"":""fullscreenexit"",""trial"":11,""time"":145676},{""event"":""blur"",""trial"":38,""time"":282072},{""event"":""focus"",""trial"":38,""time"":282874},{""event"":""blur"",""trial"":38,""time"":283248},{""event"":""focus"",""trial"":38,""time"":284595},{""event"":""blur"",""trial"":55,""time"":357044},{""event"":""focus"",""trial"":57,""time"":357994},{""event"":""blur"",""trial"":57,""time"":362111},{""event"":""focus"",""trial"":57,""time"":363450},{""event"":""blur"",""trial"":57,""time"":366167},{""event"":""focus"",""trial"":57,""time"":368027},{""event"":""blur"",""trial"":57,""time"":368030},{""event"":""focus"",""trial"":57,""time"":374164},{""event"":""blur"",""trial"":57,""time"":375936},{""event"":""focus"",""trial"":57,""time"":378523},{""event"":""blur"",""trial"":57,""time"":378542},{""event"":""focus"",""trial"":57,""time"":378561},{""event"":""blur"",""trial"":57,""time"":382254},{""event"":""focus"",""trial"":57,""time"":386616},{""event"":""blur"",""trial"":61,""time"":419980},{""event"":""focus"",""trial"":61,""time"":422321},{""event"":""blur"",""trial"":93,""time"":563288},{""event"":""focus"",""trial"":93,""time"":563952},{""event"":""blur"",""trial"":103,""time"":612156},{""event"":""focus"",""trial"":103,""time"":613330},{""event"":""blur"",""trial"":106,""time"":636781},{""event"":""focus"",""trial"":106,""time"":637614},{""event"":""blur"",""trial"":107,""time"":656988},{""event"":""focus"",""trial"":107,""time"":657519},{""event"":""blur"",""trial"":113,""time"":728559},{""event"":""focus"",""trial"":113,""time"":729800}]","814.8000000715256","<p> <b> True or False? </b> </p>
            <p> There can be 50 pieces of treasure in a given animal's chest. </p>","1","comp_question","","","","true","","","","","","","","","",""
"comp-q","103","613501","0.0-3.0-15.0-0.0-1.0","spark_pilot_2","7420","5","17","Female","","","","","","","1370.1999999284744","<p> <b> That's right! </b> The amount of treasure in each chest can range from 0 to 40 pieces. </p>","0","comp_answer","","","","","","","","","","","","","",""
"comp-q","104","624552","0.0-3.0-15.0-0.1-0.1","spark_pilot_2","7420","5","17","Female","","","","","","","3932.3000000715256","<p> <b> True or False? </b> </p><p> In this game, all animals have the same amount of treasure in their left and right chests. </p>","1","comp_question","","","","true","","","","","","","","","",""
"comp-q","105","634665","0.0-3.0-15.0-0.1-1.1","spark_pilot_2","7420","5","17","Female","","","","","","[{""event"":""fullscreenenter"",""trial"":2,""time"":34580},{""event"":""fullscreenexit"",""trial"":11,""time"":145676},{""event"":""blur"",""trial"":38,""time"":282072},{""event"":""focus"",""trial"":38,""time"":282874},{""event"":""blur"",""trial"":38,""time"":283248},{""event"":""focus"",""trial"":38,""time"":284595},{""event"":""blur"",""trial"":55,""time"":357044},{""event"":""focus"",""trial"":57,""time"":357994},{""event"":""blur"",""trial"":57,""time"":362111},{""event"":""focus"",""trial"":57,""time"":363450},{""event"":""blur"",""trial"":57,""time"":366167},{""event"":""focus"",""trial"":57,""time"":368027},{""event"":""blur"",""trial"":57,""time"":368030},{""event"":""focus"",""trial"":57,""time"":374164},{""event"":""blur"",""trial"":57,""time"":375936},{""event"":""focus"",""trial"":57,""time"":378523},{""event"":""blur"",""trial"":57,""time"":378542},{""event"":""focus"",""trial"":57,""time"":378561},{""event"":""blur"",""trial"":57,""time"":382254},{""event"":""focus"",""trial"":57,""time"":386616},{""event"":""blur"",""trial"":61,""time"":419980},{""event"":""focus"",""trial"":61,""time"":422321},{""event"":""blur"",""trial"":93,""time"":563288},{""event"":""focus"",""trial"":93,""time"":563952},{""event"":""blur"",""trial"":103,""time"":612156},{""event"":""focus"",""trial"":103,""time"":613330},{""event"":""blur"",""trial"":106,""time"":636781},{""event"":""focus"",""trial"":106,""time"":637614},{""event"":""blur"",""trial"":107,""time"":656988},{""event"":""focus"",""trial"":107,""time"":657519},{""event"":""blur"",""trial"":113,""time"":728559},{""event"":""focus"",""trial"":113,""time"":729800}]","4883.800000071526","<p> <b> That's right! </b> Animals have different amounts of treasure in their treasure chests. </p>","0","comp_answer","","","","","","","","","","","","","",""
"comp-q","106","651260","0.0-3.0-15.0-0.2-0.2","spark_pilot_2","7420","5","17","Female","","","","","","[{""event"":""fullscreenenter"",""trial"":2,""time"":34580},{""event"":""fullscreenexit"",""trial"":11,""time"":145676},{""event"":""blur"",""trial"":38,""time"":282072},{""event"":""focus"",""trial"":38,""time"":282874},{""event"":""blur"",""trial"":38,""time"":283248},{""event"":""focus"",""trial"":38,""time"":284595},{""event"":""blur"",""trial"":55,""time"":357044},{""event"":""focus"",""trial"":57,""time"":357994},{""event"":""blur"",""trial"":57,""time"":362111},{""event"":""focus"",""trial"":57,""time"":363450},{""event"":""blur"",""trial"":57,""time"":366167},{""event"":""focus"",""trial"":57,""time"":368027},{""event"":""blur"",""trial"":57,""time"":368030},{""event"":""focus"",""trial"":57,""time"":374164},{""event"":""blur"",""trial"":57,""time"":375936},{""event"":""focus"",""trial"":57,""time"":378523},{""event"":""blur"",""trial"":57,""time"":378542},{""event"":""focus"",""trial"":57,""time"":378561},{""event"":""blur"",""trial"":57,""time"":382254},{""event"":""focus"",""trial"":57,""time"":386616},{""event"":""blur"",""trial"":61,""time"":419980},{""event"":""focus"",""trial"":61,""time"":422321},{""event"":""blur"",""trial"":93,""time"":563288},{""event"":""focus"",""trial"":93,""time"":563952},{""event"":""blur"",""trial"":103,""time"":612156},{""event"":""focus"",""trial"":103,""time"":613330},{""event"":""blur"",""trial"":106,""time"":636781},{""event"":""focus"",""trial"":106,""time"":637614},{""event"":""blur"",""trial"":107,""time"":656988},{""event"":""focus"",""trial"":107,""time"":657519},{""event"":""blur"",""trial"":113,""time"":728559},{""event"":""focus"",""trial"":113,""time"":729800}]","10758.700000047684","<p> <b> True or False? </b> </p><p> The same animal will always be there if you go up in the same place. </p>","0","comp_question","","","","true","","","","","","","","","",""
"comp-q","107","662276","0.0-3.0-15.0-0.2-1.2","spark_pilot_2","7420","5","17","Female","","","","","","","4575.5","<p> <b> That's right! </b> One animal lives in the upper part and one lives in the lower part of every place. </p>","0","comp_answer","","","","","","","","","","","","","",""
"comp-q","108","669461","0.0-3.0-15.0-0.3-0.3","spark_pilot_2","7420","5","17","Female","","","","","","","1650.1000000238419","<p> <b> True or False? </b> </p><p> If you see a different picture, it means you are in a new place. </p>","1","comp_question","","","","true","","","","","","","","","",""
"comp-q","109","685291","0.0-3.0-15.0-0.3-1.3","spark_pilot_2","7420","5","17","Female","","","","","","","4591.699999928474","<p> <b> That's right! </b> Lots of different images may show the same place. For example,  you may see three different images that all remind you that you are in outer space. </p>","0","comp_answer","","","","","","","","","","","","","",""
"learning-instructions","110","696252","0.0-3.0-16.0-0.0","spark_pilot_2","7420","5","17","Female","","","","","","","1111.7000000476837","<p> Good job. Remember to do your best because the amount of treasure you earn will be converted into bonus money. </p>
            <p> It’s time to start the real game! </p>","","instructions","","","","","","","","","","","","","",""
"learning-instructions","111","700137","0.0-4.0-0.0-0.0","spark_pilot_2","7420","5","17","Female","","","","","","","1106.5","<p> This time you are searching for treasure in the <b>canyon</b>.</p>","","instructions","","","","","","","","","","","","","",""
"learning-instructions","112","718924","0.0-4.0-0.0-0.1","spark_pilot_2","7420","5","17","Female","","","","","","[{""event"":""fullscreenenter"",""trial"":2,""time"":34580},{""event"":""fullscreenexit"",""trial"":11,""time"":145676},{""event"":""blur"",""trial"":38,""time"":282072},{""event"":""focus"",""trial"":38,""time"":282874},{""event"":""blur"",""trial"":38,""time"":283248},{""event"":""focus"",""trial"":38,""time"":284595},{""event"":""blur"",""trial"":55,""time"":357044},{""event"":""focus"",""trial"":57,""time"":357994},{""event"":""blur"",""trial"":57,""time"":362111},{""event"":""focus"",""trial"":57,""time"":363450},{""event"":""blur"",""trial"":57,""time"":366167},{""event"":""focus"",""trial"":57,""time"":368027},{""event"":""blur"",""trial"":57,""time"":368030},{""event"":""focus"",""trial"":57,""time"":374164},{""event"":""blur"",""trial"":57,""time"":375936},{""event"":""focus"",""trial"":57,""time"":378523},{""event"":""blur"",""trial"":57,""time"":378542},{""event"":""focus"",""trial"":57,""time"":378561},{""event"":""blur"",""trial"":57,""time"":382254},{""event"":""focus"",""trial"":57,""time"":386616},{""event"":""blur"",""trial"":61,""time"":419980},{""event"":""focus"",""trial"":61,""time"":422321},{""event"":""blur"",""trial"":93,""time"":563288},{""event"":""focus"",""trial"":93,""time"":563952},{""event"":""blur"",""trial"":103,""time"":612156},{""event"":""focus"",""trial"":103,""time"":613330},{""event"":""blur"",""trial"":106,""time"":636781},{""event"":""focus"",""trial"":106,""time"":637614},{""event"":""blur"",""trial"":107,""time"":656988},{""event"":""focus"",""trial"":107,""time"":657519},{""event"":""blur"",""trial"":113,""time"":728559},{""event"":""focus"",""trial"":113,""time"":729800}]","1462.6000000238419","<p><b>New</b> animals with <b>new</b> treasure chests live here. You need to explore to discover where the animal with the best treasure chest is.</p>
                    <p> Like before, once you figure out which animal has the chest with the most treasure, you should try to get to that animal and select that chest! </p>","","instructions","","","","","","","","","","","","","",""
"learning-instructions","113","735908","0.0-4.0-1.0-0.0","spark_pilot_2","7420","5","17","Female","","","","","","","2257","<p> Remember, when you see a picture of the place, use the up and down keys to <b>find an animal</b>.</p>
            <p> When you encounter an animal, you should use the left and right keys to <b>select a treasure chest</b>.</p>
            <p> Don't forget to look out for the robber! </p>","","instructions","","","","","","","","","","","","","",""
"revaluation","114","741913","0.0-4.0-2.0-0.0","spark_pilot_2","7420","5","17","Female","","false","","","","","[1746,691.8999999761581]","./assets/img/canyon/memory/10.jpg","[""ArrowUp"",""ArrowRight""]","value training","canyon","10","{""ArrowUp,ArrowLeft"":26,""ArrowUp,ArrowRight"":10,""ArrowDown,ArrowLeft"":5,""ArrowDown,ArrowRight"":17}","false","ArrowUp,ArrowRight","false","","","original","1","0","","",""
"html-keyboard-response","115","742418","0.0-4.0-2.0-1.0","spark_pilot_2","7420","5","17","Female","","","","","","","null","<div style=""font-size:60px;"">+</div>","null","fixation","","","","","","","","","","","1","","",""
"revaluation","116","748421","0.0-4.0-2.0-0.1","spark_pilot_2","7420","5","17","Female","","false","","","","","[495,745.8999999761581]","./assets/img/canyon/memory/21.jpg","[""ArrowUp"",""ArrowLeft""]","value training","canyon","26","{""ArrowUp,ArrowLeft"":26,""ArrowUp,ArrowRight"":10,""ArrowDown,ArrowLeft"":5,""ArrowDown,ArrowRight"":17}","true","ArrowUp,ArrowLeft","false","","","original","1","2","","",""
"html-keyboard-response","117","748922","0.0-4.0-2.0-1.1","spark_pilot_2","7420","5","17","Female","","","","","","","null","<div style=""font-size:60px;"">+</div>","null","fixation","","","","","","","","","","","3","","",""
"revaluation","118","754925","0.0-4.0-2.0-0.2","spark_pilot_2","7420","5","17","Female","","false","","","","","[936.5,339.10000002384186]","./assets/img/canyon/memory/21.jpg","[""ArrowUp"",""ArrowLeft""]","value training","canyon","26","{""ArrowUp,ArrowLeft"":26,""ArrowUp,ArrowRight"":10,""ArrowDown,ArrowLeft"":5,""ArrowDown,ArrowRight"":17}","true","ArrowUp,ArrowLeft","false","","","original","1","4","","",""
"html-keyboard-response","119","755426","0.0-4.0-2.0-1.2","spark_pilot_2","7420","5","17","Female","","","","","","","null","<div style=""font-size:60px;"">+</div>","null","fixation","","","","","","","","","","","5","","",""
"revaluation","120","761431","0.0-4.0-2.0-0.3","spark_pilot_2","7420","5","17","Female","","false","","","","","[431.90000009536743,577.2000000476837]","./assets/img/canyon/memory/24.jpg","[""ArrowUp"",""ArrowLeft""]","value training","canyon","26","{""ArrowUp,ArrowLeft"":26,""ArrowUp,ArrowRight"":10,""ArrowDown,ArrowLeft"":5,""ArrowDown,ArrowRight"":17}","true","ArrowUp,ArrowLeft","false","","","original","1","6","","",""
"html-keyboard-response","121","761932","0.0-4.0-2.0-1.3","spark_pilot_2","7420","5","17","Female","","","","","","","null","<div style=""font-size:60px;"">+</div>","null","fixation","","","","","","","","","","","7","","",""
"revaluation","122","767936","0.0-4.0-2.0-0.4","spark_pilot_2","7420","5","17","Female","","false","","","","","[329.39999997615814,423]","./assets/img/canyon/memory/15.jpg","[""ArrowDown"",""ArrowRight""]","value training","canyon","17","{""ArrowUp,ArrowLeft"":26,""ArrowUp,ArrowRight"":10,""ArrowDown,ArrowLeft"":5,""ArrowDown,ArrowRight"":17}","false","ArrowDown,ArrowRight","false","","","original","1","8","","",""
"html-keyboard-response","123","768438","0.0-4.0-2.0-1.4","spark_pilot_2","7420","5","17","Female","","","","","","","null","<div style=""font-size:60px;"">+</div>","null","fixation","","","","","","","","","","","9","","",""
"revaluation","124","774443","0.0-4.0-2.0-0.5","spark_pilot_2","7420","5","17","Female","","false","","","","","[330.8000000715256,387.5]","./assets/img/canyon/memory/29.jpg","[""ArrowUp"",""ArrowLeft""]","value training","canyon","26","{""ArrowUp,ArrowLeft"":26,""ArrowUp,ArrowRight"":10,""ArrowDown,ArrowLeft"":5,""ArrowDown,ArrowRight"":17}","true","ArrowUp,ArrowLeft","false","","","original","1","10","","",""
"html-keyboard-response","125","774945","0.0-4.0-2.0-1.5","spark_pilot_2","7420","5","17","Female","","","","","","","null","<div style=""font-size:60px;"">+</div>","null","fixation","","","","","","","","","","","11","","",""
"revaluation","126","778950","0.0-4.0-2.0-0.6","spark_pilot_2","7420","5","17","Female","","false","","","","","[365]","./assets/img/canyon/catch/4.jpg","[""ArrowUp""]","value training","canyon","-10","{""ArrowUp,ArrowLeft"":26,""ArrowUp,ArrowRight"":10,""ArrowDown,ArrowLeft"":5,""ArrowDown,ArrowRight"":17}","false","ArrowUp","true","","","original","1","12","","",""
"html-keyboard-response","127","779452","0.0-4.0-2.0-1.6","spark_pilot_2","7420","5","17","Female","","","","","","","null","<div style=""font-size:60px;"">+</div>","null","fixation","","","","","","","","","","","13","","",""
"revaluation","128","785458","0.0-4.0-2.0-0.7","spark_pilot_2","7420","5","17","Female","","false","","","","","[809.7999999523163,579.2000000476837]","./assets/img/canyon/memory/27.jpg","[""ArrowUp"",""ArrowLeft""]","value training","canyon","26","{""ArrowUp,ArrowLeft"":26,""ArrowUp,ArrowRight"":10,""ArrowDown,ArrowLeft"":5,""ArrowDown,ArrowRight"":17}","true","ArrowUp,ArrowLeft","false","","","original","1","14","","",""
"html-keyboard-response","129","785959","0.0-4.0-2.0-1.7","spark_pilot_2","7420","5","17","Female","","","","","","","null","<div style=""font-size:60px;"">+</div>","null","fixation","","","","","","","","","","","15","","",""
"revaluation","130","791964","0.0-4.0-2.0-0.8","spark_pilot_2","7420","5","17","Female","","false","","","","","[582.1000000238419,442.2999999523163]","./assets/img/canyon/memory/25.jpg","[""ArrowUp"",""ArrowLeft""]","value training","canyon","26","{""ArrowUp,ArrowLeft"":26,""ArrowUp,ArrowRight"":10,""ArrowDown,ArrowLeft"":5,""ArrowDown,ArrowRight"":17}","true","ArrowUp,ArrowLeft","false","","","original","1","16","","",""
"html-keyboard-response","131","792465","0.0-4.0-2.0-1.8","spark_pilot_2","7420","5","17","Female","","","","","","","null","<div style=""font-size:60px;"">+</div>","null","fixation","","","","","","","","","","","17","","",""
"revaluation","132","798469","0.0-4.0-2.0-0.9","spark_pilot_2","7420","5","17","Female","","false","","","","","[420.39999997615814,326.39999997615814]","./assets/img/canyon/memory/22.jpg","[""ArrowUp"",""ArrowLeft""]","value training","canyon","26","{""ArrowUp,ArrowLeft"":26,""ArrowUp,ArrowRight"":10,""ArrowDown,ArrowLeft"":5,""ArrowDown,ArrowRight"":17}","true","ArrowUp,ArrowLeft","false","","","original","1","18","","",""
"html-keyboard-response","133","798970","0.0-4.0-2.0-1.9","spark_pilot_2","7420","5","17","Female","","","","","","","null","<div style=""font-size:60px;"">+</div>","null","fixation","","","","","","","","","","","19","","",""
"revaluation","134","804977","0.0-4.0-2.0-0.10","spark_pilot_2","7420","5","17","Female","","false","","","","","[406.90000009536743,393.1999999284744]","./assets/img/canyon/memory/35.jpg","[""ArrowUp"",""ArrowLeft""]","value training","canyon","26","{""ArrowUp,ArrowLeft"":26,""ArrowUp,ArrowRight"":10,""ArrowDown,ArrowLeft"":5,""ArrowDown,ArrowRight"":17}","true","ArrowUp,ArrowLeft","false","","","original","1","20","","",""
"html-keyboard-response","135","805479","0.0-4.0-2.0-1.10","spark_pilot_2","7420","5","17","Female","","","","","","","null","<div style=""font-size:60px;"">+</div>","null","fixation","","","","","","","","","","","21","","",""
"revaluation","136","811484","0.0-4.0-2.0-0.11","spark_pilot_2","7420","5","17","Female","","false","","","","","[521.5,288.2999999523163]","./assets/img/canyon/memory/36.jpg","[""ArrowUp"",""ArrowLeft""]","value training","canyon","26","{""ArrowUp,ArrowLeft"":26,""ArrowUp,ArrowRight"":10,""ArrowDown,ArrowLeft"":5,""ArrowDown,ArrowRight"":17}","true","ArrowUp,ArrowLeft","false","","","original","1","22","","",""
"html-keyboard-response","137","811985","0.0-4.0-2.0-1.11","spark_pilot_2","7420","5","17","Female","","","","","","","null","<div style=""font-size:60px;"">+</div>","null","fixation","","","","","","","","","","","23","","",""
"revaluation","138","817989","0.0-4.0-2.0-0.12","spark_pilot_2","7420","5","17","Female","","false","","","","","[477.10000002384186,444.60000002384186]","./assets/img/canyon/memory/34.jpg","[""ArrowUp"",""ArrowLeft""]","value training","canyon","26","{""ArrowUp,ArrowLeft"":26,""ArrowUp,ArrowRight"":10,""ArrowDown,ArrowLeft"":5,""ArrowDown,ArrowRight"":17}","true","ArrowUp,ArrowLeft","false","","","original","1","24","","",""
"html-keyboard-response","139","818491","0.0-4.0-2.0-1.12","spark_pilot_2","7420","5","17","Female","","","","","","","null","<div style=""font-size:60px;"">+</div>","null","fixation","","","","","","","","","","","25","","",""
"revaluation","140","822495","0.0-4.0-2.0-0.13","spark_pilot_2","7420","5","17","Female","","false","","","","","[701.7000000476837]","./assets/img/canyon/catch/0.jpg","[""ArrowUp""]","value training","canyon","-10","{""ArrowUp,ArrowLeft"":26,""ArrowUp,ArrowRight"":10,""ArrowDown,ArrowLeft"":5,""ArrowDown,ArrowRight"":17}","false","ArrowUp","true","","","original","1","26","","",""
"html-keyboard-response","141","822997","0.0-4.0-2.0-1.13","spark_pilot_2","7420","5","17","Female","","","","","","","null","<div style=""font-size:60px;"">+</div>","null","fixation","","","","","","","","","","","27","","",""
"revaluation","142","827006","0.0-4.0-2.0-0.14","spark_pilot_2","7420","5","17","Female","","true","","","","","[]","./assets/img/canyon/memory/23.jpg","[]","value training","canyon","-5","{""ArrowUp,ArrowLeft"":26,""ArrowUp,ArrowRight"":10,""ArrowDown,ArrowLeft"":5,""ArrowDown,ArrowRight"":17}","false","","false","","","original","1","28","","",""
"html-keyboard-response","143","827509","0.0-4.0-2.0-1.14","spark_pilot_2","7420","5","17","Female","","","","","","","null","<div style=""font-size:60px;"">+</div>","null","fixation","","","","","","","","","","","29","","",""
"revaluation","144","833514","0.0-4.0-2.0-0.15","spark_pilot_2","7420","5","17","Female","","false","","","","","[584.7000000476837,502.5]","./assets/img/canyon/memory/18.jpg","[""ArrowUp"",""ArrowLeft""]","value training","canyon","26","{""ArrowUp,ArrowLeft"":26,""ArrowUp,ArrowRight"":10,""ArrowDown,ArrowLeft"":5,""ArrowDown,ArrowRight"":17}","true","ArrowUp,ArrowLeft","false","","","original","1","30","","",""
"html-keyboard-response","145","834016","0.0-4.0-2.0-1.15","spark_pilot_2","7420","5","17","Female","","","","","","","null","<div style=""font-size:60px;"">+</div>","null","fixation","","","","","","","","","","","31","","",""
"revaluation","146","838019","0.0-4.0-2.0-0.16","spark_pilot_2","7420","5","17","Female","","false","","","","","[557.7000000476837]","./assets/img/canyon/catch/6.jpg","[""spaceBar""]","value training","canyon","0","{""ArrowUp,ArrowLeft"":26,""ArrowUp,ArrowRight"":10,""ArrowDown,ArrowLeft"":5,""ArrowDown,ArrowRight"":17}","true","spaceBar","true","","","original","1","32","","",""
"html-keyboard-response","147","838521","0.0-4.0-2.0-1.16","spark_pilot_2","7420","5","17","Female","","","","","","","null","<div style=""font-size:60px;"">+</div>","null","fixation","","","","","","","","","","","33","","",""
"revaluation","148","844530","0.0-4.0-2.0-0.17","spark_pilot_2","7420","5","17","Female","","false","","","","","[451,278.8000000715256]","./assets/img/canyon/memory/20.jpg","[""ArrowUp"",""ArrowLeft""]","value training","canyon","26","{""ArrowUp,ArrowLeft"":26,""ArrowUp,ArrowRight"":10,""ArrowDown,ArrowLeft"":5,""ArrowDown,ArrowRight"":17}","true","ArrowUp,ArrowLeft","false","","","original","1","34","","",""
"html-keyboard-response","149","845032","0.0-4.0-2.0-1.17","spark_pilot_2","7420","5","17","Female","","","","","","","null","<div style=""font-size:60px;"">+</div>","null","fixation","","","","","","","","","","","35","","",""
"revaluation","150","851037","0.0-4.0-2.0-0.18","spark_pilot_2","7420","5","17","Female","","false","","","","","[715.3000000715256,465.1999999284744]","./assets/img/canyon/memory/37.jpg","[""ArrowUp"",""ArrowLeft""]","value training","canyon","26","{""ArrowUp,ArrowLeft"":26,""ArrowUp,ArrowRight"":10,""ArrowDown,ArrowLeft"":5,""ArrowDown,ArrowRight"":17}","true","ArrowUp,ArrowLeft","false","","","original","1","36","","",""
"html-keyboard-response","151","851539","0.0-4.0-2.0-1.18","spark_pilot_2","7420","5","17","Female","","","","","","","null","<div style=""font-size:60px;"">+</div>","null","fixation","","","","","","","","","","","37","","",""
"revaluation","152","855542","0.0-4.0-2.0-0.19","spark_pilot_2","7420","5","17","Female","","false","","","","","[585.5]","./assets/img/canyon/catch/5.jpg","[""spaceBar""]","value training","canyon","0","{""ArrowUp,ArrowLeft"":26,""ArrowUp,ArrowRight"":10,""ArrowDown,ArrowLeft"":5,""ArrowDown,ArrowRight"":17}","true","spaceBar","true","","","original","1","38","","",""
"html-keyboard-response","153","856044","0.0-4.0-2.0-1.19","spark_pilot_2","7420","5","17","Female","","","","","","","null","<div style=""font-size:60px;"">+</div>","null","fixation","","","","","","","","","","","39","","",""
"revaluation","154","862049","0.0-4.0-2.0-0.20","spark_pilot_2","7420","5","17","Female","","false","","","","","[972.5,610.2000000476837]","./assets/img/canyon/memory/27.jpg","[""ArrowUp"",""ArrowLeft""]","value training","canyon","26","{""ArrowUp,ArrowLeft"":26,""ArrowUp,ArrowRight"":10,""ArrowDown,ArrowLeft"":5,""ArrowDown,ArrowRight"":17}","true","ArrowUp,ArrowLeft","false","","","original","1","40","","",""
"html-keyboard-response","155","862550","0.0-4.0-2.0-1.20","spark_pilot_2","7420","5","17","Female","","","","","","","null","<div style=""font-size:60px;"">+</div>","null","fixation","","","","","","","","","","","41","","",""
"revaluation","156","868556","0.0-4.0-2.0-0.21","spark_pilot_2","7420","5","17","Female","","false","","","","","[779.1000000238419,424.3000000715256]","./assets/img/canyon/memory/37.jpg","[""ArrowUp"",""ArrowLeft""]","value training","canyon","26","{""ArrowUp,ArrowLeft"":26,""ArrowUp,ArrowRight"":10,""ArrowDown,ArrowLeft"":5,""ArrowDown,ArrowRight"":17}","true","ArrowUp,ArrowLeft","false","","","original","1","42","","",""
"html-keyboard-response","157","869059","0.0-4.0-2.0-1.21","spark_pilot_2","7420","5","17","Female","","","","","","","null","<div style=""font-size:60px;"">+</div>","null","fixation","","","","","","","","","","","43","","",""
"revaluation","158","875067","0.0-4.0-2.0-0.22","spark_pilot_2","7420","5","17","Female","","false","","","","","[645.9000000953674,828.9000000953674]","./assets/img/canyon/memory/30.jpg","[""ArrowUp"",""ArrowLeft""]","value training","canyon","26","{""ArrowUp,ArrowLeft"":26,""ArrowUp,ArrowRight"":10,""ArrowDown,ArrowLeft"":5,""ArrowDown,ArrowRight"":17}","true","ArrowUp,ArrowLeft","false","","","original","1","44","","",""
"html-keyboard-response","159","875568","0.0-4.0-2.0-1.22","spark_pilot_2","7420","5","17","Female","","","","","","","null","<div style=""font-size:60px;"">+</div>","null","fixation","","","","","","","","","","","45","","",""
"revaluation","160","879571","0.0-4.0-2.0-0.23","spark_pilot_2","7420","5","17","Female","","false","","","","","[653]","./assets/img/canyon/catch/3.jpg","[""spaceBar""]","value training","canyon","0","{""ArrowUp,ArrowLeft"":26,""ArrowUp,ArrowRight"":10,""ArrowDown,ArrowLeft"":5,""ArrowDown,ArrowRight"":17}","true","spaceBar","true","","","original","1","46","","",""
"html-keyboard-response","161","880073","0.0-4.0-2.0-1.23","spark_pilot_2","7420","5","17","Female","","","","","","","null","<div style=""font-size:60px;"">+</div>","null","fixation","","","","","","","","","","","47","","",""
"revaluation","162","886077","0.0-4.0-2.0-0.24","spark_pilot_2","7420","5","17","Female","","false","","","","","[946.3999999761581,384.10000002384186]","./assets/img/canyon/memory/16.jpg","[""ArrowUp"",""ArrowLeft""]","value training","canyon","26","{""ArrowUp,ArrowLeft"":26,""ArrowUp,ArrowRight"":10,""ArrowDown,ArrowLeft"":5,""ArrowDown,ArrowRight"":17}","true","ArrowUp,ArrowLeft","false","","","original","1","48","","",""
"html-keyboard-response","163","886580","0.0-4.0-2.0-1.24","spark_pilot_2","7420","5","17","Female","","","","","","","null","<div style=""font-size:60px;"">+</div>","null","fixation","","","","","","","","","","","49","","",""
"revaluation","164","892587","0.0-4.0-2.0-0.25","spark_pilot_2","7420","5","17","Female","","false","","","","","[525.2999999523163,309.60000002384186]","./assets/img/canyon/memory/22.jpg","[""ArrowUp"",""ArrowLeft""]","value training","canyon","26","{""ArrowUp,ArrowLeft"":26,""ArrowUp,ArrowRight"":10,""ArrowDown,ArrowLeft"":5,""ArrowDown,ArrowRight"":17}","true","ArrowUp,ArrowLeft","false","","","original","1","50","","",""
"html-keyboard-response","165","893089","0.0-4.0-2.0-1.25","spark_pilot_2","7420","5","17","Female","","","","","","","null","<div style=""font-size:60px;"">+</div>","null","fixation","","","","","","","","","","","51","","",""
"revaluation","166","899097","0.0-4.0-2.0-0.26","spark_pilot_2","7420","5","17","Female","","false","","","","","[443.39999997615814,343.10000002384186]","./assets/img/canyon/memory/33.jpg","[""ArrowUp"",""ArrowLeft""]","value training","canyon","26","{""ArrowUp,ArrowLeft"":26,""ArrowUp,ArrowRight"":10,""ArrowDown,ArrowLeft"":5,""ArrowDown,ArrowRight"":17}","true","ArrowUp,ArrowLeft","false","","","original","1","52","","",""
"html-keyboard-response","167","899598","0.0-4.0-2.0-1.26","spark_pilot_2","7420","5","17","Female","","","","","","","null","<div style=""font-size:60px;"">+</div>","null","fixation","","","","","","","","","","","53","","",""
"revaluation","168","905604","0.0-4.0-2.0-0.27","spark_pilot_2","7420","5","17","Female","","false","","","","","[502.7000000476837,395.2999999523163]","./assets/img/canyon/memory/20.jpg","[""ArrowUp"",""ArrowLeft""]","value training","canyon","26","{""ArrowUp,ArrowLeft"":26,""ArrowUp,ArrowRight"":10,""ArrowDown,ArrowLeft"":5,""ArrowDown,ArrowRight"":17}","true","ArrowUp,ArrowLeft","false","","","original","1","54","","",""
"html-keyboard-response","169","906106","0.0-4.0-2.0-1.27","spark_pilot_2","7420","5","17","Female","","","","","","","null","<div style=""font-size:60px;"">+</div>","null","fixation","","","","","","","","","","","55","","",""
"revaluation","170","912112","0.0-4.0-2.0-0.28","spark_pilot_2","7420","5","17","Female","","false","","","","","[803.7999999523163,950]","./assets/img/canyon/memory/23.jpg","[""ArrowUp"",""ArrowLeft""]","value training","canyon","26","{""ArrowUp,ArrowLeft"":26,""ArrowUp,ArrowRight"":10,""ArrowDown,ArrowLeft"":5,""ArrowDown,ArrowRight"":17}","true","ArrowUp,ArrowLeft","false","","","original","1","56","","",""
"html-keyboard-response","171","912614","0.0-4.0-2.0-1.28","spark_pilot_2","7420","5","17","Female","","","","","","","null","<div style=""font-size:60px;"">+</div>","null","fixation","","","","","","","","","","","57","","",""
"revaluation","172","918620","0.0-4.0-2.0-0.29","spark_pilot_2","7420","5","17","Female","","false","","","","","[614.8000000715256,505.90000009536743]","./assets/img/canyon/memory/30.jpg","[""ArrowUp"",""ArrowLeft""]","value training","canyon","26","{""ArrowUp,ArrowLeft"":26,""ArrowUp,ArrowRight"":10,""ArrowDown,ArrowLeft"":5,""ArrowDown,ArrowRight"":17}","true","ArrowUp,ArrowLeft","false","","","original","1","58","","",""
"html-keyboard-response","173","919123","0.0-4.0-2.0-1.29","spark_pilot_2","7420","5","17","Female","","","","","","","null","<div style=""font-size:60px;"">+</div>","null","fixation","","","","","","","","","","","59","","",""
"revaluation","174","925129","0.0-4.0-2.0-0.30","spark_pilot_2","7420","5","17","Female","","false","","","","","[530.2999999523163,439.39999997615814]","./assets/img/canyon/memory/39.jpg","[""ArrowUp"",""ArrowLeft""]","value training","canyon","26","{""ArrowUp,ArrowLeft"":26,""ArrowUp,ArrowRight"":10,""ArrowDown,ArrowLeft"":5,""ArrowDown,ArrowRight"":17}","true","ArrowUp,ArrowLeft","false","","","original","1","60","","",""
"html-keyboard-response","175","925631","0.0-4.0-2.0-1.30","spark_pilot_2","7420","5","17","Female","","","","","","","null","<div style=""font-size:60px;"">+</div>","null","fixation","","","","","","","","","","","61","","",""
"revaluation","176","931640","0.0-4.0-2.0-0.31","spark_pilot_2","7420","5","17","Female","","false","","","","","[1268.1000000238419,569.0999999046326]","./assets/img/canyon/memory/25.jpg","[""ArrowUp"",""ArrowLeft""]","value training","canyon","26","{""ArrowUp,ArrowLeft"":26,""ArrowUp,ArrowRight"":10,""ArrowDown,ArrowLeft"":5,""ArrowDown,ArrowRight"":17}","true","ArrowUp,ArrowLeft","false","","","original","1","62","","",""
"html-keyboard-response","177","932142","0.0-4.0-2.0-1.31","spark_pilot_2","7420","5","17","Female","","","","","","","null","<div style=""font-size:60px;"">+</div>","null","fixation","","","","","","","","","","","63","","",""
"revaluation","178","938149","0.0-4.0-2.0-0.32","spark_pilot_2","7420","5","17","Female","","false","","","","","[475,529.4000000953674]","./assets/img/canyon/memory/16.jpg","[""ArrowUp"",""ArrowLeft""]","value training","canyon","26","{""ArrowUp,ArrowLeft"":26,""ArrowUp,ArrowRight"":10,""ArrowDown,ArrowLeft"":5,""ArrowDown,ArrowRight"":17}","true","ArrowUp,ArrowLeft","false","","","original","1","64","","",""
"html-keyboard-response","179","938651","0.0-4.0-2.0-1.32","spark_pilot_2","7420","5","17","Female","","","","","","","null","<div style=""font-size:60px;"">+</div>","null","fixation","","","","","","","","","","","65","","",""
"revaluation","180","942655","0.0-4.0-2.0-0.33","spark_pilot_2","7420","5","17","Female","","false","","","","","[937.6000000238419]","./assets/img/canyon/catch/1.jpg","[""spaceBar""]","value training","canyon","0","{""ArrowUp,ArrowLeft"":26,""ArrowUp,ArrowRight"":10,""ArrowDown,ArrowLeft"":5,""ArrowDown,ArrowRight"":17}","true","spaceBar","true","","","original","1","66","","",""
"html-keyboard-response","181","943157","0.0-4.0-2.0-1.33","spark_pilot_2","7420","5","17","Female","","","","","","","null","<div style=""font-size:60px;"">+</div>","null","fixation","","","","","","","","","","","67","","",""
"revaluation","182","949164","0.0-4.0-2.0-0.34","spark_pilot_2","7420","5","17","Female","","false","","","","","[474.8000000715256,508.10000002384186]","./assets/img/canyon/memory/33.jpg","[""ArrowUp"",""ArrowLeft""]","value training","canyon","26","{""ArrowUp,ArrowLeft"":26,""ArrowUp,ArrowRight"":10,""ArrowDown,ArrowLeft"":5,""ArrowDown,ArrowRight"":17}","true","ArrowUp,ArrowLeft","false","","","original","1","68","","",""
"html-keyboard-response","183","949666","0.0-4.0-2.0-1.34","spark_pilot_2","7420","5","17","Female","","","","","","","null","<div style=""font-size:60px;"">+</div>","null","fixation","","","","","","","","","","","69","","",""
"revaluation","184","955674","0.0-4.0-2.0-0.35","spark_pilot_2","7420","5","17","Female","","false","","","","","[842.2000000476837,394.2000000476837]","./assets/img/canyon/memory/35.jpg","[""ArrowUp"",""ArrowLeft""]","value training","canyon","26","{""ArrowUp,ArrowLeft"":26,""ArrowUp,ArrowRight"":10,""ArrowDown,ArrowLeft"":5,""ArrowDown,ArrowRight"":17}","true","ArrowUp,ArrowLeft","false","","","original","1","70","","",""
"html-keyboard-response","185","956176","0.0-4.0-2.0-1.35","spark_pilot_2","7420","5","17","Female","","","","","","","null","<div style=""font-size:60px;"">+</div>","null","fixation","","","","","","","","","","","71","","",""
"revaluation","186","962182","0.0-4.0-2.0-0.36","spark_pilot_2","7420","5","17","Female","","false","","","","","[660.1000000238419,297.39999997615814]","./assets/img/canyon/memory/10.jpg","[""ArrowUp"",""ArrowLeft""]","value training","canyon","26","{""ArrowUp,ArrowLeft"":26,""ArrowUp,ArrowRight"":10,""ArrowDown,ArrowLeft"":5,""ArrowDown,ArrowRight"":17}","true","ArrowUp,ArrowLeft","false","","","original","1","72","","",""
"html-keyboard-response","187","962684","0.0-4.0-2.0-1.36","spark_pilot_2","7420","5","17","Female","","","","","","","null","<div style=""font-size:60px;"">+</div>","null","fixation","","","","","","","","","","","73","","",""
"revaluation","188","966687","0.0-4.0-2.0-0.37","spark_pilot_2","7420","5","17","Female","","false","","","","","[889.7999999523163]","./assets/img/canyon/catch/2.jpg","[""spaceBar""]","value training","canyon","0","{""ArrowUp,ArrowLeft"":26,""ArrowUp,ArrowRight"":10,""ArrowDown,ArrowLeft"":5,""ArrowDown,ArrowRight"":17}","true","spaceBar","true","","","original","1","74","","",""
"html-keyboard-response","189","967190","0.0-4.0-2.0-1.37","spark_pilot_2","7420","5","17","Female","","","","","","","null","<div style=""font-size:60px;"">+</div>","null","fixation","","","","","","","","","","","75","","",""
"revaluation","190","973194","0.0-4.0-2.0-0.38","spark_pilot_2","7420","5","17","Female","","false","","","","","[512.2999999523163,698.5]","./assets/img/canyon/memory/1.jpg","[""ArrowUp"",""ArrowLeft""]","value training","canyon","26","{""ArrowUp,ArrowLeft"":26,""ArrowUp,ArrowRight"":10,""ArrowDown,ArrowLeft"":5,""ArrowDown,ArrowRight"":17}","true","ArrowUp,ArrowLeft","false","","","original","1","76","","",""
"html-keyboard-response","191","973696","0.0-4.0-2.0-1.38","spark_pilot_2","7420","5","17","Female","","","","","","","null","<div style=""font-size:60px;"">+</div>","null","fixation","","","","","","","","","","","77","","",""
"revaluation","192","979700","0.0-4.0-2.0-0.39","spark_pilot_2","7420","5","17","Female","","false","","","","","[563.5,633.8999999761581]","./assets/img/canyon/memory/36.jpg","[""ArrowUp"",""ArrowLeft""]","value training","canyon","26","{""ArrowUp,ArrowLeft"":26,""ArrowUp,ArrowRight"":10,""ArrowDown,ArrowLeft"":5,""ArrowDown,ArrowRight"":17}","true","ArrowUp,ArrowLeft","false","","","original","1","78","","",""
"html-keyboard-response","193","980201","0.0-4.0-2.0-1.39","spark_pilot_2","7420","5","17","Female","","","","","","","null","<div style=""font-size:60px;"">+</div>","null","fixation","","","","","","","","","","","79","","",""
"revaluation","194","986208","0.0-4.0-2.0-0.40","spark_pilot_2","7420","5","17","Female","","false","","","","","[719.8000000715256,305.2999999523163]","./assets/img/canyon/memory/38.jpg","[""ArrowUp"",""ArrowLeft""]","value training","canyon","26","{""ArrowUp,ArrowLeft"":26,""ArrowUp,ArrowRight"":10,""ArrowDown,ArrowLeft"":5,""ArrowDown,ArrowRight"":17}","true","ArrowUp,ArrowLeft","false","","","original","1","80","","",""
"html-keyboard-response","195","986710","0.0-4.0-2.0-1.40","spark_pilot_2","7420","5","17","Female","","","","","","","null","<div style=""font-size:60px;"">+</div>","null","fixation","","","","","","","","","","","81","","",""
"revaluation","196","992715","0.0-4.0-2.0-0.41","spark_pilot_2","7420","5","17","Female","","false","","","","","[522.3999999761581,400]","./assets/img/canyon/memory/24.jpg","[""ArrowUp"",""ArrowLeft""]","value training","canyon","26","{""ArrowUp,ArrowLeft"":26,""ArrowUp,ArrowRight"":10,""ArrowDown,ArrowLeft"":5,""ArrowDown,ArrowRight"":17}","true","ArrowUp,ArrowLeft","false","","","original","1","82","","",""
"html-keyboard-response","197","993217","0.0-4.0-2.0-1.41","spark_pilot_2","7420","5","17","Female","","","","","","","null","<div style=""font-size:60px;"">+</div>","null","fixation","","","","","","","","","","","83","","",""
"revaluation","198","999224","0.0-4.0-2.0-0.42","spark_pilot_2","7420","5","17","Female","","false","","","","","[1182.5,552.6999999284744]","./assets/img/canyon/memory/38.jpg","[""ArrowUp"",""ArrowLeft""]","value training","canyon","26","{""ArrowUp,ArrowLeft"":26,""ArrowUp,ArrowRight"":10,""ArrowDown,ArrowLeft"":5,""ArrowDown,ArrowRight"":17}","true","ArrowUp,ArrowLeft","false","","","original","1","84","","",""
"html-keyboard-response","199","999725","0.0-4.0-2.0-1.42","spark_pilot_2","7420","5","17","Female","","","","","","","null","<div style=""font-size:60px;"">+</div>","null","fixation","","","","","","","","","","","85","","",""
"revaluation","200","1005731","0.0-4.0-2.0-0.43","spark_pilot_2","7420","5","17","Female","","false","","","","","[711.5,389.59999990463257]","./assets/img/canyon/memory/15.jpg","[""ArrowUp"",""ArrowLeft""]","value training","canyon","26","{""ArrowUp,ArrowLeft"":26,""ArrowUp,ArrowRight"":10,""ArrowDown,ArrowLeft"":5,""ArrowDown,ArrowRight"":17}","true","ArrowUp,ArrowLeft","false","","","original","1","86","","",""
"html-keyboard-response","201","1006233","0.0-4.0-2.0-1.43","spark_pilot_2","7420","5","17","Female","","","","","","","null","<div style=""font-size:60px;"">+</div>","null","fixation","","","","","","","","","","","87","","",""
"revaluation","202","1012239","0.0-4.0-2.0-0.44","spark_pilot_2","7420","5","17","Female","","false","","","","","[736.6000000238419,1171.1999999284744]","./assets/img/canyon/memory/1.jpg","[""ArrowUp"",""ArrowLeft""]","value training","canyon","26","{""ArrowUp,ArrowLeft"":26,""ArrowUp,ArrowRight"":10,""ArrowDown,ArrowLeft"":5,""ArrowDown,ArrowRight"":17}","true","ArrowUp,ArrowLeft","false","","","original","1","88","","",""
"html-keyboard-response","203","1012740","0.0-4.0-2.0-1.44","spark_pilot_2","7420","5","17","Female","","","","","","","null","<div style=""font-size:60px;"">+</div>","null","fixation","","","","","","","","","","","89","","",""
"revaluation","204","1018744","0.0-4.0-2.0-0.45","spark_pilot_2","7420","5","17","Female","","false","","","","","[465.7999999523163,382.10000002384186]","./assets/img/canyon/memory/29.jpg","[""ArrowUp"",""ArrowLeft""]","value training","canyon","26","{""ArrowUp,ArrowLeft"":26,""ArrowUp,ArrowRight"":10,""ArrowDown,ArrowLeft"":5,""ArrowDown,ArrowRight"":17}","true","ArrowUp,ArrowLeft","false","","","original","1","90","","",""
"html-keyboard-response","205","1019246","0.0-4.0-2.0-1.45","spark_pilot_2","7420","5","17","Female","","","","","","","null","<div style=""font-size:60px;"">+</div>","null","fixation","","","","","","","","","","","91","","",""
"revaluation","206","1025252","0.0-4.0-2.0-0.46","spark_pilot_2","7420","5","17","Female","","false","","","","","[1104.6999999284744,631]","./assets/img/canyon/memory/39.jpg","[""ArrowUp"",""ArrowLeft""]","value training","canyon","26","{""ArrowUp,ArrowLeft"":26,""ArrowUp,ArrowRight"":10,""ArrowDown,ArrowLeft"":5,""ArrowDown,ArrowRight"":17}","true","ArrowUp,ArrowLeft","false","","","original","1","92","","",""
"html-keyboard-response","207","1025753","0.0-4.0-2.0-1.46","spark_pilot_2","7420","5","17","Female","","","","","","","null","<div style=""font-size:60px;"">+</div>","null","fixation","","","","","","","","","","","93","","",""
"revaluation","208","1031760","0.0-4.0-2.0-0.47","spark_pilot_2","7420","5","17","Female","","false","","","","","[1525.8999999761581,539.2000000476837]","./assets/img/canyon/memory/18.jpg","[""ArrowUp"",""ArrowLeft""]","value training","canyon","26","{""ArrowUp,ArrowLeft"":26,""ArrowUp,ArrowRight"":10,""ArrowDown,ArrowLeft"":5,""ArrowDown,ArrowRight"":17}","true","ArrowUp,ArrowLeft","false","","","original","1","94","","",""
"html-keyboard-response","209","1032263","0.0-4.0-2.0-1.47","spark_pilot_2","7420","5","17","Female","","","","","","","null","<div style=""font-size:60px;"">+</div>","null","fixation","","","","","","","","","","","95","","",""
"revaluation","210","1038268","0.0-4.0-2.0-0.48","spark_pilot_2","7420","5","17","Female","","false","","","","","[769.5,990.5]","./assets/img/canyon/memory/34.jpg","[""ArrowUp"",""ArrowLeft""]","value training","canyon","26","{""ArrowUp,ArrowLeft"":26,""ArrowUp,ArrowRight"":10,""ArrowDown,ArrowLeft"":5,""ArrowDown,ArrowRight"":17}","true","ArrowUp,ArrowLeft","false","","","original","1","96","","",""
"html-keyboard-response","211","1038770","0.0-4.0-2.0-1.48","spark_pilot_2","7420","5","17","Female","","","","","","","null","<div style=""font-size:60px;"">+</div>","null","fixation","","","","","","","","","","","97","","",""
"revaluation","212","1042775","0.0-4.0-2.0-0.49","spark_pilot_2","7420","5","17","Female","","false","","","","","[617.3000000715256]","./assets/img/canyon/catch/7.jpg","[""spaceBar""]","value training","canyon","0","{""ArrowUp,ArrowLeft"":26,""ArrowUp,ArrowRight"":10,""ArrowDown,ArrowLeft"":5,""ArrowDown,ArrowRight"":17}","true","spaceBar","true","","","original","1","98","","",""
"html-keyboard-response","213","1043277","0.0-4.0-2.0-1.49","spark_pilot_2","7420","5","17","Female","","","","","","","null","<div style=""font-size:60px;"">+</div>","null","fixation","","","","","","","","","","","99","","",""
"learning-instructions","214","1057577","0.0-4.0-3.0-0.0","spark_pilot_2","7420","5","17","Female","","","","","","","1394.5","<p> Now, you will travel with a friend who will choose whether you go up or down first. </p>
            <p> On these turns, you will just see the animal that they found. You will still get to choose which chest to search for treasure.</p>","","instructions","","","","","","","","","","","","","",""
"revaluation","215","1061582","0.0-4.0-4.0-0.0","spark_pilot_2","7420","5","17","Female","","false","","","","","[1360.0999999046326]","./assets/img/canyon/animals/giraffe.jpg","[""ArrowRight""]","revaluation","canyon","17","{""ArrowUp,ArrowLeft"":26,""ArrowUp,ArrowRight"":10,""ArrowDown,ArrowLeft"":5,""ArrowDown,ArrowRight"":17}","true","ArrowDown,ArrowRight","","","","original","1","0","","",""
"html-keyboard-response","216","1062086","0.0-4.0-4.0-1.0","spark_pilot_2","7420","5","17","Female","","","","","","","null","<div style=""font-size:60px;"">+</div>","null","fixation","","","","","","","","","","","1","","",""
"revaluation","217","1066089","0.0-4.0-4.0-0.1","spark_pilot_2","7420","5","17","Female","","true","","","","","[]","./assets/img/canyon/animals/lion.jpg","[]","revaluation","canyon","-5","{""ArrowUp,ArrowLeft"":26,""ArrowUp,ArrowRight"":10,""ArrowDown,ArrowLeft"":5,""ArrowDown,ArrowRight"":17}","false","ArrowUp","","","","original","1","2","","",""
"html-keyboard-response","218","1066591","0.0-4.0-4.0-1.1","spark_pilot_2","7420","5","17","Female","","","","","","","null","<div style=""font-size:60px;"">+</div>","null","fixation","","","","","","","","","","","3","","",""
"revaluation","219","1070595","0.0-4.0-4.0-0.2","spark_pilot_2","7420","5","17","Female","","false","","","","","[378]","./assets/img/canyon/animals/giraffe.jpg","[""ArrowLeft""]","revaluation","canyon","5","{""ArrowUp,ArrowLeft"":26,""ArrowUp,ArrowRight"":10,""ArrowDown,ArrowLeft"":5,""ArrowDown,ArrowRight"":17}","false","ArrowDown,ArrowLeft","","","","original","1","4","","",""
"html-keyboard-response","220","1071098","0.0-4.0-4.0-1.2","spark_pilot_2","7420","5","17","Female","","","","","","","null","<div style=""font-size:60px;"">+</div>","null","fixation","","","","","","","","","","","5","","",""
"revaluation","221","1075101","0.0-4.0-4.0-0.3","spark_pilot_2","7420","5","17","Female","","false","","","","","[378.89999997615814]","./assets/img/canyon/animals/lion.jpg","[""ArrowRight""]","revaluation","canyon","10","{""ArrowUp,ArrowLeft"":26,""ArrowUp,ArrowRight"":10,""ArrowDown,ArrowLeft"":5,""ArrowDown,ArrowRight"":17}","false","ArrowUp,ArrowRight","","","","original","1","6","","",""
"html-keyboard-response","222","1075603","0.0-4.0-4.0-1.3","spark_pilot_2","7420","5","17","Female","","","","","","","null","<div style=""font-size:60px;"">+</div>","null","fixation","","","","","","","","","","","7","","",""
"revaluation","223","1079608","0.0-4.0-4.0-0.4","spark_pilot_2","7420","5","17","Female","","false","","","","","[420.3000000715256]","./assets/img/canyon/animals/lion.jpg","[""ArrowLeft""]","revaluation","canyon","26","{""ArrowUp,ArrowLeft"":26,""ArrowUp,ArrowRight"":10,""ArrowDown,ArrowLeft"":5,""ArrowDown,ArrowRight"":17}","true","ArrowUp,ArrowLeft","","","","original","1","8","","",""
"html-keyboard-response","224","1080111","0.0-4.0-4.0-1.4","spark_pilot_2","7420","5","17","Female","","","","","","","null","<div style=""font-size:60px;"">+</div>","null","fixation","","","","","","","","","","","9","","",""
"revaluation","225","1084114","0.0-4.0-4.0-0.5","spark_pilot_2","7420","5","17","Female","","false","","","","","[509.8000000715256]","./assets/img/canyon/animals/lion.jpg","[""ArrowLeft""]","revaluation","canyon","26","{""ArrowUp,ArrowLeft"":26,""ArrowUp,ArrowRight"":10,""ArrowDown,ArrowLeft"":5,""ArrowDown,ArrowRight"":17}","true","ArrowUp,ArrowLeft","","","","original","1","10","","",""
"html-keyboard-response","226","1084615","0.0-4.0-4.0-1.5","spark_pilot_2","7420","5","17","Female","","","","","","","null","<div style=""font-size:60px;"">+</div>","null","fixation","","","","","","","","","","","11","","",""
"revaluation","227","1088618","0.0-4.0-4.0-0.6","spark_pilot_2","7420","5","17","Female","","false","","","","","[427.2999999523163]","./assets/img/canyon/animals/lion.jpg","[""ArrowLeft""]","revaluation","canyon","26","{""ArrowUp,ArrowLeft"":26,""ArrowUp,ArrowRight"":10,""ArrowDown,ArrowLeft"":5,""ArrowDown,ArrowRight"":17}","true","ArrowUp,ArrowLeft","","","","original","1","12","","",""
"html-keyboard-response","228","1089120","0.0-4.0-4.0-1.6","spark_pilot_2","7420","5","17","Female","","","","","","","null","<div style=""font-size:60px;"">+</div>","null","fixation","","","","","","","","","","","13","","",""
"revaluation","229","1093127","0.0-4.0-4.0-0.7","spark_pilot_2","7420","5","17","Female","","false","","","","","[625]","./assets/img/canyon/animals/giraffe.jpg","[""ArrowRight""]","revaluation","canyon","17","{""ArrowUp,ArrowLeft"":26,""ArrowUp,ArrowRight"":10,""ArrowDown,ArrowLeft"":5,""ArrowDown,ArrowRight"":17}","true","ArrowDown,ArrowRight","","","","original","1","14","","",""
"html-keyboard-response","230","1093629","0.0-4.0-4.0-1.7","spark_pilot_2","7420","5","17","Female","","","","","","","null","<div style=""font-size:60px;"">+</div>","null","fixation","","","","","","","","","","","15","","",""
"revaluation","231","1097635","0.0-4.0-4.0-0.8","spark_pilot_2","7420","5","17","Female","","false","","","","","[585.5]","./assets/img/canyon/animals/giraffe.jpg","[""ArrowRight""]","revaluation","canyon","17","{""ArrowUp,ArrowLeft"":26,""ArrowUp,ArrowRight"":10,""ArrowDown,ArrowLeft"":5,""ArrowDown,ArrowRight"":17}","true","ArrowDown,ArrowRight","","","","original","1","16","","",""
"html-keyboard-response","232","1098136","0.0-4.0-4.0-1.8","spark_pilot_2","7420","5","17","Female","","","","","","","null","<div style=""font-size:60px;"">+</div>","null","fixation","","","","","","","","","","","17","","",""
"revaluation","233","1102140","0.0-4.0-4.0-0.9","spark_pilot_2","7420","5","17","Female","","false","","","","","[642]","./assets/img/canyon/animals/giraffe.jpg","[""ArrowRight""]","revaluation","canyon","17","{""ArrowUp,ArrowLeft"":26,""ArrowUp,ArrowRight"":10,""ArrowDown,ArrowLeft"":5,""ArrowDown,ArrowRight"":17}","true","ArrowDown,ArrowRight","","","","original","1","18","","",""
"html-keyboard-response","234","1102641","0.0-4.0-4.0-1.9","spark_pilot_2","7420","5","17","Female","","","","","","","null","<div style=""font-size:60px;"">+</div>","null","fixation","","","","","","","","","","","19","","",""
"revaluation","235","1106645","0.0-4.0-4.0-0.10","spark_pilot_2","7420","5","17","Female","","false","","","","","[643.2999999523163]","./assets/img/canyon/animals/lion.jpg","[""ArrowLeft""]","revaluation","canyon","26","{""ArrowUp,ArrowLeft"":26,""ArrowUp,ArrowRight"":10,""ArrowDown,ArrowLeft"":5,""ArrowDown,ArrowRight"":17}","true","ArrowUp,ArrowLeft","","","","original","1","20","","",""
"html-keyboard-response","236","1107147","0.0-4.0-4.0-1.10","spark_pilot_2","7420","5","17","Female","","","","","","","null","<div style=""font-size:60px;"">+</div>","null","fixation","","","","","","","","","","","21","","",""
"revaluation","237","1111150","0.0-4.0-4.0-0.11","spark_pilot_2","7420","5","17","Female","","false","","","","","[353.3000000715256]","./assets/img/canyon/animals/lion.jpg","[""ArrowLeft""]","revaluation","canyon","26","{""ArrowUp,ArrowLeft"":26,""ArrowUp,ArrowRight"":10,""ArrowDown,ArrowLeft"":5,""ArrowDown,ArrowRight"":17}","true","ArrowUp,ArrowLeft","","","","original","1","22","","",""
"html-keyboard-response","238","1111652","0.0-4.0-4.0-1.11","spark_pilot_2","7420","5","17","Female","","","","","","","null","<div style=""font-size:60px;"">+</div>","null","fixation","","","","","","","","","","","23","","",""
"revaluation","239","1115655","0.0-4.0-4.0-0.12","spark_pilot_2","7420","5","17","Female","","false","","","","","[789.1000000238419]","./assets/img/canyon/animals/giraffe.jpg","[""ArrowRight""]","revaluation","canyon","17","{""ArrowUp,ArrowLeft"":26,""ArrowUp,ArrowRight"":10,""ArrowDown,ArrowLeft"":5,""ArrowDown,ArrowRight"":17}","true","ArrowDown,ArrowRight","","","","original","1","24","","",""
"html-keyboard-response","240","1116159","0.0-4.0-4.0-1.12","spark_pilot_2","7420","5","17","Female","","","","","","","null","<div style=""font-size:60px;"">+</div>","null","fixation","","","","","","","","","","","25","","",""
"revaluation","241","1120163","0.0-4.0-4.0-0.13","spark_pilot_2","7420","5","17","Female","","false","","","","","[599]","./assets/img/canyon/animals/lion.jpg","[""ArrowLeft""]","revaluation","canyon","26","{""ArrowUp,ArrowLeft"":26,""ArrowUp,ArrowRight"":10,""ArrowDown,ArrowLeft"":5,""ArrowDown,ArrowRight"":17}","true","ArrowUp,ArrowLeft","","","","original","1","26","","",""
"html-keyboard-response","242","1120666","0.0-4.0-4.0-1.13","spark_pilot_2","7420","5","17","Female","","","","","","","null","<div style=""font-size:60px;"">+</div>","null","fixation","","","","","","","","","","","27","","",""
"revaluation","243","1124672","0.0-4.0-4.0-0.14","spark_pilot_2","7420","5","17","Female","","false","","","","","[661.6000000238419]","./assets/img/canyon/animals/lion.jpg","[""ArrowLeft""]","revaluation","canyon","26","{""ArrowUp,ArrowLeft"":26,""ArrowUp,ArrowRight"":10,""ArrowDown,ArrowLeft"":5,""ArrowDown,ArrowRight"":17}","true","ArrowUp,ArrowLeft","","","","original","1","28","","",""
"html-keyboard-response","244","1125173","0.0-4.0-4.0-1.14","spark_pilot_2","7420","5","17","Female","","","","","","","null","<div style=""font-size:60px;"">+</div>","null","fixation","","","","","","","","","","","29","","",""
"revaluation","245","1129180","0.0-4.0-4.0-0.15","spark_pilot_2","7420","5","17","Female","","false","","","","","[626.8000000715256]","./assets/img/canyon/animals/giraffe.jpg","[""ArrowRight""]","revaluation","canyon","17","{""ArrowUp,ArrowLeft"":26,""ArrowUp,ArrowRight"":10,""ArrowDown,ArrowLeft"":5,""ArrowDown,ArrowRight"":17}","true","ArrowDown,ArrowRight","","","","original","1","30","","",""
"html-keyboard-response","246","1129682","0.0-4.0-4.0-1.15","spark_pilot_2","7420","5","17","Female","","","","","","","null","<div style=""font-size:60px;"">+</div>","null","fixation","","","","","","","","","","","31","","",""
"revaluation","247","1133688","0.0-4.0-4.0-0.16","spark_pilot_2","7420","5","17","Female","","false","","","","","[750.3000000715256]","./assets/img/canyon/animals/giraffe.jpg","[""ArrowRight""]","revaluation","canyon","17","{""ArrowUp,ArrowLeft"":26,""ArrowUp,ArrowRight"":10,""ArrowDown,ArrowLeft"":5,""ArrowDown,ArrowRight"":17}","true","ArrowDown,ArrowRight","","","","original","1","32","","",""
"html-keyboard-response","248","1134191","0.0-4.0-4.0-1.16","spark_pilot_2","7420","5","17","Female","","","","","","","null","<div style=""font-size:60px;"">+</div>","null","fixation","","","","","","","","","","","33","","",""
"revaluation","249","1138196","0.0-4.0-4.0-0.17","spark_pilot_2","7420","5","17","Female","","false","","","","","[571.8999999761581]","./assets/img/canyon/animals/giraffe.jpg","[""ArrowRight""]","revaluation","canyon","17","{""ArrowUp,ArrowLeft"":26,""ArrowUp,ArrowRight"":10,""ArrowDown,ArrowLeft"":5,""ArrowDown,ArrowRight"":17}","true","ArrowDown,ArrowRight","","","","original","1","34","","",""
"html-keyboard-response","250","1138698","0.0-4.0-4.0-1.17","spark_pilot_2","7420","5","17","Female","","","","","","","null","<div style=""font-size:60px;"">+</div>","null","fixation","","","","","","","","","","","35","","",""
"learning-instructions","251","1152885","0.0-4.0-5.0-0.0","spark_pilot_2","7420","5","17","Female","","","","","","","2822.2000000476837","<p> Time to play the dot game! </p>
            <p> For one minute, click the red dots on the following screen as they appear. </p>
            <p><b> Don't look away, as you will earn bonus for clicking dots</b>. </p>","","instructions","","","","","","","","","","","","","",""
"revaluation","252","1212897","0.0-4.0-6.0-0.0","spark_pilot_2","7420","5","17","Female","","","","","","","[93,108,85,115,77,123,149]","","","rest","","70","","","","","0","60000","","","","","",""
