"trial_type","trial_index","time_elapsed","internal_node_id","task_version","subject_id","assigned_condition","age","gender","success","timeout","failed_images","failed_audio","failed_video","browser_interaction","rt","stimulus","response","task_part","environment","score","rewardMap","correct","fullState","isCatch","numberMissed","duration","condition","order","trial_num","key_press","ground_truth","bonus"
"pavlovia","0","1164","0.0-0.0","spark_pilot_2","7318","6","12","Male","","","","","","","","","","","","","","","","","","","","","","","",""
"preload","1","22308","0.0-1.0","spark_pilot_2","7318","6","12","Male","true","false","[]","[]","[]","[{""event"":""fullscreenenter"",""trial"":2,""time"":30423}]","","","","","","","","","","","","","","","","","",""
"fullscreen","2","31417","0.0-2.0","spark_pilot_2","7318","6","12","Male","true","","","","","","","","","","","","","","","","","","","","","","",""
"audio-button-response","3","33679","0.0-3.0-0.0-0.0","spark_pilot_2","7318","6","12","Male","","","","","","","2200","./assets/audio/audiotest/turtle.mp3","2","audio_test","","","","","","","","","","","","","",""
"learning-instructions","4","43886","0.0-3.0-1.0-0.0","spark_pilot_2","7318","6","12","Male","","","","","","","3234.2999999970198","<p> Welcome! Please remember to stay in fullscreen mode and don't click away from the experiment. </p>","","instructions","","","","","","","","","","","","","",""
"learning-instructions","5","60355","0.0-3.0-1.0-0.1","spark_pilot_2","7318","6","12","Male","","","","","","","8063.5","<p> Today you will be playing a game to earn treasure. </p>
            <p> At the end of the experiment, you will earn a bonus based on how much treasure you find. </p>
            <img src='./assets/img/instructions/treasure.jpg' class='instructions-image'>","","instructions","","","","","","","","","","","","","",""
"learning-instructions","6","70963","0.0-3.0-1.0-0.2","spark_pilot_2","7318","6","12","Male","","","","","","","2351.39999999851","<p> Animals have hidden treasure in treasure chests. </p>
            <p> You need to first find an animal and then choose which of their treasure chests to search. </p>
            <img src='./assets/img/space/animals/cat.jpg' class='instructions-image'>","","instructions","","","","","","","","","","","","","",""
"learning-instructions","7","85616","0.0-3.0-1.0-0.3","spark_pilot_2","7318","6","12","Male","","","","","","","1494.5","<p> In each round, you will search for treasure in a different place. In the real game, there will be two rounds. </p>
            <p> You will begin with a separate, practice round where you will search for treasure in outer space. </p>
            <img src='./assets/img/space/0.jpg' class='instructions-image'>","","instructions","","","","","","","","","","","","","",""
"learning-instructions","8","98882","0.0-3.0-1.0-0.4","spark_pilot_2","7318","6","12","Male","","","","","","","1840.6999999955297","<p> On every turn, you will see a picture of the place that you are in, but the specific image may be different each time. </p>
            <p> For example, both of these images mean you are in outer space. </p>
            <img src='./assets/img/instructions/outerspace.jpg' class='instructions-image'>","","instructions","","","","","","","","","","","","","",""
"learning-instructions","9","110134","0.0-3.0-1.0-0.5","spark_pilot_2","7318","6","12","Male","","","","","","","3422.6999999955297","<p> You need to decide which direction to travel in. </p>
            <p> You can choose between going <b>up or down</b> by using the arrow keys. </p>
            <img src='./assets/img/instructions/updown.jpg' class='instructions-image'>","","instructions","","","","","","","","","","","","","",""
"learning-instructions","10","121663","0.0-3.0-1.0-0.6","spark_pilot_2","7318","6","12","Male","","","","","","","2700.8000000044703","<p> You will have <b>2 seconds</b> to make your choice. </p>
            <p> If you do not make a choice within 2 seconds, you will not find an animal or earn treasure. </p>
            <img src='./assets/img/instructions/2seconds.jpg' class='instructions-image'>","","instructions","","","","","","","","","","","","","",""
"learning-instructions","11","130831","0.0-3.0-1.0-0.7","spark_pilot_2","7318","6","12","Male","","","","","","","2138.5","<p> Let’s try practicing that now! </p>
            <p> When you see a picture of the place you are in, press the <b>up</b> key to travel up. </p>
            <img src='./assets/img/instructions/pressUp.jpg' class='instructions-image'>","","instructions","","","","","","","","","","","","","",""
"revaluation","12","134848","0.0-3.0-2.0-0.0","spark_pilot_2","7318","6","12","Male","","false","","","","","[968.7000000029802]","./assets/img/space/0.jpg","[""ArrowUp""]","first stage practice","space","0","null","null","ArrowUp","false","","","","","","","",""
"html-keyboard-response","13","135361","0.0-3.0-2.0-1.0","spark_pilot_2","7318","6","12","Male","","","","","","","null","<div style=""font-size:60px;"">+</div>","null","fixation","","","","","","","","","","","","","",""
"revaluation","14","139366","0.0-3.0-2.0-0.1","spark_pilot_2","7318","6","12","Male","","false","","","","","[1595.8999999985099]","./assets/img/space/1.jpg","[""ArrowUp""]","first stage practice","space","0","null","null","ArrowUp","false","","","","","","","",""
"html-keyboard-response","15","139867","0.0-3.0-2.0-1.1","spark_pilot_2","7318","6","12","Male","","","","","","","null","<div style=""font-size:60px;"">+</div>","null","fixation","","","","","","","","","","","","","",""
"revaluation","16","143879","0.0-3.0-2.0-0.2","spark_pilot_2","7318","6","12","Male","","false","","","","","[1034.7000000029802]","./assets/img/space/2.jpg","[""ArrowUp""]","first stage practice","space","0","null","null","ArrowUp","false","","","","","","","",""
"html-keyboard-response","17","144390","0.0-3.0-2.0-1.2","spark_pilot_2","7318","6","12","Male","","","","","","","null","<div style=""font-size:60px;"">+</div>","null","fixation","","","","","","","","","","","","","",""
"learning-instructions","18","150583","0.0-3.0-3.0-0.0","spark_pilot_2","7318","6","12","Male","","","","","","","1501.2999999970198","<p> Great job! Now try pressing the <b>down</b> key to travel down. </p>
            <img src='./assets/img/instructions/pressDown.jpg' class='instructions-image'>","","instructions","","","","","","","","","","","","","",""
"revaluation","19","154595","0.0-3.0-4.0-0.0","spark_pilot_2","7318","6","12","Male","","false","","","","","[774.7000000029802]","./assets/img/space/3.jpg","[""ArrowDown""]","first stage practice","space","0","null","null","ArrowDown","false","","","","","","","",""
"html-keyboard-response","20","155107","0.0-3.0-4.0-1.0","spark_pilot_2","7318","6","12","Male","","","","","","","null","<div style=""font-size:60px;"">+</div>","null","fixation","","","","","","","","","","","","","",""
"revaluation","21","159126","0.0-3.0-4.0-0.1","spark_pilot_2","7318","6","12","Male","","false","","","","","[481.79999999701977]","./assets/img/space/4.jpg","[""ArrowDown""]","first stage practice","space","0","null","null","ArrowDown","false","","","","","","","",""
"html-keyboard-response","22","159641","0.0-3.0-4.0-1.1","spark_pilot_2","7318","6","12","Male","","","","","","","null","<div style=""font-size:60px;"">+</div>","null","fixation","","","","","","","","","","","","","",""
"revaluation","23","163652","0.0-3.0-4.0-0.2","spark_pilot_2","7318","6","12","Male","","false","","","","","[788.6000000014901]","./assets/img/space/5.jpg","[""ArrowDown""]","first stage practice","space","0","null","null","ArrowDown","false","","","","","","","",""
"html-keyboard-response","24","164165","0.0-3.0-4.0-1.2","spark_pilot_2","7318","6","12","Male","","","","","","","null","<div style=""font-size:60px;"">+</div>","null","fixation","","","","","","","","","","","","","",""
"learning-instructions","25","181467","0.0-3.0-5.0-0.0","spark_pilot_2","7318","6","12","Male","","","","","","","7455.79999999702","<p> The animals don’t move, so the animal in the upper part of a place will stay in the upper part of a place, and the animal in the lower part of a place will stay in the lower part of a place. </p>","","instructions","","","","","","","","","","","","","",""
"learning-instructions","26","193953","0.0-3.0-5.0-0.1","spark_pilot_2","7318","6","12","Male","","","","","","","3351.0999999940395","<p> Each animal has two treasure chests for you to choose from. </p>
            <p> The amount of treasure in each chest can range from <b> 0 to 40 pieces.</b></p>","","instructions","","","","","","","","","","","","","",""
"learning-instructions","27","207775","0.0-3.0-5.0-0.2","spark_pilot_2","7318","6","12","Male","","","","","","","2643.5","<p> You should decide which chest to search for treasure by using the <b>left</b> and <b>right</b> arrow keys. </p>
            <p><b> Pay attention to which animal is on the screen, as the animals have different treasure chests. </b></p>
            <img src='./assets/img/instructions/leftright.jpg' class='instructions-image'>","","instructions","","","","","","","","","","","","","",""
"learning-instructions","28","215502","0.0-3.0-5.0-0.3","spark_pilot_2","7318","6","12","Male","","","","","","","1350.6999999955297","<p> Let’s try practicing that now. </p>
            <p> When you see an animal, choose which chest to search for treasure. </p>
            <img src='./assets/img/instructions/chooseChest.jpg' class='instructions-image'>","","instructions","","","","","","","","","","","","","",""
"revaluation","29","219515","0.0-3.0-6.0-0.0","spark_pilot_2","7318","6","12","Male","","false","","","","","[767.1999999955297]","./assets/img/space/animals/rabbit.jpg","[""ArrowLeft""]","second stage practice","space","15","{""ArrowUp,ArrowLeft"":3,""ArrowUp,ArrowRight"":36,""ArrowDown,ArrowLeft"":15,""ArrowDown,ArrowRight"":23}","false","ArrowDown,ArrowLeft","","","","","","","","",""
"html-keyboard-response","30","220025","0.0-3.0-6.0-1.0","spark_pilot_2","7318","6","12","Male","","","","","","","null","<div style=""font-size:60px;"">+</div>","null","fixation","","","","","","","","","","","","","",""
"revaluation","31","224036","0.0-3.0-6.0-0.1","spark_pilot_2","7318","6","12","Male","","false","","","","","[347.69999999552965]","./assets/img/space/animals/cat.jpg","[""ArrowRight""]","second stage practice","space","36","{""ArrowUp,ArrowLeft"":3,""ArrowUp,ArrowRight"":36,""ArrowDown,ArrowLeft"":15,""ArrowDown,ArrowRight"":23}","true","ArrowUp,ArrowRight","","","","","","","","",""
"html-keyboard-response","32","224546","0.0-3.0-6.0-1.1","spark_pilot_2","7318","6","12","Male","","","","","","","null","<div style=""font-size:60px;"">+</div>","null","fixation","","","","","","","","","","","","","",""
"revaluation","33","228559","0.0-3.0-6.0-0.2","spark_pilot_2","7318","6","12","Male","","false","","","","","[651.1000000014901]","./assets/img/space/animals/cat.jpg","[""ArrowRight""]","second stage practice","space","36","{""ArrowUp,ArrowLeft"":3,""ArrowUp,ArrowRight"":36,""ArrowDown,ArrowLeft"":15,""ArrowDown,ArrowRight"":23}","true","ArrowUp,ArrowRight","","","","","","","","",""
"html-keyboard-response","34","229068","0.0-3.0-6.0-1.2","spark_pilot_2","7318","6","12","Male","","","","","","","null","<div style=""font-size:60px;"">+</div>","null","fixation","","","","","","","","","","","","","",""
"revaluation","35","233090","0.0-3.0-6.0-0.3","spark_pilot_2","7318","6","12","Male","","false","","","","","[1097.3999999985099]","./assets/img/space/animals/rabbit.jpg","[""ArrowRight""]","second stage practice","space","23","{""ArrowUp,ArrowLeft"":3,""ArrowUp,ArrowRight"":36,""ArrowDown,ArrowLeft"":15,""ArrowDown,ArrowRight"":23}","true","ArrowDown,ArrowRight","","","","","","","","",""
"html-keyboard-response","36","233602","0.0-3.0-6.0-1.3","spark_pilot_2","7318","6","12","Male","","","","","","","null","<div style=""font-size:60px;"">+</div>","null","fixation","","","","","","","","","","","","","",""
"learning-instructions","37","251987","0.0-3.0-7.0-0.0","spark_pilot_2","7318","6","12","Male","","","","","","","1575.6000000014901","<p> Great job. Now let’s try putting it together. </p>
            <p> On each turn, you will first see a picture to remind you of the place you are in, and you need to choose whether to go up or down. </p>
            <p> Then you will see an animal and choose which of its chests to search for treasure. </p>","","instructions","","","","","","","","","","","","","",""
"learning-instructions","38","261511","0.0-3.0-7.0-0.1","spark_pilot_2","7318","6","12","Male","","","","","","","1260.2999999970198","<p> When you choose whether to go up or down, try to go to the animal with the chest with the most treasure. </p>
            <p> Try practicing that now! </p>","","instructions","","","","","","","","","","","","","",""
"revaluation","39","267529","0.0-3.0-8.0-0.0","spark_pilot_2","7318","6","12","Male","","false","","","","","[1022.2000000029802,354.5]","./assets/img/space/6.jpg","[""ArrowUp"",""ArrowRight""]","full practice","space","36","{""ArrowUp,ArrowLeft"":3,""ArrowUp,ArrowRight"":36,""ArrowDown,ArrowLeft"":15,""ArrowDown,ArrowRight"":23}","true","ArrowUp,ArrowRight","false","","","","","","","",""
"html-keyboard-response","40","268039","0.0-3.0-8.0-1.0","spark_pilot_2","7318","6","12","Male","","","","","","","null","<div style=""font-size:60px;"">+</div>","null","fixation","","","","","","","","","","","","","",""
"revaluation","41","274061","0.0-3.0-8.0-0.1","spark_pilot_2","7318","6","12","Male","","false","","","","","[358.3999999985099,360.3999999985099]","./assets/img/space/7.jpg","[""ArrowUp"",""ArrowRight""]","full practice","space","36","{""ArrowUp,ArrowLeft"":3,""ArrowUp,ArrowRight"":36,""ArrowDown,ArrowLeft"":15,""ArrowDown,ArrowRight"":23}","true","ArrowUp,ArrowRight","false","","","","","","","",""
"html-keyboard-response","42","274574","0.0-3.0-8.0-1.1","spark_pilot_2","7318","6","12","Male","","","","","","","null","<div style=""font-size:60px;"">+</div>","null","fixation","","","","","","","","","","","","","",""
"revaluation","43","280618","0.0-3.0-8.0-0.2","spark_pilot_2","7318","6","12","Male","","false","","","","","[287.3999999985099,432.90000000596046]","./assets/img/space/8.jpg","[""ArrowUp"",""ArrowRight""]","full practice","space","36","{""ArrowUp,ArrowLeft"":3,""ArrowUp,ArrowRight"":36,""ArrowDown,ArrowLeft"":15,""ArrowDown,ArrowRight"":23}","true","ArrowUp,ArrowRight","false","","","","","","","",""
"html-keyboard-response","44","281128","0.0-3.0-8.0-1.2","spark_pilot_2","7318","6","12","Male","","","","","","","null","<div style=""font-size:60px;"">+</div>","null","fixation","","","","","","","","","","","","","",""
"revaluation","45","287145","0.0-3.0-8.0-0.3","spark_pilot_2","7318","6","12","Male","","false","","","","","[429.1000000014901,1092.5]","./assets/img/space/9.jpg","[""ArrowUp"",""ArrowRight""]","full practice","space","36","{""ArrowUp,ArrowLeft"":3,""ArrowUp,ArrowRight"":36,""ArrowDown,ArrowLeft"":15,""ArrowDown,ArrowRight"":23}","true","ArrowUp,ArrowRight","false","","","","","","","",""
"html-keyboard-response","46","287659","0.0-3.0-8.0-1.3","spark_pilot_2","7318","6","12","Male","","","","","","","null","<div style=""font-size:60px;"">+</div>","null","fixation","","","","","","","","","","","","","",""
"revaluation","47","293672","0.0-3.0-8.0-0.4","spark_pilot_2","7318","6","12","Male","","false","","","","","[530.1999999955297,384.5]","./assets/img/space/10.jpg","[""ArrowUp"",""ArrowRight""]","full practice","space","36","{""ArrowUp,ArrowLeft"":3,""ArrowUp,ArrowRight"":36,""ArrowDown,ArrowLeft"":15,""ArrowDown,ArrowRight"":23}","true","ArrowUp,ArrowRight","false","","","","","","","",""
"html-keyboard-response","48","294173","0.0-3.0-8.0-1.4","spark_pilot_2","7318","6","12","Male","","","","","","","null","<div style=""font-size:60px;"">+</div>","null","fixation","","","","","","","","","","","","","",""
"learning-instructions","49","307154","0.0-3.0-9.0-0.0","spark_pilot_2","7318","6","12","Male","","","","","","","2672.7000000029802","<p> One last thing: sometimes, you will see a robber. The robber can be anywhere in the picture. </p>
            <p> If you do not stop them, you will lose treasure. </p>
            <img src='./assets/img/instructions/robber.jpg' class='instructions-image'>","","instructions","","","","","","","","","","","","","",""
"learning-instructions","50","315812","0.0-3.0-9.0-0.1","spark_pilot_2","7318","6","12","Male","","","","","","","1420.6999999955297","<p> If you see the robber, you should <b>press the space bar</b> rather than using the arrow keys. </p>
            <p> Try practicing that now! </p>","","instructions","","","","","","","","","","","","","",""
"revaluation","51","319815","0.0-3.0-10.0-0.0","spark_pilot_2","7318","6","12","Male","","false","","","","","[657.3999999985099]","./assets/img/space/catch/0.jpg","[""spaceBar""]","catch practice","space","0","{""ArrowUp,ArrowLeft"":3,""ArrowUp,ArrowRight"":36,""ArrowDown,ArrowLeft"":15,""ArrowDown,ArrowRight"":23}","true","spaceBar","true","","","","","","","",""
"html-keyboard-response","52","320316","0.0-3.0-10.0-1.0","spark_pilot_2","7318","6","12","Male","","","","","","","null","<div style=""font-size:60px;"">+</div>","null","fixation","","","","","","","","","","","","","",""
"revaluation","53","324330","0.0-3.0-10.0-0.1","spark_pilot_2","7318","6","12","Male","","false","","","","","[632.3999999985099]","./assets/img/space/catch/1.jpg","[""spaceBar""]","catch practice","space","0","{""ArrowUp,ArrowLeft"":3,""ArrowUp,ArrowRight"":36,""ArrowDown,ArrowLeft"":15,""ArrowDown,ArrowRight"":23}","true","spaceBar","true","","","","","","","",""
"html-keyboard-response","54","324841","0.0-3.0-10.0-1.1","spark_pilot_2","7318","6","12","Male","","","","","","","null","<div style=""font-size:60px;"">+</div>","null","fixation","","","","","","","","","","","","","",""
"revaluation","55","328848","0.0-3.0-10.0-0.2","spark_pilot_2","7318","6","12","Male","","false","","","","","[388.1000000014901]","./assets/img/space/catch/2.jpg","[""spaceBar""]","catch practice","space","0","{""ArrowUp,ArrowLeft"":3,""ArrowUp,ArrowRight"":36,""ArrowDown,ArrowLeft"":15,""ArrowDown,ArrowRight"":23}","true","spaceBar","true","","","","","","","",""
"html-keyboard-response","56","329349","0.0-3.0-10.0-1.2","spark_pilot_2","7318","6","12","Male","","","","","","","null","<div style=""font-size:60px;"">+</div>","null","fixation","","","","","","","","","","","","","",""
"learning-instructions","57","345598","0.0-3.0-11.0-0.0","spark_pilot_2","7318","6","12","Male","","","","","","","2656.5","<p> After you explore a place to find treasure, it will be time to play a different game. </p>
            <p> During this game, red dots will appear on the screen and fall down slowly. </p>
            <p><b> You must click on them before they reach the bottom. </b></p>
            <img src='./assets/img/instructions/dotGame.jpg' class='instructions-image'>","","instructions","","","","","","","","","","","","","",""
"learning-instructions","58","353766","0.0-3.0-11.0-0.1","spark_pilot_2","7318","6","12","Male","","","","","","","2495","<p> For every dot you click, you will earn additional treasure. </p>
            <p> Let’s try practicing that now. </p>","","instructions","","","","","","","","","","","","","",""
"revaluation","59","368774","0.0-3.0-12.0-0.0","spark_pilot_2","7318","6","12","Male","","","","","","","[124]","","","rest practice","","10","","","","","0","15000","","","","","",""
"learning-instructions","60","377706","0.0-3.0-13.0-0.0-0.0","spark_pilot_2","7318","6","12","Male","","","","","","","3675.3000000044703","<p> Now, you will practice a shortened version of the game to get a sense of how it all fits together. </p>","","instructions","","","","","","","","","","","","","",""
"learning-instructions","61","382353","0.0-3.0-13.0-0.0-0.1","spark_pilot_2","7318","6","12","Male","","","","","","","1472","<p>This time you are searching for treasure in outer space.</p>","","instructions","","","","","","","","","","","","","",""
"learning-instructions","62","398398","0.0-3.0-13.0-1.0-0.0","spark_pilot_2","7318","6","12","Male","","","","","","","1277","<p> Remember, when you see a picture of the place, use the up and down keys to <b>find an animal</b>.</p>
            <p> When you encounter an animal, you should use the left and right keys to <b>select a treasure chest</b>.</p>
            <p> Don't forget to look out for the robber! </p>","","instructions","","","","","","","","","","","","","",""
"revaluation","63","404407","0.0-3.0-13.0-2.0-0.0","spark_pilot_2","7318","6","12","Male","","false","","","","","[1239,342.30000000447035]","./assets/img/space/11.jpg","[""ArrowUp"",""ArrowRight""]","practice block","space","36","{""ArrowUp,ArrowLeft"":3,""ArrowUp,ArrowRight"":36,""ArrowDown,ArrowLeft"":15,""ArrowDown,ArrowRight"":23}","true","ArrowUp,ArrowRight","false","","","","","","","",""
"html-keyboard-response","64","404916","0.0-3.0-13.0-2.0-1.0","spark_pilot_2","7318","6","12","Male","","","","","","","null","<div style=""font-size:60px;"">+</div>","null","fixation","","","","","","","","","","","","","",""
"revaluation","65","410930","0.0-3.0-13.0-2.0-0.1","spark_pilot_2","7318","6","12","Male","","false","","","","","[400.20000000298023,271.70000000298023]","./assets/img/space/12.jpg","[""ArrowUp"",""ArrowRight""]","practice block","space","36","{""ArrowUp,ArrowLeft"":3,""ArrowUp,ArrowRight"":36,""ArrowDown,ArrowLeft"":15,""ArrowDown,ArrowRight"":23}","true","ArrowUp,ArrowRight","false","","","","","","","",""
"html-keyboard-response","66","411435","0.0-3.0-13.0-2.0-1.1","spark_pilot_2","7318","6","12","Male","","","","","","","null","<div style=""font-size:60px;"">+</div>","null","fixation","","","","","","","","","","","","","",""
"revaluation","67","417450","0.0-3.0-13.0-2.0-0.2","spark_pilot_2","7318","6","12","Male","","false","","","","","[306.6000000014901,425.6000000014901]","./assets/img/space/13.jpg","[""ArrowUp"",""ArrowRight""]","practice block","space","36","{""ArrowUp,ArrowLeft"":3,""ArrowUp,ArrowRight"":36,""ArrowDown,ArrowLeft"":15,""ArrowDown,ArrowRight"":23}","true","ArrowUp,ArrowRight","false","","","","","","","",""
"html-keyboard-response","68","417951","0.0-3.0-13.0-2.0-1.2","spark_pilot_2","7318","6","12","Male","","","","","","","null","<div style=""font-size:60px;"">+</div>","null","fixation","","","","","","","","","","","","","",""
"revaluation","69","423960","0.0-3.0-13.0-2.0-0.3","spark_pilot_2","7318","6","12","Male","","false","","","","","[550.2000000029802,741.6000000014901]","./assets/img/space/14.jpg","[""ArrowUp"",""ArrowRight""]","practice block","space","36","{""ArrowUp,ArrowLeft"":3,""ArrowUp,ArrowRight"":36,""ArrowDown,ArrowLeft"":15,""ArrowDown,ArrowRight"":23}","true","ArrowUp,ArrowRight","false","","","","","","","",""
"html-keyboard-response","70","424472","0.0-3.0-13.0-2.0-1.3","spark_pilot_2","7318","6","12","Male","","","","","","","null","<div style=""font-size:60px;"">+</div>","null","fixation","","","","","","","","","","","","","",""
"revaluation","71","430483","0.0-3.0-13.0-2.0-0.4","spark_pilot_2","7318","6","12","Male","","false","","","","","[508.70000000298023,869.1999999955297]","./assets/img/space/11.jpg","[""ArrowUp"",""ArrowRight""]","practice block","space","36","{""ArrowUp,ArrowLeft"":3,""ArrowUp,ArrowRight"":36,""ArrowDown,ArrowLeft"":15,""ArrowDown,ArrowRight"":23}","true","ArrowUp,ArrowRight","false","","","","","","","",""
"html-keyboard-response","72","430984","0.0-3.0-13.0-2.0-1.4","spark_pilot_2","7318","6","12","Male","","","","","","","null","<div style=""font-size:60px;"">+</div>","null","fixation","","","","","","","","","","","","","",""
"revaluation","73","436988","0.0-3.0-13.0-2.0-0.5","spark_pilot_2","7318","6","12","Male","","false","","","","","[605.2999999970198,580]","./assets/img/space/12.jpg","[""ArrowUp"",""ArrowRight""]","practice block","space","36","{""ArrowUp,ArrowLeft"":3,""ArrowUp,ArrowRight"":36,""ArrowDown,ArrowLeft"":15,""ArrowDown,ArrowRight"":23}","true","ArrowUp,ArrowRight","false","","","","","","","",""
"html-keyboard-response","74","437490","0.0-3.0-13.0-2.0-1.5","spark_pilot_2","7318","6","12","Male","","","","","","","null","<div style=""font-size:60px;"">+</div>","null","fixation","","","","","","","","","","","","","",""
"revaluation","75","443494","0.0-3.0-13.0-2.0-0.6","spark_pilot_2","7318","6","12","Male","","false","","","","","[396,962.2000000029802]","./assets/img/space/13.jpg","[""ArrowUp"",""ArrowRight""]","practice block","space","36","{""ArrowUp,ArrowLeft"":3,""ArrowUp,ArrowRight"":36,""ArrowDown,ArrowLeft"":15,""ArrowDown,ArrowRight"":23}","true","ArrowUp,ArrowRight","false","","","","","","","",""
"html-keyboard-response","76","443994","0.0-3.0-13.0-2.0-1.6","spark_pilot_2","7318","6","12","Male","","","","","","","null","<div style=""font-size:60px;"">+</div>","null","fixation","","","","","","","","","","","","","",""
"revaluation","77","449998","0.0-3.0-13.0-2.0-0.7","spark_pilot_2","7318","6","12","Male","","false","","","","","[682.7000000029802,961.8999999985099]","./assets/img/space/14.jpg","[""ArrowUp"",""ArrowRight""]","practice block","space","36","{""ArrowUp,ArrowLeft"":3,""ArrowUp,ArrowRight"":36,""ArrowDown,ArrowLeft"":15,""ArrowDown,ArrowRight"":23}","true","ArrowUp,ArrowRight","false","","","","","","","",""
"html-keyboard-response","78","450500","0.0-3.0-13.0-2.0-1.7","spark_pilot_2","7318","6","12","Male","","","","","","","null","<div style=""font-size:60px;"">+</div>","null","fixation","","","","","","","","","","","","","",""
"revaluation","79","454504","0.0-3.0-13.0-2.0-0.8","spark_pilot_2","7318","6","12","Male","","false","","","","","[985.1000000014901]","./assets/img/space/catch/3.jpg","[""spaceBar""]","practice block","space","0","{""ArrowUp,ArrowLeft"":3,""ArrowUp,ArrowRight"":36,""ArrowDown,ArrowLeft"":15,""ArrowDown,ArrowRight"":23}","true","spaceBar","true","","","","","","","",""
"html-keyboard-response","80","455005","0.0-3.0-13.0-2.0-1.8","spark_pilot_2","7318","6","12","Male","","","","","","","null","<div style=""font-size:60px;"">+</div>","null","fixation","","","","","","","","","","","","","",""
"learning-instructions","81","469274","0.0-3.0-13.0-3.0-0.0","spark_pilot_2","7318","6","12","Male","","","","","","","1332.7000000029802","<p> Now, you will travel with a friend who will choose whether you go up or down first. </p>
            <p> On these turns, you will just see the animal that they found. You will still get to choose which chest to search for treasure.</p>","","instructions","","","","","","","","","","","","","",""
"revaluation","82","473289","0.0-3.0-13.0-4.0-0.0","spark_pilot_2","7318","6","12","Male","","false","","","","","[947.2000000029802]","./assets/img/space/animals/cat.jpg","[""ArrowRight""]","practice block","space","36","{""ArrowUp,ArrowLeft"":3,""ArrowUp,ArrowRight"":36,""ArrowDown,ArrowLeft"":15,""ArrowDown,ArrowRight"":23}","true","ArrowUp,ArrowRight","","","","","","","","",""
"html-keyboard-response","83","473800","0.0-3.0-13.0-4.0-1.0","spark_pilot_2","7318","6","12","Male","","","","","","","null","<div style=""font-size:60px;"">+</div>","null","fixation","","","","","","","","","","","","","",""
"revaluation","84","477808","0.0-3.0-13.0-4.0-0.1","spark_pilot_2","7318","6","12","Male","","false","","","","","[1044.6000000014901]","./assets/img/space/animals/rabbit.jpg","[""ArrowRight""]","practice block","space","23","{""ArrowUp,ArrowLeft"":3,""ArrowUp,ArrowRight"":36,""ArrowDown,ArrowLeft"":15,""ArrowDown,ArrowRight"":23}","true","ArrowDown,ArrowRight","","","","","","","","",""
"html-keyboard-response","85","478320","0.0-3.0-13.0-4.0-1.1","spark_pilot_2","7318","6","12","Male","","","","","","","null","<div style=""font-size:60px;"">+</div>","null","fixation","","","","","","","","","","","","","",""
"revaluation","86","482342","0.0-3.0-13.0-4.0-0.2","spark_pilot_2","7318","6","12","Male","","false","","","","","[349.20000000298023]","./assets/img/space/animals/rabbit.jpg","[""ArrowRight""]","practice block","space","23","{""ArrowUp,ArrowLeft"":3,""ArrowUp,ArrowRight"":36,""ArrowDown,ArrowLeft"":15,""ArrowDown,ArrowRight"":23}","true","ArrowDown,ArrowRight","","","","","","","","",""
"html-keyboard-response","87","482855","0.0-3.0-13.0-4.0-1.2","spark_pilot_2","7318","6","12","Male","","","","","","","null","<div style=""font-size:60px;"">+</div>","null","fixation","","","","","","","","","","","","","",""
"revaluation","88","486877","0.0-3.0-13.0-4.0-0.3","spark_pilot_2","7318","6","12","Male","","false","","","","","[509.80000000447035]","./assets/img/space/animals/cat.jpg","[""ArrowRight""]","practice block","space","36","{""ArrowUp,ArrowLeft"":3,""ArrowUp,ArrowRight"":36,""ArrowDown,ArrowLeft"":15,""ArrowDown,ArrowRight"":23}","true","ArrowUp,ArrowRight","","","","","","","","",""
"html-keyboard-response","89","487388","0.0-3.0-13.0-4.0-1.3","spark_pilot_2","7318","6","12","Male","","","","","","","null","<div style=""font-size:60px;"">+</div>","null","fixation","","","","","","","","","","","","","",""
"learning-instructions","90","498084","0.0-3.0-13.0-5.0-0.0","spark_pilot_2","7318","6","12","Male","","","","","","","3322","<p> Time to play the dot game! </p>
            <p> For 15 seconds, click the red dots on the following screen as they appear. </p>","","instructions","","","","","","","","","","","","","",""
"revaluation","91","513086","0.0-3.0-13.0-6.0-0.0","spark_pilot_2","7318","6","12","Male","","","","","","","[109]","","","rest practice","","10","","","","","0","15000","","","","","",""
"learning-instructions","92","521315","0.0-3.0-13.0-7.0-0.0","spark_pilot_2","7318","6","12","Male","","","","","","","2112.5","<p> You have almost finished this part of the game! </p>
            <p> We are going to ask you to make a few more choices. </p>","","instructions","","","","","","","","","","","","","",""
"learning-instructions","93","536364","0.0-3.0-13.0-7.0-0.1","spark_pilot_2","7318","6","12","Male","","","","","","","1042.1000000014901","<p> First, you need to decide whether to go up or down. When you see each picture, use the arrow keys to make your choice. </p>
            <p><b>You will not see which animal you found, but try to get to the one that will give you the most treasure.</b></p>","","instructions","","","","","","","","","","","","","",""
"revaluation","94","538463","0.0-3.0-13.0-8.0","spark_pilot_2","7318","6","12","Male","","false","","","","","[2098.1999999955297]","./assets/img/space/15.jpg","[""ArrowUp""]","practice block","space","0","{""ArrowUp,ArrowLeft"":3,""ArrowUp,ArrowRight"":36,""ArrowDown,ArrowLeft"":15,""ArrowDown,ArrowRight"":23}","true","ArrowUp","false","","","","","","","",""
"html-keyboard-response","95","538971","0.0-3.0-13.0-9.0","spark_pilot_2","7318","6","12","Male","","","","","","","null","<div style=""font-size:60px;"">+</div>","null","fixation","","","","","","","","","","","","","",""
"learning-instructions","96","551829","0.0-3.0-13.0-10.0-0.0","spark_pilot_2","7318","6","12","Male","","","","","","","1476.7000000029802","<p> Now you will see the animals again and can search their chests for treasure. </p>
            <p> This time, you will not see how much treasure you earned, but you will earn more bonus money for making better choices. </p>","","instructions","","","","","","","","","","","","","",""
"revaluation","97","552687","0.0-3.0-13.0-11.0-0.0","spark_pilot_2","7318","6","12","Male","","false","","","","","[857.1999999955297]","./assets/img/space/animals/cat.jpg","[""ArrowRight""]","practice block","space","0","{""ArrowUp,ArrowLeft"":3,""ArrowUp,ArrowRight"":36,""ArrowDown,ArrowLeft"":15,""ArrowDown,ArrowRight"":23}","true","ArrowUp,ArrowRight","","","","","","","","",""
"html-keyboard-response","98","553191","0.0-3.0-13.0-11.0-1.0","spark_pilot_2","7318","6","12","Male","","","","","","","null","<div style=""font-size:60px;"">+</div>","null","fixation","","","","","","","","","","","","","",""
"revaluation","99","554135","0.0-3.0-13.0-11.0-0.1","spark_pilot_2","7318","6","12","Male","","false","","","","","[942.3999999985099]","./assets/img/space/animals/rabbit.jpg","[""ArrowRight""]","practice block","space","0","{""ArrowUp,ArrowLeft"":3,""ArrowUp,ArrowRight"":36,""ArrowDown,ArrowLeft"":15,""ArrowDown,ArrowRight"":23}","true","ArrowDown,ArrowRight","","","","","","","","",""
"html-keyboard-response","100","554636","0.0-3.0-13.0-11.0-1.1","spark_pilot_2","7318","6","12","Male","","","","","","","null","<div style=""font-size:60px;"">+</div>","null","fixation","","","","","","","","","","","","","",""
"learning-instructions","101","560643","0.0-3.0-14.0-0.0","spark_pilot_2","7318","6","12","Male","","","","","","","1431.7999999970198","<p> Before you start, we're going to ask you a few questions about how the game works. </p>","","instructions","","","","","","","","","","","","","",""
"comp-q","102","567159","0.0-3.0-15.0-0.0-0.0","spark_pilot_2","7318","6","12","Male","","","","","","","935.5","<p> <b> True or False? </b> </p>
            <p> There can be 50 pieces of treasure in a given animal's chest. </p>","1","comp_question","","","","true","","","","","","","","","",""
"comp-q","103","576286","0.0-3.0-15.0-0.0-1.0","spark_pilot_2","7318","6","12","Male","","","","","","","2474.39999999851","<p> <b> That's right! </b> The amount of treasure in each chest can range from 0 to 40 pieces. </p>","0","comp_answer","","","","","","","","","","","","","",""
"comp-q","104","584510","0.0-3.0-15.0-0.1-0.1","spark_pilot_2","7318","6","12","Male","","","","","","","1108.6000000014901","<p> <b> True or False? </b> </p><p> In this game, all animals have the same amount of treasure in their left and right chests. </p>","1","comp_question","","","","true","","","","","","","","","",""
"comp-q","105","591926","0.0-3.0-15.0-0.1-1.1","spark_pilot_2","7318","6","12","Male","","","","","","","2194.7000000029802","<p> <b> That's right! </b> Animals have different amounts of treasure in their treasure chests. </p>","0","comp_answer","","","","","","","","","","","","","",""
"comp-q","106","598630","0.0-3.0-15.0-0.2-0.2","spark_pilot_2","7318","6","12","Male","","","","","","","868.6000000014901","<p> <b> True or False? </b> </p><p> The same animal will always be there if you go up in the same place. </p>","0","comp_question","","","","true","","","","","","","","","",""
"comp-q","107","606478","0.0-3.0-15.0-0.2-1.2","spark_pilot_2","7318","6","12","Male","","","","","","","1396.7999999970198","<p> <b> That's right! </b> One animal lives in the upper part and one lives in the lower part of every place. </p>","0","comp_answer","","","","","","","","","","","","","",""
"comp-q","108","612918","0.0-3.0-15.0-0.3-0.3","spark_pilot_2","7318","6","12","Male","","","","","","","917","<p> <b> True or False? </b> </p><p> If you see a different picture, it means you are in a new place. </p>","1","comp_question","","","","true","","","","","","","","","",""
"comp-q","109","626294","0.0-3.0-15.0-0.3-1.3","spark_pilot_2","7318","6","12","Male","","","","","","","2082.89999999851","<p> <b> That's right! </b> Lots of different images may show the same place. For example,  you may see three different images that all remind you that you are in outer space. </p>","0","comp_answer","","","","","","","","","","","","","",""
"learning-instructions","110","637414","0.0-3.0-16.0-0.0","spark_pilot_2","7318","6","12","Male","","","","","","","1263.1000000014901","<p> Good job. Remember to do your best because the amount of treasure you earn will be converted into bonus money. </p>
            <p> It’s time to start the real game! </p>","","instructions","","","","","","","","","","","","","",""
"learning-instructions","111","643622","0.0-4.0-0.0-0.0","spark_pilot_2","7318","6","12","Male","","","","","","","3451","<p> This time you are searching for treasure in the <b>canyon</b>.</p>","","instructions","","","","","","","","","","","","","",""
"learning-instructions","112","662230","0.0-4.0-0.0-0.1","spark_pilot_2","7318","6","12","Male","","","","","","","1318.7999999970198","<p><b>New</b> animals with <b>new</b> treasure chests live here. You need to explore to discover where the animal with the best treasure chest is.</p>
                    <p> Like before, once you figure out which animal has the chest with the most treasure, you should try to get to that animal and select that chest! </p>","","instructions","","","","","","","","","","","","","",""
"learning-instructions","113","678654","0.0-4.0-1.0-0.0","spark_pilot_2","7318","6","12","Male","","","","","","","1702.5","<p> Remember, when you see a picture of the place, use the up and down keys to <b>find an animal</b>.</p>
            <p> When you encounter an animal, you should use the left and right keys to <b>select a treasure chest</b>.</p>
            <p> Don't forget to look out for the robber! </p>","","instructions","","","","","","","","","","","","","",""
"revaluation","114","684658","0.0-4.0-2.0-0.0","spark_pilot_2","7318","6","12","Male","","false","","","","","[751.1000000014901,374.30000000447035]","./assets/img/canyon/memory/17.jpg","[""ArrowUp"",""ArrowRight""]","value training","canyon","10","{""ArrowUp,ArrowLeft"":23,""ArrowUp,ArrowRight"":10,""ArrowDown,ArrowLeft"":8,""ArrowDown,ArrowRight"":30}","false","ArrowUp,ArrowRight","false","","","revaluation","1","0","","",""
"html-keyboard-response","115","685162","0.0-4.0-2.0-1.0","spark_pilot_2","7318","6","12","Male","","","","","","","null","<div style=""font-size:60px;"">+</div>","null","fixation","","","","","","","","","","","1","","",""
"revaluation","116","691174","0.0-4.0-2.0-0.1","spark_pilot_2","7318","6","12","Male","","false","","","","","[388.5,363.29999999701977]","./assets/img/canyon/memory/5.jpg","[""ArrowDown"",""ArrowRight""]","value training","canyon","30","{""ArrowUp,ArrowLeft"":23,""ArrowUp,ArrowRight"":10,""ArrowDown,ArrowLeft"":8,""ArrowDown,ArrowRight"":30}","true","ArrowDown,ArrowRight","false","","","revaluation","1","2","","",""
"html-keyboard-response","117","691675","0.0-4.0-2.0-1.1","spark_pilot_2","7318","6","12","Male","","","","","","","null","<div style=""font-size:60px;"">+</div>","null","fixation","","","","","","","","","","","3","","",""
"revaluation","118","697679","0.0-4.0-2.0-0.2","spark_pilot_2","7318","6","12","Male","","false","","","","","[313.8999999985099,465.1000000014901]","./assets/img/canyon/memory/36.jpg","[""ArrowDown"",""ArrowLeft""]","value training","canyon","8","{""ArrowUp,ArrowLeft"":23,""ArrowUp,ArrowRight"":10,""ArrowDown,ArrowLeft"":8,""ArrowDown,ArrowRight"":30}","false","ArrowDown,ArrowLeft","false","","","revaluation","1","4","","",""
"html-keyboard-response","119","698188","0.0-4.0-2.0-1.2","spark_pilot_2","7318","6","12","Male","","","","","","","null","<div style=""font-size:60px;"">+</div>","null","fixation","","","","","","","","","","","5","","",""
"revaluation","120","704200","0.0-4.0-2.0-0.3","spark_pilot_2","7318","6","12","Male","","false","","","","","[281,304.40000000596046]","./assets/img/canyon/memory/26.jpg","[""ArrowUp"",""ArrowLeft""]","value training","canyon","23","{""ArrowUp,ArrowLeft"":23,""ArrowUp,ArrowRight"":10,""ArrowDown,ArrowLeft"":8,""ArrowDown,ArrowRight"":30}","false","ArrowUp,ArrowLeft","false","","","revaluation","1","6","","",""
"html-keyboard-response","121","704702","0.0-4.0-2.0-1.3","spark_pilot_2","7318","6","12","Male","","","","","","","null","<div style=""font-size:60px;"">+</div>","null","fixation","","","","","","","","","","","7","","",""
"revaluation","122","710721","0.0-4.0-2.0-0.4","spark_pilot_2","7318","6","12","Male","","false","","","","","[296.3999999985099,287.6000000014901]","./assets/img/canyon/memory/0.jpg","[""ArrowDown"",""ArrowRight""]","value training","canyon","30","{""ArrowUp,ArrowLeft"":23,""ArrowUp,ArrowRight"":10,""ArrowDown,ArrowLeft"":8,""ArrowDown,ArrowRight"":30}","true","ArrowDown,ArrowRight","false","","","revaluation","1","8","","",""
"html-keyboard-response","123","711223","0.0-4.0-2.0-1.4","spark_pilot_2","7318","6","12","Male","","","","","","","null","<div style=""font-size:60px;"">+</div>","null","fixation","","","","","","","","","","","9","","",""
"revaluation","124","717228","0.0-4.0-2.0-0.5","spark_pilot_2","7318","6","12","Male","","false","","","","","[430.1000000014901,189.70000000298023]","./assets/img/canyon/memory/0.jpg","[""ArrowDown"",""ArrowRight""]","value training","canyon","30","{""ArrowUp,ArrowLeft"":23,""ArrowUp,ArrowRight"":10,""ArrowDown,ArrowLeft"":8,""ArrowDown,ArrowRight"":30}","true","ArrowDown,ArrowRight","false","","","revaluation","1","10","","",""
"html-keyboard-response","125","717730","0.0-4.0-2.0-1.5","spark_pilot_2","7318","6","12","Male","","","","","","","null","<div style=""font-size:60px;"">+</div>","null","fixation","","","","","","","","","","","11","","",""
"revaluation","126","723734","0.0-4.0-2.0-0.6","spark_pilot_2","7318","6","12","Male","","false","","","","","[132.20000000298023,258.80000000447035]","./assets/img/canyon/memory/16.jpg","[""ArrowDown"",""ArrowRight""]","value training","canyon","30","{""ArrowUp,ArrowLeft"":23,""ArrowUp,ArrowRight"":10,""ArrowDown,ArrowLeft"":8,""ArrowDown,ArrowRight"":30}","true","ArrowDown,ArrowRight","false","","","revaluation","1","12","","",""
"html-keyboard-response","127","724236","0.0-4.0-2.0-1.6","spark_pilot_2","7318","6","12","Male","","","","","","","null","<div style=""font-size:60px;"">+</div>","null","fixation","","","","","","","","","","","13","","",""
"revaluation","128","730241","0.0-4.0-2.0-0.7","spark_pilot_2","7318","6","12","Male","","false","","","","","[201.30000000447035,256.1000000014901]","./assets/img/canyon/memory/2.jpg","[""ArrowDown"",""ArrowRight""]","value training","canyon","30","{""ArrowUp,ArrowLeft"":23,""ArrowUp,ArrowRight"":10,""ArrowDown,ArrowLeft"":8,""ArrowDown,ArrowRight"":30}","true","ArrowDown,ArrowRight","false","","","revaluation","1","14","","",""
"html-keyboard-response","129","730743","0.0-4.0-2.0-1.7","spark_pilot_2","7318","6","12","Male","","","","","","","null","<div style=""font-size:60px;"">+</div>","null","fixation","","","","","","","","","","","15","","",""
"revaluation","130","734747","0.0-4.0-2.0-0.8","spark_pilot_2","7318","6","12","Male","","false","","","","","[151.10000000149012]","./assets/img/canyon/catch/6.jpg","[""ArrowDown""]","value training","canyon","-10","{""ArrowUp,ArrowLeft"":23,""ArrowUp,ArrowRight"":10,""ArrowDown,ArrowLeft"":8,""ArrowDown,ArrowRight"":30}","false","ArrowDown","true","","","revaluation","1","16","","",""
"html-keyboard-response","131","735248","0.0-4.0-2.0-1.8","spark_pilot_2","7318","6","12","Male","","","","","","","null","<div style=""font-size:60px;"">+</div>","null","fixation","","","","","","","","","","","17","","",""
"revaluation","132","741252","0.0-4.0-2.0-0.9","spark_pilot_2","7318","6","12","Male","","false","","","","","[630.7000000029802,252.10000000149012]","./assets/img/canyon/memory/1.jpg","[""ArrowDown"",""ArrowRight""]","value training","canyon","30","{""ArrowUp,ArrowLeft"":23,""ArrowUp,ArrowRight"":10,""ArrowDown,ArrowLeft"":8,""ArrowDown,ArrowRight"":30}","true","ArrowDown,ArrowRight","false","","","revaluation","1","18","","",""
"html-keyboard-response","133","741753","0.0-4.0-2.0-1.9","spark_pilot_2","7318","6","12","Male","","","","","","","null","<div style=""font-size:60px;"">+</div>","null","fixation","","","","","","","","","","","19","","",""
"revaluation","134","747758","0.0-4.0-2.0-0.10","spark_pilot_2","7318","6","12","Male","","false","","","","","[484.1000000014901,275]","./assets/img/canyon/memory/40.jpg","[""ArrowDown"",""ArrowRight""]","value training","canyon","30","{""ArrowUp,ArrowLeft"":23,""ArrowUp,ArrowRight"":10,""ArrowDown,ArrowLeft"":8,""ArrowDown,ArrowRight"":30}","true","ArrowDown,ArrowRight","false","","","revaluation","1","20","","",""
"html-keyboard-response","135","748259","0.0-4.0-2.0-1.10","spark_pilot_2","7318","6","12","Male","","","","","","","null","<div style=""font-size:60px;"">+</div>","null","fixation","","","","","","","","","","","21","","",""
"revaluation","136","754263","0.0-4.0-2.0-0.11","spark_pilot_2","7318","6","12","Male","","false","","","","","[529.8000000044703,368.40000000596046]","./assets/img/canyon/memory/4.jpg","[""ArrowDown"",""ArrowRight""]","value training","canyon","30","{""ArrowUp,ArrowLeft"":23,""ArrowUp,ArrowRight"":10,""ArrowDown,ArrowLeft"":8,""ArrowDown,ArrowRight"":30}","true","ArrowDown,ArrowRight","false","","","revaluation","1","22","","",""
"html-keyboard-response","137","754765","0.0-4.0-2.0-1.11","spark_pilot_2","7318","6","12","Male","","","","","","","null","<div style=""font-size:60px;"">+</div>","null","fixation","","","","","","","","","","","23","","",""
"revaluation","138","760770","0.0-4.0-2.0-0.12","spark_pilot_2","7318","6","12","Male","","false","","","","","[576.2000000029802,311.40000000596046]","./assets/img/canyon/memory/16.jpg","[""ArrowDown"",""ArrowRight""]","value training","canyon","30","{""ArrowUp,ArrowLeft"":23,""ArrowUp,ArrowRight"":10,""ArrowDown,ArrowLeft"":8,""ArrowDown,ArrowRight"":30}","true","ArrowDown,ArrowRight","false","","","revaluation","1","24","","",""
"html-keyboard-response","139","761272","0.0-4.0-2.0-1.12","spark_pilot_2","7318","6","12","Male","","","","","","","null","<div style=""font-size:60px;"">+</div>","null","fixation","","","","","","","","","","","25","","",""
"revaluation","140","767276","0.0-4.0-2.0-0.13","spark_pilot_2","7318","6","12","Male","","false","","","","","[445.29999999701977,332.8999999985099]","./assets/img/canyon/memory/24.jpg","[""ArrowDown"",""ArrowRight""]","value training","canyon","30","{""ArrowUp,ArrowLeft"":23,""ArrowUp,ArrowRight"":10,""ArrowDown,ArrowLeft"":8,""ArrowDown,ArrowRight"":30}","true","ArrowDown,ArrowRight","false","","","revaluation","1","26","","",""
"html-keyboard-response","141","767777","0.0-4.0-2.0-1.13","spark_pilot_2","7318","6","12","Male","","","","","","","null","<div style=""font-size:60px;"">+</div>","null","fixation","","","","","","","","","","","27","","",""
"revaluation","142","773782","0.0-4.0-2.0-0.14","spark_pilot_2","7318","6","12","Male","","false","","","","","[515.8000000044703,450.40000000596046]","./assets/img/canyon/memory/29.jpg","[""ArrowDown"",""ArrowRight""]","value training","canyon","30","{""ArrowUp,ArrowLeft"":23,""ArrowUp,ArrowRight"":10,""ArrowDown,ArrowLeft"":8,""ArrowDown,ArrowRight"":30}","true","ArrowDown,ArrowRight","false","","","revaluation","1","28","","",""
"html-keyboard-response","143","774284","0.0-4.0-2.0-1.14","spark_pilot_2","7318","6","12","Male","","","","","","","null","<div style=""font-size:60px;"">+</div>","null","fixation","","","","","","","","","","","29","","",""
"revaluation","144","780289","0.0-4.0-2.0-0.15","spark_pilot_2","7318","6","12","Male","","false","","","","","[441.6000000014901,593.1999999955297]","./assets/img/canyon/memory/32.jpg","[""ArrowDown"",""ArrowRight""]","value training","canyon","30","{""ArrowUp,ArrowLeft"":23,""ArrowUp,ArrowRight"":10,""ArrowDown,ArrowLeft"":8,""ArrowDown,ArrowRight"":30}","true","ArrowDown,ArrowRight","false","","","revaluation","1","30","","",""
"html-keyboard-response","145","780791","0.0-4.0-2.0-1.15","spark_pilot_2","7318","6","12","Male","","","","","","","null","<div style=""font-size:60px;"">+</div>","null","fixation","","","","","","","","","","","31","","",""
"revaluation","146","786802","0.0-4.0-2.0-0.16","spark_pilot_2","7318","6","12","Male","","false","","","","","[614.7999999970198,550.2000000029802]","./assets/img/canyon/memory/6.jpg","[""ArrowDown"",""ArrowRight""]","value training","canyon","30","{""ArrowUp,ArrowLeft"":23,""ArrowUp,ArrowRight"":10,""ArrowDown,ArrowLeft"":8,""ArrowDown,ArrowRight"":30}","true","ArrowDown,ArrowRight","false","","","revaluation","1","32","","",""
"html-keyboard-response","147","787304","0.0-4.0-2.0-1.16","spark_pilot_2","7318","6","12","Male","","","","","","","null","<div style=""font-size:60px;"">+</div>","null","fixation","","","","","","","","","","","33","","",""
"revaluation","148","793308","0.0-4.0-2.0-0.17","spark_pilot_2","7318","6","12","Male","","false","","","","","[556.5,1179.3999999985099]","./assets/img/canyon/memory/2.jpg","[""ArrowDown"",""ArrowRight""]","value training","canyon","30","{""ArrowUp,ArrowLeft"":23,""ArrowUp,ArrowRight"":10,""ArrowDown,ArrowLeft"":8,""ArrowDown,ArrowRight"":30}","true","ArrowDown,ArrowRight","false","","","revaluation","1","34","","",""
"html-keyboard-response","149","793810","0.0-4.0-2.0-1.17","spark_pilot_2","7318","6","12","Male","","","","","","","null","<div style=""font-size:60px;"">+</div>","null","fixation","","","","","","","","","","","35","","",""
"revaluation","150","799813","0.0-4.0-2.0-0.18","spark_pilot_2","7318","6","12","Male","","false","","","","","[635.8000000044703,554.3000000044703]","./assets/img/canyon/memory/38.jpg","[""ArrowDown"",""ArrowRight""]","value training","canyon","30","{""ArrowUp,ArrowLeft"":23,""ArrowUp,ArrowRight"":10,""ArrowDown,ArrowLeft"":8,""ArrowDown,ArrowRight"":30}","true","ArrowDown,ArrowRight","false","","","revaluation","1","36","","",""
"html-keyboard-response","151","800315","0.0-4.0-2.0-1.18","spark_pilot_2","7318","6","12","Male","","","","","","","null","<div style=""font-size:60px;"">+</div>","null","fixation","","","","","","","","","","","37","","",""
"revaluation","152","806320","0.0-4.0-2.0-0.19","spark_pilot_2","7318","6","12","Male","","false","","","","","[514.5,352.80000000447035]","./assets/img/canyon/memory/26.jpg","[""ArrowDown"",""ArrowRight""]","value training","canyon","30","{""ArrowUp,ArrowLeft"":23,""ArrowUp,ArrowRight"":10,""ArrowDown,ArrowLeft"":8,""ArrowDown,ArrowRight"":30}","true","ArrowDown,ArrowRight","false","","","revaluation","1","38","","",""
"html-keyboard-response","153","806822","0.0-4.0-2.0-1.19","spark_pilot_2","7318","6","12","Male","","","","","","","null","<div style=""font-size:60px;"">+</div>","null","fixation","","","","","","","","","","","39","","",""
"revaluation","154","812826","0.0-4.0-2.0-0.20","spark_pilot_2","7318","6","12","Male","","false","","","","","[703.7000000029802,238.39999999850988]","./assets/img/canyon/memory/10.jpg","[""ArrowDown"",""ArrowRight""]","value training","canyon","30","{""ArrowUp,ArrowLeft"":23,""ArrowUp,ArrowRight"":10,""ArrowDown,ArrowLeft"":8,""ArrowDown,ArrowRight"":30}","true","ArrowDown,ArrowRight","false","","","revaluation","1","40","","",""
"html-keyboard-response","155","813328","0.0-4.0-2.0-1.20","spark_pilot_2","7318","6","12","Male","","","","","","","null","<div style=""font-size:60px;"">+</div>","null","fixation","","","","","","","","","","","41","","",""
"revaluation","156","819333","0.0-4.0-2.0-0.21","spark_pilot_2","7318","6","12","Male","","false","","","","","[366.09999999403954,132.89999999850988]","./assets/img/canyon/memory/4.jpg","[""ArrowDown"",""ArrowRight""]","value training","canyon","30","{""ArrowUp,ArrowLeft"":23,""ArrowUp,ArrowRight"":10,""ArrowDown,ArrowLeft"":8,""ArrowDown,ArrowRight"":30}","true","ArrowDown,ArrowRight","false","","","revaluation","1","42","","",""
"html-keyboard-response","157","819834","0.0-4.0-2.0-1.21","spark_pilot_2","7318","6","12","Male","","","","","","","null","<div style=""font-size:60px;"">+</div>","null","fixation","","","","","","","","","","","43","","",""
"revaluation","158","825838","0.0-4.0-2.0-0.22","spark_pilot_2","7318","6","12","Male","","false","","","","","[483.5,546.5]","./assets/img/canyon/memory/6.jpg","[""ArrowDown"",""ArrowRight""]","value training","canyon","30","{""ArrowUp,ArrowLeft"":23,""ArrowUp,ArrowRight"":10,""ArrowDown,ArrowLeft"":8,""ArrowDown,ArrowRight"":30}","true","ArrowDown,ArrowRight","false","","","revaluation","1","44","","",""
"html-keyboard-response","159","826339","0.0-4.0-2.0-1.22","spark_pilot_2","7318","6","12","Male","","","","","","","null","<div style=""font-size:60px;"">+</div>","null","fixation","","","","","","","","","","","45","","",""
"revaluation","160","830343","0.0-4.0-2.0-0.23","spark_pilot_2","7318","6","12","Male","","false","","","","","[362.20000000298023]","./assets/img/canyon/catch/1.jpg","[""ArrowDown""]","value training","canyon","-10","{""ArrowUp,ArrowLeft"":23,""ArrowUp,ArrowRight"":10,""ArrowDown,ArrowLeft"":8,""ArrowDown,ArrowRight"":30}","false","ArrowDown","true","","","revaluation","1","46","","",""
"html-keyboard-response","161","830844","0.0-4.0-2.0-1.23","spark_pilot_2","7318","6","12","Male","","","","","","","null","<div style=""font-size:60px;"">+</div>","null","fixation","","","","","","","","","","","47","","",""
"revaluation","162","834847","0.0-4.0-2.0-0.24","spark_pilot_2","7318","6","12","Male","","false","","","","","[753]","./assets/img/canyon/catch/0.jpg","[""ArrowDown""]","value training","canyon","-10","{""ArrowUp,ArrowLeft"":23,""ArrowUp,ArrowRight"":10,""ArrowDown,ArrowLeft"":8,""ArrowDown,ArrowRight"":30}","false","ArrowDown","true","","","revaluation","1","48","","",""
"html-keyboard-response","163","835348","0.0-4.0-2.0-1.24","spark_pilot_2","7318","6","12","Male","","","","","","","null","<div style=""font-size:60px;"">+</div>","null","fixation","","","","","","","","","","","49","","",""
"revaluation","164","841358","0.0-4.0-2.0-0.25","spark_pilot_2","7318","6","12","Male","","false","","","","","[1032.8999999985099,593.1000000014901]","./assets/img/canyon/memory/38.jpg","[""ArrowDown"",""ArrowRight""]","value training","canyon","30","{""ArrowUp,ArrowLeft"":23,""ArrowUp,ArrowRight"":10,""ArrowDown,ArrowLeft"":8,""ArrowDown,ArrowRight"":30}","true","ArrowDown,ArrowRight","false","","","revaluation","1","50","","",""
"html-keyboard-response","165","841860","0.0-4.0-2.0-1.25","spark_pilot_2","7318","6","12","Male","","","","","","","null","<div style=""font-size:60px;"">+</div>","null","fixation","","","","","","","","","","","51","","",""
"revaluation","166","847864","0.0-4.0-2.0-0.26","spark_pilot_2","7318","6","12","Male","","false","","","","","[385.8999999985099,352]","./assets/img/canyon/memory/29.jpg","[""ArrowDown"",""ArrowRight""]","value training","canyon","30","{""ArrowUp,ArrowLeft"":23,""ArrowUp,ArrowRight"":10,""ArrowDown,ArrowLeft"":8,""ArrowDown,ArrowRight"":30}","true","ArrowDown,ArrowRight","false","","","revaluation","1","52","","",""
"html-keyboard-response","167","848365","0.0-4.0-2.0-1.26","spark_pilot_2","7318","6","12","Male","","","","","","","null","<div style=""font-size:60px;"">+</div>","null","fixation","","","","","","","","","","","53","","",""
"revaluation","168","854371","0.0-4.0-2.0-0.27","spark_pilot_2","7318","6","12","Male","","false","","","","","[679.9000000059605,494.5]","./assets/img/canyon/memory/10.jpg","[""ArrowDown"",""ArrowRight""]","value training","canyon","30","{""ArrowUp,ArrowLeft"":23,""ArrowUp,ArrowRight"":10,""ArrowDown,ArrowLeft"":8,""ArrowDown,ArrowRight"":30}","true","ArrowDown,ArrowRight","false","","","revaluation","1","54","","",""
"html-keyboard-response","169","854873","0.0-4.0-2.0-1.27","spark_pilot_2","7318","6","12","Male","","","","","","","null","<div style=""font-size:60px;"">+</div>","null","fixation","","","","","","","","","","","55","","",""
"revaluation","170","860878","0.0-4.0-2.0-0.28","spark_pilot_2","7318","6","12","Male","","false","","","","","[572.3999999985099,506.70000000298023]","./assets/img/canyon/memory/19.jpg","[""ArrowDown"",""ArrowRight""]","value training","canyon","30","{""ArrowUp,ArrowLeft"":23,""ArrowUp,ArrowRight"":10,""ArrowDown,ArrowLeft"":8,""ArrowDown,ArrowRight"":30}","true","ArrowDown,ArrowRight","false","","","revaluation","1","56","","",""
"html-keyboard-response","171","861380","0.0-4.0-2.0-1.28","spark_pilot_2","7318","6","12","Male","","","","","","","null","<div style=""font-size:60px;"">+</div>","null","fixation","","","","","","","","","","","57","","",""
"revaluation","172","865384","0.0-4.0-2.0-0.29","spark_pilot_2","7318","6","12","Male","","false","","","","","[849.1000000014901]","./assets/img/canyon/catch/2.jpg","[""spaceBar""]","value training","canyon","0","{""ArrowUp,ArrowLeft"":23,""ArrowUp,ArrowRight"":10,""ArrowDown,ArrowLeft"":8,""ArrowDown,ArrowRight"":30}","true","spaceBar","true","","","revaluation","1","58","","",""
"html-keyboard-response","173","865885","0.0-4.0-2.0-1.29","spark_pilot_2","7318","6","12","Male","","","","","","","null","<div style=""font-size:60px;"">+</div>","null","fixation","","","","","","","","","","","59","","",""
"revaluation","174","871890","0.0-4.0-2.0-0.30","spark_pilot_2","7318","6","12","Male","","false","","","","","[504.3999999985099,358.5]","./assets/img/canyon/memory/40.jpg","[""ArrowDown"",""ArrowRight""]","value training","canyon","30","{""ArrowUp,ArrowLeft"":23,""ArrowUp,ArrowRight"":10,""ArrowDown,ArrowLeft"":8,""ArrowDown,ArrowRight"":30}","true","ArrowDown,ArrowRight","false","","","revaluation","1","60","","",""
"html-keyboard-response","175","872392","0.0-4.0-2.0-1.30","spark_pilot_2","7318","6","12","Male","","","","","","","null","<div style=""font-size:60px;"">+</div>","null","fixation","","","","","","","","","","","61","","",""
"revaluation","176","876395","0.0-4.0-2.0-0.31","spark_pilot_2","7318","6","12","Male","","false","","","","","[446.19999999552965]","./assets/img/canyon/catch/7.jpg","[""ArrowDown""]","value training","canyon","-10","{""ArrowUp,ArrowLeft"":23,""ArrowUp,ArrowRight"":10,""ArrowDown,ArrowLeft"":8,""ArrowDown,ArrowRight"":30}","false","ArrowDown","true","","","revaluation","1","62","","",""
"html-keyboard-response","177","876896","0.0-4.0-2.0-1.31","spark_pilot_2","7318","6","12","Male","","","","","","","null","<div style=""font-size:60px;"">+</div>","null","fixation","","","","","","","","","","","63","","",""
"revaluation","178","882900","0.0-4.0-2.0-0.32","spark_pilot_2","7318","6","12","Male","","false","","","","","[1549.2000000029802,524.8999999985099]","./assets/img/canyon/memory/8.jpg","[""ArrowDown"",""ArrowRight""]","value training","canyon","30","{""ArrowUp,ArrowLeft"":23,""ArrowUp,ArrowRight"":10,""ArrowDown,ArrowLeft"":8,""ArrowDown,ArrowRight"":30}","true","ArrowDown,ArrowRight","false","","","revaluation","1","64","","",""
"html-keyboard-response","179","883415","0.0-4.0-2.0-1.32","spark_pilot_2","7318","6","12","Male","","","","","","","null","<div style=""font-size:60px;"">+</div>","null","fixation","","","","","","","","","","","65","","",""
"revaluation","180","889424","0.0-4.0-2.0-0.33","spark_pilot_2","7318","6","12","Male","","false","","","","","[781.3000000044703,625]","./assets/img/canyon/memory/8.jpg","[""ArrowDown"",""ArrowRight""]","value training","canyon","30","{""ArrowUp,ArrowLeft"":23,""ArrowUp,ArrowRight"":10,""ArrowDown,ArrowLeft"":8,""ArrowDown,ArrowRight"":30}","true","ArrowDown,ArrowRight","false","","","revaluation","1","66","","",""
"html-keyboard-response","181","889926","0.0-4.0-2.0-1.33","spark_pilot_2","7318","6","12","Male","","","","","","","null","<div style=""font-size:60px;"">+</div>","null","fixation","","","","","","","","","","","67","","",""
"revaluation","182","893929","0.0-4.0-2.0-0.34","spark_pilot_2","7318","6","12","Male","","false","","","","","[863.7999999970198]","./assets/img/canyon/catch/3.jpg","[""spaceBar""]","value training","canyon","0","{""ArrowUp,ArrowLeft"":23,""ArrowUp,ArrowRight"":10,""ArrowDown,ArrowLeft"":8,""ArrowDown,ArrowRight"":30}","true","spaceBar","true","","","revaluation","1","68","","",""
"html-keyboard-response","183","894431","0.0-4.0-2.0-1.34","spark_pilot_2","7318","6","12","Male","","","","","","","null","<div style=""font-size:60px;"">+</div>","null","fixation","","","","","","","","","","","69","","",""
"revaluation","184","900436","0.0-4.0-2.0-0.35","spark_pilot_2","7318","6","12","Male","","false","","","","","[566.8999999985099,597.6999999955297]","./assets/img/canyon/memory/13.jpg","[""ArrowDown"",""ArrowRight""]","value training","canyon","30","{""ArrowUp,ArrowLeft"":23,""ArrowUp,ArrowRight"":10,""ArrowDown,ArrowLeft"":8,""ArrowDown,ArrowRight"":30}","true","ArrowDown,ArrowRight","false","","","revaluation","1","70","","",""
"html-keyboard-response","185","900937","0.0-4.0-2.0-1.35","spark_pilot_2","7318","6","12","Male","","","","","","","null","<div style=""font-size:60px;"">+</div>","null","fixation","","","","","","","","","","","71","","",""
"revaluation","186","904939","0.0-4.0-2.0-0.36","spark_pilot_2","7318","6","12","Male","","false","","","","","[716.1000000014901]","./assets/img/canyon/catch/4.jpg","[""spaceBar""]","value training","canyon","0","{""ArrowUp,ArrowLeft"":23,""ArrowUp,ArrowRight"":10,""ArrowDown,ArrowLeft"":8,""ArrowDown,ArrowRight"":30}","true","spaceBar","true","","","revaluation","1","72","","",""
"html-keyboard-response","187","905441","0.0-4.0-2.0-1.36","spark_pilot_2","7318","6","12","Male","","","","","","","null","<div style=""font-size:60px;"">+</div>","null","fixation","","","","","","","","","","","73","","",""
"revaluation","188","911445","0.0-4.0-2.0-0.37","spark_pilot_2","7318","6","12","Male","","false","","","","","[924.3000000044703,675.7000000029802]","./assets/img/canyon/memory/36.jpg","[""ArrowDown"",""ArrowRight""]","value training","canyon","30","{""ArrowUp,ArrowLeft"":23,""ArrowUp,ArrowRight"":10,""ArrowDown,ArrowLeft"":8,""ArrowDown,ArrowRight"":30}","true","ArrowDown,ArrowRight","false","","","revaluation","1","74","","",""
"html-keyboard-response","189","911948","0.0-4.0-2.0-1.37","spark_pilot_2","7318","6","12","Male","","","","","","","null","<div style=""font-size:60px;"">+</div>","null","fixation","","","","","","","","","","","75","","",""
"revaluation","190","917951","0.0-4.0-2.0-0.38","spark_pilot_2","7318","6","12","Male","","false","","","","","[658.1000000014901,520.8000000044703]","./assets/img/canyon/memory/1.jpg","[""ArrowDown"",""ArrowRight""]","value training","canyon","30","{""ArrowUp,ArrowLeft"":23,""ArrowUp,ArrowRight"":10,""ArrowDown,ArrowLeft"":8,""ArrowDown,ArrowRight"":30}","true","ArrowDown,ArrowRight","false","","","revaluation","1","76","","",""
"html-keyboard-response","191","918453","0.0-4.0-2.0-1.38","spark_pilot_2","7318","6","12","Male","","","","","","","null","<div style=""font-size:60px;"">+</div>","null","fixation","","","","","","","","","","","77","","",""
"revaluation","192","924458","0.0-4.0-2.0-0.39","spark_pilot_2","7318","6","12","Male","","false","","","","","[736.7000000029802,464]","./assets/img/canyon/memory/12.jpg","[""ArrowDown"",""ArrowRight""]","value training","canyon","30","{""ArrowUp,ArrowLeft"":23,""ArrowUp,ArrowRight"":10,""ArrowDown,ArrowLeft"":8,""ArrowDown,ArrowRight"":30}","true","ArrowDown,ArrowRight","false","","","revaluation","1","78","","",""
"html-keyboard-response","193","924959","0.0-4.0-2.0-1.39","spark_pilot_2","7318","6","12","Male","","","","","","","null","<div style=""font-size:60px;"">+</div>","null","fixation","","","","","","","","","","","79","","",""
"revaluation","194","930962","0.0-4.0-2.0-0.40","spark_pilot_2","7318","6","12","Male","","false","","","","","[326.5,213.40000000596046]","./assets/img/canyon/memory/17.jpg","[""ArrowDown"",""ArrowRight""]","value training","canyon","30","{""ArrowUp,ArrowLeft"":23,""ArrowUp,ArrowRight"":10,""ArrowDown,ArrowLeft"":8,""ArrowDown,ArrowRight"":30}","true","ArrowDown,ArrowRight","false","","","revaluation","1","80","","",""
"html-keyboard-response","195","931464","0.0-4.0-2.0-1.40","spark_pilot_2","7318","6","12","Male","","","","","","","null","<div style=""font-size:60px;"">+</div>","null","fixation","","","","","","","","","","","81","","",""
"revaluation","196","937467","0.0-4.0-2.0-0.41","spark_pilot_2","7318","6","12","Male","","false","","","","","[517.5,420.5]","./assets/img/canyon/memory/13.jpg","[""ArrowDown"",""ArrowRight""]","value training","canyon","30","{""ArrowUp,ArrowLeft"":23,""ArrowUp,ArrowRight"":10,""ArrowDown,ArrowLeft"":8,""ArrowDown,ArrowRight"":30}","true","ArrowDown,ArrowRight","false","","","revaluation","1","82","","",""
"html-keyboard-response","197","937969","0.0-4.0-2.0-1.41","spark_pilot_2","7318","6","12","Male","","","","","","","null","<div style=""font-size:60px;"">+</div>","null","fixation","","","","","","","","","","","83","","",""
"revaluation","198","941973","0.0-4.0-2.0-0.42","spark_pilot_2","7318","6","12","Male","","false","","","","","[1212.2999999970198]","./assets/img/canyon/catch/5.jpg","[""spaceBar""]","value training","canyon","0","{""ArrowUp,ArrowLeft"":23,""ArrowUp,ArrowRight"":10,""ArrowDown,ArrowLeft"":8,""ArrowDown,ArrowRight"":30}","true","spaceBar","true","","","revaluation","1","84","","",""
"html-keyboard-response","199","942475","0.0-4.0-2.0-1.42","spark_pilot_2","7318","6","12","Male","","","","","","","null","<div style=""font-size:60px;"">+</div>","null","fixation","","","","","","","","","","","85","","",""
"revaluation","200","948481","0.0-4.0-2.0-0.43","spark_pilot_2","7318","6","12","Male","","false","","","","","[1186.2999999970198,625.2000000029802]","./assets/img/canyon/memory/5.jpg","[""ArrowDown"",""ArrowRight""]","value training","canyon","30","{""ArrowUp,ArrowLeft"":23,""ArrowUp,ArrowRight"":10,""ArrowDown,ArrowLeft"":8,""ArrowDown,ArrowRight"":30}","true","ArrowDown,ArrowRight","false","","","revaluation","1","86","","",""
"html-keyboard-response","201","948993","0.0-4.0-2.0-1.43","spark_pilot_2","7318","6","12","Male","","","","","","","null","<div style=""font-size:60px;"">+</div>","null","fixation","","","","","","","","","","","87","","",""
"revaluation","202","954998","0.0-4.0-2.0-0.44","spark_pilot_2","7318","6","12","Male","","false","","","","","[820.7000000029802,467.69999999552965]","./assets/img/canyon/memory/20.jpg","[""ArrowDown"",""ArrowRight""]","value training","canyon","30","{""ArrowUp,ArrowLeft"":23,""ArrowUp,ArrowRight"":10,""ArrowDown,ArrowLeft"":8,""ArrowDown,ArrowRight"":30}","true","ArrowDown,ArrowRight","false","","","revaluation","1","88","","",""
"html-keyboard-response","203","955499","0.0-4.0-2.0-1.44","spark_pilot_2","7318","6","12","Male","","","","","","","null","<div style=""font-size:60px;"">+</div>","null","fixation","","","","","","","","","","","89","","",""
"revaluation","204","961504","0.0-4.0-2.0-0.45","spark_pilot_2","7318","6","12","Male","","false","","","","","[659.2000000029802,722.2000000029802]","./assets/img/canyon/memory/20.jpg","[""ArrowDown"",""ArrowRight""]","value training","canyon","30","{""ArrowUp,ArrowLeft"":23,""ArrowUp,ArrowRight"":10,""ArrowDown,ArrowLeft"":8,""ArrowDown,ArrowRight"":30}","true","ArrowDown,ArrowRight","false","","","revaluation","1","90","","",""
"html-keyboard-response","205","962004","0.0-4.0-2.0-1.45","spark_pilot_2","7318","6","12","Male","","","","","","","null","<div style=""font-size:60px;"">+</div>","null","fixation","","","","","","","","","","","91","","",""
"revaluation","206","968008","0.0-4.0-2.0-0.46","spark_pilot_2","7318","6","12","Male","","false","","","","","[529.3000000044703,599.7999999970198]","./assets/img/canyon/memory/24.jpg","[""ArrowDown"",""ArrowRight""]","value training","canyon","30","{""ArrowUp,ArrowLeft"":23,""ArrowUp,ArrowRight"":10,""ArrowDown,ArrowLeft"":8,""ArrowDown,ArrowRight"":30}","true","ArrowDown,ArrowRight","false","","","revaluation","1","92","","",""
"html-keyboard-response","207","968511","0.0-4.0-2.0-1.46","spark_pilot_2","7318","6","12","Male","","","","","","","null","<div style=""font-size:60px;"">+</div>","null","fixation","","","","","","","","","","","93","","",""
"revaluation","208","974516","0.0-4.0-2.0-0.47","spark_pilot_2","7318","6","12","Male","","false","","","","","[742.7000000029802,357.90000000596046]","./assets/img/canyon/memory/19.jpg","[""ArrowDown"",""ArrowRight""]","value training","canyon","30","{""ArrowUp,ArrowLeft"":23,""ArrowUp,ArrowRight"":10,""ArrowDown,ArrowLeft"":8,""ArrowDown,ArrowRight"":30}","true","ArrowDown,ArrowRight","false","","","revaluation","1","94","","",""
"html-keyboard-response","209","975018","0.0-4.0-2.0-1.47","spark_pilot_2","7318","6","12","Male","","","","","","","null","<div style=""font-size:60px;"">+</div>","null","fixation","","","","","","","","","","","95","","",""
"revaluation","210","981021","0.0-4.0-2.0-0.48","spark_pilot_2","7318","6","12","Male","","false","","","","","[779.8000000044703,578.8000000044703]","./assets/img/canyon/memory/12.jpg","[""ArrowDown"",""ArrowRight""]","value training","canyon","30","{""ArrowUp,ArrowLeft"":23,""ArrowUp,ArrowRight"":10,""ArrowDown,ArrowLeft"":8,""ArrowDown,ArrowRight"":30}","true","ArrowDown,ArrowRight","false","","","revaluation","1","96","","",""
"html-keyboard-response","211","981523","0.0-4.0-2.0-1.48","spark_pilot_2","7318","6","12","Male","","","","","","","null","<div style=""font-size:60px;"">+</div>","null","fixation","","","","","","","","","","","97","","",""
"revaluation","212","987527","0.0-4.0-2.0-0.49","spark_pilot_2","7318","6","12","Male","","false","","","","","[843.1000000014901,368.8999999985099]","./assets/img/canyon/memory/32.jpg","[""ArrowDown"",""ArrowRight""]","value training","canyon","30","{""ArrowUp,ArrowLeft"":23,""ArrowUp,ArrowRight"":10,""ArrowDown,ArrowLeft"":8,""ArrowDown,ArrowRight"":30}","true","ArrowDown,ArrowRight","false","","","revaluation","1","98","","",""
"html-keyboard-response","213","988028","0.0-4.0-2.0-1.49","spark_pilot_2","7318","6","12","Male","","","","","","","null","<div style=""font-size:60px;"">+</div>","null","fixation","","","","","","","","","","","99","","",""
"learning-instructions","214","1004511","0.0-4.0-3.0-0.0","spark_pilot_2","7318","6","12","Male","","","","","","","3568.2999999970198","<p> Now, you will travel with a friend who will choose whether you go up or down first. </p>
            <p> On these turns, you will just see the animal that they found. You will still get to choose which chest to search for treasure.</p>","","instructions","","","","","","","","","","","","","",""
"revaluation","215","1008532","0.0-4.0-4.0-0.0","spark_pilot_2","7318","6","12","Male","","false","","","","","[1007.1000000014901]","./assets/img/canyon/animals/giraffe.jpg","[""ArrowRight""]","revaluation","canyon","7","{""ArrowUp,ArrowLeft"":27,""ArrowUp,ArrowRight"":15,""ArrowDown,ArrowLeft"":21,""ArrowDown,ArrowRight"":7}","false","ArrowDown,ArrowRight","","","","revaluation","1","0","","",""
"html-keyboard-response","216","1009046","0.0-4.0-4.0-1.0","spark_pilot_2","7318","6","12","Male","","","","","","","null","<div style=""font-size:60px;"">+</div>","null","fixation","","","","","","","","","","","1","","",""
"revaluation","217","1013070","0.0-4.0-4.0-0.1","spark_pilot_2","7318","6","12","Male","","false","","","","","[511.1000000014901]","./assets/img/canyon/animals/lion.jpg","[""ArrowLeft""]","revaluation","canyon","27","{""ArrowUp,ArrowLeft"":27,""ArrowUp,ArrowRight"":15,""ArrowDown,ArrowLeft"":21,""ArrowDown,ArrowRight"":7}","true","ArrowUp,ArrowLeft","","","","revaluation","1","2","","",""
"html-keyboard-response","218","1013584","0.0-4.0-4.0-1.1","spark_pilot_2","7318","6","12","Male","","","","","","","null","<div style=""font-size:60px;"">+</div>","null","fixation","","","","","","","","","","","3","","",""
"revaluation","219","1017603","0.0-4.0-4.0-0.2","spark_pilot_2","7318","6","12","Male","","false","","","","","[486.40000000596046]","./assets/img/canyon/animals/lion.jpg","[""ArrowRight""]","revaluation","canyon","15","{""ArrowUp,ArrowLeft"":27,""ArrowUp,ArrowRight"":15,""ArrowDown,ArrowLeft"":21,""ArrowDown,ArrowRight"":7}","false","ArrowUp,ArrowRight","","","","revaluation","1","4","","",""
"html-keyboard-response","220","1018118","0.0-4.0-4.0-1.2","spark_pilot_2","7318","6","12","Male","","","","","","","null","<div style=""font-size:60px;"">+</div>","null","fixation","","","","","","","","","","","5","","",""
"revaluation","221","1022142","0.0-4.0-4.0-0.3","spark_pilot_2","7318","6","12","Male","","false","","","","","[384.70000000298023]","./assets/img/canyon/animals/giraffe.jpg","[""ArrowLeft""]","revaluation","canyon","21","{""ArrowUp,ArrowLeft"":27,""ArrowUp,ArrowRight"":15,""ArrowDown,ArrowLeft"":21,""ArrowDown,ArrowRight"":7}","true","ArrowDown,ArrowLeft","","","","revaluation","1","6","","",""
"html-keyboard-response","222","1022657","0.0-4.0-4.0-1.3","spark_pilot_2","7318","6","12","Male","","","","","","","null","<div style=""font-size:60px;"">+</div>","null","fixation","","","","","","","","","","","7","","",""
"revaluation","223","1026675","0.0-4.0-4.0-0.4","spark_pilot_2","7318","6","12","Male","","false","","","","","[36]","./assets/img/canyon/animals/lion.jpg","[""ArrowLeft""]","revaluation","canyon","27","{""ArrowUp,ArrowLeft"":27,""ArrowUp,ArrowRight"":15,""ArrowDown,ArrowLeft"":21,""ArrowDown,ArrowRight"":7}","true","ArrowUp,ArrowLeft","","","","revaluation","1","8","","",""
"html-keyboard-response","224","1027189","0.0-4.0-4.0-1.4","spark_pilot_2","7318","6","12","Male","","","","","","","null","<div style=""font-size:60px;"">+</div>","null","fixation","","","","","","","","","","","9","","",""
"revaluation","225","1031195","0.0-4.0-4.0-0.5","spark_pilot_2","7318","6","12","Male","","false","","","","","[367.8999999985099]","./assets/img/canyon/animals/giraffe.jpg","[""ArrowLeft""]","revaluation","canyon","21","{""ArrowUp,ArrowLeft"":27,""ArrowUp,ArrowRight"":15,""ArrowDown,ArrowLeft"":21,""ArrowDown,ArrowRight"":7}","true","ArrowDown,ArrowLeft","","","","revaluation","1","10","","",""
"html-keyboard-response","226","1031697","0.0-4.0-4.0-1.5","spark_pilot_2","7318","6","12","Male","","","","","","","null","<div style=""font-size:60px;"">+</div>","null","fixation","","","","","","","","","","","11","","",""
"revaluation","227","1035701","0.0-4.0-4.0-0.6","spark_pilot_2","7318","6","12","Male","","false","","","","","[75.89999999850988]","./assets/img/canyon/animals/lion.jpg","[""ArrowLeft""]","revaluation","canyon","27","{""ArrowUp,ArrowLeft"":27,""ArrowUp,ArrowRight"":15,""ArrowDown,ArrowLeft"":21,""ArrowDown,ArrowRight"":7}","true","ArrowUp,ArrowLeft","","","","revaluation","1","12","","",""
"html-keyboard-response","228","1036202","0.0-4.0-4.0-1.6","spark_pilot_2","7318","6","12","Male","","","","","","","null","<div style=""font-size:60px;"">+</div>","null","fixation","","","","","","","","","","","13","","",""
"revaluation","229","1040207","0.0-4.0-4.0-0.7","spark_pilot_2","7318","6","12","Male","","false","","","","","[67.5]","./assets/img/canyon/animals/lion.jpg","[""ArrowLeft""]","revaluation","canyon","27","{""ArrowUp,ArrowLeft"":27,""ArrowUp,ArrowRight"":15,""ArrowDown,ArrowLeft"":21,""ArrowDown,ArrowRight"":7}","true","ArrowUp,ArrowLeft","","","","revaluation","1","14","","",""
"html-keyboard-response","230","1040708","0.0-4.0-4.0-1.7","spark_pilot_2","7318","6","12","Male","","","","","","","null","<div style=""font-size:60px;"">+</div>","null","fixation","","","","","","","","","","","15","","",""
"revaluation","231","1044711","0.0-4.0-4.0-0.8","spark_pilot_2","7318","6","12","Male","","false","","","","","[7.800000004470348]","./assets/img/canyon/animals/giraffe.jpg","[""ArrowLeft""]","revaluation","canyon","21","{""ArrowUp,ArrowLeft"":27,""ArrowUp,ArrowRight"":15,""ArrowDown,ArrowLeft"":21,""ArrowDown,ArrowRight"":7}","true","ArrowDown,ArrowLeft","","","","revaluation","1","16","","",""
"html-keyboard-response","232","1045212","0.0-4.0-4.0-1.8","spark_pilot_2","7318","6","12","Male","","","","","","","null","<div style=""font-size:60px;"">+</div>","null","fixation","","","","","","","","","","","17","","",""
"revaluation","233","1049216","0.0-4.0-4.0-0.9","spark_pilot_2","7318","6","12","Male","","false","","","","","[201.39999999850988]","./assets/img/canyon/animals/lion.jpg","[""ArrowLeft""]","revaluation","canyon","27","{""ArrowUp,ArrowLeft"":27,""ArrowUp,ArrowRight"":15,""ArrowDown,ArrowLeft"":21,""ArrowDown,ArrowRight"":7}","true","ArrowUp,ArrowLeft","","","","revaluation","1","18","","",""
"html-keyboard-response","234","1049717","0.0-4.0-4.0-1.9","spark_pilot_2","7318","6","12","Male","","","","","","","null","<div style=""font-size:60px;"">+</div>","null","fixation","","","","","","","","","","","19","","",""
"revaluation","235","1053722","0.0-4.0-4.0-0.10","spark_pilot_2","7318","6","12","Male","","false","","","","","[64.5]","./assets/img/canyon/animals/giraffe.jpg","[""ArrowLeft""]","revaluation","canyon","21","{""ArrowUp,ArrowLeft"":27,""ArrowUp,ArrowRight"":15,""ArrowDown,ArrowLeft"":21,""ArrowDown,ArrowRight"":7}","true","ArrowDown,ArrowLeft","","","","revaluation","1","20","","",""
"html-keyboard-response","236","1054224","0.0-4.0-4.0-1.10","spark_pilot_2","7318","6","12","Male","","","","","","","null","<div style=""font-size:60px;"">+</div>","null","fixation","","","","","","","","","","","21","","",""
"revaluation","237","1058227","0.0-4.0-4.0-0.11","spark_pilot_2","7318","6","12","Male","","false","","","","","[213.39999999850988]","./assets/img/canyon/animals/lion.jpg","[""ArrowLeft""]","revaluation","canyon","27","{""ArrowUp,ArrowLeft"":27,""ArrowUp,ArrowRight"":15,""ArrowDown,ArrowLeft"":21,""ArrowDown,ArrowRight"":7}","true","ArrowUp,ArrowLeft","","","","revaluation","1","22","","",""
"html-keyboard-response","238","1058729","0.0-4.0-4.0-1.11","spark_pilot_2","7318","6","12","Male","","","","","","","null","<div style=""font-size:60px;"">+</div>","null","fixation","","","","","","","","","","","23","","",""
"revaluation","239","1062731","0.0-4.0-4.0-0.12","spark_pilot_2","7318","6","12","Male","","false","","","","","[44.80000000447035]","./assets/img/canyon/animals/lion.jpg","[""ArrowLeft""]","revaluation","canyon","27","{""ArrowUp,ArrowLeft"":27,""ArrowUp,ArrowRight"":15,""ArrowDown,ArrowLeft"":21,""ArrowDown,ArrowRight"":7}","true","ArrowUp,ArrowLeft","","","","revaluation","1","24","","",""
"html-keyboard-response","240","1063233","0.0-4.0-4.0-1.12","spark_pilot_2","7318","6","12","Male","","","","","","","null","<div style=""font-size:60px;"">+</div>","null","fixation","","","","","","","","","","","25","","",""
"revaluation","241","1067236","0.0-4.0-4.0-0.13","spark_pilot_2","7318","6","12","Male","","false","","","","","[268.70000000298023]","./assets/img/canyon/animals/lion.jpg","[""ArrowLeft""]","revaluation","canyon","27","{""ArrowUp,ArrowLeft"":27,""ArrowUp,ArrowRight"":15,""ArrowDown,ArrowLeft"":21,""ArrowDown,ArrowRight"":7}","true","ArrowUp,ArrowLeft","","","","revaluation","1","26","","",""
"html-keyboard-response","242","1067738","0.0-4.0-4.0-1.13","spark_pilot_2","7318","6","12","Male","","","","","","","null","<div style=""font-size:60px;"">+</div>","null","fixation","","","","","","","","","","","27","","",""
"revaluation","243","1071741","0.0-4.0-4.0-0.14","spark_pilot_2","7318","6","12","Male","","false","","","","","[139.5]","./assets/img/canyon/animals/giraffe.jpg","[""ArrowLeft""]","revaluation","canyon","21","{""ArrowUp,ArrowLeft"":27,""ArrowUp,ArrowRight"":15,""ArrowDown,ArrowLeft"":21,""ArrowDown,ArrowRight"":7}","true","ArrowDown,ArrowLeft","","","","revaluation","1","28","","",""
"html-keyboard-response","244","1072243","0.0-4.0-4.0-1.14","spark_pilot_2","7318","6","12","Male","","","","","","","null","<div style=""font-size:60px;"">+</div>","null","fixation","","","","","","","","","","","29","","",""
"revaluation","245","1076246","0.0-4.0-4.0-0.15","spark_pilot_2","7318","6","12","Male","","false","","","","","[394.3999999985099]","./assets/img/canyon/animals/giraffe.jpg","[""ArrowLeft""]","revaluation","canyon","21","{""ArrowUp,ArrowLeft"":27,""ArrowUp,ArrowRight"":15,""ArrowDown,ArrowLeft"":21,""ArrowDown,ArrowRight"":7}","true","ArrowDown,ArrowLeft","","","","revaluation","1","30","","",""
"html-keyboard-response","246","1076748","0.0-4.0-4.0-1.15","spark_pilot_2","7318","6","12","Male","","","","","","","null","<div style=""font-size:60px;"">+</div>","null","fixation","","","","","","","","","","","31","","",""
"revaluation","247","1080751","0.0-4.0-4.0-0.16","spark_pilot_2","7318","6","12","Male","","false","","","","","[308.69999999552965]","./assets/img/canyon/animals/giraffe.jpg","[""ArrowLeft""]","revaluation","canyon","21","{""ArrowUp,ArrowLeft"":27,""ArrowUp,ArrowRight"":15,""ArrowDown,ArrowLeft"":21,""ArrowDown,ArrowRight"":7}","true","ArrowDown,ArrowLeft","","","","revaluation","1","32","","",""
"html-keyboard-response","248","1081253","0.0-4.0-4.0-1.16","spark_pilot_2","7318","6","12","Male","","","","","","","null","<div style=""font-size:60px;"">+</div>","null","fixation","","","","","","","","","","","33","","",""
"revaluation","249","1085257","0.0-4.0-4.0-0.17","spark_pilot_2","7318","6","12","Male","","false","","","","","[56.70000000298023]","./assets/img/canyon/animals/giraffe.jpg","[""ArrowLeft""]","revaluation","canyon","21","{""ArrowUp,ArrowLeft"":27,""ArrowUp,ArrowRight"":15,""ArrowDown,ArrowLeft"":21,""ArrowDown,ArrowRight"":7}","true","ArrowDown,ArrowLeft","","","","revaluation","1","34","","",""
"html-keyboard-response","250","1085759","0.0-4.0-4.0-1.17","spark_pilot_2","7318","6","12","Male","","","","","","","null","<div style=""font-size:60px;"">+</div>","null","fixation","","","","","","","","","","","35","","",""
"learning-instructions","251","1098847","0.0-4.0-5.0-0.0","spark_pilot_2","7318","6","12","Male","","","","","","","1674.5","<p> Time to play the dot game! </p>
            <p> For one minute, click the red dots on the following screen as they appear. </p>
            <p><b> Don't look away, as you will earn bonus for clicking dots</b>. </p>","","instructions","","","","","","","","","","","","","",""
"revaluation","252","1158849","0.0-4.0-6.0-0.0","spark_pilot_2","7318","6","12","Male","","","","","","","[91,88,91,116,123,96]","","","rest","","60","","","","","0","60000","","","","","",""
"learning-instructions","253","1166678","0.0-4.0-7.0-0.0","spark_pilot_2","7318","6","12","Male","","","","","","","1706.5","<p> You have almost finished this part of the game! </p>
            <p> We are going to ask you to make a few more choices. </p>","","instructions","","","","","","","","","","","","","",""
"learning-instructions","254","1182646","0.0-4.0-7.0-0.1","spark_pilot_2","7318","6","12","Male","","","","","","","2004.8999999985099","<p> First, you need to decide whether to go up or down. When you see each picture, use the arrow keys to make your choice. </p>
            <p><b>You will not see which animal you found, but try to get to the one that will give you the most treasure.</b></p>","","instructions","","","","","","","","","","","","","",""
"revaluation","255","1183934","0.0-4.0-8.0-0.0","spark_pilot_2","7318","6","12","Male","","false","","","","","[1287]","./assets/img/canyon/test/0.jpg","[""ArrowDown""]","first stage test","canyon","0","{""ArrowUp,ArrowLeft"":27,""ArrowUp,ArrowRight"":15,""ArrowDown,ArrowLeft"":21,""ArrowDown,ArrowRight"":7}","false","ArrowDown","false","","","revaluation","1","","","",""
"html-keyboard-response","256","1184449","0.0-4.0-8.0-1.0","spark_pilot_2","7318","6","12","Male","","","","","","","null","<div style=""font-size:60px;"">+</div>","null","fixation","","","","","","","","","","","","","",""
"revaluation","257","1185182","0.0-4.0-8.0-0.1","spark_pilot_2","7318","6","12","Male","","false","","","","","[731.8999999985099]","./assets/img/canyon/test/1.jpg","[""ArrowDown""]","first stage test","canyon","0","{""ArrowUp,ArrowLeft"":27,""ArrowUp,ArrowRight"":15,""ArrowDown,ArrowLeft"":21,""ArrowDown,ArrowRight"":7}","false","ArrowDown","false","","","revaluation","1","","","",""
"html-keyboard-response","258","1185695","0.0-4.0-8.0-1.1","spark_pilot_2","7318","6","12","Male","","","","","","","null","<div style=""font-size:60px;"">+</div>","null","fixation","","","","","","","","","","","","","",""
"revaluation","259","1186695","0.0-4.0-8.0-0.2","spark_pilot_2","7318","6","12","Male","","false","","","","","[998.5]","./assets/img/canyon/test/3.jpg","[""ArrowDown""]","first stage test","canyon","0","{""ArrowUp,ArrowLeft"":27,""ArrowUp,ArrowRight"":15,""ArrowDown,ArrowLeft"":21,""ArrowDown,ArrowRight"":7}","false","ArrowDown","false","","","revaluation","1","","","",""
"html-keyboard-response","260","1187208","0.0-4.0-8.0-1.2","spark_pilot_2","7318","6","12","Male","","","","","","","null","<div style=""font-size:60px;"">+</div>","null","fixation","","","","","","","","","","","","","",""
"revaluation","261","1187582","0.0-4.0-8.0-0.3","spark_pilot_2","7318","6","12","Male","","false","","","","","[373.29999999701977]","./assets/img/canyon/test/2.jpg","[""ArrowDown""]","first stage test","canyon","0","{""ArrowUp,ArrowLeft"":27,""ArrowUp,ArrowRight"":15,""ArrowDown,ArrowLeft"":21,""ArrowDown,ArrowRight"":7}","false","ArrowDown","false","","","revaluation","1","","","",""
"html-keyboard-response","262","1188098","0.0-4.0-8.0-1.3","spark_pilot_2","7318","6","12","Male","","","","","","","null","<div style=""font-size:60px;"">+</div>","null","fixation","","","","","","","","","","","","","",""
"learning-instructions","263","1201438","0.0-4.0-9.0-0.0","spark_pilot_2","7318","6","12","Male","","","","","","","1996.7000000029802","<p> Now you will see the animals again and can search their chests for treasure. </p>
            <p> This time, you will not see how much treasure you earned, but you will earn more bonus money for making better choices. </p>","","instructions","","","","","","","","","","","","","",""
"revaluation","264","1202639","0.0-4.0-10.0-0.0","spark_pilot_2","7318","6","12","Male","","false","","","","","[1199.6000000014901]","./assets/img/canyon/animals/lion.jpg","[""ArrowRight""]","second stage test","canyon","0","{""ArrowUp,ArrowLeft"":27,""ArrowUp,ArrowRight"":15,""ArrowDown,ArrowLeft"":21,""ArrowDown,ArrowRight"":7}","false","ArrowUp,ArrowRight","","","","revaluation","1","","","",""
"html-keyboard-response","265","1203144","0.0-4.0-10.0-1.0","spark_pilot_2","7318","6","12","Male","","","","","","","null","<div style=""font-size:60px;"">+</div>","null","fixation","","","","","","","","","","","","","",""
"revaluation","266","1203511","0.0-4.0-10.0-0.1","spark_pilot_2","7318","6","12","Male","","false","","","","","[365.70000000298023]","./assets/img/canyon/animals/lion.jpg","[""ArrowRight""]","second stage test","canyon","0","{""ArrowUp,ArrowLeft"":27,""ArrowUp,ArrowRight"":15,""ArrowDown,ArrowLeft"":21,""ArrowDown,ArrowRight"":7}","false","ArrowUp,ArrowRight","","","","revaluation","1","","","",""
"html-keyboard-response","267","1204016","0.0-4.0-10.0-1.1","spark_pilot_2","7318","6","12","Male","","","","","","","null","<div style=""font-size:60px;"">+</div>","null","fixation","","","","","","","","","","","","","",""
"revaluation","268","1204366","0.0-4.0-10.0-0.2","spark_pilot_2","7318","6","12","Male","","false","","","","","[348.70000000298023]","./assets/img/canyon/animals/lion.jpg","[""ArrowRight""]","second stage test","canyon","0","{""ArrowUp,ArrowLeft"":27,""ArrowUp,ArrowRight"":15,""ArrowDown,ArrowLeft"":21,""ArrowDown,ArrowRight"":7}","false","ArrowUp,ArrowRight","","","","revaluation","1","","","",""
"html-keyboard-response","269","1204870","0.0-4.0-10.0-1.2","spark_pilot_2","7318","6","12","Male","","","","","","","null","<div style=""font-size:60px;"">+</div>","null","fixation","","","","","","","","","","","","","",""
"revaluation","270","1205839","0.0-4.0-10.0-0.3","spark_pilot_2","7318","6","12","Male","","false","","","","","[967.2999999970198]","./assets/img/canyon/animals/lion.jpg","[""ArrowLeft""]","second stage test","canyon","0","{""ArrowUp,ArrowLeft"":27,""ArrowUp,ArrowRight"":15,""ArrowDown,ArrowLeft"":21,""ArrowDown,ArrowRight"":7}","true","ArrowUp,ArrowLeft","","","","revaluation","1","","","",""
"html-keyboard-response","271","1206347","0.0-4.0-10.0-1.3","spark_pilot_2","7318","6","12","Male","","","","","","","null","<div style=""font-size:60px;"">+</div>","null","fixation","","","","","","","","","","","","","",""
"revaluation","272","1207143","0.0-4.0-10.0-0.4","spark_pilot_2","7318","6","12","Male","","false","","","","","[793.7000000029802]","./assets/img/canyon/animals/giraffe.jpg","[""ArrowLeft""]","second stage test","canyon","0","{""ArrowUp,ArrowLeft"":27,""ArrowUp,ArrowRight"":15,""ArrowDown,ArrowLeft"":21,""ArrowDown,ArrowRight"":7}","true","ArrowDown,ArrowLeft","","","","revaluation","1","","","",""
"html-keyboard-response","273","1207657","0.0-4.0-10.0-1.4","spark_pilot_2","7318","6","12","Male","","","","","","","null","<div style=""font-size:60px;"">+</div>","null","fixation","","","","","","","","","","","","","",""
"revaluation","274","1208175","0.0-4.0-10.0-0.5","spark_pilot_2","7318","6","12","Male","","false","","","","","[516.3999999985099]","./assets/img/canyon/animals/giraffe.jpg","[""ArrowRight""]","second stage test","canyon","0","{""ArrowUp,ArrowLeft"":27,""ArrowUp,ArrowRight"":15,""ArrowDown,ArrowLeft"":21,""ArrowDown,ArrowRight"":7}","false","ArrowDown,ArrowRight","","","","revaluation","1","","","",""
"html-keyboard-response","275","1208685","0.0-4.0-10.0-1.5","spark_pilot_2","7318","6","12","Male","","","","","","","null","<div style=""font-size:60px;"">+</div>","null","fixation","","","","","","","","","","","","","",""
"revaluation","276","1208998","0.0-4.0-10.0-0.6","spark_pilot_2","7318","6","12","Male","","false","","","","","[311.70000000298023]","./assets/img/canyon/animals/giraffe.jpg","[""ArrowLeft""]","second stage test","canyon","0","{""ArrowUp,ArrowLeft"":27,""ArrowUp,ArrowRight"":15,""ArrowDown,ArrowLeft"":21,""ArrowDown,ArrowRight"":7}","true","ArrowDown,ArrowLeft","","","","revaluation","1","","","",""
"html-keyboard-response","277","1209507","0.0-4.0-10.0-1.6","spark_pilot_2","7318","6","12","Male","","","","","","","null","<div style=""font-size:60px;"">+</div>","null","fixation","","","","","","","","","","","","","",""
"revaluation","278","1209775","0.0-4.0-10.0-0.7","spark_pilot_2","7318","6","12","Male","","false","","","","","[265.8999999985099]","./assets/img/canyon/animals/giraffe.jpg","[""ArrowRight""]","second stage test","canyon","0","{""ArrowUp,ArrowLeft"":27,""ArrowUp,ArrowRight"":15,""ArrowDown,ArrowLeft"":21,""ArrowDown,ArrowRight"":7}","false","ArrowDown,ArrowRight","","","","revaluation","1","","","",""
"html-keyboard-response","279","1210287","0.0-4.0-10.0-1.7","spark_pilot_2","7318","6","12","Male","","","","","","","null","<div style=""font-size:60px;"">+</div>","null","fixation","","","","","","","","","","","","","",""
"learning-instructions","280","1215238","0.0-4.0-0.1-0.2","spark_pilot_2","7318","6","12","Male","","","","","","","2256.7999999970198","<p> This time you are searching for treasure in the <b>ocean</b>.</p>","","instructions","","","","","","","","","","","","","",""
"learning-instructions","281","1236295","0.0-4.0-0.1-0.3","spark_pilot_2","7318","6","12","Male","","","","","","","3813.60000000149","<p><b>New</b> animals with <b>new</b> treasure chests live here. You need to explore to discover where the animal with the best treasure chest is.</p>
                    <p> Like before, once you figure out which animal has the chest with the most treasure, you should try to get to that animal and select that chest! </p>","","instructions","","","","","","","","","","","","","",""
"learning-instructions","282","1252989","0.0-4.0-1.1-0.1","spark_pilot_2","7318","6","12","Male","","","","","","","1967.8999999985099","<p> Remember, when you see a picture of the place, use the up and down keys to <b>find an animal</b>.</p>
            <p> When you encounter an animal, you should use the left and right keys to <b>select a treasure chest</b>.</p>
            <p> Don't forget to look out for the robber! </p>","","instructions","","","","","","","","","","","","","",""
"revaluation","283","1258993","0.0-4.0-2.1-0.50","spark_pilot_2","7318","6","12","Male","","false","","","","","[1624.2000000029802,414.8999999985099]","./assets/img/ocean/memory/5.jpg","[""ArrowDown"",""ArrowRight""]","value training","ocean","17","{""ArrowUp,ArrowLeft"":26,""ArrowUp,ArrowRight"":10,""ArrowDown,ArrowLeft"":5,""ArrowDown,ArrowRight"":17}","false","ArrowDown,ArrowRight","false","","","original","2","0","","",""
"html-keyboard-response","284","1259494","0.0-4.0-2.1-1.50","spark_pilot_2","7318","6","12","Male","","","","","","","null","<div style=""font-size:60px;"">+</div>","null","fixation","","","","","","","","","","","1","","",""
"revaluation","285","1265509","0.0-4.0-2.1-0.51","spark_pilot_2","7318","6","12","Male","","false","","","","","[550.7000000029802,365.80000000447035]","./assets/img/ocean/memory/24.jpg","[""ArrowDown"",""ArrowLeft""]","value training","ocean","5","{""ArrowUp,ArrowLeft"":26,""ArrowUp,ArrowRight"":10,""ArrowDown,ArrowLeft"":5,""ArrowDown,ArrowRight"":17}","false","ArrowDown,ArrowLeft","false","","","original","2","2","","",""
"html-keyboard-response","286","1266018","0.0-4.0-2.1-1.51","spark_pilot_2","7318","6","12","Male","","","","","","","null","<div style=""font-size:60px;"">+</div>","null","fixation","","","","","","","","","","","3","","",""
"revaluation","287","1272046","0.0-4.0-2.1-0.52","spark_pilot_2","7318","6","12","Male","","false","","","","","[354.8999999985099,107.60000000149012]","./assets/img/ocean/memory/13.jpg","[""ArrowUp"",""ArrowRight""]","value training","ocean","10","{""ArrowUp,ArrowLeft"":26,""ArrowUp,ArrowRight"":10,""ArrowDown,ArrowLeft"":5,""ArrowDown,ArrowRight"":17}","false","ArrowUp,ArrowRight","false","","","original","2","4","","",""
"html-keyboard-response","288","1272561","0.0-4.0-2.1-1.52","spark_pilot_2","7318","6","12","Male","","","","","","","null","<div style=""font-size:60px;"">+</div>","null","fixation","","","","","","","","","","","5","","",""
"revaluation","289","1278596","0.0-4.0-2.1-0.53","spark_pilot_2","7318","6","12","Male","","false","","","","","[259.29999999701977,562.3999999985099]","./assets/img/ocean/memory/32.jpg","[""ArrowUp"",""ArrowLeft""]","value training","ocean","26","{""ArrowUp,ArrowLeft"":26,""ArrowUp,ArrowRight"":10,""ArrowDown,ArrowLeft"":5,""ArrowDown,ArrowRight"":17}","true","ArrowUp,ArrowLeft","false","","","original","2","6","","",""
"html-keyboard-response","290","1279110","0.0-4.0-2.1-1.53","spark_pilot_2","7318","6","12","Male","","","","","","","null","<div style=""font-size:60px;"">+</div>","null","fixation","","","","","","","","","","","7","","",""
"revaluation","291","1283121","0.0-4.0-2.1-0.54","spark_pilot_2","7318","6","12","Male","","false","","","","","[630.7000000029802]","./assets/img/ocean/catch/5.jpg","[""ArrowUp""]","value training","ocean","-10","{""ArrowUp,ArrowLeft"":26,""ArrowUp,ArrowRight"":10,""ArrowDown,ArrowLeft"":5,""ArrowDown,ArrowRight"":17}","false","ArrowUp","true","","","original","2","8","","",""
"html-keyboard-response","292","1283622","0.0-4.0-2.1-1.54","spark_pilot_2","7318","6","12","Male","","","","","","","null","<div style=""font-size:60px;"">+</div>","null","fixation","","","","","","","","","","","9","","",""
"revaluation","293","1289627","0.0-4.0-2.1-0.55","spark_pilot_2","7318","6","12","Male","","false","","","","","[1719.2000000029802,685.6000000014901]","./assets/img/ocean/memory/36.jpg","[""ArrowUp"",""ArrowLeft""]","value training","ocean","26","{""ArrowUp,ArrowLeft"":26,""ArrowUp,ArrowRight"":10,""ArrowDown,ArrowLeft"":5,""ArrowDown,ArrowRight"":17}","true","ArrowUp,ArrowLeft","false","","","original","2","10","","",""
"html-keyboard-response","294","1290129","0.0-4.0-2.1-1.55","spark_pilot_2","7318","6","12","Male","","","","","","","null","<div style=""font-size:60px;"">+</div>","null","fixation","","","","","","","","","","","11","","",""
"revaluation","295","1296135","0.0-4.0-2.1-0.56","spark_pilot_2","7318","6","12","Male","","false","","","","","[699.8999999985099,442.5]","./assets/img/ocean/memory/1.jpg","[""ArrowUp"",""ArrowLeft""]","value training","ocean","26","{""ArrowUp,ArrowLeft"":26,""ArrowUp,ArrowRight"":10,""ArrowDown,ArrowLeft"":5,""ArrowDown,ArrowRight"":17}","true","ArrowUp,ArrowLeft","false","","","original","2","12","","",""
"html-keyboard-response","296","1296635","0.0-4.0-2.1-1.56","spark_pilot_2","7318","6","12","Male","","","","","","","null","<div style=""font-size:60px;"">+</div>","null","fixation","","","","","","","","","","","13","","",""
"revaluation","297","1300640","0.0-4.0-2.1-0.57","spark_pilot_2","7318","6","12","Male","","false","","","","","[497.19999999552965]","./assets/img/ocean/catch/1.jpg","[""ArrowUp""]","value training","ocean","-10","{""ArrowUp,ArrowLeft"":26,""ArrowUp,ArrowRight"":10,""ArrowDown,ArrowLeft"":5,""ArrowDown,ArrowRight"":17}","false","ArrowUp","true","","","original","2","14","","",""
"html-keyboard-response","298","1301141","0.0-4.0-2.1-1.57","spark_pilot_2","7318","6","12","Male","","","","","","","null","<div style=""font-size:60px;"">+</div>","null","fixation","","","","","","","","","","","15","","",""
"revaluation","299","1307145","0.0-4.0-2.1-0.58","spark_pilot_2","7318","6","12","Male","","false","","","","","[408.5,286.8999999985099]","./assets/img/ocean/memory/13.jpg","[""ArrowUp"",""ArrowLeft""]","value training","ocean","26","{""ArrowUp,ArrowLeft"":26,""ArrowUp,ArrowRight"":10,""ArrowDown,ArrowLeft"":5,""ArrowDown,ArrowRight"":17}","true","ArrowUp,ArrowLeft","false","","","original","2","16","","",""
"html-keyboard-response","300","1307647","0.0-4.0-2.1-1.58","spark_pilot_2","7318","6","12","Male","","","","","","","null","<div style=""font-size:60px;"">+</div>","null","fixation","","","","","","","","","","","17","","",""
"revaluation","301","1311653","0.0-4.0-2.1-0.59","spark_pilot_2","7318","6","12","Male","","true","","","","","[]","./assets/img/ocean/memory/6.jpg","[]","value training","ocean","-5","{""ArrowUp,ArrowLeft"":26,""ArrowUp,ArrowRight"":10,""ArrowDown,ArrowLeft"":5,""ArrowDown,ArrowRight"":17}","false","","false","","","original","2","18","","",""
"html-keyboard-response","302","1312154","0.0-4.0-2.1-1.59","spark_pilot_2","7318","6","12","Male","","","","","","","null","<div style=""font-size:60px;"">+</div>","null","fixation","","","","","","","","","","","19","","",""
"revaluation","303","1318158","0.0-4.0-2.1-0.60","spark_pilot_2","7318","6","12","Male","","false","","","","","[1042.6000000014901,449.69999999552965]","./assets/img/ocean/memory/20.jpg","[""ArrowUp"",""ArrowLeft""]","value training","ocean","26","{""ArrowUp,ArrowLeft"":26,""ArrowUp,ArrowRight"":10,""ArrowDown,ArrowLeft"":5,""ArrowDown,ArrowRight"":17}","true","ArrowUp,ArrowLeft","false","","","original","2","20","","",""
"html-keyboard-response","304","1318659","0.0-4.0-2.1-1.60","spark_pilot_2","7318","6","12","Male","","","","","","","null","<div style=""font-size:60px;"">+</div>","null","fixation","","","","","","","","","","","21","","",""
"revaluation","305","1324664","0.0-4.0-2.1-0.61","spark_pilot_2","7318","6","12","Male","","false","","","","","[505.5,280.5]","./assets/img/ocean/memory/40.jpg","[""ArrowUp"",""ArrowLeft""]","value training","ocean","26","{""ArrowUp,ArrowLeft"":26,""ArrowUp,ArrowRight"":10,""ArrowDown,ArrowLeft"":5,""ArrowDown,ArrowRight"":17}","true","ArrowUp,ArrowLeft","false","","","original","2","22","","",""
"html-keyboard-response","306","1325165","0.0-4.0-2.1-1.61","spark_pilot_2","7318","6","12","Male","","","","","","","null","<div style=""font-size:60px;"">+</div>","null","fixation","","","","","","","","","","","23","","",""
