"trial_type","trial_index","time_elapsed","internal_node_id","task_version","subject_id","assigned_condition","age","gender","success","timeout","failed_images","failed_audio","failed_video","browser_interaction","rt","stimulus","response","task_part","environment","score","rewardMap","correct","fullState","isCatch","numberMissed","duration","condition","order","trial_num","key_press","ground_truth","bonus"
"pavlovia","0","1486","0.0-0.0","spark_pilot_2","7357","5","14","Male","","","","","","","","","","","","","","","","","","","","","","","",""
"preload","1","11276","0.0-1.0","spark_pilot_2","7357","5","14","Male","true","false","[]","[]","[]","[{""event"":""fullscreenenter"",""trial"":2,""time"":18932}]","","","","","","","","","","","","","","","","","",""
"fullscreen","2","19894","0.0-2.0","spark_pilot_2","7357","5","14","Male","true","","","","","","","","","","","","","","","","","","","","","","",""
"audio-button-response","3","25136","0.0-3.0-0.0-0.0","spark_pilot_2","7357","5","14","Male","","","","","","","5211","./assets/audio/audiotest/turtle.mp3","2","audio_test","","","","","","","","","","","","","",""
"learning-instructions","4","36918","0.0-3.0-1.0-0.0","spark_pilot_2","7357","5","14","Male","","","","","","","4772.399999976158","<p> Welcome! Please remember to stay in fullscreen mode and don't click away from the experiment. </p>","","instructions","","","","","","","","","","","","","",""
"learning-instructions","5","46918","0.0-3.0-1.0-0.1","spark_pilot_2","7357","5","14","Male","","","","","","","1582.3000000715256","<p> Today you will be playing a game to earn treasure. </p>
            <p> At the end of the experiment, you will earn a bonus based on how much treasure you find. </p>
            <img src='./assets/img/instructions/treasure.jpg' class='instructions-image'>","","instructions","","","","","","","","","","","","","",""
"learning-instructions","6","57531","0.0-3.0-1.0-0.2","spark_pilot_2","7357","5","14","Male","","","","","","","2355.899999976158","<p> Animals have hidden treasure in treasure chests. </p>
            <p> You need to first find an animal and then choose which of their treasure chests to search. </p>
            <img src='./assets/img/space/animals/cat.jpg' class='instructions-image'>","","instructions","","","","","","","","","","","","","",""
"learning-instructions","7","73035","0.0-3.0-1.0-0.3","spark_pilot_2","7357","5","14","Male","","","","","","","2350.5","<p> In each round, you will search for treasure in a different place. In the real game, there will be two rounds. </p>
            <p> You will begin with a separate, practice round where you will search for treasure in outer space. </p>
            <img src='./assets/img/space/0.jpg' class='instructions-image'>","","instructions","","","","","","","","","","","","","",""
"learning-instructions","8","87963","0.0-3.0-1.0-0.4","spark_pilot_2","7357","5","14","Male","","","","","","","3508","<p> On every turn, you will see a picture of the place that you are in, but the specific image may be different each time. </p>
            <p> For example, both of these images mean you are in outer space. </p>
            <img src='./assets/img/instructions/outerspace.jpg' class='instructions-image'>","","instructions","","","","","","","","","","","","","",""
"learning-instructions","9","99306","0.0-3.0-1.0-0.5","spark_pilot_2","7357","5","14","Male","","","","","","","3521.7999999523163","<p> You need to decide which direction to travel in. </p>
            <p> You can choose between going <b>up or down</b> by using the arrow keys. </p>
            <img src='./assets/img/instructions/updown.jpg' class='instructions-image'>","","instructions","","","","","","","","","","","","","",""
"learning-instructions","10","109534","0.0-3.0-1.0-0.6","spark_pilot_2","7357","5","14","Male","","","","","","","1429.7000000476837","<p> You will have <b>2 seconds</b> to make your choice. </p>
            <p> If you do not make a choice within 2 seconds, you will not find an animal or earn treasure. </p>
            <img src='./assets/img/instructions/2seconds.jpg' class='instructions-image'>","","instructions","","","","","","","","","","","","","",""
"learning-instructions","11","117722","0.0-3.0-1.0-0.7","spark_pilot_2","7357","5","14","Male","","","","","","","1158.1000000238419","<p> Let’s try practicing that now! </p>
            <p> When you see a picture of the place you are in, press the <b>up</b> key to travel up. </p>
            <img src='./assets/img/instructions/pressUp.jpg' class='instructions-image'>","","instructions","","","","","","","","","","","","","",""
"revaluation","12","121763","0.0-3.0-2.0-0.0","spark_pilot_2","7357","5","14","Male","","false","","","","","[1211.7999999523163]","./assets/img/space/0.jpg","[""ArrowUp""]","first stage practice","space","0","null","null","ArrowUp","false","","","","","","","",""
"html-keyboard-response","13","122265","0.0-3.0-2.0-1.0","spark_pilot_2","7357","5","14","Male","","","","","","","null","<div style=""font-size:60px;"">+</div>","null","fixation","","","","","","","","","","","","","",""
"revaluation","14","126273","0.0-3.0-2.0-0.1","spark_pilot_2","7357","5","14","Male","","false","","","","","[1748.5]","./assets/img/space/1.jpg","[""ArrowUp""]","first stage practice","space","0","null","null","ArrowUp","false","","","","","","","",""
"html-keyboard-response","15","126793","0.0-3.0-2.0-1.1","spark_pilot_2","7357","5","14","Male","","","","","","","null","<div style=""font-size:60px;"">+</div>","null","fixation","","","","","","","","","","","","","",""
"revaluation","16","130813","0.0-3.0-2.0-0.2","spark_pilot_2","7357","5","14","Male","","false","","","","","[674.3999999761581]","./assets/img/space/2.jpg","[""ArrowUp""]","first stage practice","space","0","null","null","ArrowUp","false","","","","","","","",""
"html-keyboard-response","17","131328","0.0-3.0-2.0-1.2","spark_pilot_2","7357","5","14","Male","","","","","","","null","<div style=""font-size:60px;"">+</div>","null","fixation","","","","","","","","","","","","","",""
"learning-instructions","18","137834","0.0-3.0-3.0-0.0","spark_pilot_2","7357","5","14","Male","","","","","","","1799.5999999046326","<p> Great job! Now try pressing the <b>down</b> key to travel down. </p>
            <img src='./assets/img/instructions/pressDown.jpg' class='instructions-image'>","","instructions","","","","","","","","","","","","","",""
"revaluation","19","141853","0.0-3.0-4.0-0.0","spark_pilot_2","7357","5","14","Male","","false","","","","","[499.2000000476837]","./assets/img/space/3.jpg","[""ArrowDown""]","first stage practice","space","0","null","null","ArrowDown","false","","","","","","","",""
"html-keyboard-response","20","142355","0.0-3.0-4.0-1.0","spark_pilot_2","7357","5","14","Male","","","","","","","null","<div style=""font-size:60px;"">+</div>","null","fixation","","","","","","","","","","","","","",""
"revaluation","21","146363","0.0-3.0-4.0-0.1","spark_pilot_2","7357","5","14","Male","","false","","","","","[75.09999990463257]","./assets/img/space/4.jpg","[""ArrowDown""]","first stage practice","space","0","null","null","ArrowDown","false","","","","","","","",""
"html-keyboard-response","22","146872","0.0-3.0-4.0-1.1","spark_pilot_2","7357","5","14","Male","","","","","","","null","<div style=""font-size:60px;"">+</div>","null","fixation","","","","","","","","","","","","","",""
"revaluation","23","150883","0.0-3.0-4.0-0.2","spark_pilot_2","7357","5","14","Male","","false","","","","","[1042.6999999284744]","./assets/img/space/5.jpg","[""ArrowDown""]","first stage practice","space","0","null","null","ArrowDown","false","","","","","","","",""
"html-keyboard-response","24","151402","0.0-3.0-4.0-1.2","spark_pilot_2","7357","5","14","Male","","","","","","","null","<div style=""font-size:60px;"">+</div>","null","fixation","","","","","","","","","","","","","",""
"learning-instructions","25","164424","0.0-3.0-5.0-0.0","spark_pilot_2","7357","5","14","Male","","","","","","","3139.8000000715256","<p> The animals don’t move, so the animal in the upper part of a place will stay in the upper part of a place, and the animal in the lower part of a place will stay in the lower part of a place. </p>","","instructions","","","","","","","","","","","","","",""
"learning-instructions","26","174564","0.0-3.0-5.0-0.1","spark_pilot_2","7357","5","14","Male","","","","","","","1000.5999999046326","<p> Each animal has two treasure chests for you to choose from. </p>
            <p> The amount of treasure in each chest can range from <b> 0 to 40 pieces.</b></p>","","instructions","","","","","","","","","","","","","",""
"learning-instructions","27","187472","0.0-3.0-5.0-0.2","spark_pilot_2","7357","5","14","Male","","","","","","","1728.3000000715256","<p> You should decide which chest to search for treasure by using the <b>left</b> and <b>right</b> arrow keys. </p>
            <p><b> Pay attention to which animal is on the screen, as the animals have different treasure chests. </b></p>
            <img src='./assets/img/instructions/leftright.jpg' class='instructions-image'>","","instructions","","","","","","","","","","","","","",""
"learning-instructions","28","195950","0.0-3.0-5.0-0.3","spark_pilot_2","7357","5","14","Male","","","","","","","2106.3000000715256","<p> Let’s try practicing that now. </p>
            <p> When you see an animal, choose which chest to search for treasure. </p>
            <img src='./assets/img/instructions/chooseChest.jpg' class='instructions-image'>","","instructions","","","","","","","","","","","","","",""
"revaluation","29","199963","0.0-3.0-6.0-0.0","spark_pilot_2","7357","5","14","Male","","false","","","","","[495]","./assets/img/space/animals/cat.jpg","[""ArrowRight""]","second stage practice","space","36","{""ArrowUp,ArrowLeft"":3,""ArrowUp,ArrowRight"":36,""ArrowDown,ArrowLeft"":15,""ArrowDown,ArrowRight"":23}","true","ArrowUp,ArrowRight","","","","","","","","",""
"html-keyboard-response","30","200469","0.0-3.0-6.0-1.0","spark_pilot_2","7357","5","14","Male","","","","","","","null","<div style=""font-size:60px;"">+</div>","null","fixation","","","","","","","","","","","","","",""
"revaluation","31","204483","0.0-3.0-6.0-0.1","spark_pilot_2","7357","5","14","Male","","false","","","","","[822.6000000238419]","./assets/img/space/animals/cat.jpg","[""ArrowLeft""]","second stage practice","space","3","{""ArrowUp,ArrowLeft"":3,""ArrowUp,ArrowRight"":36,""ArrowDown,ArrowLeft"":15,""ArrowDown,ArrowRight"":23}","false","ArrowUp,ArrowLeft","","","","","","","","",""
"html-keyboard-response","32","204992","0.0-3.0-6.0-1.1","spark_pilot_2","7357","5","14","Male","","","","","","","null","<div style=""font-size:60px;"">+</div>","null","fixation","","","","","","","","","","","","","",""
"revaluation","33","209012","0.0-3.0-6.0-0.2","spark_pilot_2","7357","5","14","Male","","false","","","","","[418.60000002384186]","./assets/img/space/animals/rabbit.jpg","[""ArrowRight""]","second stage practice","space","23","{""ArrowUp,ArrowLeft"":3,""ArrowUp,ArrowRight"":36,""ArrowDown,ArrowLeft"":15,""ArrowDown,ArrowRight"":23}","true","ArrowDown,ArrowRight","","","","","","","","",""
"html-keyboard-response","34","209522","0.0-3.0-6.0-1.2","spark_pilot_2","7357","5","14","Male","","","","","","","null","<div style=""font-size:60px;"">+</div>","null","fixation","","","","","","","","","","","","","",""
"revaluation","35","213552","0.0-3.0-6.0-0.3","spark_pilot_2","7357","5","14","Male","","false","","","","","[680.0999999046326]","./assets/img/space/animals/rabbit.jpg","[""ArrowRight""]","second stage practice","space","23","{""ArrowUp,ArrowLeft"":3,""ArrowUp,ArrowRight"":36,""ArrowDown,ArrowLeft"":15,""ArrowDown,ArrowRight"":23}","true","ArrowDown,ArrowRight","","","","","","","","",""
"html-keyboard-response","36","214072","0.0-3.0-6.0-1.3","spark_pilot_2","7357","5","14","Male","","","","","","","null","<div style=""font-size:60px;"">+</div>","null","fixation","","","","","","","","","","","","","",""
"learning-instructions","37","233565","0.0-3.0-7.0-0.0","spark_pilot_2","7357","5","14","Male","","","","","","","2672.2000000476837","<p> Great job. Now let’s try putting it together. </p>
            <p> On each turn, you will first see a picture to remind you of the place you are in, and you need to choose whether to go up or down. </p>
            <p> Then you will see an animal and choose which of its chests to search for treasure. </p>","","instructions","","","","","","","","","","","","","",""
"learning-instructions","38","244239","0.0-3.0-7.0-0.1","spark_pilot_2","7357","5","14","Male","","","","","","","2415.899999976158","<p> When you choose whether to go up or down, try to go to the animal with the chest with the most treasure. </p>
            <p> Try practicing that now! </p>","","instructions","","","","","","","","","","","","","",""
"revaluation","39","250262","0.0-3.0-8.0-0.0","spark_pilot_2","7357","5","14","Male","","false","","","","","[789.3000000715256,1035.7999999523163]","./assets/img/space/6.jpg","[""ArrowUp"",""ArrowLeft""]","full practice","space","3","{""ArrowUp,ArrowLeft"":3,""ArrowUp,ArrowRight"":36,""ArrowDown,ArrowLeft"":15,""ArrowDown,ArrowRight"":23}","false","ArrowUp,ArrowLeft","false","","","","","","","",""
"html-keyboard-response","40","250781","0.0-3.0-8.0-1.0","spark_pilot_2","7357","5","14","Male","","","","","","","null","<div style=""font-size:60px;"">+</div>","null","fixation","","","","","","","","","","","","","",""
"revaluation","41","256807","0.0-3.0-8.0-0.1","spark_pilot_2","7357","5","14","Male","","false","","","","","[1094,855.2999999523163]","./assets/img/space/7.jpg","[""ArrowDown"",""ArrowRight""]","full practice","space","23","{""ArrowUp,ArrowLeft"":3,""ArrowUp,ArrowRight"":36,""ArrowDown,ArrowLeft"":15,""ArrowDown,ArrowRight"":23}","false","ArrowDown,ArrowRight","false","","","","","","","",""
"html-keyboard-response","42","257321","0.0-3.0-8.0-1.1","spark_pilot_2","7357","5","14","Male","","","","","","","null","<div style=""font-size:60px;"">+</div>","null","fixation","","","","","","","","","","","","","",""
"revaluation","43","263351","0.0-3.0-8.0-0.2","spark_pilot_2","7357","5","14","Male","","false","","","","","[919.8000000715256,526.9000000953674]","./assets/img/space/8.jpg","[""ArrowUp"",""ArrowRight""]","full practice","space","36","{""ArrowUp,ArrowLeft"":3,""ArrowUp,ArrowRight"":36,""ArrowDown,ArrowLeft"":15,""ArrowDown,ArrowRight"":23}","true","ArrowUp,ArrowRight","false","","","","","","","",""
"html-keyboard-response","44","263871","0.0-3.0-8.0-1.2","spark_pilot_2","7357","5","14","Male","","","","","","","null","<div style=""font-size:60px;"">+</div>","null","fixation","","","","","","","","","","","","","",""
"revaluation","45","269901","0.0-3.0-8.0-0.3","spark_pilot_2","7357","5","14","Male","","false","","","","","[964.2000000476837,465.89999997615814]","./assets/img/space/9.jpg","[""ArrowDown"",""ArrowLeft""]","full practice","space","15","{""ArrowUp,ArrowLeft"":3,""ArrowUp,ArrowRight"":36,""ArrowDown,ArrowLeft"":15,""ArrowDown,ArrowRight"":23}","false","ArrowDown,ArrowLeft","false","","","","","","","",""
"html-keyboard-response","46","270421","0.0-3.0-8.0-1.3","spark_pilot_2","7357","5","14","Male","","","","","","","null","<div style=""font-size:60px;"">+</div>","null","fixation","","","","","","","","","","","","","",""
"revaluation","47","276425","0.0-3.0-8.0-0.4","spark_pilot_2","7357","5","14","Male","","false","","","","","[1055,413.40000009536743]","./assets/img/space/10.jpg","[""ArrowUp"",""ArrowRight""]","full practice","space","36","{""ArrowUp,ArrowLeft"":3,""ArrowUp,ArrowRight"":36,""ArrowDown,ArrowLeft"":15,""ArrowDown,ArrowRight"":23}","true","ArrowUp,ArrowRight","false","","","","","","","",""
"html-keyboard-response","48","276927","0.0-3.0-8.0-1.4","spark_pilot_2","7357","5","14","Male","","","","","","","null","<div style=""font-size:60px;"">+</div>","null","fixation","","","","","","","","","","","","","",""
"learning-instructions","49","289413","0.0-3.0-9.0-0.0","spark_pilot_2","7357","5","14","Male","","","","","","","2148.899999976158","<p> One last thing: sometimes, you will see a robber. The robber can be anywhere in the picture. </p>
            <p> If you do not stop them, you will lose treasure. </p>
            <img src='./assets/img/instructions/robber.jpg' class='instructions-image'>","","instructions","","","","","","","","","","","","","",""
"learning-instructions","50","298686","0.0-3.0-9.0-0.1","spark_pilot_2","7357","5","14","Male","","","","","","","2102.899999976158","<p> If you see the robber, you should <b>press the space bar</b> rather than using the arrow keys. </p>
            <p> Try practicing that now! </p>","","instructions","","","","","","","","","","","","","",""
"revaluation","51","302703","0.0-3.0-10.0-0.0","spark_pilot_2","7357","5","14","Male","","false","","","","","[813.0999999046326]","./assets/img/space/catch/0.jpg","[""spaceBar""]","catch practice","space","0","{""ArrowUp,ArrowLeft"":3,""ArrowUp,ArrowRight"":36,""ArrowDown,ArrowLeft"":15,""ArrowDown,ArrowRight"":23}","true","spaceBar","true","","","","","","","",""
"html-keyboard-response","52","303222","0.0-3.0-10.0-1.0","spark_pilot_2","7357","5","14","Male","","","","","","","null","<div style=""font-size:60px;"">+</div>","null","fixation","","","","","","","","","","","","","",""
"revaluation","53","307263","0.0-3.0-10.0-0.1","spark_pilot_2","7357","5","14","Male","","false","","","","","[731.6000000238419]","./assets/img/space/catch/1.jpg","[""spaceBar""]","catch practice","space","0","{""ArrowUp,ArrowLeft"":3,""ArrowUp,ArrowRight"":36,""ArrowDown,ArrowLeft"":15,""ArrowDown,ArrowRight"":23}","true","spaceBar","true","","","","","","","",""
"html-keyboard-response","54","307782","0.0-3.0-10.0-1.1","spark_pilot_2","7357","5","14","Male","","","","","","","null","<div style=""font-size:60px;"">+</div>","null","fixation","","","","","","","","","","","","","",""
"revaluation","55","311793","0.0-3.0-10.0-0.2","spark_pilot_2","7357","5","14","Male","","false","","","","","[1034.7000000476837]","./assets/img/space/catch/2.jpg","[""spaceBar""]","catch practice","space","0","{""ArrowUp,ArrowLeft"":3,""ArrowUp,ArrowRight"":36,""ArrowDown,ArrowLeft"":15,""ArrowDown,ArrowRight"":23}","true","spaceBar","true","","","","","","","",""
"html-keyboard-response","56","312294","0.0-3.0-10.0-1.2","spark_pilot_2","7357","5","14","Male","","","","","","","null","<div style=""font-size:60px;"">+</div>","null","fixation","","","","","","","","","","","","","",""
"learning-instructions","57","328718","0.0-3.0-11.0-0.0","spark_pilot_2","7357","5","14","Male","","","","","","","2324.5","<p> After you explore a place to find treasure, it will be time to play a different game. </p>
            <p> During this game, red dots will appear on the screen and fall down slowly. </p>
            <p><b> You must click on them before they reach the bottom. </b></p>
            <img src='./assets/img/instructions/dotGame.jpg' class='instructions-image'>","","instructions","","","","","","","","","","","","","",""
"learning-instructions","58","335524","0.0-3.0-11.0-0.1","spark_pilot_2","7357","5","14","Male","","","","","","","1130.6999999284744","<p> For every dot you click, you will earn additional treasure. </p>
            <p> Let’s try practicing that now. </p>","","instructions","","","","","","","","","","","","","",""
"revaluation","59","350538","0.0-3.0-12.0-0.0","spark_pilot_2","7357","5","14","Male","","","","","","","[88]","","","rest practice","","10","","","","","0","15000","","","","","",""
"learning-instructions","60","359193","0.0-3.0-13.0-0.0-0.0","spark_pilot_2","7357","5","14","Male","","","","","","","3410.100000023842","<p> Now, you will practice a shortened version of the game to get a sense of how it all fits together. </p>","","instructions","","","","","","","","","","","","","",""
"learning-instructions","61","363798","0.0-3.0-13.0-0.0-0.1","spark_pilot_2","7357","5","14","Male","","","","","","","1424.3000000715256","<p>This time you are searching for treasure in outer space.</p>","","instructions","","","","","","","","","","","","","",""
"learning-instructions","62","380777","0.0-3.0-13.0-1.0-0.0","spark_pilot_2","7357","5","14","Male","","","","","","","2204.6999999284744","<p> Remember, when you see a picture of the place, use the up and down keys to <b>find an animal</b>.</p>
            <p> When you encounter an animal, you should use the left and right keys to <b>select a treasure chest</b>.</p>
            <p> Don't forget to look out for the robber! </p>","","instructions","","","","","","","","","","","","","",""
"revaluation","63","386803","0.0-3.0-13.0-2.0-0.0","spark_pilot_2","7357","5","14","Male","","false","","","","","[993.5,596.1999999284744]","./assets/img/space/11.jpg","[""ArrowDown"",""ArrowLeft""]","practice block","space","15","{""ArrowUp,ArrowLeft"":3,""ArrowUp,ArrowRight"":36,""ArrowDown,ArrowLeft"":15,""ArrowDown,ArrowRight"":23}","false","ArrowDown,ArrowLeft","false","","","","","","","",""
"html-keyboard-response","64","387306","0.0-3.0-13.0-2.0-1.0","spark_pilot_2","7357","5","14","Male","","","","","","","null","<div style=""font-size:60px;"">+</div>","null","fixation","","","","","","","","","","","","","",""
"revaluation","65","393317","0.0-3.0-13.0-2.0-0.1","spark_pilot_2","7357","5","14","Male","","false","","","","","[831.6000000238419,407.3000000715256]","./assets/img/space/12.jpg","[""ArrowUp"",""ArrowRight""]","practice block","space","36","{""ArrowUp,ArrowLeft"":3,""ArrowUp,ArrowRight"":36,""ArrowDown,ArrowLeft"":15,""ArrowDown,ArrowRight"":23}","true","ArrowUp,ArrowRight","false","","","","","","","",""
"html-keyboard-response","66","393821","0.0-3.0-13.0-2.0-1.1","spark_pilot_2","7357","5","14","Male","","","","","","","null","<div style=""font-size:60px;"">+</div>","null","fixation","","","","","","","","","","","","","",""
"revaluation","67","399832","0.0-3.0-13.0-2.0-0.2","spark_pilot_2","7357","5","14","Male","","false","","","","","[603.3000000715256,436.89999997615814]","./assets/img/space/13.jpg","[""ArrowDown"",""ArrowLeft""]","practice block","space","15","{""ArrowUp,ArrowLeft"":3,""ArrowUp,ArrowRight"":36,""ArrowDown,ArrowLeft"":15,""ArrowDown,ArrowRight"":23}","false","ArrowDown,ArrowLeft","false","","","","","","","",""
"html-keyboard-response","68","400351","0.0-3.0-13.0-2.0-1.2","spark_pilot_2","7357","5","14","Male","","","","","","","null","<div style=""font-size:60px;"">+</div>","null","fixation","","","","","","","","","","","","","",""
"revaluation","69","406391","0.0-3.0-13.0-2.0-0.3","spark_pilot_2","7357","5","14","Male","","false","","","","","[1137.7000000476837,329.40000009536743]","./assets/img/space/14.jpg","[""ArrowUp"",""ArrowRight""]","practice block","space","36","{""ArrowUp,ArrowLeft"":3,""ArrowUp,ArrowRight"":36,""ArrowDown,ArrowLeft"":15,""ArrowDown,ArrowRight"":23}","true","ArrowUp,ArrowRight","false","","","","","","","",""
"html-keyboard-response","70","406910","0.0-3.0-13.0-2.0-1.3","spark_pilot_2","7357","5","14","Male","","","","","","","null","<div style=""font-size:60px;"">+</div>","null","fixation","","","","","","","","","","","","","",""
"revaluation","71","412930","0.0-3.0-13.0-2.0-0.4","spark_pilot_2","7357","5","14","Male","","false","","","","","[1210.3999999761581,1114.7000000476837]","./assets/img/space/11.jpg","[""ArrowDown"",""ArrowLeft""]","practice block","space","15","{""ArrowUp,ArrowLeft"":3,""ArrowUp,ArrowRight"":36,""ArrowDown,ArrowLeft"":15,""ArrowDown,ArrowRight"":23}","false","ArrowDown,ArrowLeft","false","","","","","","","",""
"html-keyboard-response","72","413431","0.0-3.0-13.0-2.0-1.4","spark_pilot_2","7357","5","14","Male","","","","","","","null","<div style=""font-size:60px;"">+</div>","null","fixation","","","","","","","","","","","","","",""
"revaluation","73","419437","0.0-3.0-13.0-2.0-0.5","spark_pilot_2","7357","5","14","Male","","false","","","","","[825.6000000238419,344.2000000476837]","./assets/img/space/12.jpg","[""ArrowUp"",""ArrowRight""]","practice block","space","36","{""ArrowUp,ArrowLeft"":3,""ArrowUp,ArrowRight"":36,""ArrowDown,ArrowLeft"":15,""ArrowDown,ArrowRight"":23}","true","ArrowUp,ArrowRight","false","","","","","","","",""
"html-keyboard-response","74","419939","0.0-3.0-13.0-2.0-1.5","spark_pilot_2","7357","5","14","Male","","","","","","","null","<div style=""font-size:60px;"">+</div>","null","fixation","","","","","","","","","","","","","",""
"revaluation","75","425946","0.0-3.0-13.0-2.0-0.6","spark_pilot_2","7357","5","14","Male","","false","","","","","[1053.7999999523163,299.10000002384186]","./assets/img/space/13.jpg","[""ArrowDown"",""ArrowRight""]","practice block","space","23","{""ArrowUp,ArrowLeft"":3,""ArrowUp,ArrowRight"":36,""ArrowDown,ArrowLeft"":15,""ArrowDown,ArrowRight"":23}","false","ArrowDown,ArrowRight","false","","","","","","","",""
"html-keyboard-response","76","426447","0.0-3.0-13.0-2.0-1.6","spark_pilot_2","7357","5","14","Male","","","","","","","null","<div style=""font-size:60px;"">+</div>","null","fixation","","","","","","","","","","","","","",""
"revaluation","77","432452","0.0-3.0-13.0-2.0-0.7","spark_pilot_2","7357","5","14","Male","","false","","","","","[777.7999999523163,1089.3000000715256]","./assets/img/space/14.jpg","[""ArrowUp"",""ArrowLeft""]","practice block","space","3","{""ArrowUp,ArrowLeft"":3,""ArrowUp,ArrowRight"":36,""ArrowDown,ArrowLeft"":15,""ArrowDown,ArrowRight"":23}","false","ArrowUp,ArrowLeft","false","","","","","","","",""
"html-keyboard-response","78","432954","0.0-3.0-13.0-2.0-1.7","spark_pilot_2","7357","5","14","Male","","","","","","","null","<div style=""font-size:60px;"">+</div>","null","fixation","","","","","","","","","","","","","",""
"revaluation","79","436958","0.0-3.0-13.0-2.0-0.8","spark_pilot_2","7357","5","14","Male","","false","","","","","[1127.8999999761581]","./assets/img/space/catch/3.jpg","[""spaceBar""]","practice block","space","0","{""ArrowUp,ArrowLeft"":3,""ArrowUp,ArrowRight"":36,""ArrowDown,ArrowLeft"":15,""ArrowDown,ArrowRight"":23}","true","spaceBar","true","","","","","","","",""
"html-keyboard-response","80","437459","0.0-3.0-13.0-2.0-1.8","spark_pilot_2","7357","5","14","Male","","","","","","","null","<div style=""font-size:60px;"">+</div>","null","fixation","","","","","","","","","","","","","",""
"learning-instructions","81","452832","0.0-3.0-13.0-3.0-0.0","spark_pilot_2","7357","5","14","Male","","","","","","","2410.7999999523163","<p> Now, you will travel with a friend who will choose whether you go up or down first. </p>
            <p> On these turns, you will just see the animal that they found. You will still get to choose which chest to search for treasure.</p>","","instructions","","","","","","","","","","","","","",""
"revaluation","82","456860","0.0-3.0-13.0-4.0-0.0","spark_pilot_2","7357","5","14","Male","","false","","","","","[1241.5]","./assets/img/space/animals/cat.jpg","[""ArrowRight""]","practice block","space","36","{""ArrowUp,ArrowLeft"":3,""ArrowUp,ArrowRight"":36,""ArrowDown,ArrowLeft"":15,""ArrowDown,ArrowRight"":23}","true","ArrowUp,ArrowRight","","","","","","","","",""
"html-keyboard-response","83","457380","0.0-3.0-13.0-4.0-1.0","spark_pilot_2","7357","5","14","Male","","","","","","","null","<div style=""font-size:60px;"">+</div>","null","fixation","","","","","","","","","","","","","",""
"revaluation","84","461401","0.0-3.0-13.0-4.0-0.1","spark_pilot_2","7357","5","14","Male","","false","","","","","[435.7000000476837]","./assets/img/space/animals/rabbit.jpg","[""ArrowLeft""]","practice block","space","15","{""ArrowUp,ArrowLeft"":3,""ArrowUp,ArrowRight"":36,""ArrowDown,ArrowLeft"":15,""ArrowDown,ArrowRight"":23}","false","ArrowDown,ArrowLeft","","","","","","","","",""
"html-keyboard-response","85","461902","0.0-3.0-13.0-4.0-1.1","spark_pilot_2","7357","5","14","Male","","","","","","","null","<div style=""font-size:60px;"">+</div>","null","fixation","","","","","","","","","","","","","",""
"revaluation","86","465908","0.0-3.0-13.0-4.0-0.2","spark_pilot_2","7357","5","14","Male","","false","","","","","[449.2000000476837]","./assets/img/space/animals/rabbit.jpg","[""ArrowRight""]","practice block","space","23","{""ArrowUp,ArrowLeft"":3,""ArrowUp,ArrowRight"":36,""ArrowDown,ArrowLeft"":15,""ArrowDown,ArrowRight"":23}","true","ArrowDown,ArrowRight","","","","","","","","",""
"html-keyboard-response","87","466409","0.0-3.0-13.0-4.0-1.2","spark_pilot_2","7357","5","14","Male","","","","","","","null","<div style=""font-size:60px;"">+</div>","null","fixation","","","","","","","","","","","","","",""
"revaluation","88","470441","0.0-3.0-13.0-4.0-0.3","spark_pilot_2","7357","5","14","Male","","false","","","","","[320.2999999523163]","./assets/img/space/animals/cat.jpg","[""ArrowRight""]","practice block","space","36","{""ArrowUp,ArrowLeft"":3,""ArrowUp,ArrowRight"":36,""ArrowDown,ArrowLeft"":15,""ArrowDown,ArrowRight"":23}","true","ArrowUp,ArrowRight","","","","","","","","",""
"html-keyboard-response","89","470950","0.0-3.0-13.0-4.0-1.3","spark_pilot_2","7357","5","14","Male","","","","","","","null","<div style=""font-size:60px;"">+</div>","null","fixation","","","","","","","","","","","","","",""
"learning-instructions","90","482018","0.0-3.0-13.0-5.0-0.0","spark_pilot_2","7357","5","14","Male","","","","","","","3706.3000000715256","<p> Time to play the dot game! </p>
            <p> For 15 seconds, click the red dots on the following screen as they appear. </p>","","instructions","","","","","","","","","","","","","",""
"revaluation","91","497021","0.0-3.0-13.0-6.0-0.0","spark_pilot_2","7357","5","14","Male","","","","","","","[55,45]","","","rest practice","","20","","","","","0","15000","","","","","",""
"learning-instructions","92","504894","0.0-3.0-13.0-7.0-0.0","spark_pilot_2","7357","5","14","Male","","","","","","","1742.2999999523163","<p> You have almost finished this part of the game! </p>
            <p> We are going to ask you to make a few more choices. </p>","","instructions","","","","","","","","","","","","","",""
"learning-instructions","93","520950","0.0-3.0-13.0-7.0-0.1","spark_pilot_2","7357","5","14","Male","","","","","","","2048.7999999523163","<p> First, you need to decide whether to go up or down. When you see each picture, use the arrow keys to make your choice. </p>
            <p><b>You will not see which animal you found, but try to get to the one that will give you the most treasure.</b></p>","","instructions","","","","","","","","","","","","","",""
"revaluation","94","521802","0.0-3.0-13.0-8.0","spark_pilot_2","7357","5","14","Male","","false","","","","","[850.2000000476837]","./assets/img/space/15.jpg","[""ArrowDown""]","practice block","space","0","{""ArrowUp,ArrowLeft"":3,""ArrowUp,ArrowRight"":36,""ArrowDown,ArrowLeft"":15,""ArrowDown,ArrowRight"":23}","false","ArrowDown","false","","","","","","","",""
"html-keyboard-response","95","522305","0.0-3.0-13.0-9.0","spark_pilot_2","7357","5","14","Male","","","","","","","null","<div style=""font-size:60px;"">+</div>","null","fixation","","","","","","","","","","","","","",""
"learning-instructions","96","535120","0.0-3.0-13.0-10.0-0.0","spark_pilot_2","7357","5","14","Male","","","","","","","1408.8999999761581","<p> Now you will see the animals again and can search their chests for treasure. </p>
            <p> This time, you will not see how much treasure you earned, but you will earn more bonus money for making better choices. </p>","","instructions","","","","","","","","","","","","","",""
"revaluation","97","536114","0.0-3.0-13.0-11.0-0.0","spark_pilot_2","7357","5","14","Male","","false","","","","","[992.7000000476837]","./assets/img/space/animals/cat.jpg","[""ArrowLeft""]","practice block","space","0","{""ArrowUp,ArrowLeft"":3,""ArrowUp,ArrowRight"":36,""ArrowDown,ArrowLeft"":15,""ArrowDown,ArrowRight"":23}","false","ArrowUp,ArrowLeft","","","","","","","","",""
"html-keyboard-response","98","536619","0.0-3.0-13.0-11.0-1.0","spark_pilot_2","7357","5","14","Male","","","","","","","null","<div style=""font-size:60px;"">+</div>","null","fixation","","","","","","","","","","","","","",""
"revaluation","99","537402","0.0-3.0-13.0-11.0-0.1","spark_pilot_2","7357","5","14","Male","","false","","","","","[780.7999999523163]","./assets/img/space/animals/rabbit.jpg","[""ArrowRight""]","practice block","space","0","{""ArrowUp,ArrowLeft"":3,""ArrowUp,ArrowRight"":36,""ArrowDown,ArrowLeft"":15,""ArrowDown,ArrowRight"":23}","true","ArrowDown,ArrowRight","","","","","","","","",""
"html-keyboard-response","100","537919","0.0-3.0-13.0-11.0-1.1","spark_pilot_2","7357","5","14","Male","","","","","","","null","<div style=""font-size:60px;"">+</div>","null","fixation","","","","","","","","","","","","","",""
"learning-instructions","101","545138","0.0-3.0-14.0-0.0","spark_pilot_2","7357","5","14","Male","","","","","","","2646.399999976158","<p> Before you start, we're going to ask you a few questions about how the game works. </p>","","instructions","","","","","","","","","","","","","",""
"comp-q","102","552674","0.0-3.0-15.0-0.0-0.0","spark_pilot_2","7357","5","14","Male","","","","","","","1961.3000000715256","<p> <b> True or False? </b> </p>
            <p> There can be 50 pieces of treasure in a given animal's chest. </p>","0","comp_question","","","","false","","","","","","","","","",""
"comp-q","103","560053","0.0-3.0-15.0-0.0-1.0","spark_pilot_2","7357","5","14","Male","","","","","","","862.6999999284744","<p> <b>Incorrect.</b> The amount of treasure in each chest can range from 0 to 40 pieces. </p>","0","comp_answer","","","","","","","","","","","","","",""
"comp-q","104","566633","0.0-3.0-15.0-0.1-0.1","spark_pilot_2","7357","5","14","Male","","","","","","","1023","<p> <b> True or False? </b> </p>
            <p> There can be 50 pieces of treasure in a given animal's chest. </p>","1","comp_question","","","","true","","","","","","","","","",""
"comp-q","105","574813","0.0-3.0-15.0-0.1-1.1","spark_pilot_2","7357","5","14","Male","","","","","","","1532.8999999761581","<p> <b> That's right! </b> The amount of treasure in each chest can range from 0 to 40 pieces. </p>","0","comp_answer","","","","","","","","","","","","","",""
"comp-q","106","583549","0.0-3.0-15.0-0.2-0.2","spark_pilot_2","7357","5","14","Male","","","","","","","1628.5","<p> <b> True or False? </b> </p><p> In this game, all animals have the same amount of treasure in their left and right chests. </p>","1","comp_question","","","","true","","","","","","","","","",""
"comp-q","107","590043","0.0-3.0-15.0-0.2-1.2","spark_pilot_2","7357","5","14","Male","","","","","","","1263.1000000238419","<p> <b> That's right! </b> Animals have different amounts of treasure in their treasure chests. </p>","0","comp_answer","","","","","","","","","","","","","",""
"comp-q","108","597371","0.0-3.0-15.0-0.3-0.3","spark_pilot_2","7357","5","14","Male","","","","","","","1490.3999999761581","<p> <b> True or False? </b> </p><p> The same animal will always be there if you go up in the same place. </p>","1","comp_question","","","","false","","","","","","","","","",""
"comp-q","109","604759","0.0-3.0-15.0-0.3-1.3","spark_pilot_2","7357","5","14","Male","","","","","","","1088.8999999761581","<p> <b>Incorrect.</b> One animal lives in the upper part and one lives in the lower part of every place. </p>","0","comp_answer","","","","","","","","","","","","","",""
"comp-q","110","611503","0.0-3.0-15.0-0.4-0.4","spark_pilot_2","7357","5","14","Male","","","","","","","923","<p> <b> True or False? </b> </p><p> The same animal will always be there if you go up in the same place. </p>","0","comp_question","","","","true","","","","","","","","","",""
"comp-q","111","619689","0.0-3.0-15.0-0.4-1.4","spark_pilot_2","7357","5","14","Male","","","","","","","1738.7000000476837","<p> <b> That's right! </b> One animal lives in the upper part and one lives in the lower part of every place. </p>","0","comp_answer","","","","","","","","","","","","","",""
"comp-q","112","626801","0.0-3.0-15.0-0.5-0.5","spark_pilot_2","7357","5","14","Male","","","","","","","1530.8999999761581","<p> <b> True or False? </b> </p><p> If you see a different picture, it means you are in a new place. </p>","0","comp_question","","","","false","","","","","","","","","",""
"comp-q","113","639886","0.0-3.0-15.0-0.5-1.5","spark_pilot_2","7357","5","14","Male","","","","","","","1986.8999999761581","<p> <b>Incorrect.</b> Lots of different images may show the same place. For example,  you may see three different images that all remind you that you are in outer space. </p>","0","comp_answer","","","","","","","","","","","","","",""
"comp-q","114","646622","0.0-3.0-15.0-0.6-0.6","spark_pilot_2","7357","5","14","Male","","","","","","","1232.7999999523163","<p> <b> True or False? </b> </p><p> If you see a different picture, it means you are in a new place. </p>","1","comp_question","","","","true","","","","","","","","","",""
"comp-q","115","659762","0.0-3.0-15.0-0.6-1.6","spark_pilot_2","7357","5","14","Male","","","","","","","1923","<p> <b> That's right! </b> Lots of different images may show the same place. For example,  you may see three different images that all remind you that you are in outer space. </p>","0","comp_answer","","","","","","","","","","","","","",""
"learning-instructions","116","671616","0.0-3.0-16.0-0.0","spark_pilot_2","7357","5","14","Male","","","","","","","1996.7999999523163","<p> Good job. Remember to do your best because the amount of treasure you earn will be converted into bonus money. </p>
            <p> It’s time to start the real game! </p>","","instructions","","","","","","","","","","","","","",""
"learning-instructions","117","676024","0.0-4.0-0.0-0.0","spark_pilot_2","7357","5","14","Male","","","","","","","1634.8999999761581","<p> This time you are searching for treasure in the <b>canyon</b>.</p>","","instructions","","","","","","","","","","","","","",""
"learning-instructions","118","693984","0.0-4.0-0.0-0.1","spark_pilot_2","7357","5","14","Male","","","","","","","664.6000000238419","<p><b>New</b> animals with <b>new</b> treasure chests live here. You need to explore to discover where the animal with the best treasure chest is.</p>
                    <p> Like before, once you figure out which animal has the chest with the most treasure, you should try to get to that animal and select that chest! </p>","","instructions","","","","","","","","","","","","","",""
"learning-instructions","119","709268","0.0-4.0-1.0-0.0","spark_pilot_2","7357","5","14","Male","","","","","","","558.8000000715256","<p> Remember, when you see a picture of the place, use the up and down keys to <b>find an animal</b>.</p>
            <p> When you encounter an animal, you should use the left and right keys to <b>select a treasure chest</b>.</p>
            <p> Don't forget to look out for the robber! </p>","","instructions","","","","","","","","","","","","","",""
"revaluation","120","715297","0.0-4.0-2.0-0.0","spark_pilot_2","7357","5","14","Male","","false","","","","","[875.2999999523163,521.7000000476837]","./assets/img/canyon/memory/29.jpg","[""ArrowUp"",""ArrowRight""]","value training","canyon","10","{""ArrowUp,ArrowLeft"":26,""ArrowUp,ArrowRight"":10,""ArrowDown,ArrowLeft"":5,""ArrowDown,ArrowRight"":17}","false","ArrowUp,ArrowRight","false","","","original","1","0","","",""
"html-keyboard-response","121","715817","0.0-4.0-2.0-1.0","spark_pilot_2","7357","5","14","Male","","","","","","","null","<div style=""font-size:60px;"">+</div>","null","fixation","","","","","","","","","","","1","","",""
"revaluation","122","721844","0.0-4.0-2.0-0.1","spark_pilot_2","7357","5","14","Male","","false","","","","","[748.7999999523163,309.10000002384186]","./assets/img/canyon/memory/4.jpg","[""ArrowUp"",""ArrowLeft""]","value training","canyon","26","{""ArrowUp,ArrowLeft"":26,""ArrowUp,ArrowRight"":10,""ArrowDown,ArrowLeft"":5,""ArrowDown,ArrowRight"":17}","true","ArrowUp,ArrowLeft","false","","","original","1","2","","",""
"html-keyboard-response","123","722347","0.0-4.0-2.0-1.1","spark_pilot_2","7357","5","14","Male","","","","","","","null","<div style=""font-size:60px;"">+</div>","null","fixation","","","","","","","","","","","3","","",""
"revaluation","124","728377","0.0-4.0-2.0-0.2","spark_pilot_2","7357","5","14","Male","","false","","","","","[363.60000002384186,392.7000000476837]","./assets/img/canyon/memory/3.jpg","[""ArrowDown"",""ArrowRight""]","value training","canyon","17","{""ArrowUp,ArrowLeft"":26,""ArrowUp,ArrowRight"":10,""ArrowDown,ArrowLeft"":5,""ArrowDown,ArrowRight"":17}","false","ArrowDown,ArrowRight","false","","","original","1","4","","",""
"html-keyboard-response","125","728887","0.0-4.0-2.0-1.2","spark_pilot_2","7357","5","14","Male","","","","","","","null","<div style=""font-size:60px;"">+</div>","null","fixation","","","","","","","","","","","5","","",""
"revaluation","126","734928","0.0-4.0-2.0-0.3","spark_pilot_2","7357","5","14","Male","","false","","","","","[325.1999999284744,364.39999997615814]","./assets/img/canyon/memory/10.jpg","[""ArrowDown"",""ArrowLeft""]","value training","canyon","5","{""ArrowUp,ArrowLeft"":26,""ArrowUp,ArrowRight"":10,""ArrowDown,ArrowLeft"":5,""ArrowDown,ArrowRight"":17}","false","ArrowDown,ArrowLeft","false","","","original","1","6","","",""
"html-keyboard-response","127","735429","0.0-4.0-2.0-1.3","spark_pilot_2","7357","5","14","Male","","","","","","","null","<div style=""font-size:60px;"">+</div>","null","fixation","","","","","","","","","","","7","","",""
"revaluation","128","739438","0.0-4.0-2.0-0.4","spark_pilot_2","7357","5","14","Male","","false","","","","","[689.2000000476837]","./assets/img/canyon/catch/2.jpg","[""ArrowUp""]","value training","canyon","-10","{""ArrowUp,ArrowLeft"":26,""ArrowUp,ArrowRight"":10,""ArrowDown,ArrowLeft"":5,""ArrowDown,ArrowRight"":17}","false","ArrowUp","true","","","original","1","8","","",""
"html-keyboard-response","129","739940","0.0-4.0-2.0-1.4","spark_pilot_2","7357","5","14","Male","","","","","","","null","<div style=""font-size:60px;"">+</div>","null","fixation","","","","","","","","","","","9","","",""
"revaluation","130","745945","0.0-4.0-2.0-0.5","spark_pilot_2","7357","5","14","Male","","false","","","","","[1440.8000000715256,511.90000009536743]","./assets/img/canyon/memory/14.jpg","[""ArrowUp"",""ArrowLeft""]","value training","canyon","26","{""ArrowUp,ArrowLeft"":26,""ArrowUp,ArrowRight"":10,""ArrowDown,ArrowLeft"":5,""ArrowDown,ArrowRight"":17}","true","ArrowUp,ArrowLeft","false","","","original","1","10","","",""
"html-keyboard-response","131","746446","0.0-4.0-2.0-1.5","spark_pilot_2","7357","5","14","Male","","","","","","","null","<div style=""font-size:60px;"">+</div>","null","fixation","","","","","","","","","","","11","","",""
"revaluation","132","752452","0.0-4.0-2.0-0.6","spark_pilot_2","7357","5","14","Male","","false","","","","","[1278.2999999523163,677.5]","./assets/img/canyon/memory/4.jpg","[""ArrowUp"",""ArrowLeft""]","value training","canyon","26","{""ArrowUp,ArrowLeft"":26,""ArrowUp,ArrowRight"":10,""ArrowDown,ArrowLeft"":5,""ArrowDown,ArrowRight"":17}","true","ArrowUp,ArrowLeft","false","","","original","1","12","","",""
"html-keyboard-response","133","752953","0.0-4.0-2.0-1.6","spark_pilot_2","7357","5","14","Male","","","","","","","null","<div style=""font-size:60px;"">+</div>","null","fixation","","","","","","","","","","","13","","",""
"revaluation","134","758959","0.0-4.0-2.0-0.7","spark_pilot_2","7357","5","14","Male","","false","","","","","[1444.7000000476837,490.89999997615814]","./assets/img/canyon/memory/39.jpg","[""ArrowUp"",""ArrowLeft""]","value training","canyon","26","{""ArrowUp,ArrowLeft"":26,""ArrowUp,ArrowRight"":10,""ArrowDown,ArrowLeft"":5,""ArrowDown,ArrowRight"":17}","true","ArrowUp,ArrowLeft","false","","","original","1","14","","",""
"html-keyboard-response","135","759460","0.0-4.0-2.0-1.7","spark_pilot_2","7357","5","14","Male","","","","","","","null","<div style=""font-size:60px;"">+</div>","null","fixation","","","","","","","","","","","15","","",""
"revaluation","136","765466","0.0-4.0-2.0-0.8","spark_pilot_2","7357","5","14","Male","","false","","","","","[696.3999999761581,351.39999997615814]","./assets/img/canyon/memory/9.jpg","[""ArrowUp"",""ArrowLeft""]","value training","canyon","26","{""ArrowUp,ArrowLeft"":26,""ArrowUp,ArrowRight"":10,""ArrowDown,ArrowLeft"":5,""ArrowDown,ArrowRight"":17}","true","ArrowUp,ArrowLeft","false","","","original","1","16","","",""
"html-keyboard-response","137","765967","0.0-4.0-2.0-1.8","spark_pilot_2","7357","5","14","Male","","","","","","","null","<div style=""font-size:60px;"">+</div>","null","fixation","","","","","","","","","","","17","","",""
"revaluation","138","771973","0.0-4.0-2.0-0.9","spark_pilot_2","7357","5","14","Male","","false","","","","","[1204.7000000476837,460.2999999523163]","./assets/img/canyon/memory/7.jpg","[""ArrowUp"",""ArrowLeft""]","value training","canyon","26","{""ArrowUp,ArrowLeft"":26,""ArrowUp,ArrowRight"":10,""ArrowDown,ArrowLeft"":5,""ArrowDown,ArrowRight"":17}","true","ArrowUp,ArrowLeft","false","","","original","1","18","","",""
"html-keyboard-response","139","772475","0.0-4.0-2.0-1.9","spark_pilot_2","7357","5","14","Male","","","","","","","null","<div style=""font-size:60px;"">+</div>","null","fixation","","","","","","","","","","","19","","",""
"revaluation","140","778478","0.0-4.0-2.0-0.10","spark_pilot_2","7357","5","14","Male","","false","","","","","[1282.8000000715256,370.10000002384186]","./assets/img/canyon/memory/19.jpg","[""ArrowUp"",""ArrowLeft""]","value training","canyon","26","{""ArrowUp,ArrowLeft"":26,""ArrowUp,ArrowRight"":10,""ArrowDown,ArrowLeft"":5,""ArrowDown,ArrowRight"":17}","true","ArrowUp,ArrowLeft","false","","","original","1","20","","",""
"html-keyboard-response","141","778980","0.0-4.0-2.0-1.10","spark_pilot_2","7357","5","14","Male","","","","","","","null","<div style=""font-size:60px;"">+</div>","null","fixation","","","","","","","","","","","21","","",""
"revaluation","142","784987","0.0-4.0-2.0-0.11","spark_pilot_2","7357","5","14","Male","","false","","","","","[967.3000000715256,350.60000002384186]","./assets/img/canyon/memory/38.jpg","[""ArrowUp"",""ArrowLeft""]","value training","canyon","26","{""ArrowUp,ArrowLeft"":26,""ArrowUp,ArrowRight"":10,""ArrowDown,ArrowLeft"":5,""ArrowDown,ArrowRight"":17}","true","ArrowUp,ArrowLeft","false","","","original","1","22","","",""
"html-keyboard-response","143","785488","0.0-4.0-2.0-1.11","spark_pilot_2","7357","5","14","Male","","","","","","","null","<div style=""font-size:60px;"">+</div>","null","fixation","","","","","","","","","","","23","","",""
"revaluation","144","789493","0.0-4.0-2.0-0.12","spark_pilot_2","7357","5","14","Male","","false","","","","","[1132]","./assets/img/canyon/catch/6.jpg","[""spaceBar""]","value training","canyon","0","{""ArrowUp,ArrowLeft"":26,""ArrowUp,ArrowRight"":10,""ArrowDown,ArrowLeft"":5,""ArrowDown,ArrowRight"":17}","true","spaceBar","true","","","original","1","24","","",""
"html-keyboard-response","145","789994","0.0-4.0-2.0-1.12","spark_pilot_2","7357","5","14","Male","","","","","","","null","<div style=""font-size:60px;"">+</div>","null","fixation","","","","","","","","","","","25","","",""
"revaluation","146","795999","0.0-4.0-2.0-0.13","spark_pilot_2","7357","5","14","Male","","false","","","","","[1289.2000000476837,400.7000000476837]","./assets/img/canyon/memory/5.jpg","[""ArrowUp"",""ArrowLeft""]","value training","canyon","26","{""ArrowUp,ArrowLeft"":26,""ArrowUp,ArrowRight"":10,""ArrowDown,ArrowLeft"":5,""ArrowDown,ArrowRight"":17}","true","ArrowUp,ArrowLeft","false","","","original","1","26","","",""
"html-keyboard-response","147","796501","0.0-4.0-2.0-1.13","spark_pilot_2","7357","5","14","Male","","","","","","","null","<div style=""font-size:60px;"">+</div>","null","fixation","","","","","","","","","","","27","","",""
"revaluation","148","802507","0.0-4.0-2.0-0.14","spark_pilot_2","7357","5","14","Male","","false","","","","","[792.1000000238419,431]","./assets/img/canyon/memory/28.jpg","[""ArrowUp"",""ArrowLeft""]","value training","canyon","26","{""ArrowUp,ArrowLeft"":26,""ArrowUp,ArrowRight"":10,""ArrowDown,ArrowLeft"":5,""ArrowDown,ArrowRight"":17}","true","ArrowUp,ArrowLeft","false","","","original","1","28","","",""
"html-keyboard-response","149","803009","0.0-4.0-2.0-1.14","spark_pilot_2","7357","5","14","Male","","","","","","","null","<div style=""font-size:60px;"">+</div>","null","fixation","","","","","","","","","","","29","","",""
"revaluation","150","809015","0.0-4.0-2.0-0.15","spark_pilot_2","7357","5","14","Male","","false","","","","","[754.2000000476837,576.7000000476837]","./assets/img/canyon/memory/22.jpg","[""ArrowUp"",""ArrowLeft""]","value training","canyon","26","{""ArrowUp,ArrowLeft"":26,""ArrowUp,ArrowRight"":10,""ArrowDown,ArrowLeft"":5,""ArrowDown,ArrowRight"":17}","true","ArrowUp,ArrowLeft","false","","","original","1","30","","",""
"html-keyboard-response","151","809516","0.0-4.0-2.0-1.15","spark_pilot_2","7357","5","14","Male","","","","","","","null","<div style=""font-size:60px;"">+</div>","null","fixation","","","","","","","","","","","31","","",""
"revaluation","152","815521","0.0-4.0-2.0-0.16","spark_pilot_2","7357","5","14","Male","","false","","","","","[1257.2000000476837,472.2999999523163]","./assets/img/canyon/memory/38.jpg","[""ArrowUp"",""ArrowLeft""]","value training","canyon","26","{""ArrowUp,ArrowLeft"":26,""ArrowUp,ArrowRight"":10,""ArrowDown,ArrowLeft"":5,""ArrowDown,ArrowRight"":17}","true","ArrowUp,ArrowLeft","false","","","original","1","32","","",""
"html-keyboard-response","153","816022","0.0-4.0-2.0-1.16","spark_pilot_2","7357","5","14","Male","","","","","","","null","<div style=""font-size:60px;"">+</div>","null","fixation","","","","","","","","","","","33","","",""
"revaluation","154","822029","0.0-4.0-2.0-0.17","spark_pilot_2","7357","5","14","Male","","false","","","","","[811.8999999761581,411.1999999284744]","./assets/img/canyon/memory/28.jpg","[""ArrowUp"",""ArrowLeft""]","value training","canyon","26","{""ArrowUp,ArrowLeft"":26,""ArrowUp,ArrowRight"":10,""ArrowDown,ArrowLeft"":5,""ArrowDown,ArrowRight"":17}","true","ArrowUp,ArrowLeft","false","","","original","1","34","","",""
"html-keyboard-response","155","822531","0.0-4.0-2.0-1.17","spark_pilot_2","7357","5","14","Male","","","","","","","null","<div style=""font-size:60px;"">+</div>","null","fixation","","","","","","","","","","","35","","",""
"revaluation","156","828537","0.0-4.0-2.0-0.18","spark_pilot_2","7357","5","14","Male","","false","","","","","[1225.1999999284744,551.5]","./assets/img/canyon/memory/3.jpg","[""ArrowUp"",""ArrowLeft""]","value training","canyon","26","{""ArrowUp,ArrowLeft"":26,""ArrowUp,ArrowRight"":10,""ArrowDown,ArrowLeft"":5,""ArrowDown,ArrowRight"":17}","true","ArrowUp,ArrowLeft","false","","","original","1","36","","",""
"html-keyboard-response","157","829038","0.0-4.0-2.0-1.18","spark_pilot_2","7357","5","14","Male","","","","","","","null","<div style=""font-size:60px;"">+</div>","null","fixation","","","","","","","","","","","37","","",""
"revaluation","158","835042","0.0-4.0-2.0-0.19","spark_pilot_2","7357","5","14","Male","","false","","","","","[709.8999999761581,821.3999999761581]","./assets/img/canyon/memory/13.jpg","[""ArrowUp"",""ArrowLeft""]","value training","canyon","26","{""ArrowUp,ArrowLeft"":26,""ArrowUp,ArrowRight"":10,""ArrowDown,ArrowLeft"":5,""ArrowDown,ArrowRight"":17}","true","ArrowUp,ArrowLeft","false","","","original","1","38","","",""
"html-keyboard-response","159","835543","0.0-4.0-2.0-1.19","spark_pilot_2","7357","5","14","Male","","","","","","","null","<div style=""font-size:60px;"">+</div>","null","fixation","","","","","","","","","","","39","","",""
"revaluation","160","841550","0.0-4.0-2.0-0.20","spark_pilot_2","7357","5","14","Male","","false","","","","","[652.1000000238419,419]","./assets/img/canyon/memory/35.jpg","[""ArrowUp"",""ArrowLeft""]","value training","canyon","26","{""ArrowUp,ArrowLeft"":26,""ArrowUp,ArrowRight"":10,""ArrowDown,ArrowLeft"":5,""ArrowDown,ArrowRight"":17}","true","ArrowUp,ArrowLeft","false","","","original","1","40","","",""
"html-keyboard-response","161","842051","0.0-4.0-2.0-1.20","spark_pilot_2","7357","5","14","Male","","","","","","","null","<div style=""font-size:60px;"">+</div>","null","fixation","","","","","","","","","","","41","","",""
"revaluation","162","848057","0.0-4.0-2.0-0.21","spark_pilot_2","7357","5","14","Male","","false","","","","","[1039.5,1287]","./assets/img/canyon/memory/19.jpg","[""ArrowUp"",""ArrowLeft""]","value training","canyon","26","{""ArrowUp,ArrowLeft"":26,""ArrowUp,ArrowRight"":10,""ArrowDown,ArrowLeft"":5,""ArrowDown,ArrowRight"":17}","true","ArrowUp,ArrowLeft","false","","","original","1","42","","",""
"html-keyboard-response","163","848558","0.0-4.0-2.0-1.21","spark_pilot_2","7357","5","14","Male","","","","","","","null","<div style=""font-size:60px;"">+</div>","null","fixation","","","","","","","","","","","43","","",""
"revaluation","164","854562","0.0-4.0-2.0-0.22","spark_pilot_2","7357","5","14","Male","","false","","","","","[727.3999999761581,454.10000002384186]","./assets/img/canyon/memory/37.jpg","[""ArrowUp"",""ArrowLeft""]","value training","canyon","26","{""ArrowUp,ArrowLeft"":26,""ArrowUp,ArrowRight"":10,""ArrowDown,ArrowLeft"":5,""ArrowDown,ArrowRight"":17}","true","ArrowUp,ArrowLeft","false","","","original","1","44","","",""
"html-keyboard-response","165","855064","0.0-4.0-2.0-1.22","spark_pilot_2","7357","5","14","Male","","","","","","","null","<div style=""font-size:60px;"">+</div>","null","fixation","","","","","","","","","","","45","","",""
"revaluation","166","859067","0.0-4.0-2.0-0.23","spark_pilot_2","7357","5","14","Male","","false","","","","","[1732.1999999284744]","./assets/img/canyon/catch/7.jpg","[""spaceBar""]","value training","canyon","0","{""ArrowUp,ArrowLeft"":26,""ArrowUp,ArrowRight"":10,""ArrowDown,ArrowLeft"":5,""ArrowDown,ArrowRight"":17}","true","spaceBar","true","","","original","1","46","","",""
"html-keyboard-response","167","859569","0.0-4.0-2.0-1.23","spark_pilot_2","7357","5","14","Male","","","","","","","null","<div style=""font-size:60px;"">+</div>","null","fixation","","","","","","","","","","","47","","",""
"revaluation","168","865576","0.0-4.0-2.0-0.24","spark_pilot_2","7357","5","14","Male","","false","","","","","[1658,567.7000000476837]","./assets/img/canyon/memory/6.jpg","[""ArrowUp"",""ArrowLeft""]","value training","canyon","26","{""ArrowUp,ArrowLeft"":26,""ArrowUp,ArrowRight"":10,""ArrowDown,ArrowLeft"":5,""ArrowDown,ArrowRight"":17}","true","ArrowUp,ArrowLeft","false","","","original","1","48","","",""
"html-keyboard-response","169","866078","0.0-4.0-2.0-1.24","spark_pilot_2","7357","5","14","Male","","","","","","","null","<div style=""font-size:60px;"">+</div>","null","fixation","","","","","","","","","","","49","","",""
"revaluation","170","872082","0.0-4.0-2.0-0.25","spark_pilot_2","7357","5","14","Male","","false","","","","","[774.6999999284744,341.6999999284744]","./assets/img/canyon/memory/12.jpg","[""ArrowUp"",""ArrowLeft""]","value training","canyon","26","{""ArrowUp,ArrowLeft"":26,""ArrowUp,ArrowRight"":10,""ArrowDown,ArrowLeft"":5,""ArrowDown,ArrowRight"":17}","true","ArrowUp,ArrowLeft","false","","","original","1","50","","",""
"html-keyboard-response","171","872583","0.0-4.0-2.0-1.25","spark_pilot_2","7357","5","14","Male","","","","","","","null","<div style=""font-size:60px;"">+</div>","null","fixation","","","","","","","","","","","51","","",""
"revaluation","172","876589","0.0-4.0-2.0-0.26","spark_pilot_2","7357","5","14","Male","","false","","","","","[995.5999999046326]","./assets/img/canyon/catch/4.jpg","[""spaceBar""]","value training","canyon","0","{""ArrowUp,ArrowLeft"":26,""ArrowUp,ArrowRight"":10,""ArrowDown,ArrowLeft"":5,""ArrowDown,ArrowRight"":17}","true","spaceBar","true","","","original","1","52","","",""
"html-keyboard-response","173","877090","0.0-4.0-2.0-1.26","spark_pilot_2","7357","5","14","Male","","","","","","","null","<div style=""font-size:60px;"">+</div>","null","fixation","","","","","","","","","","","53","","",""
"revaluation","174","881094","0.0-4.0-2.0-0.27","spark_pilot_2","7357","5","14","Male","","false","","","","","[1026.6000000238419]","./assets/img/canyon/catch/3.jpg","[""spaceBar""]","value training","canyon","0","{""ArrowUp,ArrowLeft"":26,""ArrowUp,ArrowRight"":10,""ArrowDown,ArrowLeft"":5,""ArrowDown,ArrowRight"":17}","true","spaceBar","true","","","original","1","54","","",""
"html-keyboard-response","175","881595","0.0-4.0-2.0-1.27","spark_pilot_2","7357","5","14","Male","","","","","","","null","<div style=""font-size:60px;"">+</div>","null","fixation","","","","","","","","","","","55","","",""
"revaluation","176","887601","0.0-4.0-2.0-0.28","spark_pilot_2","7357","5","14","Male","","false","","","","","[672,654.6000000238419]","./assets/img/canyon/memory/25.jpg","[""ArrowUp"",""ArrowLeft""]","value training","canyon","26","{""ArrowUp,ArrowLeft"":26,""ArrowUp,ArrowRight"":10,""ArrowDown,ArrowLeft"":5,""ArrowDown,ArrowRight"":17}","true","ArrowUp,ArrowLeft","false","","","original","1","56","","",""
"html-keyboard-response","177","888103","0.0-4.0-2.0-1.28","spark_pilot_2","7357","5","14","Male","","","","","","","null","<div style=""font-size:60px;"">+</div>","null","fixation","","","","","","","","","","","57","","",""
"revaluation","178","894108","0.0-4.0-2.0-0.29","spark_pilot_2","7357","5","14","Male","","false","","","","","[916.3999999761581,275.2999999523163]","./assets/img/canyon/memory/12.jpg","[""ArrowUp"",""ArrowLeft""]","value training","canyon","26","{""ArrowUp,ArrowLeft"":26,""ArrowUp,ArrowRight"":10,""ArrowDown,ArrowLeft"":5,""ArrowDown,ArrowRight"":17}","true","ArrowUp,ArrowLeft","false","","","original","1","58","","",""
"html-keyboard-response","179","894610","0.0-4.0-2.0-1.29","spark_pilot_2","7357","5","14","Male","","","","","","","null","<div style=""font-size:60px;"">+</div>","null","fixation","","","","","","","","","","","59","","",""
"revaluation","180","900616","0.0-4.0-2.0-0.30","spark_pilot_2","7357","5","14","Male","","false","","","","","[545.3999999761581,864.5]","./assets/img/canyon/memory/13.jpg","[""ArrowUp"",""ArrowLeft""]","value training","canyon","26","{""ArrowUp,ArrowLeft"":26,""ArrowUp,ArrowRight"":10,""ArrowDown,ArrowLeft"":5,""ArrowDown,ArrowRight"":17}","true","ArrowUp,ArrowLeft","false","","","original","1","60","","",""
"html-keyboard-response","181","901117","0.0-4.0-2.0-1.30","spark_pilot_2","7357","5","14","Male","","","","","","","null","<div style=""font-size:60px;"">+</div>","null","fixation","","","","","","","","","","","61","","",""
"revaluation","182","907121","0.0-4.0-2.0-0.31","spark_pilot_2","7357","5","14","Male","","false","","","","","[662.6000000238419,1158.1999999284744]","./assets/img/canyon/memory/18.jpg","[""ArrowUp"",""ArrowLeft""]","value training","canyon","26","{""ArrowUp,ArrowLeft"":26,""ArrowUp,ArrowRight"":10,""ArrowDown,ArrowLeft"":5,""ArrowDown,ArrowRight"":17}","true","ArrowUp,ArrowLeft","false","","","original","1","62","","",""
"html-keyboard-response","183","907623","0.0-4.0-2.0-1.31","spark_pilot_2","7357","5","14","Male","","","","","","","null","<div style=""font-size:60px;"">+</div>","null","fixation","","","","","","","","","","","63","","",""
"revaluation","184","911631","0.0-4.0-2.0-0.32","spark_pilot_2","7357","5","14","Male","","true","","","","","[]","./assets/img/canyon/memory/39.jpg","[]","value training","canyon","-5","{""ArrowUp,ArrowLeft"":26,""ArrowUp,ArrowRight"":10,""ArrowDown,ArrowLeft"":5,""ArrowDown,ArrowRight"":17}","false","","false","","","original","1","64","","",""
"html-keyboard-response","185","912133","0.0-4.0-2.0-1.32","spark_pilot_2","7357","5","14","Male","","","","","","","null","<div style=""font-size:60px;"">+</div>","null","fixation","","","","","","","","","","","65","","",""
"revaluation","186","916143","0.0-4.0-2.0-0.33","spark_pilot_2","7357","5","14","Male","","false","","","","","[1103.1000000238419]","./assets/img/canyon/catch/5.jpg","[""spaceBar""]","value training","canyon","0","{""ArrowUp,ArrowLeft"":26,""ArrowUp,ArrowRight"":10,""ArrowDown,ArrowLeft"":5,""ArrowDown,ArrowRight"":17}","true","spaceBar","true","","","original","1","66","","",""
"html-keyboard-response","187","916646","0.0-4.0-2.0-1.33","spark_pilot_2","7357","5","14","Male","","","","","","","null","<div style=""font-size:60px;"">+</div>","null","fixation","","","","","","","","","","","67","","",""
"revaluation","188","922650","0.0-4.0-2.0-0.34","spark_pilot_2","7357","5","14","Male","","false","","","","","[1094.3000000715256,301]","./assets/img/canyon/memory/7.jpg","[""ArrowUp"",""ArrowLeft""]","value training","canyon","26","{""ArrowUp,ArrowLeft"":26,""ArrowUp,ArrowRight"":10,""ArrowDown,ArrowLeft"":5,""ArrowDown,ArrowRight"":17}","true","ArrowUp,ArrowLeft","false","","","original","1","68","","",""
"html-keyboard-response","189","923151","0.0-4.0-2.0-1.34","spark_pilot_2","7357","5","14","Male","","","","","","","null","<div style=""font-size:60px;"">+</div>","null","fixation","","","","","","","","","","","69","","",""
"revaluation","190","929157","0.0-4.0-2.0-0.35","spark_pilot_2","7357","5","14","Male","","false","","","","","[515.3999999761581,282.60000002384186]","./assets/img/canyon/memory/29.jpg","[""ArrowUp"",""ArrowLeft""]","value training","canyon","26","{""ArrowUp,ArrowLeft"":26,""ArrowUp,ArrowRight"":10,""ArrowDown,ArrowLeft"":5,""ArrowDown,ArrowRight"":17}","true","ArrowUp,ArrowLeft","false","","","original","1","70","","",""
"html-keyboard-response","191","929658","0.0-4.0-2.0-1.35","spark_pilot_2","7357","5","14","Male","","","","","","","null","<div style=""font-size:60px;"">+</div>","null","fixation","","","","","","","","","","","71","","",""
"revaluation","192","935663","0.0-4.0-2.0-0.36","spark_pilot_2","7357","5","14","Male","","false","","","","","[504.60000002384186,264.2999999523163]","./assets/img/canyon/memory/6.jpg","[""ArrowUp"",""ArrowLeft""]","value training","canyon","26","{""ArrowUp,ArrowLeft"":26,""ArrowUp,ArrowRight"":10,""ArrowDown,ArrowLeft"":5,""ArrowDown,ArrowRight"":17}","true","ArrowUp,ArrowLeft","false","","","original","1","72","","",""
"html-keyboard-response","193","936164","0.0-4.0-2.0-1.36","spark_pilot_2","7357","5","14","Male","","","","","","","null","<div style=""font-size:60px;"">+</div>","null","fixation","","","","","","","","","","","73","","",""
"revaluation","194","942170","0.0-4.0-2.0-0.37","spark_pilot_2","7357","5","14","Male","","false","","","","","[670.5,261.2999999523163]","./assets/img/canyon/memory/10.jpg","[""ArrowUp"",""ArrowLeft""]","value training","canyon","26","{""ArrowUp,ArrowLeft"":26,""ArrowUp,ArrowRight"":10,""ArrowDown,ArrowLeft"":5,""ArrowDown,ArrowRight"":17}","true","ArrowUp,ArrowLeft","false","","","original","1","74","","",""
"html-keyboard-response","195","942671","0.0-4.0-2.0-1.37","spark_pilot_2","7357","5","14","Male","","","","","","","null","<div style=""font-size:60px;"">+</div>","null","fixation","","","","","","","","","","","75","","",""
"revaluation","196","948676","0.0-4.0-2.0-0.38","spark_pilot_2","7357","5","14","Male","","false","","","","","[467.59999990463257,258.90000009536743]","./assets/img/canyon/memory/2.jpg","[""ArrowUp"",""ArrowLeft""]","value training","canyon","26","{""ArrowUp,ArrowLeft"":26,""ArrowUp,ArrowRight"":10,""ArrowDown,ArrowLeft"":5,""ArrowDown,ArrowRight"":17}","true","ArrowUp,ArrowLeft","false","","","original","1","76","","",""
"html-keyboard-response","197","949178","0.0-4.0-2.0-1.38","spark_pilot_2","7357","5","14","Male","","","","","","","null","<div style=""font-size:60px;"">+</div>","null","fixation","","","","","","","","","","","77","","",""
"revaluation","198","955184","0.0-4.0-2.0-0.39","spark_pilot_2","7357","5","14","Male","","false","","","","","[521,296.60000002384186]","./assets/img/canyon/memory/9.jpg","[""ArrowUp"",""ArrowLeft""]","value training","canyon","26","{""ArrowUp,ArrowLeft"":26,""ArrowUp,ArrowRight"":10,""ArrowDown,ArrowLeft"":5,""ArrowDown,ArrowRight"":17}","true","ArrowUp,ArrowLeft","false","","","original","1","78","","",""
"html-keyboard-response","199","955687","0.0-4.0-2.0-1.39","spark_pilot_2","7357","5","14","Male","","","","","","","null","<div style=""font-size:60px;"">+</div>","null","fixation","","","","","","","","","","","79","","",""
"revaluation","200","961706","0.0-4.0-2.0-0.40","spark_pilot_2","7357","5","14","Male","","false","","","","","[516.7999999523163,411.5]","./assets/img/canyon/memory/2.jpg","[""ArrowUp"",""ArrowLeft""]","value training","canyon","26","{""ArrowUp,ArrowLeft"":26,""ArrowUp,ArrowRight"":10,""ArrowDown,ArrowLeft"":5,""ArrowDown,ArrowRight"":17}","true","ArrowUp,ArrowLeft","false","","","original","1","80","","",""
"html-keyboard-response","201","962207","0.0-4.0-2.0-1.40","spark_pilot_2","7357","5","14","Male","","","","","","","null","<div style=""font-size:60px;"">+</div>","null","fixation","","","","","","","","","","","81","","",""
"revaluation","202","966227","0.0-4.0-2.0-0.41","spark_pilot_2","7357","5","14","Male","","false","","","","","[850.2999999523163]","./assets/img/canyon/catch/1.jpg","[""spaceBar""]","value training","canyon","0","{""ArrowUp,ArrowLeft"":26,""ArrowUp,ArrowRight"":10,""ArrowDown,ArrowLeft"":5,""ArrowDown,ArrowRight"":17}","true","spaceBar","true","","","original","1","82","","",""
"html-keyboard-response","203","966728","0.0-4.0-2.0-1.41","spark_pilot_2","7357","5","14","Male","","","","","","","null","<div style=""font-size:60px;"">+</div>","null","fixation","","","","","","","","","","","83","","",""
"revaluation","204","972732","0.0-4.0-2.0-0.42","spark_pilot_2","7357","5","14","Male","","false","","","","","[691.2000000476837,370.39999997615814]","./assets/img/canyon/memory/25.jpg","[""ArrowUp"",""ArrowLeft""]","value training","canyon","26","{""ArrowUp,ArrowLeft"":26,""ArrowUp,ArrowRight"":10,""ArrowDown,ArrowLeft"":5,""ArrowDown,ArrowRight"":17}","true","ArrowUp,ArrowLeft","false","","","original","1","84","","",""
"html-keyboard-response","205","973234","0.0-4.0-2.0-1.42","spark_pilot_2","7357","5","14","Male","","","","","","","null","<div style=""font-size:60px;"">+</div>","null","fixation","","","","","","","","","","","85","","",""
"revaluation","206","977238","0.0-4.0-2.0-0.43","spark_pilot_2","7357","5","14","Male","","false","","","","","[416.7999999523163]","./assets/img/canyon/catch/0.jpg","[""spaceBar""]","value training","canyon","0","{""ArrowUp,ArrowLeft"":26,""ArrowUp,ArrowRight"":10,""ArrowDown,ArrowLeft"":5,""ArrowDown,ArrowRight"":17}","true","spaceBar","true","","","original","1","86","","",""
"html-keyboard-response","207","977739","0.0-4.0-2.0-1.43","spark_pilot_2","7357","5","14","Male","","","","","","","null","<div style=""font-size:60px;"">+</div>","null","fixation","","","","","","","","","","","87","","",""
"revaluation","208","983744","0.0-4.0-2.0-0.44","spark_pilot_2","7357","5","14","Male","","false","","","","","[767.7000000476837,582.6999999284744]","./assets/img/canyon/memory/14.jpg","[""ArrowUp"",""ArrowLeft""]","value training","canyon","26","{""ArrowUp,ArrowLeft"":26,""ArrowUp,ArrowRight"":10,""ArrowDown,ArrowLeft"":5,""ArrowDown,ArrowRight"":17}","true","ArrowUp,ArrowLeft","false","","","original","1","88","","",""
"html-keyboard-response","209","984245","0.0-4.0-2.0-1.44","spark_pilot_2","7357","5","14","Male","","","","","","","null","<div style=""font-size:60px;"">+</div>","null","fixation","","","","","","","","","","","89","","",""
"revaluation","210","990250","0.0-4.0-2.0-0.45","spark_pilot_2","7357","5","14","Male","","false","","","","","[701.3999999761581,492.59999990463257]","./assets/img/canyon/memory/37.jpg","[""ArrowUp"",""ArrowLeft""]","value training","canyon","26","{""ArrowUp,ArrowLeft"":26,""ArrowUp,ArrowRight"":10,""ArrowDown,ArrowLeft"":5,""ArrowDown,ArrowRight"":17}","true","ArrowUp,ArrowLeft","false","","","original","1","90","","",""
"html-keyboard-response","211","990751","0.0-4.0-2.0-1.45","spark_pilot_2","7357","5","14","Male","","","","","","","null","<div style=""font-size:60px;"">+</div>","null","fixation","","","","","","","","","","","91","","",""
"revaluation","212","996757","0.0-4.0-2.0-0.46","spark_pilot_2","7357","5","14","Male","","false","","","","","[642,417.89999997615814]","./assets/img/canyon/memory/18.jpg","[""ArrowUp"",""ArrowLeft""]","value training","canyon","26","{""ArrowUp,ArrowLeft"":26,""ArrowUp,ArrowRight"":10,""ArrowDown,ArrowLeft"":5,""ArrowDown,ArrowRight"":17}","true","ArrowUp,ArrowLeft","false","","","original","1","92","","",""
"html-keyboard-response","213","997258","0.0-4.0-2.0-1.46","spark_pilot_2","7357","5","14","Male","","","","","","","null","<div style=""font-size:60px;"">+</div>","null","fixation","","","","","","","","","","","93","","",""
"revaluation","214","1003266","0.0-4.0-2.0-0.47","spark_pilot_2","7357","5","14","Male","","false","","","","","[695.7999999523163,461.2999999523163]","./assets/img/canyon/memory/5.jpg","[""ArrowUp"",""ArrowLeft""]","value training","canyon","26","{""ArrowUp,ArrowLeft"":26,""ArrowUp,ArrowRight"":10,""ArrowDown,ArrowLeft"":5,""ArrowDown,ArrowRight"":17}","true","ArrowUp,ArrowLeft","false","","","original","1","94","","",""
"html-keyboard-response","215","1003768","0.0-4.0-2.0-1.47","spark_pilot_2","7357","5","14","Male","","","","","","","null","<div style=""font-size:60px;"">+</div>","null","fixation","","","","","","","","","","","95","","",""
"revaluation","216","1009772","0.0-4.0-2.0-0.48","spark_pilot_2","7357","5","14","Male","","false","","","","","[530.8000000715256,626.3000000715256]","./assets/img/canyon/memory/35.jpg","[""ArrowUp"",""ArrowLeft""]","value training","canyon","26","{""ArrowUp,ArrowLeft"":26,""ArrowUp,ArrowRight"":10,""ArrowDown,ArrowLeft"":5,""ArrowDown,ArrowRight"":17}","true","ArrowUp,ArrowLeft","false","","","original","1","96","","",""
"html-keyboard-response","217","1010273","0.0-4.0-2.0-1.48","spark_pilot_2","7357","5","14","Male","","","","","","","null","<div style=""font-size:60px;"">+</div>","null","fixation","","","","","","","","","","","97","","",""
"revaluation","218","1016279","0.0-4.0-2.0-0.49","spark_pilot_2","7357","5","14","Male","","false","","","","","[753.2000000476837,1032.1000000238419]","./assets/img/canyon/memory/22.jpg","[""ArrowUp"",""ArrowLeft""]","value training","canyon","26","{""ArrowUp,ArrowLeft"":26,""ArrowUp,ArrowRight"":10,""ArrowDown,ArrowLeft"":5,""ArrowDown,ArrowRight"":17}","true","ArrowUp,ArrowLeft","false","","","original","1","98","","",""
"html-keyboard-response","219","1016780","0.0-4.0-2.0-1.49","spark_pilot_2","7357","5","14","Male","","","","","","","null","<div style=""font-size:60px;"">+</div>","null","fixation","","","","","","","","","","","99","","",""
"learning-instructions","220","1032910","0.0-4.0-3.0-0.0","spark_pilot_2","7357","5","14","Male","","","","","","","3206.7000000476837","<p> Now, you will travel with a friend who will choose whether you go up or down first. </p>
            <p> On these turns, you will just see the animal that they found. You will still get to choose which chest to search for treasure.</p>","","instructions","","","","","","","","","","","","","",""
"revaluation","221","1036942","0.0-4.0-4.0-0.0","spark_pilot_2","7357","5","14","Male","","false","","","","","[1108.8999999761581]","./assets/img/canyon/animals/giraffe.jpg","[""ArrowLeft""]","revaluation","canyon","26","{""ArrowUp,ArrowLeft"":26,""ArrowUp,ArrowRight"":10,""ArrowDown,ArrowLeft"":5,""ArrowDown,ArrowRight"":17}","true","ArrowUp,ArrowLeft","","","","original","1","0","","",""
"html-keyboard-response","222","1037461","0.0-4.0-4.0-1.0","spark_pilot_2","7357","5","14","Male","","","","","","","null","<div style=""font-size:60px;"">+</div>","null","fixation","","","","","","","","","","","1","","",""
"revaluation","223","1041477","0.0-4.0-4.0-0.1","spark_pilot_2","7357","5","14","Male","","false","","","","","[596.3999999761581]","./assets/img/canyon/animals/lion.jpg","[""ArrowLeft""]","revaluation","canyon","5","{""ArrowUp,ArrowLeft"":26,""ArrowUp,ArrowRight"":10,""ArrowDown,ArrowLeft"":5,""ArrowDown,ArrowRight"":17}","false","ArrowDown,ArrowLeft","","","","original","1","2","","",""
"html-keyboard-response","224","1041978","0.0-4.0-4.0-1.1","spark_pilot_2","7357","5","14","Male","","","","","","","null","<div style=""font-size:60px;"">+</div>","null","fixation","","","","","","","","","","","3","","",""
"revaluation","225","1046001","0.0-4.0-4.0-0.2","spark_pilot_2","7357","5","14","Male","","false","","","","","[497.60000002384186]","./assets/img/canyon/animals/lion.jpg","[""ArrowRight""]","revaluation","canyon","17","{""ArrowUp,ArrowLeft"":26,""ArrowUp,ArrowRight"":10,""ArrowDown,ArrowLeft"":5,""ArrowDown,ArrowRight"":17}","true","ArrowDown,ArrowRight","","","","original","1","4","","",""
"html-keyboard-response","226","1046511","0.0-4.0-4.0-1.2","spark_pilot_2","7357","5","14","Male","","","","","","","null","<div style=""font-size:60px;"">+</div>","null","fixation","","","","","","","","","","","5","","",""
"revaluation","227","1050541","0.0-4.0-4.0-0.3","spark_pilot_2","7357","5","14","Male","","false","","","","","[658.4000000953674]","./assets/img/canyon/animals/giraffe.jpg","[""ArrowLeft""]","revaluation","canyon","26","{""ArrowUp,ArrowLeft"":26,""ArrowUp,ArrowRight"":10,""ArrowDown,ArrowLeft"":5,""ArrowDown,ArrowRight"":17}","true","ArrowUp,ArrowLeft","","","","original","1","6","","",""
"html-keyboard-response","228","1051051","0.0-4.0-4.0-1.3","spark_pilot_2","7357","5","14","Male","","","","","","","null","<div style=""font-size:60px;"">+</div>","null","fixation","","","","","","","","","","","7","","",""
"revaluation","229","1055082","0.0-4.0-4.0-0.4","spark_pilot_2","7357","5","14","Male","","false","","","","","[501.89999997615814]","./assets/img/canyon/animals/lion.jpg","[""ArrowRight""]","revaluation","canyon","17","{""ArrowUp,ArrowLeft"":26,""ArrowUp,ArrowRight"":10,""ArrowDown,ArrowLeft"":5,""ArrowDown,ArrowRight"":17}","true","ArrowDown,ArrowRight","","","","original","1","8","","",""
"html-keyboard-response","230","1055602","0.0-4.0-4.0-1.4","spark_pilot_2","7357","5","14","Male","","","","","","","null","<div style=""font-size:60px;"">+</div>","null","fixation","","","","","","","","","","","9","","",""
"revaluation","231","1059622","0.0-4.0-4.0-0.5","spark_pilot_2","7357","5","14","Male","","false","","","","","[799.3000000715256]","./assets/img/canyon/animals/giraffe.jpg","[""ArrowLeft""]","revaluation","canyon","26","{""ArrowUp,ArrowLeft"":26,""ArrowUp,ArrowRight"":10,""ArrowDown,ArrowLeft"":5,""ArrowDown,ArrowRight"":17}","true","ArrowUp,ArrowLeft","","","","original","1","10","","",""
"html-keyboard-response","232","1060124","0.0-4.0-4.0-1.5","spark_pilot_2","7357","5","14","Male","","","","","","","null","<div style=""font-size:60px;"">+</div>","null","fixation","","","","","","","","","","","11","","",""
"revaluation","233","1064128","0.0-4.0-4.0-0.6","spark_pilot_2","7357","5","14","Male","","false","","","","","[670.1000000238419]","./assets/img/canyon/animals/giraffe.jpg","[""ArrowLeft""]","revaluation","canyon","26","{""ArrowUp,ArrowLeft"":26,""ArrowUp,ArrowRight"":10,""ArrowDown,ArrowLeft"":5,""ArrowDown,ArrowRight"":17}","true","ArrowUp,ArrowLeft","","","","original","1","12","","",""
"html-keyboard-response","234","1064629","0.0-4.0-4.0-1.6","spark_pilot_2","7357","5","14","Male","","","","","","","null","<div style=""font-size:60px;"">+</div>","null","fixation","","","","","","","","","","","13","","",""
"revaluation","235","1068635","0.0-4.0-4.0-0.7","spark_pilot_2","7357","5","14","Male","","false","","","","","[1291.5]","./assets/img/canyon/animals/giraffe.jpg","[""ArrowLeft""]","revaluation","canyon","26","{""ArrowUp,ArrowLeft"":26,""ArrowUp,ArrowRight"":10,""ArrowDown,ArrowLeft"":5,""ArrowDown,ArrowRight"":17}","true","ArrowUp,ArrowLeft","","","","original","1","14","","",""
"html-keyboard-response","236","1069137","0.0-4.0-4.0-1.7","spark_pilot_2","7357","5","14","Male","","","","","","","null","<div style=""font-size:60px;"">+</div>","null","fixation","","","","","","","","","","","15","","",""
"revaluation","237","1073142","0.0-4.0-4.0-0.8","spark_pilot_2","7357","5","14","Male","","false","","","","","[655.1000000238419]","./assets/img/canyon/animals/lion.jpg","[""ArrowRight""]","revaluation","canyon","17","{""ArrowUp,ArrowLeft"":26,""ArrowUp,ArrowRight"":10,""ArrowDown,ArrowLeft"":5,""ArrowDown,ArrowRight"":17}","true","ArrowDown,ArrowRight","","","","original","1","16","","",""
"html-keyboard-response","238","1073644","0.0-4.0-4.0-1.8","spark_pilot_2","7357","5","14","Male","","","","","","","null","<div style=""font-size:60px;"">+</div>","null","fixation","","","","","","","","","","","17","","",""
"revaluation","239","1077647","0.0-4.0-4.0-0.9","spark_pilot_2","7357","5","14","Male","","false","","","","","[1294.7999999523163]","./assets/img/canyon/animals/lion.jpg","[""ArrowRight""]","revaluation","canyon","17","{""ArrowUp,ArrowLeft"":26,""ArrowUp,ArrowRight"":10,""ArrowDown,ArrowLeft"":5,""ArrowDown,ArrowRight"":17}","true","ArrowDown,ArrowRight","","","","original","1","18","","",""
"html-keyboard-response","240","1078148","0.0-4.0-4.0-1.9","spark_pilot_2","7357","5","14","Male","","","","","","","null","<div style=""font-size:60px;"">+</div>","null","fixation","","","","","","","","","","","19","","",""
"revaluation","241","1082153","0.0-4.0-4.0-0.10","spark_pilot_2","7357","5","14","Male","","false","","","","","[748.5999999046326]","./assets/img/canyon/animals/giraffe.jpg","[""ArrowLeft""]","revaluation","canyon","26","{""ArrowUp,ArrowLeft"":26,""ArrowUp,ArrowRight"":10,""ArrowDown,ArrowLeft"":5,""ArrowDown,ArrowRight"":17}","true","ArrowUp,ArrowLeft","","","","original","1","20","","",""
"html-keyboard-response","242","1082654","0.0-4.0-4.0-1.10","spark_pilot_2","7357","5","14","Male","","","","","","","null","<div style=""font-size:60px;"">+</div>","null","fixation","","","","","","","","","","","21","","",""
"revaluation","243","1086658","0.0-4.0-4.0-0.11","spark_pilot_2","7357","5","14","Male","","false","","","","","[610.1000000238419]","./assets/img/canyon/animals/lion.jpg","[""ArrowRight""]","revaluation","canyon","17","{""ArrowUp,ArrowLeft"":26,""ArrowUp,ArrowRight"":10,""ArrowDown,ArrowLeft"":5,""ArrowDown,ArrowRight"":17}","true","ArrowDown,ArrowRight","","","","original","1","22","","",""
"html-keyboard-response","244","1087160","0.0-4.0-4.0-1.11","spark_pilot_2","7357","5","14","Male","","","","","","","null","<div style=""font-size:60px;"">+</div>","null","fixation","","","","","","","","","","","23","","",""
"revaluation","245","1091166","0.0-4.0-4.0-0.12","spark_pilot_2","7357","5","14","Male","","false","","","","","[816.2000000476837]","./assets/img/canyon/animals/lion.jpg","[""ArrowRight""]","revaluation","canyon","17","{""ArrowUp,ArrowLeft"":26,""ArrowUp,ArrowRight"":10,""ArrowDown,ArrowLeft"":5,""ArrowDown,ArrowRight"":17}","true","ArrowDown,ArrowRight","","","","original","1","24","","",""
"html-keyboard-response","246","1091667","0.0-4.0-4.0-1.12","spark_pilot_2","7357","5","14","Male","","","","","","","null","<div style=""font-size:60px;"">+</div>","null","fixation","","","","","","","","","","","25","","",""
"revaluation","247","1095672","0.0-4.0-4.0-0.13","spark_pilot_2","7357","5","14","Male","","false","","","","","[1797.1000000238419]","./assets/img/canyon/animals/lion.jpg","[""ArrowLeft""]","revaluation","canyon","5","{""ArrowUp,ArrowLeft"":26,""ArrowUp,ArrowRight"":10,""ArrowDown,ArrowLeft"":5,""ArrowDown,ArrowRight"":17}","false","ArrowDown,ArrowLeft","","","","original","1","26","","",""
"html-keyboard-response","248","1096173","0.0-4.0-4.0-1.13","spark_pilot_2","7357","5","14","Male","","","","","","","null","<div style=""font-size:60px;"">+</div>","null","fixation","","","","","","","","","","","27","","",""
"revaluation","249","1100180","0.0-4.0-4.0-0.14","spark_pilot_2","7357","5","14","Male","","false","","","","","[624.8000000715256]","./assets/img/canyon/animals/giraffe.jpg","[""ArrowLeft""]","revaluation","canyon","26","{""ArrowUp,ArrowLeft"":26,""ArrowUp,ArrowRight"":10,""ArrowDown,ArrowLeft"":5,""ArrowDown,ArrowRight"":17}","true","ArrowUp,ArrowLeft","","","","original","1","28","","",""
"html-keyboard-response","250","1100681","0.0-4.0-4.0-1.14","spark_pilot_2","7357","5","14","Male","","","","","","","null","<div style=""font-size:60px;"">+</div>","null","fixation","","","","","","","","","","","29","","",""
"revaluation","251","1104687","0.0-4.0-4.0-0.15","spark_pilot_2","7357","5","14","Male","","false","","","","","[966.8999999761581]","./assets/img/canyon/animals/giraffe.jpg","[""ArrowLeft""]","revaluation","canyon","26","{""ArrowUp,ArrowLeft"":26,""ArrowUp,ArrowRight"":10,""ArrowDown,ArrowLeft"":5,""ArrowDown,ArrowRight"":17}","true","ArrowUp,ArrowLeft","","","","original","1","30","","",""
"html-keyboard-response","252","1105188","0.0-4.0-4.0-1.15","spark_pilot_2","7357","5","14","Male","","","","","","","null","<div style=""font-size:60px;"">+</div>","null","fixation","","","","","","","","","","","31","","",""
"revaluation","253","1109191","0.0-4.0-4.0-0.16","spark_pilot_2","7357","5","14","Male","","false","","","","","[901.8999999761581]","./assets/img/canyon/animals/giraffe.jpg","[""ArrowLeft""]","revaluation","canyon","26","{""ArrowUp,ArrowLeft"":26,""ArrowUp,ArrowRight"":10,""ArrowDown,ArrowLeft"":5,""ArrowDown,ArrowRight"":17}","true","ArrowUp,ArrowLeft","","","","original","1","32","","",""
"html-keyboard-response","254","1109693","0.0-4.0-4.0-1.16","spark_pilot_2","7357","5","14","Male","","","","","","","null","<div style=""font-size:60px;"">+</div>","null","fixation","","","","","","","","","","","33","","",""
"revaluation","255","1113698","0.0-4.0-4.0-0.17","spark_pilot_2","7357","5","14","Male","","false","","","","","[979]","./assets/img/canyon/animals/lion.jpg","[""ArrowRight""]","revaluation","canyon","17","{""ArrowUp,ArrowLeft"":26,""ArrowUp,ArrowRight"":10,""ArrowDown,ArrowLeft"":5,""ArrowDown,ArrowRight"":17}","true","ArrowDown,ArrowRight","","","","original","1","34","","",""
"html-keyboard-response","256","1114199","0.0-4.0-4.0-1.17","spark_pilot_2","7357","5","14","Male","","","","","","","null","<div style=""font-size:60px;"">+</div>","null","fixation","","","","","","","","","","","35","","",""
"learning-instructions","257","1127423","0.0-4.0-5.0-0.0","spark_pilot_2","7357","5","14","Male","","","","","","","1271","<p> Time to play the dot game! </p>
            <p> For one minute, click the red dots on the following screen as they appear. </p>
            <p><b> Don't look away, as you will earn bonus for clicking dots</b>. </p>","","instructions","","","","","","","","","","","","","",""
"revaluation","258","1187424","0.0-4.0-6.0-0.0","spark_pilot_2","7357","5","14","Male","","","","","","","[39,65,71,61,65,67,51]","","","rest","","70","","","","","0","60000","","","","","",""
"learning-instructions","259","1195244","0.0-4.0-7.0-0.0","spark_pilot_2","7357","5","14","Male","","","","","","","1686.0999999046326","<p> You have almost finished this part of the game! </p>
            <p> We are going to ask you to make a few more choices. </p>","","instructions","","","","","","","","","","","","","",""
"learning-instructions","260","1211440","0.0-4.0-7.0-0.1","spark_pilot_2","7357","5","14","Male","","","","","","","2221.600000023842","<p> First, you need to decide whether to go up or down. When you see each picture, use the arrow keys to make your choice. </p>
            <p><b>You will not see which animal you found, but try to get to the one that will give you the most treasure.</b></p>","","instructions","","","","","","","","","","","","","",""
"revaluation","261","1212483","0.0-4.0-8.0-0.0","spark_pilot_2","7357","5","14","Male","","false","","","","","[1041.6000000238419]","./assets/img/canyon/test/0.jpg","[""ArrowUp""]","first stage test","canyon","0","{""ArrowUp,ArrowLeft"":26,""ArrowUp,ArrowRight"":10,""ArrowDown,ArrowLeft"":5,""ArrowDown,ArrowRight"":17}","true","ArrowUp","false","","","original","1","","","",""
"html-keyboard-response","262","1212996","0.0-4.0-8.0-1.0","spark_pilot_2","7357","5","14","Male","","","","","","","null","<div style=""font-size:60px;"">+</div>","null","fixation","","","","","","","","","","","","","",""
"revaluation","263","1213890","0.0-4.0-8.0-0.1","spark_pilot_2","7357","5","14","Male","","false","","","","","[890.6000000238419]","./assets/img/canyon/test/3.jpg","[""ArrowUp""]","first stage test","canyon","0","{""ArrowUp,ArrowLeft"":26,""ArrowUp,ArrowRight"":10,""ArrowDown,ArrowLeft"":5,""ArrowDown,ArrowRight"":17}","true","ArrowUp","false","","","original","1","","","",""
"html-keyboard-response","264","1214406","0.0-4.0-8.0-1.1","spark_pilot_2","7357","5","14","Male","","","","","","","null","<div style=""font-size:60px;"">+</div>","null","fixation","","","","","","","","","","","","","",""
"revaluation","265","1215250","0.0-4.0-8.0-0.2","spark_pilot_2","7357","5","14","Male","","false","","","","","[840.2000000476837]","./assets/img/canyon/test/2.jpg","[""ArrowUp""]","first stage test","canyon","0","{""ArrowUp,ArrowLeft"":26,""ArrowUp,ArrowRight"":10,""ArrowDown,ArrowLeft"":5,""ArrowDown,ArrowRight"":17}","true","ArrowUp","false","","","original","1","","","",""
"html-keyboard-response","266","1215756","0.0-4.0-8.0-1.2","spark_pilot_2","7357","5","14","Male","","","","","","","null","<div style=""font-size:60px;"">+</div>","null","fixation","","","","","","","","","","","","","",""
"revaluation","267","1216627","0.0-4.0-8.0-0.3","spark_pilot_2","7357","5","14","Male","","false","","","","","[866.8000000715256]","./assets/img/canyon/test/1.jpg","[""ArrowUp""]","first stage test","canyon","0","{""ArrowUp,ArrowLeft"":26,""ArrowUp,ArrowRight"":10,""ArrowDown,ArrowLeft"":5,""ArrowDown,ArrowRight"":17}","true","ArrowUp","false","","","original","1","","","",""
"html-keyboard-response","268","1217146","0.0-4.0-8.0-1.3","spark_pilot_2","7357","5","14","Male","","","","","","","null","<div style=""font-size:60px;"">+</div>","null","fixation","","","","","","","","","","","","","",""
"learning-instructions","269","1230004","0.0-4.0-9.0-0.0","spark_pilot_2","7357","5","14","Male","","","","","","","1505.8999999761581","<p> Now you will see the animals again and can search their chests for treasure. </p>
            <p> This time, you will not see how much treasure you earned, but you will earn more bonus money for making better choices. </p>","","instructions","","","","","","","","","","","","","",""
"revaluation","270","1231275","0.0-4.0-10.0-0.0","spark_pilot_2","7357","5","14","Male","","false","","","","","[1269.2000000476837]","./assets/img/canyon/animals/giraffe.jpg","[""ArrowLeft""]","second stage test","canyon","0","{""ArrowUp,ArrowLeft"":26,""ArrowUp,ArrowRight"":10,""ArrowDown,ArrowLeft"":5,""ArrowDown,ArrowRight"":17}","true","ArrowUp,ArrowLeft","","","","original","1","","","",""
"html-keyboard-response","271","1231776","0.0-4.0-10.0-1.0","spark_pilot_2","7357","5","14","Male","","","","","","","null","<div style=""font-size:60px;"">+</div>","null","fixation","","","","","","","","","","","","","",""
"revaluation","272","1232306","0.0-4.0-10.0-0.1","spark_pilot_2","7357","5","14","Male","","false","","","","","[527.8999999761581]","./assets/img/canyon/animals/giraffe.jpg","[""ArrowLeft""]","second stage test","canyon","0","{""ArrowUp,ArrowLeft"":26,""ArrowUp,ArrowRight"":10,""ArrowDown,ArrowLeft"":5,""ArrowDown,ArrowRight"":17}","true","ArrowUp,ArrowLeft","","","","original","1","","","",""
"html-keyboard-response","273","1232825","0.0-4.0-10.0-1.1","spark_pilot_2","7357","5","14","Male","","","","","","","null","<div style=""font-size:60px;"">+</div>","null","fixation","","","","","","","","","","","","","",""
"revaluation","274","1233242","0.0-4.0-10.0-0.2","spark_pilot_2","7357","5","14","Male","","false","","","","","[415.59999990463257]","./assets/img/canyon/animals/giraffe.jpg","[""ArrowLeft""]","second stage test","canyon","0","{""ArrowUp,ArrowLeft"":26,""ArrowUp,ArrowRight"":10,""ArrowDown,ArrowLeft"":5,""ArrowDown,ArrowRight"":17}","true","ArrowUp,ArrowLeft","","","","original","1","","","",""
"html-keyboard-response","275","1233749","0.0-4.0-10.0-1.2","spark_pilot_2","7357","5","14","Male","","","","","","","null","<div style=""font-size:60px;"">+</div>","null","fixation","","","","","","","","","","","","","",""
"revaluation","276","1234203","0.0-4.0-10.0-0.3","spark_pilot_2","7357","5","14","Male","","false","","","","","[452.2999999523163]","./assets/img/canyon/animals/giraffe.jpg","[""ArrowLeft""]","second stage test","canyon","0","{""ArrowUp,ArrowLeft"":26,""ArrowUp,ArrowRight"":10,""ArrowDown,ArrowLeft"":5,""ArrowDown,ArrowRight"":17}","true","ArrowUp,ArrowLeft","","","","original","1","","","",""
"html-keyboard-response","277","1234716","0.0-4.0-10.0-1.3","spark_pilot_2","7357","5","14","Male","","","","","","","null","<div style=""font-size:60px;"">+</div>","null","fixation","","","","","","","","","","","","","",""
"revaluation","278","1235410","0.0-4.0-10.0-0.4","spark_pilot_2","7357","5","14","Male","","false","","","","","[691.5]","./assets/img/canyon/animals/lion.jpg","[""ArrowRight""]","second stage test","canyon","0","{""ArrowUp,ArrowLeft"":26,""ArrowUp,ArrowRight"":10,""ArrowDown,ArrowLeft"":5,""ArrowDown,ArrowRight"":17}","true","ArrowDown,ArrowRight","","","","original","1","","","",""
"html-keyboard-response","279","1235926","0.0-4.0-10.0-1.4","spark_pilot_2","7357","5","14","Male","","","","","","","null","<div style=""font-size:60px;"">+</div>","null","fixation","","","","","","","","","","","","","",""
"revaluation","280","1236370","0.0-4.0-10.0-0.5","spark_pilot_2","7357","5","14","Male","","false","","","","","[442.09999990463257]","./assets/img/canyon/animals/lion.jpg","[""ArrowRight""]","second stage test","canyon","0","{""ArrowUp,ArrowLeft"":26,""ArrowUp,ArrowRight"":10,""ArrowDown,ArrowLeft"":5,""ArrowDown,ArrowRight"":17}","true","ArrowDown,ArrowRight","","","","original","1","","","",""
"html-keyboard-response","281","1236886","0.0-4.0-10.0-1.5","spark_pilot_2","7357","5","14","Male","","","","","","","null","<div style=""font-size:60px;"">+</div>","null","fixation","","","","","","","","","","","","","",""
"revaluation","282","1237306","0.0-4.0-10.0-0.6","spark_pilot_2","7357","5","14","Male","","false","","","","","[416.39999997615814]","./assets/img/canyon/animals/lion.jpg","[""ArrowRight""]","second stage test","canyon","0","{""ArrowUp,ArrowLeft"":26,""ArrowUp,ArrowRight"":10,""ArrowDown,ArrowLeft"":5,""ArrowDown,ArrowRight"":17}","true","ArrowDown,ArrowRight","","","","original","1","","","",""
"html-keyboard-response","283","1237826","0.0-4.0-10.0-1.6","spark_pilot_2","7357","5","14","Male","","","","","","","null","<div style=""font-size:60px;"">+</div>","null","fixation","","","","","","","","","","","","","",""
"revaluation","284","1238258","0.0-4.0-10.0-0.7","spark_pilot_2","7357","5","14","Male","","false","","","","","[428.10000002384186]","./assets/img/canyon/animals/lion.jpg","[""ArrowRight""]","second stage test","canyon","0","{""ArrowUp,ArrowLeft"":26,""ArrowUp,ArrowRight"":10,""ArrowDown,ArrowLeft"":5,""ArrowDown,ArrowRight"":17}","true","ArrowDown,ArrowRight","","","","original","1","","","",""
"html-keyboard-response","285","1238776","0.0-4.0-10.0-1.7","spark_pilot_2","7357","5","14","Male","","","","","","","null","<div style=""font-size:60px;"">+</div>","null","fixation","","","","","","","","","","","","","",""
"learning-instructions","286","1244625","0.0-4.0-0.1-0.2","spark_pilot_2","7357","5","14","Male","","","","","","","3127.6999999284744","<p> This time you are searching for treasure in the <b>ocean</b>.</p>","","instructions","","","","","","","","","","","","","",""
"learning-instructions","287","1263377","0.0-4.0-0.1-0.3","spark_pilot_2","7357","5","14","Male","","","","","","","1510.2000000476837","<p><b>New</b> animals with <b>new</b> treasure chests live here. You need to explore to discover where the animal with the best treasure chest is.</p>
                    <p> Like before, once you figure out which animal has the chest with the most treasure, you should try to get to that animal and select that chest! </p>","","instructions","","","","","","","","","","","","","",""
"learning-instructions","288","1279407","0.0-4.0-1.1-0.1","spark_pilot_2","7357","5","14","Male","","","","","","","1299.5","<p> Remember, when you see a picture of the place, use the up and down keys to <b>find an animal</b>.</p>
            <p> When you encounter an animal, you should use the left and right keys to <b>select a treasure chest</b>.</p>
            <p> Don't forget to look out for the robber! </p>","","instructions","","","","","","","","","","","","","",""
"revaluation","289","1285417","0.0-4.0-2.1-0.50","spark_pilot_2","7357","5","14","Male","","false","","","","","[817,567.7000000476837]","./assets/img/ocean/memory/35.jpg","[""ArrowUp"",""ArrowLeft""]","value training","ocean","23","{""ArrowUp,ArrowLeft"":23,""ArrowUp,ArrowRight"":10,""ArrowDown,ArrowLeft"":8,""ArrowDown,ArrowRight"":30}","false","ArrowUp,ArrowLeft","false","","","revaluation","2","0","","",""
"html-keyboard-response","290","1285919","0.0-4.0-2.1-1.50","spark_pilot_2","7357","5","14","Male","","","","","","","null","<div style=""font-size:60px;"">+</div>","null","fixation","","","","","","","","","","","1","","",""
"revaluation","291","1291936","0.0-4.0-2.1-0.51","spark_pilot_2","7357","5","14","Male","","false","","","","","[305,660.3999999761581]","./assets/img/ocean/memory/19.jpg","[""ArrowUp"",""ArrowRight""]","value training","ocean","10","{""ArrowUp,ArrowLeft"":23,""ArrowUp,ArrowRight"":10,""ArrowDown,ArrowLeft"":8,""ArrowDown,ArrowRight"":30}","false","ArrowUp,ArrowRight","false","","","revaluation","2","2","","",""
"html-keyboard-response","292","1292445","0.0-4.0-2.1-1.51","spark_pilot_2","7357","5","14","Male","","","","","","","null","<div style=""font-size:60px;"">+</div>","null","fixation","","","","","","","","","","","3","","",""
"revaluation","293","1298486","0.0-4.0-2.1-0.52","spark_pilot_2","7357","5","14","Male","","false","","","","","[344.10000002384186,376]","./assets/img/ocean/memory/10.jpg","[""ArrowDown"",""ArrowLeft""]","value training","ocean","8","{""ArrowUp,ArrowLeft"":23,""ArrowUp,ArrowRight"":10,""ArrowDown,ArrowLeft"":8,""ArrowDown,ArrowRight"":30}","false","ArrowDown,ArrowLeft","false","","","revaluation","2","4","","",""
"html-keyboard-response","294","1299005","0.0-4.0-2.1-1.52","spark_pilot_2","7357","5","14","Male","","","","","","","null","<div style=""font-size:60px;"">+</div>","null","fixation","","","","","","","","","","","5","","",""
"revaluation","295","1305045","0.0-4.0-2.1-0.53","spark_pilot_2","7357","5","14","Male","","false","","","","","[290,257.5]","./assets/img/ocean/memory/18.jpg","[""ArrowDown"",""ArrowRight""]","value training","ocean","30","{""ArrowUp,ArrowLeft"":23,""ArrowUp,ArrowRight"":10,""ArrowDown,ArrowLeft"":8,""ArrowDown,ArrowRight"":30}","true","ArrowDown,ArrowRight","false","","","revaluation","2","6","","",""
"html-keyboard-response","296","1305547","0.0-4.0-2.1-1.53","spark_pilot_2","7357","5","14","Male","","","","","","","null","<div style=""font-size:60px;"">+</div>","null","fixation","","","","","","","","","","","7","","",""
"revaluation","297","1311552","0.0-4.0-2.1-0.54","spark_pilot_2","7357","5","14","Male","","false","","","","","[347.60000002384186,738.6000000238419]","./assets/img/ocean/memory/25.jpg","[""ArrowDown"",""ArrowRight""]","value training","ocean","30","{""ArrowUp,ArrowLeft"":23,""ArrowUp,ArrowRight"":10,""ArrowDown,ArrowLeft"":8,""ArrowDown,ArrowRight"":30}","true","ArrowDown,ArrowRight","false","","","revaluation","2","8","","",""
"html-keyboard-response","298","1312054","0.0-4.0-2.1-1.54","spark_pilot_2","7357","5","14","Male","","","","","","","null","<div style=""font-size:60px;"">+</div>","null","fixation","","","","","","","","","","","9","","",""
"revaluation","299","1318059","0.0-4.0-2.1-0.55","spark_pilot_2","7357","5","14","Male","","false","","","","","[497.39999997615814,328.8000000715256]","./assets/img/ocean/memory/35.jpg","[""ArrowDown"",""ArrowRight""]","value training","ocean","30","{""ArrowUp,ArrowLeft"":23,""ArrowUp,ArrowRight"":10,""ArrowDown,ArrowLeft"":8,""ArrowDown,ArrowRight"":30}","true","ArrowDown,ArrowRight","false","","","revaluation","2","10","","",""
"html-keyboard-response","300","1318562","0.0-4.0-2.1-1.55","spark_pilot_2","7357","5","14","Male","","","","","","","null","<div style=""font-size:60px;"">+</div>","null","fixation","","","","","","","","","","","11","","",""
"revaluation","301","1324568","0.0-4.0-2.1-0.56","spark_pilot_2","7357","5","14","Male","","false","","","","","[525.5,315.39999997615814]","./assets/img/ocean/memory/12.jpg","[""ArrowDown"",""ArrowRight""]","value training","ocean","30","{""ArrowUp,ArrowLeft"":23,""ArrowUp,ArrowRight"":10,""ArrowDown,ArrowLeft"":8,""ArrowDown,ArrowRight"":30}","true","ArrowDown,ArrowRight","false","","","revaluation","2","12","","",""
"html-keyboard-response","302","1325069","0.0-4.0-2.1-1.56","spark_pilot_2","7357","5","14","Male","","","","","","","null","<div style=""font-size:60px;"">+</div>","null","fixation","","","","","","","","","","","13","","",""
"revaluation","303","1331075","0.0-4.0-2.1-0.57","spark_pilot_2","7357","5","14","Male","","false","","","","","[512.2999999523163,327.2999999523163]","./assets/img/ocean/memory/13.jpg","[""ArrowDown"",""ArrowRight""]","value training","ocean","30","{""ArrowUp,ArrowLeft"":23,""ArrowUp,ArrowRight"":10,""ArrowDown,ArrowLeft"":8,""ArrowDown,ArrowRight"":30}","true","ArrowDown,ArrowRight","false","","","revaluation","2","14","","",""
"html-keyboard-response","304","1331578","0.0-4.0-2.1-1.57","spark_pilot_2","7357","5","14","Male","","","","","","","null","<div style=""font-size:60px;"">+</div>","null","fixation","","","","","","","","","","","15","","",""
"revaluation","305","1335594","0.0-4.0-2.1-0.58","spark_pilot_2","7357","5","14","Male","","false","","","","","[828.1000000238419]","./assets/img/ocean/catch/5.jpg","[""spaceBar""]","value training","ocean","0","{""ArrowUp,ArrowLeft"":23,""ArrowUp,ArrowRight"":10,""ArrowDown,ArrowLeft"":8,""ArrowDown,ArrowRight"":30}","true","spaceBar","true","","","revaluation","2","16","","",""
"html-keyboard-response","306","1336095","0.0-4.0-2.1-1.58","spark_pilot_2","7357","5","14","Male","","","","","","","null","<div style=""font-size:60px;"">+</div>","null","fixation","","","","","","","","","","","17","","",""
"revaluation","307","1342101","0.0-4.0-2.1-0.59","spark_pilot_2","7357","5","14","Male","","false","","","","","[605.8999999761581,509]","./assets/img/ocean/memory/14.jpg","[""ArrowDown"",""ArrowRight""]","value training","ocean","30","{""ArrowUp,ArrowLeft"":23,""ArrowUp,ArrowRight"":10,""ArrowDown,ArrowLeft"":8,""ArrowDown,ArrowRight"":30}","true","ArrowDown,ArrowRight","false","","","revaluation","2","18","","",""
"html-keyboard-response","308","1342603","0.0-4.0-2.1-1.59","spark_pilot_2","7357","5","14","Male","","","","","","","null","<div style=""font-size:60px;"">+</div>","null","fixation","","","","","","","","","","","19","","",""
