"trial_type","trial_index","time_elapsed","internal_node_id","task_version","subject_id","assigned_condition","age","gender","success","timeout","failed_images","failed_audio","failed_video","browser_interaction","rt","stimulus","response","task_part","environment","score","rewardMap","correct","fullState","isCatch","numberMissed","duration","condition","order","trial_num","key_press","ground_truth","bonus"
"pavlovia","0","1358","0.0-0.0","spark_pilot_2","7991","6","23","Female","","","","","","","","","","","","","","","","","","","","","","","",""
"preload","1","14799","0.0-1.0","spark_pilot_2","7991","6","23","Female","true","false","[]","[]","[]","[{""event"":""fullscreenenter"",""trial"":2,""time"":19527}]","","","","","","","","","","","","","","","","","",""
"fullscreen","2","20335","0.0-2.0","spark_pilot_2","7991","6","23","Female","true","","","","","","","","","","","","","","","","","","","","","","",""
"audio-button-response","3","22066","0.0-3.0-0.0-0.0","spark_pilot_2","7991","6","23","Female","","","","","","","1491","./assets/audio/audiotest/turtle.mp3","2","audio_test","","","","","","","","","","","","","",""
"learning-instructions","4","31755","0.0-3.0-1.0-0.0","spark_pilot_2","7991","6","23","Female","","","","","","","2618","<p> Welcome! Please remember to stay in fullscreen mode and don't click away from the experiment. </p>","","instructions","","","","","","","","","","","","","",""
"learning-instructions","5","43405","0.0-3.0-1.0-0.1","spark_pilot_2","7991","6","23","Female","","","","","","","3107","<p> Today you will be playing a game to earn treasure. </p>
            <p> At the end of the experiment, you will earn a bonus based on how much treasure you find. </p>
            <img src='./assets/img/instructions/treasure.jpg' class='instructions-image'>","","instructions","","","","","","","","","","","","","",""
"learning-instructions","6","53220","0.0-3.0-1.0-0.2","spark_pilot_2","7991","6","23","Female","","","","","","","1462","<p> Animals have hidden treasure in treasure chests. </p>
            <p> You need to first find an animal and then choose which of their treasure chests to search. </p>
            <img src='./assets/img/space/animals/cat.jpg' class='instructions-image'>","","instructions","","","","","","","","","","","","","",""
"learning-instructions","7","69037","0.0-3.0-1.0-0.3","spark_pilot_2","7991","6","23","Female","","","","","","","2569","<p> In each round, you will search for treasure in a different place. In the real game, there will be two rounds. </p>
            <p> You will begin with a separate, practice round where you will search for treasure in outer space. </p>
            <img src='./assets/img/space/0.jpg' class='instructions-image'>","","instructions","","","","","","","","","","","","","",""
"learning-instructions","8","90538","0.0-3.0-1.0-0.4","spark_pilot_2","7991","6","23","Female","","","","","","","9989","<p> On every turn, you will see a picture of the place that you are in, but the specific image may be different each time. </p>
            <p> For example, both of these images mean you are in outer space. </p>
            <img src='./assets/img/instructions/outerspace.jpg' class='instructions-image'>","","instructions","","","","","","","","","","","","","",""
"learning-instructions","9","108003","0.0-3.0-1.0-0.5","spark_pilot_2","7991","6","23","Female","","","","","","","9553","<p> You need to decide which direction to travel in. </p>
            <p> You can choose between going <b>up or down</b> by using the arrow keys. </p>
            <img src='./assets/img/instructions/updown.jpg' class='instructions-image'>","","instructions","","","","","","","","","","","","","",""
"learning-instructions","10","120069","0.0-3.0-1.0-0.6","spark_pilot_2","7991","6","23","Female","","","","","","","3150","<p> You will have <b>2 seconds</b> to make your choice. </p>
            <p> If you do not make a choice within 2 seconds, you will not find an animal or earn treasure. </p>
            <img src='./assets/img/instructions/2seconds.jpg' class='instructions-image'>","","instructions","","","","","","","","","","","","","",""
"learning-instructions","11","128134","0.0-3.0-1.0-0.7","spark_pilot_2","7991","6","23","Female","","","","","","","937","<p> Let’s try practicing that now! </p>
            <p> When you see a picture of the place you are in, press the <b>up</b> key to travel up. </p>
            <img src='./assets/img/instructions/pressUp.jpg' class='instructions-image'>","","instructions","","","","","","","","","","","","","",""
"revaluation","12","132168","0.0-3.0-2.0-0.0","spark_pilot_2","7991","6","23","Female","","false","","","","","[1511]","./assets/img/space/0.jpg","[""ArrowUp""]","first stage practice","space","0","null","null","ArrowUp","false","","","","","","","",""
"html-keyboard-response","13","132671","0.0-3.0-2.0-1.0","spark_pilot_2","7991","6","23","Female","","","","","","","null","<div style=""font-size:60px;"">+</div>","null","fixation","","","","","","","","","","","","","",""
"revaluation","14","136692","0.0-3.0-2.0-0.1","spark_pilot_2","7991","6","23","Female","","false","","","","","[823]","./assets/img/space/1.jpg","[""ArrowUp""]","first stage practice","space","0","null","null","ArrowUp","false","","","","","","","",""
"html-keyboard-response","15","137196","0.0-3.0-2.0-1.1","spark_pilot_2","7991","6","23","Female","","","","","","","null","<div style=""font-size:60px;"">+</div>","null","fixation","","","","","","","","","","","","","",""
"revaluation","16","141222","0.0-3.0-2.0-0.2","spark_pilot_2","7991","6","23","Female","","false","","","","","[577]","./assets/img/space/2.jpg","[""ArrowUp""]","first stage practice","space","0","null","null","ArrowUp","false","","","","","","","",""
"html-keyboard-response","17","141733","0.0-3.0-2.0-1.2","spark_pilot_2","7991","6","23","Female","","","","","","","null","<div style=""font-size:60px;"">+</div>","null","fixation","","","","","","","","","","","","","",""
"learning-instructions","18","147750","0.0-3.0-3.0-0.0","spark_pilot_2","7991","6","23","Female","","","","","","","1180","<p> Great job! Now try pressing the <b>down</b> key to travel down. </p>
            <img src='./assets/img/instructions/pressDown.jpg' class='instructions-image'>","","instructions","","","","","","","","","","","","","",""
"revaluation","19","151762","0.0-3.0-4.0-0.0","spark_pilot_2","7991","6","23","Female","","false","","","","","[843]","./assets/img/space/3.jpg","[""ArrowDown""]","first stage practice","space","0","null","null","ArrowDown","false","","","","","","","",""
"html-keyboard-response","20","152267","0.0-3.0-4.0-1.0","spark_pilot_2","7991","6","23","Female","","","","","","","null","<div style=""font-size:60px;"">+</div>","null","fixation","","","","","","","","","","","","","",""
"revaluation","21","156291","0.0-3.0-4.0-0.1","spark_pilot_2","7991","6","23","Female","","false","","","","","[385]","./assets/img/space/4.jpg","[""ArrowDown""]","first stage practice","space","0","null","null","ArrowDown","false","","","","","","","",""
"html-keyboard-response","22","156793","0.0-3.0-4.0-1.1","spark_pilot_2","7991","6","23","Female","","","","","","","null","<div style=""font-size:60px;"">+</div>","null","fixation","","","","","","","","","","","","","",""
"revaluation","23","160811","0.0-3.0-4.0-0.2","spark_pilot_2","7991","6","23","Female","","false","","","","","[892]","./assets/img/space/5.jpg","[""ArrowDown""]","first stage practice","space","0","null","null","ArrowDown","false","","","","","","","",""
"html-keyboard-response","24","161313","0.0-3.0-4.0-1.2","spark_pilot_2","7991","6","23","Female","","","","","","","null","<div style=""font-size:60px;"">+</div>","null","fixation","","","","","","","","","","","","","",""
"learning-instructions","25","174482","0.0-3.0-5.0-0.0","spark_pilot_2","7991","6","23","Female","","","","","","","3063","<p> The animals don’t move, so the animal in the upper part of a place will stay in the upper part of a place, and the animal in the lower part of a place will stay in the lower part of a place. </p>","","instructions","","","","","","","","","","","","","",""
"learning-instructions","26","184874","0.0-3.0-5.0-0.1","spark_pilot_2","7991","6","23","Female","","","","","","","996","<p> Each animal has two treasure chests for you to choose from. </p>
            <p> The amount of treasure in each chest can range from <b> 0 to 40 pieces.</b></p>","","instructions","","","","","","","","","","","","","",""
"learning-instructions","27","198600","0.0-3.0-5.0-0.2","spark_pilot_2","7991","6","23","Female","","","","","","","2439","<p> You should decide which chest to search for treasure by using the <b>left</b> and <b>right</b> arrow keys. </p>
            <p><b> Pay attention to which animal is on the screen, as the animals have different treasure chests. </b></p>
            <img src='./assets/img/instructions/leftright.jpg' class='instructions-image'>","","instructions","","","","","","","","","","","","","",""
"learning-instructions","28","206444","0.0-3.0-5.0-0.3","spark_pilot_2","7991","6","23","Female","","","","","","","1413","<p> Let’s try practicing that now. </p>
            <p> When you see an animal, choose which chest to search for treasure. </p>
            <img src='./assets/img/instructions/chooseChest.jpg' class='instructions-image'>","","instructions","","","","","","","","","","","","","",""
"revaluation","29","210464","0.0-3.0-6.0-0.0","spark_pilot_2","7991","6","23","Female","","false","","","","","[1707]","./assets/img/space/animals/cat.jpg","[""ArrowLeft""]","second stage practice","space","3","{""ArrowUp,ArrowLeft"":3,""ArrowUp,ArrowRight"":36,""ArrowDown,ArrowLeft"":15,""ArrowDown,ArrowRight"":23}","false","ArrowUp,ArrowLeft","","","","","","","","",""
"html-keyboard-response","30","210968","0.0-3.0-6.0-1.0","spark_pilot_2","7991","6","23","Female","","","","","","","null","<div style=""font-size:60px;"">+</div>","null","fixation","","","","","","","","","","","","","",""
"revaluation","31","214989","0.0-3.0-6.0-0.1","spark_pilot_2","7991","6","23","Female","","false","","","","","[1258]","./assets/img/space/animals/rabbit.jpg","[""ArrowRight""]","second stage practice","space","23","{""ArrowUp,ArrowLeft"":3,""ArrowUp,ArrowRight"":36,""ArrowDown,ArrowLeft"":15,""ArrowDown,ArrowRight"":23}","true","ArrowDown,ArrowRight","","","","","","","","",""
"html-keyboard-response","32","215503","0.0-3.0-6.0-1.1","spark_pilot_2","7991","6","23","Female","","","","","","","null","<div style=""font-size:60px;"">+</div>","null","fixation","","","","","","","","","","","","","",""
"revaluation","33","219528","0.0-3.0-6.0-0.2","spark_pilot_2","7991","6","23","Female","","false","","","","","[1269]","./assets/img/space/animals/cat.jpg","[""ArrowRight""]","second stage practice","space","36","{""ArrowUp,ArrowLeft"":3,""ArrowUp,ArrowRight"":36,""ArrowDown,ArrowLeft"":15,""ArrowDown,ArrowRight"":23}","true","ArrowUp,ArrowRight","","","","","","","","",""
"html-keyboard-response","34","220031","0.0-3.0-6.0-1.2","spark_pilot_2","7991","6","23","Female","","","","","","","null","<div style=""font-size:60px;"">+</div>","null","fixation","","","","","","","","","","","","","",""
"revaluation","35","224046","0.0-3.0-6.0-0.3","spark_pilot_2","7991","6","23","Female","","false","","","","","[461]","./assets/img/space/animals/rabbit.jpg","[""ArrowRight""]","second stage practice","space","23","{""ArrowUp,ArrowLeft"":3,""ArrowUp,ArrowRight"":36,""ArrowDown,ArrowLeft"":15,""ArrowDown,ArrowRight"":23}","true","ArrowDown,ArrowRight","","","","","","","","",""
"html-keyboard-response","36","224558","0.0-3.0-6.0-1.3","spark_pilot_2","7991","6","23","Female","","","","","","","null","<div style=""font-size:60px;"">+</div>","null","fixation","","","","","","","","","","","","","",""
"learning-instructions","37","242699","0.0-3.0-7.0-0.0","spark_pilot_2","7991","6","23","Female","","","","","","","1101","<p> Great job. Now let’s try putting it together. </p>
            <p> On each turn, you will first see a picture to remind you of the place you are in, and you need to choose whether to go up or down. </p>
            <p> Then you will see an animal and choose which of its chests to search for treasure. </p>","","instructions","","","","","","","","","","","","","",""
"learning-instructions","38","254301","0.0-3.0-7.0-0.1","spark_pilot_2","7991","6","23","Female","","","","","","","3272","<p> When you choose whether to go up or down, try to go to the animal with the chest with the most treasure. </p>
            <p> Try practicing that now! </p>","","instructions","","","","","","","","","","","","","",""
"revaluation","39","258327","0.0-3.0-8.0-0.0","spark_pilot_2","7991","6","23","Female","","true","","","","","[]","./assets/img/space/6.jpg","[]","full practice","space","-5","{""ArrowUp,ArrowLeft"":3,""ArrowUp,ArrowRight"":36,""ArrowDown,ArrowLeft"":15,""ArrowDown,ArrowRight"":23}","false","","false","","","","","","","",""
"html-keyboard-response","40","258836","0.0-3.0-8.0-1.0","spark_pilot_2","7991","6","23","Female","","","","","","","null","<div style=""font-size:60px;"">+</div>","null","fixation","","","","","","","","","","","","","",""
"revaluation","41","264858","0.0-3.0-8.0-0.1","spark_pilot_2","7991","6","23","Female","","false","","","","","[304,595]","./assets/img/space/7.jpg","[""ArrowDown"",""ArrowRight""]","full practice","space","23","{""ArrowUp,ArrowLeft"":3,""ArrowUp,ArrowRight"":36,""ArrowDown,ArrowLeft"":15,""ArrowDown,ArrowRight"":23}","false","ArrowDown,ArrowRight","false","","","","","","","",""
"html-keyboard-response","42","265374","0.0-3.0-8.0-1.1","spark_pilot_2","7991","6","23","Female","","","","","","","null","<div style=""font-size:60px;"">+</div>","null","fixation","","","","","","","","","","","","","",""
"revaluation","43","271410","0.0-3.0-8.0-0.2","spark_pilot_2","7991","6","23","Female","","false","","","","","[509,495]","./assets/img/space/8.jpg","[""ArrowUp"",""ArrowRight""]","full practice","space","36","{""ArrowUp,ArrowLeft"":3,""ArrowUp,ArrowRight"":36,""ArrowDown,ArrowLeft"":15,""ArrowDown,ArrowRight"":23}","true","ArrowUp,ArrowRight","false","","","","","","","",""
"html-keyboard-response","44","271912","0.0-3.0-8.0-1.2","spark_pilot_2","7991","6","23","Female","","","","","","","null","<div style=""font-size:60px;"">+</div>","null","fixation","","","","","","","","","","","","","",""
"revaluation","45","277924","0.0-3.0-8.0-0.3","spark_pilot_2","7991","6","23","Female","","false","","","","","[546,821]","./assets/img/space/9.jpg","[""ArrowUp"",""ArrowRight""]","full practice","space","36","{""ArrowUp,ArrowLeft"":3,""ArrowUp,ArrowRight"":36,""ArrowDown,ArrowLeft"":15,""ArrowDown,ArrowRight"":23}","true","ArrowUp,ArrowRight","false","","","","","","","",""
"html-keyboard-response","46","278438","0.0-3.0-8.0-1.3","spark_pilot_2","7991","6","23","Female","","","","","","","null","<div style=""font-size:60px;"">+</div>","null","fixation","","","","","","","","","","","","","",""
"revaluation","47","284461","0.0-3.0-8.0-0.4","spark_pilot_2","7991","6","23","Female","","false","","","","","[372,312]","./assets/img/space/10.jpg","[""ArrowUp"",""ArrowRight""]","full practice","space","36","{""ArrowUp,ArrowLeft"":3,""ArrowUp,ArrowRight"":36,""ArrowDown,ArrowLeft"":15,""ArrowDown,ArrowRight"":23}","true","ArrowUp,ArrowRight","false","","","","","","","",""
"html-keyboard-response","48","284974","0.0-3.0-8.0-1.4","spark_pilot_2","7991","6","23","Female","","","","","","","null","<div style=""font-size:60px;"">+</div>","null","fixation","","","","","","","","","","","","","",""
"learning-instructions","49","297946","0.0-3.0-9.0-0.0","spark_pilot_2","7991","6","23","Female","","","","","","","2576","<p> One last thing: sometimes, you will see a robber. The robber can be anywhere in the picture. </p>
            <p> If you do not stop them, you will lose treasure. </p>
            <img src='./assets/img/instructions/robber.jpg' class='instructions-image'>","","instructions","","","","","","","","","","","","","",""
"learning-instructions","50","307698","0.0-3.0-9.0-0.1","spark_pilot_2","7991","6","23","Female","","","","","","","2498","<p> If you see the robber, you should <b>press the space bar</b> rather than using the arrow keys. </p>
            <p> Try practicing that now! </p>","","instructions","","","","","","","","","","","","","",""
"revaluation","51","311717","0.0-3.0-10.0-0.0","spark_pilot_2","7991","6","23","Female","","false","","","","","[1903]","./assets/img/space/catch/0.jpg","[""spaceBar""]","catch practice","space","0","{""ArrowUp,ArrowLeft"":3,""ArrowUp,ArrowRight"":36,""ArrowDown,ArrowLeft"":15,""ArrowDown,ArrowRight"":23}","true","spaceBar","true","","","","","","","",""
"html-keyboard-response","52","312229","0.0-3.0-10.0-1.0","spark_pilot_2","7991","6","23","Female","","","","","","","null","<div style=""font-size:60px;"">+</div>","null","fixation","","","","","","","","","","","","","",""
"revaluation","53","316249","0.0-3.0-10.0-0.1","spark_pilot_2","7991","6","23","Female","","false","","","","","[555]","./assets/img/space/catch/1.jpg","[""spaceBar""]","catch practice","space","0","{""ArrowUp,ArrowLeft"":3,""ArrowUp,ArrowRight"":36,""ArrowDown,ArrowLeft"":15,""ArrowDown,ArrowRight"":23}","true","spaceBar","true","","","","","","","",""
"html-keyboard-response","54","316754","0.0-3.0-10.0-1.1","spark_pilot_2","7991","6","23","Female","","","","","","","null","<div style=""font-size:60px;"">+</div>","null","fixation","","","","","","","","","","","","","",""
"revaluation","55","320770","0.0-3.0-10.0-0.2","spark_pilot_2","7991","6","23","Female","","false","","","","","[441]","./assets/img/space/catch/2.jpg","[""spaceBar""]","catch practice","space","0","{""ArrowUp,ArrowLeft"":3,""ArrowUp,ArrowRight"":36,""ArrowDown,ArrowLeft"":15,""ArrowDown,ArrowRight"":23}","true","spaceBar","true","","","","","","","",""
"html-keyboard-response","56","321279","0.0-3.0-10.0-1.2","spark_pilot_2","7991","6","23","Female","","","","","","","null","<div style=""font-size:60px;"">+</div>","null","fixation","","","","","","","","","","","","","",""
"learning-instructions","57","344483","0.0-3.0-11.0-0.0","spark_pilot_2","7991","6","23","Female","","","","","","","9282","<p> After you explore a place to find treasure, it will be time to play a different game. </p>
            <p> During this game, red dots will appear on the screen and fall down slowly. </p>
            <p><b> You must click on them before they reach the bottom. </b></p>
            <img src='./assets/img/instructions/dotGame.jpg' class='instructions-image'>","","instructions","","","","","","","","","","","","","",""
"learning-instructions","58","353745","0.0-3.0-11.0-0.1","spark_pilot_2","7991","6","23","Female","","","","","","","3524","<p> For every dot you click, you will earn additional treasure. </p>
            <p> Let’s try practicing that now. </p>","","instructions","","","","","","","","","","","","","",""
"revaluation","59","368760","0.0-3.0-12.0-0.0","spark_pilot_2","7991","6","23","Female","","","","","","","[80]","","","rest practice","","10","","","","","0","15000","","","","","",""
"learning-instructions","60","375303","0.0-3.0-13.0-0.0-0.0","spark_pilot_2","7991","6","23","Female","","","","","","","1153","<p> Now, you will practice a shortened version of the game to get a sense of how it all fits together. </p>","","instructions","","","","","","","","","","","","","",""
"learning-instructions","61","381192","0.0-3.0-13.0-0.0-0.1","spark_pilot_2","7991","6","23","Female","","","","","","","2651","<p>This time you are searching for treasure in outer space.</p>","","instructions","","","","","","","","","","","","","",""
"learning-instructions","62","397907","0.0-3.0-13.0-1.0-0.0","spark_pilot_2","7991","6","23","Female","","","","","","","1715","<p> Remember, when you see a picture of the place, use the up and down keys to <b>find an animal</b>.</p>
            <p> When you encounter an animal, you should use the left and right keys to <b>select a treasure chest</b>.</p>
            <p> Don't forget to look out for the robber! </p>","","instructions","","","","","","","","","","","","","",""
"revaluation","63","401940","0.0-3.0-13.0-2.0-0.0","spark_pilot_2","7991","6","23","Female","","true","","","","","[]","./assets/img/space/11.jpg","[]","practice block","space","-5","{""ArrowUp,ArrowLeft"":3,""ArrowUp,ArrowRight"":36,""ArrowDown,ArrowLeft"":15,""ArrowDown,ArrowRight"":23}","false","","false","","","","","","","",""
"html-keyboard-response","64","402459","0.0-3.0-13.0-2.0-1.0","spark_pilot_2","7991","6","23","Female","","","","","","","null","<div style=""font-size:60px;"">+</div>","null","fixation","","","","","","","","","","","","","",""
"revaluation","65","408500","0.0-3.0-13.0-2.0-0.1","spark_pilot_2","7991","6","23","Female","","false","","","","","[887,574]","./assets/img/space/12.jpg","[""ArrowUp"",""ArrowRight""]","practice block","space","36","{""ArrowUp,ArrowLeft"":3,""ArrowUp,ArrowRight"":36,""ArrowDown,ArrowLeft"":15,""ArrowDown,ArrowRight"":23}","true","ArrowUp,ArrowRight","false","","","","","","","",""
"html-keyboard-response","66","409004","0.0-3.0-13.0-2.0-1.1","spark_pilot_2","7991","6","23","Female","","","","","","","null","<div style=""font-size:60px;"">+</div>","null","fixation","","","","","","","","","","","","","",""
"revaluation","67","415030","0.0-3.0-13.0-2.0-0.2","spark_pilot_2","7991","6","23","Female","","false","","","","","[814,465]","./assets/img/space/13.jpg","[""ArrowUp"",""ArrowRight""]","practice block","space","36","{""ArrowUp,ArrowLeft"":3,""ArrowUp,ArrowRight"":36,""ArrowDown,ArrowLeft"":15,""ArrowDown,ArrowRight"":23}","true","ArrowUp,ArrowRight","false","","","","","","","",""
"html-keyboard-response","68","415535","0.0-3.0-13.0-2.0-1.2","spark_pilot_2","7991","6","23","Female","","","","","","","null","<div style=""font-size:60px;"">+</div>","null","fixation","","","","","","","","","","","","","",""
"revaluation","69","421560","0.0-3.0-13.0-2.0-0.3","spark_pilot_2","7991","6","23","Female","","false","","","","","[391,816]","./assets/img/space/14.jpg","[""ArrowUp"",""ArrowRight""]","practice block","space","36","{""ArrowUp,ArrowLeft"":3,""ArrowUp,ArrowRight"":36,""ArrowDown,ArrowLeft"":15,""ArrowDown,ArrowRight"":23}","true","ArrowUp,ArrowRight","false","","","","","","","",""
"html-keyboard-response","70","422074","0.0-3.0-13.0-2.0-1.3","spark_pilot_2","7991","6","23","Female","","","","","","","null","<div style=""font-size:60px;"">+</div>","null","fixation","","","","","","","","","","","","","",""
"revaluation","71","428087","0.0-3.0-13.0-2.0-0.4","spark_pilot_2","7991","6","23","Female","","false","","","","","[1296,668]","./assets/img/space/11.jpg","[""ArrowUp"",""ArrowRight""]","practice block","space","36","{""ArrowUp,ArrowLeft"":3,""ArrowUp,ArrowRight"":36,""ArrowDown,ArrowLeft"":15,""ArrowDown,ArrowRight"":23}","true","ArrowUp,ArrowRight","false","","","","","","","",""
"html-keyboard-response","72","428594","0.0-3.0-13.0-2.0-1.4","spark_pilot_2","7991","6","23","Female","","","","","","","null","<div style=""font-size:60px;"">+</div>","null","fixation","","","","","","","","","","","","","",""
"revaluation","73","434621","0.0-3.0-13.0-2.0-0.5","spark_pilot_2","7991","6","23","Female","","false","","","","","[869,371]","./assets/img/space/12.jpg","[""ArrowUp"",""ArrowRight""]","practice block","space","36","{""ArrowUp,ArrowLeft"":3,""ArrowUp,ArrowRight"":36,""ArrowDown,ArrowLeft"":15,""ArrowDown,ArrowRight"":23}","true","ArrowUp,ArrowRight","false","","","","","","","",""
"html-keyboard-response","74","435129","0.0-3.0-13.0-2.0-1.5","spark_pilot_2","7991","6","23","Female","","","","","","","null","<div style=""font-size:60px;"">+</div>","null","fixation","","","","","","","","","","","","","",""
"revaluation","75","441159","0.0-3.0-13.0-2.0-0.6","spark_pilot_2","7991","6","23","Female","","false","","","","","[888,831]","./assets/img/space/13.jpg","[""ArrowUp"",""ArrowRight""]","practice block","space","36","{""ArrowUp,ArrowLeft"":3,""ArrowUp,ArrowRight"":36,""ArrowDown,ArrowLeft"":15,""ArrowDown,ArrowRight"":23}","true","ArrowUp,ArrowRight","false","","","","","","","",""
"html-keyboard-response","76","441664","0.0-3.0-13.0-2.0-1.6","spark_pilot_2","7991","6","23","Female","","","","","","","null","<div style=""font-size:60px;"">+</div>","null","fixation","","","","","","","","","","","","","",""
"revaluation","77","447691","0.0-3.0-13.0-2.0-0.7","spark_pilot_2","7991","6","23","Female","","false","","","","","[885,690]","./assets/img/space/14.jpg","[""ArrowUp"",""ArrowRight""]","practice block","space","36","{""ArrowUp,ArrowLeft"":3,""ArrowUp,ArrowRight"":36,""ArrowDown,ArrowLeft"":15,""ArrowDown,ArrowRight"":23}","true","ArrowUp,ArrowRight","false","","","","","","","",""
"html-keyboard-response","78","448209","0.0-3.0-13.0-2.0-1.7","spark_pilot_2","7991","6","23","Female","","","","","","","null","<div style=""font-size:60px;"">+</div>","null","fixation","","","","","","","","","","","","","",""
"revaluation","79","452238","0.0-3.0-13.0-2.0-0.8","spark_pilot_2","7991","6","23","Female","","false","","","","","[971]","./assets/img/space/catch/3.jpg","[""spaceBar""]","practice block","space","0","{""ArrowUp,ArrowLeft"":3,""ArrowUp,ArrowRight"":36,""ArrowDown,ArrowLeft"":15,""ArrowDown,ArrowRight"":23}","true","spaceBar","true","","","","","","","",""
"html-keyboard-response","80","452744","0.0-3.0-13.0-2.0-1.8","spark_pilot_2","7991","6","23","Female","","","","","","","null","<div style=""font-size:60px;"">+</div>","null","fixation","","","","","","","","","","","","","",""
"learning-instructions","81","466631","0.0-3.0-13.0-3.0-0.0","spark_pilot_2","7991","6","23","Female","","","","","","","890","<p> Now, you will travel with a friend who will choose whether you go up or down first. </p>
            <p> On these turns, you will just see the animal that they found. You will still get to choose which chest to search for treasure.</p>","","instructions","","","","","","","","","","","","","",""
"revaluation","82","470650","0.0-3.0-13.0-4.0-0.0","spark_pilot_2","7991","6","23","Female","","false","","","","","[1185]","./assets/img/space/animals/cat.jpg","[""ArrowRight""]","practice block","space","36","{""ArrowUp,ArrowLeft"":3,""ArrowUp,ArrowRight"":36,""ArrowDown,ArrowLeft"":15,""ArrowDown,ArrowRight"":23}","true","ArrowUp,ArrowRight","","","","","","","","",""
"html-keyboard-response","83","471164","0.0-3.0-13.0-4.0-1.0","spark_pilot_2","7991","6","23","Female","","","","","","","null","<div style=""font-size:60px;"">+</div>","null","fixation","","","","","","","","","","","","","",""
"revaluation","84","475192","0.0-3.0-13.0-4.0-0.1","spark_pilot_2","7991","6","23","Female","","false","","","","","[337]","./assets/img/space/animals/cat.jpg","[""ArrowRight""]","practice block","space","36","{""ArrowUp,ArrowLeft"":3,""ArrowUp,ArrowRight"":36,""ArrowDown,ArrowLeft"":15,""ArrowDown,ArrowRight"":23}","true","ArrowUp,ArrowRight","","","","","","","","",""
"html-keyboard-response","85","475695","0.0-3.0-13.0-4.0-1.1","spark_pilot_2","7991","6","23","Female","","","","","","","null","<div style=""font-size:60px;"">+</div>","null","fixation","","","","","","","","","","","","","",""
"revaluation","86","479711","0.0-3.0-13.0-4.0-0.2","spark_pilot_2","7991","6","23","Female","","false","","","","","[991]","./assets/img/space/animals/rabbit.jpg","[""ArrowRight""]","practice block","space","23","{""ArrowUp,ArrowLeft"":3,""ArrowUp,ArrowRight"":36,""ArrowDown,ArrowLeft"":15,""ArrowDown,ArrowRight"":23}","true","ArrowDown,ArrowRight","","","","","","","","",""
"html-keyboard-response","87","480225","0.0-3.0-13.0-4.0-1.2","spark_pilot_2","7991","6","23","Female","","","","","","","null","<div style=""font-size:60px;"">+</div>","null","fixation","","","","","","","","","","","","","",""
"revaluation","88","484241","0.0-3.0-13.0-4.0-0.3","spark_pilot_2","7991","6","23","Female","","false","","","","","[430]","./assets/img/space/animals/rabbit.jpg","[""ArrowRight""]","practice block","space","23","{""ArrowUp,ArrowLeft"":3,""ArrowUp,ArrowRight"":36,""ArrowDown,ArrowLeft"":15,""ArrowDown,ArrowRight"":23}","true","ArrowDown,ArrowRight","","","","","","","","",""
"html-keyboard-response","89","484756","0.0-3.0-13.0-4.0-1.3","spark_pilot_2","7991","6","23","Female","","","","","","","null","<div style=""font-size:60px;"">+</div>","null","fixation","","","","","","","","","","","","","",""
"learning-instructions","90","492960","0.0-3.0-13.0-5.0-0.0","spark_pilot_2","7991","6","23","Female","","","","","","","759","<p> Time to play the dot game! </p>
            <p> For 15 seconds, click the red dots on the following screen as they appear. </p>","","instructions","","","","","","","","","","","","","",""
"revaluation","91","507975","0.0-3.0-13.0-6.0-0.0","spark_pilot_2","7991","6","23","Female","","","","","","","[99,133]","","","rest practice","","20","","","","","0","15000","","","","","",""
"learning-instructions","92","515580","0.0-3.0-13.0-7.0-0.0","spark_pilot_2","7991","6","23","Female","","","","","","","1428","<p> You have almost finished this part of the game! </p>
            <p> We are going to ask you to make a few more choices. </p>","","instructions","","","","","","","","","","","","","",""
"learning-instructions","93","533154","0.0-3.0-13.0-7.0-0.1","spark_pilot_2","7991","6","23","Female","","","","","","","3512","<p> First, you need to decide whether to go up or down. When you see each picture, use the arrow keys to make your choice. </p>
            <p><b>You will not see which animal you found, but try to get to the one that will give you the most treasure.</b></p>","","instructions","","","","","","","","","","","","","",""
"revaluation","94","534247","0.0-3.0-13.0-8.0","spark_pilot_2","7991","6","23","Female","","false","","","","","[1089]","./assets/img/space/15.jpg","[""ArrowUp""]","practice block","space","0","{""ArrowUp,ArrowLeft"":3,""ArrowUp,ArrowRight"":36,""ArrowDown,ArrowLeft"":15,""ArrowDown,ArrowRight"":23}","true","ArrowUp","false","","","","","","","",""
"html-keyboard-response","95","534761","0.0-3.0-13.0-9.0","spark_pilot_2","7991","6","23","Female","","","","","","","null","<div style=""font-size:60px;"">+</div>","null","fixation","","","","","","","","","","","","","",""
"learning-instructions","96","547837","0.0-3.0-13.0-10.0-0.0","spark_pilot_2","7991","6","23","Female","","","","","","","1645","<p> Now you will see the animals again and can search their chests for treasure. </p>
            <p> This time, you will not see how much treasure you earned, but you will earn more bonus money for making better choices. </p>","","instructions","","","","","","","","","","","","","",""
"revaluation","97","548733","0.0-3.0-13.0-11.0-0.0","spark_pilot_2","7991","6","23","Female","","false","","","","","[893]","./assets/img/space/animals/cat.jpg","[""ArrowRight""]","practice block","space","0","{""ArrowUp,ArrowLeft"":3,""ArrowUp,ArrowRight"":36,""ArrowDown,ArrowLeft"":15,""ArrowDown,ArrowRight"":23}","true","ArrowUp,ArrowRight","","","","","","","","",""
"html-keyboard-response","98","549241","0.0-3.0-13.0-11.0-1.0","spark_pilot_2","7991","6","23","Female","","","","","","","null","<div style=""font-size:60px;"">+</div>","null","fixation","","","","","","","","","","","","","",""
"revaluation","99","550101","0.0-3.0-13.0-11.0-0.1","spark_pilot_2","7991","6","23","Female","","false","","","","","[856]","./assets/img/space/animals/rabbit.jpg","[""ArrowRight""]","practice block","space","0","{""ArrowUp,ArrowLeft"":3,""ArrowUp,ArrowRight"":36,""ArrowDown,ArrowLeft"":15,""ArrowDown,ArrowRight"":23}","true","ArrowDown,ArrowRight","","","","","","","","",""
"html-keyboard-response","100","550617","0.0-3.0-13.0-11.0-1.1","spark_pilot_2","7991","6","23","Female","","","","","","","null","<div style=""font-size:60px;"">+</div>","null","fixation","","","","","","","","","","","","","",""
"learning-instructions","101","556596","0.0-3.0-14.0-0.0","spark_pilot_2","7991","6","23","Female","","","","","","","1354","<p> Before you start, we're going to ask you a few questions about how the game works. </p>","","instructions","","","","","","","","","","","","","",""
"comp-q","102","564093","0.0-3.0-15.0-0.0-0.0","spark_pilot_2","7991","6","23","Female","","","","","","","1860","<p> <b> True or False? </b> </p>
            <p> There can be 50 pieces of treasure in a given animal's chest. </p>","0","comp_question","","","","false","","","","","","","","","",""
"comp-q","103","571823","0.0-3.0-15.0-0.0-1.0","spark_pilot_2","7991","6","23","Female","","","","","","","1141","<p> <b>Incorrect.</b> The amount of treasure in each chest can range from 0 to 40 pieces. </p>","0","comp_answer","","","","","","","","","","","","","",""
"comp-q","104","578078","0.0-3.0-15.0-0.1-0.1","spark_pilot_2","7991","6","23","Female","","","","","","","685","<p> <b> True or False? </b> </p>
            <p> There can be 50 pieces of treasure in a given animal's chest. </p>","1","comp_question","","","","true","","","","","","","","","",""
"comp-q","105","586404","0.0-3.0-15.0-0.1-1.1","spark_pilot_2","7991","6","23","Female","","","","","","","1601","<p> <b> That's right! </b> The amount of treasure in each chest can range from 0 to 40 pieces. </p>","0","comp_answer","","","","","","","","","","","","","",""
"comp-q","106","594436","0.0-3.0-15.0-0.2-0.2","spark_pilot_2","7991","6","23","Female","","","","","","","854","<p> <b> True or False? </b> </p><p> In this game, all animals have the same amount of treasure in their left and right chests. </p>","1","comp_question","","","","true","","","","","","","","","",""
"comp-q","107","600929","0.0-3.0-15.0-0.2-1.2","spark_pilot_2","7991","6","23","Female","","","","","","","1205","<p> <b> That's right! </b> Animals have different amounts of treasure in their treasure chests. </p>","0","comp_answer","","","","","","","","","","","","","",""
"comp-q","108","607743","0.0-3.0-15.0-0.3-0.3","spark_pilot_2","7991","6","23","Female","","","","","","","921","<p> <b> True or False? </b> </p><p> The same animal will always be there if you go up in the same place. </p>","1","comp_question","","","","false","","","","","","","","","",""
"comp-q","109","614960","0.0-3.0-15.0-0.3-1.3","spark_pilot_2","7991","6","23","Female","","","","","","","857","<p> <b>Incorrect.</b> One animal lives in the upper part and one lives in the lower part of every place. </p>","0","comp_answer","","","","","","","","","","","","","",""
"comp-q","110","621709","0.0-3.0-15.0-0.4-0.4","spark_pilot_2","7991","6","23","Female","","","","","","","915","<p> <b> True or False? </b> </p><p> The same animal will always be there if you go up in the same place. </p>","0","comp_question","","","","true","","","","","","","","","",""
"comp-q","111","631408","0.0-3.0-15.0-0.4-1.4","spark_pilot_2","7991","6","23","Female","","","","","","","3096","<p> <b> That's right! </b> One animal lives in the upper part and one lives in the lower part of every place. </p>","0","comp_answer","","","","","","","","","","","","","",""
"comp-q","112","638090","0.0-3.0-15.0-0.5-0.5","spark_pilot_2","7991","6","23","Female","","","","","","","1095","<p> <b> True or False? </b> </p><p> If you see a different picture, it means you are in a new place. </p>","1","comp_question","","","","true","","","","","","","","","",""
"comp-q","113","651021","0.0-3.0-15.0-0.5-1.5","spark_pilot_2","7991","6","23","Female","","","","","","","1617","<p> <b> That's right! </b> Lots of different images may show the same place. For example,  you may see three different images that all remind you that you are in outer space. </p>","0","comp_answer","","","","","","","","","","","","","",""
"learning-instructions","114","663224","0.0-3.0-16.0-0.0","spark_pilot_2","7991","6","23","Female","","","","","","","2230","<p> Good job. Remember to do your best because the amount of treasure you earn will be converted into bonus money. </p>
            <p> It’s time to start the real game! </p>","","instructions","","","","","","","","","","","","","",""
"learning-instructions","115","667443","0.0-4.0-0.0-0.0","spark_pilot_2","7991","6","23","Female","","","","","","","1399","<p> This time you are searching for treasure in the <b>canyon</b>.</p>","","instructions","","","","","","","","","","","","","",""
"learning-instructions","116","686323","0.0-4.0-0.0-0.1","spark_pilot_2","7991","6","23","Female","","","","","","","1458","<p><b>New</b> animals with <b>new</b> treasure chests live here. You need to explore to discover where the animal with the best treasure chest is.</p>
                    <p> Like before, once you figure out which animal has the chest with the most treasure, you should try to get to that animal and select that chest! </p>","","instructions","","","","","","","","","","","","","",""
"learning-instructions","117","702309","0.0-4.0-1.0-0.0","spark_pilot_2","7991","6","23","Female","","","","","","","1244","<p> Remember, when you see a picture of the place, use the up and down keys to <b>find an animal</b>.</p>
            <p> When you encounter an animal, you should use the left and right keys to <b>select a treasure chest</b>.</p>
            <p> Don't forget to look out for the robber! </p>","","instructions","","","","","","","","","","","","","",""
"revaluation","118","708332","0.0-4.0-2.0-0.0","spark_pilot_2","7991","6","23","Female","","false","","","","","[1647,848]","./assets/img/canyon/memory/28.jpg","[""ArrowDown"",""ArrowRight""]","value training","canyon","30","{""ArrowUp,ArrowLeft"":23,""ArrowUp,ArrowRight"":10,""ArrowDown,ArrowLeft"":8,""ArrowDown,ArrowRight"":30}","true","ArrowDown,ArrowRight","false","","","revaluation","1","0","","",""
"html-keyboard-response","119","708847","0.0-4.0-2.0-1.0","spark_pilot_2","7991","6","23","Female","","","","","","","null","<div style=""font-size:60px;"">+</div>","null","fixation","","","","","","","","","","","1","","",""
"revaluation","120","714868","0.0-4.0-2.0-0.1","spark_pilot_2","7991","6","23","Female","","false","","","","","[453,493]","./assets/img/canyon/memory/1.jpg","[""ArrowDown"",""ArrowLeft""]","value training","canyon","8","{""ArrowUp,ArrowLeft"":23,""ArrowUp,ArrowRight"":10,""ArrowDown,ArrowLeft"":8,""ArrowDown,ArrowRight"":30}","false","ArrowDown,ArrowLeft","false","","","revaluation","1","2","","",""
"html-keyboard-response","121","715376","0.0-4.0-2.0-1.1","spark_pilot_2","7991","6","23","Female","","","","","","","null","<div style=""font-size:60px;"">+</div>","null","fixation","","","","","","","","","","","3","","",""
"revaluation","122","721399","0.0-4.0-2.0-0.2","spark_pilot_2","7991","6","23","Female","","false","","","","","[307,371]","./assets/img/canyon/memory/24.jpg","[""ArrowDown"",""ArrowRight""]","value training","canyon","30","{""ArrowUp,ArrowLeft"":23,""ArrowUp,ArrowRight"":10,""ArrowDown,ArrowLeft"":8,""ArrowDown,ArrowRight"":30}","true","ArrowDown,ArrowRight","false","","","revaluation","1","4","","",""
"html-keyboard-response","123","721909","0.0-4.0-2.0-1.2","spark_pilot_2","7991","6","23","Female","","","","","","","null","<div style=""font-size:60px;"">+</div>","null","fixation","","","","","","","","","","","5","","",""
"revaluation","124","727924","0.0-4.0-2.0-0.3","spark_pilot_2","7991","6","23","Female","","false","","","","","[674,443]","./assets/img/canyon/memory/28.jpg","[""ArrowUp"",""ArrowRight""]","value training","canyon","10","{""ArrowUp,ArrowLeft"":23,""ArrowUp,ArrowRight"":10,""ArrowDown,ArrowLeft"":8,""ArrowDown,ArrowRight"":30}","false","ArrowUp,ArrowRight","false","","","revaluation","1","6","","",""
"html-keyboard-response","125","728430","0.0-4.0-2.0-1.3","spark_pilot_2","7991","6","23","Female","","","","","","","null","<div style=""font-size:60px;"">+</div>","null","fixation","","","","","","","","","","","7","","",""
"revaluation","126","734461","0.0-4.0-2.0-0.4","spark_pilot_2","7991","6","23","Female","","false","","","","","[350,393]","./assets/img/canyon/memory/25.jpg","[""ArrowUp"",""ArrowLeft""]","value training","canyon","23","{""ArrowUp,ArrowLeft"":23,""ArrowUp,ArrowRight"":10,""ArrowDown,ArrowLeft"":8,""ArrowDown,ArrowRight"":30}","false","ArrowUp,ArrowLeft","false","","","revaluation","1","8","","",""
"html-keyboard-response","127","734966","0.0-4.0-2.0-1.4","spark_pilot_2","7991","6","23","Female","","","","","","","null","<div style=""font-size:60px;"">+</div>","null","fixation","","","","","","","","","","","9","","",""
"revaluation","128","740984","0.0-4.0-2.0-0.5","spark_pilot_2","7991","6","23","Female","","false","","","","","[620,439]","./assets/img/canyon/memory/16.jpg","[""ArrowDown"",""ArrowRight""]","value training","canyon","30","{""ArrowUp,ArrowLeft"":23,""ArrowUp,ArrowRight"":10,""ArrowDown,ArrowLeft"":8,""ArrowDown,ArrowRight"":30}","true","ArrowDown,ArrowRight","false","","","revaluation","1","10","","",""
"html-keyboard-response","129","741490","0.0-4.0-2.0-1.5","spark_pilot_2","7991","6","23","Female","","","","","","","null","<div style=""font-size:60px;"">+</div>","null","fixation","","","","","","","","","","","11","","",""
"revaluation","130","747521","0.0-4.0-2.0-0.6","spark_pilot_2","7991","6","23","Female","","false","","","","","[547,1349]","./assets/img/canyon/memory/24.jpg","[""ArrowDown"",""ArrowRight""]","value training","canyon","30","{""ArrowUp,ArrowLeft"":23,""ArrowUp,ArrowRight"":10,""ArrowDown,ArrowLeft"":8,""ArrowDown,ArrowRight"":30}","true","ArrowDown,ArrowRight","false","","","revaluation","1","12","","",""
"html-keyboard-response","131","748029","0.0-4.0-2.0-1.6","spark_pilot_2","7991","6","23","Female","","","","","","","null","<div style=""font-size:60px;"">+</div>","null","fixation","","","","","","","","","","","13","","",""
"revaluation","132","754063","0.0-4.0-2.0-0.7","spark_pilot_2","7991","6","23","Female","","false","","","","","[1367,846]","./assets/img/canyon/memory/0.jpg","[""ArrowDown"",""ArrowRight""]","value training","canyon","30","{""ArrowUp,ArrowLeft"":23,""ArrowUp,ArrowRight"":10,""ArrowDown,ArrowLeft"":8,""ArrowDown,ArrowRight"":30}","true","ArrowDown,ArrowRight","false","","","revaluation","1","14","","",""
"html-keyboard-response","133","754573","0.0-4.0-2.0-1.7","spark_pilot_2","7991","6","23","Female","","","","","","","null","<div style=""font-size:60px;"">+</div>","null","fixation","","","","","","","","","","","15","","",""
"revaluation","134","760587","0.0-4.0-2.0-0.8","spark_pilot_2","7991","6","23","Female","","false","","","","","[536,743]","./assets/img/canyon/memory/6.jpg","[""ArrowDown"",""ArrowRight""]","value training","canyon","30","{""ArrowUp,ArrowLeft"":23,""ArrowUp,ArrowRight"":10,""ArrowDown,ArrowLeft"":8,""ArrowDown,ArrowRight"":30}","true","ArrowDown,ArrowRight","false","","","revaluation","1","16","","",""
"html-keyboard-response","135","761090","0.0-4.0-2.0-1.8","spark_pilot_2","7991","6","23","Female","","","","","","","null","<div style=""font-size:60px;"">+</div>","null","fixation","","","","","","","","","","","17","","",""
"revaluation","136","767121","0.0-4.0-2.0-0.9","spark_pilot_2","7991","6","23","Female","","false","","","","","[474,1241]","./assets/img/canyon/memory/2.jpg","[""ArrowDown"",""ArrowRight""]","value training","canyon","30","{""ArrowUp,ArrowLeft"":23,""ArrowUp,ArrowRight"":10,""ArrowDown,ArrowLeft"":8,""ArrowDown,ArrowRight"":30}","true","ArrowDown,ArrowRight","false","","","revaluation","1","18","","",""
"html-keyboard-response","137","767633","0.0-4.0-2.0-1.9","spark_pilot_2","7991","6","23","Female","","","","","","","null","<div style=""font-size:60px;"">+</div>","null","fixation","","","","","","","","","","","19","","",""
"revaluation","138","773670","0.0-4.0-2.0-0.10","spark_pilot_2","7991","6","23","Female","","false","","","","","[567,765]","./assets/img/canyon/memory/4.jpg","[""ArrowDown"",""ArrowRight""]","value training","canyon","30","{""ArrowUp,ArrowLeft"":23,""ArrowUp,ArrowRight"":10,""ArrowDown,ArrowLeft"":8,""ArrowDown,ArrowRight"":30}","true","ArrowDown,ArrowRight","false","","","revaluation","1","20","","",""
"html-keyboard-response","139","774182","0.0-4.0-2.0-1.10","spark_pilot_2","7991","6","23","Female","","","","","","","null","<div style=""font-size:60px;"">+</div>","null","fixation","","","","","","","","","","","21","","",""
"revaluation","140","778197","0.0-4.0-2.0-0.11","spark_pilot_2","7991","6","23","Female","","false","","","","","[497]","./assets/img/canyon/catch/3.jpg","[""ArrowDown""]","value training","canyon","-10","{""ArrowUp,ArrowLeft"":23,""ArrowUp,ArrowRight"":10,""ArrowDown,ArrowLeft"":8,""ArrowDown,ArrowRight"":30}","false","ArrowDown","true","","","revaluation","1","22","","",""
"html-keyboard-response","141","778707","0.0-4.0-2.0-1.11","spark_pilot_2","7991","6","23","Female","","","","","","","null","<div style=""font-size:60px;"">+</div>","null","fixation","","","","","","","","","","","23","","",""
"revaluation","142","784747","0.0-4.0-2.0-0.12","spark_pilot_2","7991","6","23","Female","","false","","","","","[881,393]","./assets/img/canyon/memory/0.jpg","[""ArrowDown"",""ArrowRight""]","value training","canyon","30","{""ArrowUp,ArrowLeft"":23,""ArrowUp,ArrowRight"":10,""ArrowDown,ArrowLeft"":8,""ArrowDown,ArrowRight"":30}","true","ArrowDown,ArrowRight","false","","","revaluation","1","24","","",""
"html-keyboard-response","143","785253","0.0-4.0-2.0-1.12","spark_pilot_2","7991","6","23","Female","","","","","","","null","<div style=""font-size:60px;"">+</div>","null","fixation","","","","","","","","","","","25","","",""
"revaluation","144","791274","0.0-4.0-2.0-0.13","spark_pilot_2","7991","6","23","Female","","false","","","","","[626,340]","./assets/img/canyon/memory/11.jpg","[""ArrowDown"",""ArrowRight""]","value training","canyon","30","{""ArrowUp,ArrowLeft"":23,""ArrowUp,ArrowRight"":10,""ArrowDown,ArrowLeft"":8,""ArrowDown,ArrowRight"":30}","true","ArrowDown,ArrowRight","false","","","revaluation","1","26","","",""
"html-keyboard-response","145","791784","0.0-4.0-2.0-1.13","spark_pilot_2","7991","6","23","Female","","","","","","","null","<div style=""font-size:60px;"">+</div>","null","fixation","","","","","","","","","","","27","","",""
"revaluation","146","797806","0.0-4.0-2.0-0.14","spark_pilot_2","7991","6","23","Female","","false","","","","","[803,281]","./assets/img/canyon/memory/18.jpg","[""ArrowDown"",""ArrowRight""]","value training","canyon","30","{""ArrowUp,ArrowLeft"":23,""ArrowUp,ArrowRight"":10,""ArrowDown,ArrowLeft"":8,""ArrowDown,ArrowRight"":30}","true","ArrowDown,ArrowRight","false","","","revaluation","1","28","","",""
"html-keyboard-response","147","798318","0.0-4.0-2.0-1.14","spark_pilot_2","7991","6","23","Female","","","","","","","null","<div style=""font-size:60px;"">+</div>","null","fixation","","","","","","","","","","","29","","",""
"revaluation","148","804356","0.0-4.0-2.0-0.15","spark_pilot_2","7991","6","23","Female","","false","","","","","[532,621]","./assets/img/canyon/memory/30.jpg","[""ArrowDown"",""ArrowRight""]","value training","canyon","30","{""ArrowUp,ArrowLeft"":23,""ArrowUp,ArrowRight"":10,""ArrowDown,ArrowLeft"":8,""ArrowDown,ArrowRight"":30}","true","ArrowDown,ArrowRight","false","","","revaluation","1","30","","",""
"html-keyboard-response","149","804862","0.0-4.0-2.0-1.15","spark_pilot_2","7991","6","23","Female","","","","","","","null","<div style=""font-size:60px;"">+</div>","null","fixation","","","","","","","","","","","31","","",""
"revaluation","150","810886","0.0-4.0-2.0-0.16","spark_pilot_2","7991","6","23","Female","","false","","","","","[727,341]","./assets/img/canyon/memory/23.jpg","[""ArrowDown"",""ArrowRight""]","value training","canyon","30","{""ArrowUp,ArrowLeft"":23,""ArrowUp,ArrowRight"":10,""ArrowDown,ArrowLeft"":8,""ArrowDown,ArrowRight"":30}","true","ArrowDown,ArrowRight","false","","","revaluation","1","32","","",""
"html-keyboard-response","151","811400","0.0-4.0-2.0-1.16","spark_pilot_2","7991","6","23","Female","","","","","","","null","<div style=""font-size:60px;"">+</div>","null","fixation","","","","","","","","","","","33","","",""
"revaluation","152","815421","0.0-4.0-2.0-0.17","spark_pilot_2","7991","6","23","Female","","false","","","","","[384]","./assets/img/canyon/catch/1.jpg","[""ArrowDown""]","value training","canyon","-10","{""ArrowUp,ArrowLeft"":23,""ArrowUp,ArrowRight"":10,""ArrowDown,ArrowLeft"":8,""ArrowDown,ArrowRight"":30}","false","ArrowDown","true","","","revaluation","1","34","","",""
"html-keyboard-response","153","815928","0.0-4.0-2.0-1.17","spark_pilot_2","7991","6","23","Female","","","","","","","null","<div style=""font-size:60px;"">+</div>","null","fixation","","","","","","","","","","","35","","",""
"revaluation","154","821970","0.0-4.0-2.0-0.18","spark_pilot_2","7991","6","23","Female","","false","","","","","[490,266]","./assets/img/canyon/memory/26.jpg","[""ArrowDown"",""ArrowRight""]","value training","canyon","30","{""ArrowUp,ArrowLeft"":23,""ArrowUp,ArrowRight"":10,""ArrowDown,ArrowLeft"":8,""ArrowDown,ArrowRight"":30}","true","ArrowDown,ArrowRight","false","","","revaluation","1","36","","",""
"html-keyboard-response","155","822473","0.0-4.0-2.0-1.18","spark_pilot_2","7991","6","23","Female","","","","","","","null","<div style=""font-size:60px;"">+</div>","null","fixation","","","","","","","","","","","37","","",""
"revaluation","156","828503","0.0-4.0-2.0-0.19","spark_pilot_2","7991","6","23","Female","","false","","","","","[561,846]","./assets/img/canyon/memory/5.jpg","[""ArrowDown"",""ArrowRight""]","value training","canyon","30","{""ArrowUp,ArrowLeft"":23,""ArrowUp,ArrowRight"":10,""ArrowDown,ArrowLeft"":8,""ArrowDown,ArrowRight"":30}","true","ArrowDown,ArrowRight","false","","","revaluation","1","38","","",""
"html-keyboard-response","157","829018","0.0-4.0-2.0-1.19","spark_pilot_2","7991","6","23","Female","","","","","","","null","<div style=""font-size:60px;"">+</div>","null","fixation","","","","","","","","","","","39","","",""
"revaluation","158","835038","0.0-4.0-2.0-0.20","spark_pilot_2","7991","6","23","Female","","false","","","","","[451,509]","./assets/img/canyon/memory/7.jpg","[""ArrowDown"",""ArrowRight""]","value training","canyon","30","{""ArrowUp,ArrowLeft"":23,""ArrowUp,ArrowRight"":10,""ArrowDown,ArrowLeft"":8,""ArrowDown,ArrowRight"":30}","true","ArrowDown,ArrowRight","false","","","revaluation","1","40","","",""
"html-keyboard-response","159","835542","0.0-4.0-2.0-1.20","spark_pilot_2","7991","6","23","Female","","","","","","","null","<div style=""font-size:60px;"">+</div>","null","fixation","","","","","","","","","","","41","","",""
"revaluation","160","841564","0.0-4.0-2.0-0.21","spark_pilot_2","7991","6","23","Female","","false","","","","","[965,582]","./assets/img/canyon/memory/29.jpg","[""ArrowDown"",""ArrowRight""]","value training","canyon","30","{""ArrowUp,ArrowLeft"":23,""ArrowUp,ArrowRight"":10,""ArrowDown,ArrowLeft"":8,""ArrowDown,ArrowRight"":30}","true","ArrowDown,ArrowRight","false","","","revaluation","1","42","","",""
"html-keyboard-response","161","842066","0.0-4.0-2.0-1.21","spark_pilot_2","7991","6","23","Female","","","","","","","null","<div style=""font-size:60px;"">+</div>","null","fixation","","","","","","","","","","","43","","",""
"revaluation","162","848104","0.0-4.0-2.0-0.22","spark_pilot_2","7991","6","23","Female","","false","","","","","[505,326]","./assets/img/canyon/memory/29.jpg","[""ArrowDown"",""ArrowRight""]","value training","canyon","30","{""ArrowUp,ArrowLeft"":23,""ArrowUp,ArrowRight"":10,""ArrowDown,ArrowLeft"":8,""ArrowDown,ArrowRight"":30}","true","ArrowDown,ArrowRight","false","","","revaluation","1","44","","",""
"html-keyboard-response","163","848611","0.0-4.0-2.0-1.22","spark_pilot_2","7991","6","23","Female","","","","","","","null","<div style=""font-size:60px;"">+</div>","null","fixation","","","","","","","","","","","45","","",""
"revaluation","164","854654","0.0-4.0-2.0-0.23","spark_pilot_2","7991","6","23","Female","","false","","","","","[507,399]","./assets/img/canyon/memory/2.jpg","[""ArrowDown"",""ArrowRight""]","value training","canyon","30","{""ArrowUp,ArrowLeft"":23,""ArrowUp,ArrowRight"":10,""ArrowDown,ArrowLeft"":8,""ArrowDown,ArrowRight"":30}","true","ArrowDown,ArrowRight","false","","","revaluation","1","46","","",""
"html-keyboard-response","165","855167","0.0-4.0-2.0-1.23","spark_pilot_2","7991","6","23","Female","","","","","","","null","<div style=""font-size:60px;"">+</div>","null","fixation","","","","","","","","","","","47","","",""
"revaluation","166","861205","0.0-4.0-2.0-0.24","spark_pilot_2","7991","6","23","Female","","false","","","","","[448,504]","./assets/img/canyon/memory/6.jpg","[""ArrowDown"",""ArrowRight""]","value training","canyon","30","{""ArrowUp,ArrowLeft"":23,""ArrowUp,ArrowRight"":10,""ArrowDown,ArrowLeft"":8,""ArrowDown,ArrowRight"":30}","true","ArrowDown,ArrowRight","false","","","revaluation","1","48","","",""
"html-keyboard-response","167","861707","0.0-4.0-2.0-1.24","spark_pilot_2","7991","6","23","Female","","","","","","","null","<div style=""font-size:60px;"">+</div>","null","fixation","","","","","","","","","","","49","","",""
"revaluation","168","867744","0.0-4.0-2.0-0.25","spark_pilot_2","7991","6","23","Female","","false","","","","","[538,441]","./assets/img/canyon/memory/1.jpg","[""ArrowDown"",""ArrowRight""]","value training","canyon","30","{""ArrowUp,ArrowLeft"":23,""ArrowUp,ArrowRight"":10,""ArrowDown,ArrowLeft"":8,""ArrowDown,ArrowRight"":30}","true","ArrowDown,ArrowRight","false","","","revaluation","1","50","","",""
"html-keyboard-response","169","868247","0.0-4.0-2.0-1.25","spark_pilot_2","7991","6","23","Female","","","","","","","null","<div style=""font-size:60px;"">+</div>","null","fixation","","","","","","","","","","","51","","",""
"revaluation","170","872268","0.0-4.0-2.0-0.26","spark_pilot_2","7991","6","23","Female","","false","","","","","[938]","./assets/img/canyon/catch/6.jpg","[""spaceBar""]","value training","canyon","0","{""ArrowUp,ArrowLeft"":23,""ArrowUp,ArrowRight"":10,""ArrowDown,ArrowLeft"":8,""ArrowDown,ArrowRight"":30}","true","spaceBar","true","","","revaluation","1","52","","",""
"html-keyboard-response","171","872779","0.0-4.0-2.0-1.26","spark_pilot_2","7991","6","23","Female","","","","","","","null","<div style=""font-size:60px;"">+</div>","null","fixation","","","","","","","","","","","53","","",""
"revaluation","172","876792","0.0-4.0-2.0-0.27","spark_pilot_2","7991","6","23","Female","","false","","","","","[1233]","./assets/img/canyon/catch/0.jpg","[""spaceBar""]","value training","canyon","0","{""ArrowUp,ArrowLeft"":23,""ArrowUp,ArrowRight"":10,""ArrowDown,ArrowLeft"":8,""ArrowDown,ArrowRight"":30}","true","spaceBar","true","","","revaluation","1","54","","",""
"html-keyboard-response","173","877304","0.0-4.0-2.0-1.27","spark_pilot_2","7991","6","23","Female","","","","","","","null","<div style=""font-size:60px;"">+</div>","null","fixation","","","","","","","","","","","55","","",""
"revaluation","174","883349","0.0-4.0-2.0-0.28","spark_pilot_2","7991","6","23","Female","","false","","","","","[650,454]","./assets/img/canyon/memory/20.jpg","[""ArrowDown"",""ArrowRight""]","value training","canyon","30","{""ArrowUp,ArrowLeft"":23,""ArrowUp,ArrowRight"":10,""ArrowDown,ArrowLeft"":8,""ArrowDown,ArrowRight"":30}","true","ArrowDown,ArrowRight","false","","","revaluation","1","56","","",""
"html-keyboard-response","175","883854","0.0-4.0-2.0-1.28","spark_pilot_2","7991","6","23","Female","","","","","","","null","<div style=""font-size:60px;"">+</div>","null","fixation","","","","","","","","","","","57","","",""
"revaluation","176","889891","0.0-4.0-2.0-0.29","spark_pilot_2","7991","6","23","Female","","false","","","","","[687,402]","./assets/img/canyon/memory/4.jpg","[""ArrowDown"",""ArrowRight""]","value training","canyon","30","{""ArrowUp,ArrowLeft"":23,""ArrowUp,ArrowRight"":10,""ArrowDown,ArrowLeft"":8,""ArrowDown,ArrowRight"":30}","true","ArrowDown,ArrowRight","false","","","revaluation","1","58","","",""
"html-keyboard-response","177","890393","0.0-4.0-2.0-1.29","spark_pilot_2","7991","6","23","Female","","","","","","","null","<div style=""font-size:60px;"">+</div>","null","fixation","","","","","","","","","","","59","","",""
"revaluation","178","896425","0.0-4.0-2.0-0.30","spark_pilot_2","7991","6","23","Female","","false","","","","","[734,313]","./assets/img/canyon/memory/26.jpg","[""ArrowDown"",""ArrowRight""]","value training","canyon","30","{""ArrowUp,ArrowLeft"":23,""ArrowUp,ArrowRight"":10,""ArrowDown,ArrowLeft"":8,""ArrowDown,ArrowRight"":30}","true","ArrowDown,ArrowRight","false","","","revaluation","1","60","","",""
"html-keyboard-response","179","896938","0.0-4.0-2.0-1.30","spark_pilot_2","7991","6","23","Female","","","","","","","null","<div style=""font-size:60px;"">+</div>","null","fixation","","","","","","","","","","","61","","",""
"revaluation","180","902983","0.0-4.0-2.0-0.31","spark_pilot_2","7991","6","23","Female","","false","","","","","[514,520]","./assets/img/canyon/memory/30.jpg","[""ArrowDown"",""ArrowRight""]","value training","canyon","30","{""ArrowUp,ArrowLeft"":23,""ArrowUp,ArrowRight"":10,""ArrowDown,ArrowLeft"":8,""ArrowDown,ArrowRight"":30}","true","ArrowDown,ArrowRight","false","","","revaluation","1","62","","",""
"html-keyboard-response","181","903488","0.0-4.0-2.0-1.31","spark_pilot_2","7991","6","23","Female","","","","","","","null","<div style=""font-size:60px;"">+</div>","null","fixation","","","","","","","","","","","63","","",""
"revaluation","182","909514","0.0-4.0-2.0-0.32","spark_pilot_2","7991","6","23","Female","","false","","","","","[610,489]","./assets/img/canyon/memory/3.jpg","[""ArrowDown"",""ArrowRight""]","value training","canyon","30","{""ArrowUp,ArrowLeft"":23,""ArrowUp,ArrowRight"":10,""ArrowDown,ArrowLeft"":8,""ArrowDown,ArrowRight"":30}","true","ArrowDown,ArrowRight","false","","","revaluation","1","64","","",""
"html-keyboard-response","183","910024","0.0-4.0-2.0-1.32","spark_pilot_2","7991","6","23","Female","","","","","","","null","<div style=""font-size:60px;"">+</div>","null","fixation","","","","","","","","","","","65","","",""
"revaluation","184","916039","0.0-4.0-2.0-0.33","spark_pilot_2","7991","6","23","Female","","false","","","","","[835,596]","./assets/img/canyon/memory/23.jpg","[""ArrowDown"",""ArrowRight""]","value training","canyon","30","{""ArrowUp,ArrowLeft"":23,""ArrowUp,ArrowRight"":10,""ArrowDown,ArrowLeft"":8,""ArrowDown,ArrowRight"":30}","true","ArrowDown,ArrowRight","false","","","revaluation","1","66","","",""
"html-keyboard-response","185","916542","0.0-4.0-2.0-1.33","spark_pilot_2","7991","6","23","Female","","","","","","","null","<div style=""font-size:60px;"">+</div>","null","fixation","","","","","","","","","","","67","","",""
"revaluation","186","920575","0.0-4.0-2.0-0.34","spark_pilot_2","7991","6","23","Female","","false","","","","","[1108]","./assets/img/canyon/catch/5.jpg","[""spaceBar""]","value training","canyon","0","{""ArrowUp,ArrowLeft"":23,""ArrowUp,ArrowRight"":10,""ArrowDown,ArrowLeft"":8,""ArrowDown,ArrowRight"":30}","true","spaceBar","true","","","revaluation","1","68","","",""
"html-keyboard-response","187","921094","0.0-4.0-2.0-1.34","spark_pilot_2","7991","6","23","Female","","","","","","","null","<div style=""font-size:60px;"">+</div>","null","fixation","","","","","","","","","","","69","","",""
"revaluation","188","927132","0.0-4.0-2.0-0.35","spark_pilot_2","7991","6","23","Female","","false","","","","","[943,582]","./assets/img/canyon/memory/18.jpg","[""ArrowDown"",""ArrowRight""]","value training","canyon","30","{""ArrowUp,ArrowLeft"":23,""ArrowUp,ArrowRight"":10,""ArrowDown,ArrowLeft"":8,""ArrowDown,ArrowRight"":30}","true","ArrowDown,ArrowRight","false","","","revaluation","1","70","","",""
"html-keyboard-response","189","927644","0.0-4.0-2.0-1.35","spark_pilot_2","7991","6","23","Female","","","","","","","null","<div style=""font-size:60px;"">+</div>","null","fixation","","","","","","","","","","","71","","",""
"revaluation","190","933675","0.0-4.0-2.0-0.36","spark_pilot_2","7991","6","23","Female","","false","","","","","[685,624]","./assets/img/canyon/memory/31.jpg","[""ArrowDown"",""ArrowRight""]","value training","canyon","30","{""ArrowUp,ArrowLeft"":23,""ArrowUp,ArrowRight"":10,""ArrowDown,ArrowLeft"":8,""ArrowDown,ArrowRight"":30}","true","ArrowDown,ArrowRight","false","","","revaluation","1","72","","",""
"html-keyboard-response","191","934180","0.0-4.0-2.0-1.36","spark_pilot_2","7991","6","23","Female","","","","","","","null","<div style=""font-size:60px;"">+</div>","null","fixation","","","","","","","","","","","73","","",""
"revaluation","192","940214","0.0-4.0-2.0-0.37","spark_pilot_2","7991","6","23","Female","","false","","","","","[386,588]","./assets/img/canyon/memory/10.jpg","[""ArrowDown"",""ArrowRight""]","value training","canyon","30","{""ArrowUp,ArrowLeft"":23,""ArrowUp,ArrowRight"":10,""ArrowDown,ArrowLeft"":8,""ArrowDown,ArrowRight"":30}","true","ArrowDown,ArrowRight","false","","","revaluation","1","74","","",""
"html-keyboard-response","193","940718","0.0-4.0-2.0-1.37","spark_pilot_2","7991","6","23","Female","","","","","","","null","<div style=""font-size:60px;"">+</div>","null","fixation","","","","","","","","","","","75","","",""
"revaluation","194","946739","0.0-4.0-2.0-0.38","spark_pilot_2","7991","6","23","Female","","false","","","","","[844,742]","./assets/img/canyon/memory/25.jpg","[""ArrowDown"",""ArrowRight""]","value training","canyon","30","{""ArrowUp,ArrowLeft"":23,""ArrowUp,ArrowRight"":10,""ArrowDown,ArrowLeft"":8,""ArrowDown,ArrowRight"":30}","true","ArrowDown,ArrowRight","false","","","revaluation","1","76","","",""
"html-keyboard-response","195","947252","0.0-4.0-2.0-1.38","spark_pilot_2","7991","6","23","Female","","","","","","","null","<div style=""font-size:60px;"">+</div>","null","fixation","","","","","","","","","","","77","","",""
"revaluation","196","951269","0.0-4.0-2.0-0.39","spark_pilot_2","7991","6","23","Female","","false","","","","","[1119]","./assets/img/canyon/catch/2.jpg","[""spaceBar""]","value training","canyon","0","{""ArrowUp,ArrowLeft"":23,""ArrowUp,ArrowRight"":10,""ArrowDown,ArrowLeft"":8,""ArrowDown,ArrowRight"":30}","true","spaceBar","true","","","revaluation","1","78","","",""
"html-keyboard-response","197","951784","0.0-4.0-2.0-1.39","spark_pilot_2","7991","6","23","Female","","","","","","","null","<div style=""font-size:60px;"">+</div>","null","fixation","","","","","","","","","","","79","","",""
"revaluation","198","955798","0.0-4.0-2.0-0.40","spark_pilot_2","7991","6","23","Female","","true","","","","","[]","./assets/img/canyon/memory/20.jpg","[]","value training","canyon","-5","{""ArrowUp,ArrowLeft"":23,""ArrowUp,ArrowRight"":10,""ArrowDown,ArrowLeft"":8,""ArrowDown,ArrowRight"":30}","false","","false","","","revaluation","1","80","","",""
"html-keyboard-response","199","956303","0.0-4.0-2.0-1.40","spark_pilot_2","7991","6","23","Female","","","","","","","null","<div style=""font-size:60px;"">+</div>","null","fixation","","","","","","","","","","","81","","",""
"revaluation","200","962333","0.0-4.0-2.0-0.41","spark_pilot_2","7991","6","23","Female","","false","","","","","[1194,414]","./assets/img/canyon/memory/16.jpg","[""ArrowDown"",""ArrowRight""]","value training","canyon","30","{""ArrowUp,ArrowLeft"":23,""ArrowUp,ArrowRight"":10,""ArrowDown,ArrowLeft"":8,""ArrowDown,ArrowRight"":30}","true","ArrowDown,ArrowRight","false","","","revaluation","1","82","","",""
"html-keyboard-response","201","962841","0.0-4.0-2.0-1.41","spark_pilot_2","7991","6","23","Female","","","","","","","null","<div style=""font-size:60px;"">+</div>","null","fixation","","","","","","","","","","","83","","",""
"revaluation","202","966856","0.0-4.0-2.0-0.42","spark_pilot_2","7991","6","23","Female","","false","","","","","[764]","./assets/img/canyon/catch/4.jpg","[""spaceBar""]","value training","canyon","0","{""ArrowUp,ArrowLeft"":23,""ArrowUp,ArrowRight"":10,""ArrowDown,ArrowLeft"":8,""ArrowDown,ArrowRight"":30}","true","spaceBar","true","","","revaluation","1","84","","",""
"html-keyboard-response","203","967374","0.0-4.0-2.0-1.42","spark_pilot_2","7991","6","23","Female","","","","","","","null","<div style=""font-size:60px;"">+</div>","null","fixation","","","","","","","","","","","85","","",""
"revaluation","204","973405","0.0-4.0-2.0-0.43","spark_pilot_2","7991","6","23","Female","","false","","","","","[1746,493]","./assets/img/canyon/memory/5.jpg","[""ArrowDown"",""ArrowRight""]","value training","canyon","30","{""ArrowUp,ArrowLeft"":23,""ArrowUp,ArrowRight"":10,""ArrowDown,ArrowLeft"":8,""ArrowDown,ArrowRight"":30}","true","ArrowDown,ArrowRight","false","","","revaluation","1","86","","",""
"html-keyboard-response","205","973925","0.0-4.0-2.0-1.43","spark_pilot_2","7991","6","23","Female","","","","","","","null","<div style=""font-size:60px;"">+</div>","null","fixation","","","","","","","","","","","87","","",""
"revaluation","206","979966","0.0-4.0-2.0-0.44","spark_pilot_2","7991","6","23","Female","","false","","","","","[588,357]","./assets/img/canyon/memory/11.jpg","[""ArrowDown"",""ArrowRight""]","value training","canyon","30","{""ArrowUp,ArrowLeft"":23,""ArrowUp,ArrowRight"":10,""ArrowDown,ArrowLeft"":8,""ArrowDown,ArrowRight"":30}","true","ArrowDown,ArrowRight","false","","","revaluation","1","88","","",""
"html-keyboard-response","207","980484","0.0-4.0-2.0-1.44","spark_pilot_2","7991","6","23","Female","","","","","","","null","<div style=""font-size:60px;"">+</div>","null","fixation","","","","","","","","","","","89","","",""
"revaluation","208","986509","0.0-4.0-2.0-0.45","spark_pilot_2","7991","6","23","Female","","false","","","","","[809,683]","./assets/img/canyon/memory/3.jpg","[""ArrowDown"",""ArrowRight""]","value training","canyon","30","{""ArrowUp,ArrowLeft"":23,""ArrowUp,ArrowRight"":10,""ArrowDown,ArrowLeft"":8,""ArrowDown,ArrowRight"":30}","true","ArrowDown,ArrowRight","false","","","revaluation","1","90","","",""
"html-keyboard-response","209","987023","0.0-4.0-2.0-1.45","spark_pilot_2","7991","6","23","Female","","","","","","","null","<div style=""font-size:60px;"">+</div>","null","fixation","","","","","","","","","","","91","","",""
"revaluation","210","993060","0.0-4.0-2.0-0.46","spark_pilot_2","7991","6","23","Female","","false","","","","","[812,424]","./assets/img/canyon/memory/10.jpg","[""ArrowDown"",""ArrowRight""]","value training","canyon","30","{""ArrowUp,ArrowLeft"":23,""ArrowUp,ArrowRight"":10,""ArrowDown,ArrowLeft"":8,""ArrowDown,ArrowRight"":30}","true","ArrowDown,ArrowRight","false","","","revaluation","1","92","","",""
"html-keyboard-response","211","993574","0.0-4.0-2.0-1.46","spark_pilot_2","7991","6","23","Female","","","","","","","null","<div style=""font-size:60px;"">+</div>","null","fixation","","","","","","","","","","","93","","",""
"revaluation","212","999615","0.0-4.0-2.0-0.47","spark_pilot_2","7991","6","23","Female","","false","","","","","[594,410]","./assets/img/canyon/memory/7.jpg","[""ArrowDown"",""ArrowRight""]","value training","canyon","30","{""ArrowUp,ArrowLeft"":23,""ArrowUp,ArrowRight"":10,""ArrowDown,ArrowLeft"":8,""ArrowDown,ArrowRight"":30}","true","ArrowDown,ArrowRight","false","","","revaluation","1","94","","",""
"html-keyboard-response","213","1000135","0.0-4.0-2.0-1.47","spark_pilot_2","7991","6","23","Female","","","","","","","null","<div style=""font-size:60px;"">+</div>","null","fixation","","","","","","","","","","","95","","",""
"revaluation","214","1006170","0.0-4.0-2.0-0.48","spark_pilot_2","7991","6","23","Female","","false","","","","","[780,696]","./assets/img/canyon/memory/31.jpg","[""ArrowDown"",""ArrowRight""]","value training","canyon","30","{""ArrowUp,ArrowLeft"":23,""ArrowUp,ArrowRight"":10,""ArrowDown,ArrowLeft"":8,""ArrowDown,ArrowRight"":30}","true","ArrowDown,ArrowRight","false","","","revaluation","1","96","","",""
"html-keyboard-response","215","1006679","0.0-4.0-2.0-1.48","spark_pilot_2","7991","6","23","Female","","","","","","","null","<div style=""font-size:60px;"">+</div>","null","fixation","","","","","","","","","","","97","","",""
"revaluation","216","1010683","0.0-4.0-2.0-0.49","spark_pilot_2","7991","6","23","Female","","false","","","","","[731]","./assets/img/canyon/catch/7.jpg","[""ArrowDown""]","value training","canyon","-10","{""ArrowUp,ArrowLeft"":23,""ArrowUp,ArrowRight"":10,""ArrowDown,ArrowLeft"":8,""ArrowDown,ArrowRight"":30}","false","ArrowDown","true","","","revaluation","1","98","","",""
"html-keyboard-response","217","1011196","0.0-4.0-2.0-1.49","spark_pilot_2","7991","6","23","Female","","","","","","","null","<div style=""font-size:60px;"">+</div>","null","fixation","","","","","","","","","","","99","","",""
"learning-instructions","218","1028848","0.0-4.0-3.0-0.0","spark_pilot_2","7991","6","23","Female","","","","","","","4762","<p> Now, you will travel with a friend who will choose whether you go up or down first. </p>
            <p> On these turns, you will just see the animal that they found. You will still get to choose which chest to search for treasure.</p>","","instructions","","","","","","","","","","","","","",""
"revaluation","219","1032877","0.0-4.0-4.0-0.0","spark_pilot_2","7991","6","23","Female","","false","","","","","[1348]","./assets/img/canyon/animals/giraffe.jpg","[""ArrowLeft""]","revaluation","canyon","27","{""ArrowUp,ArrowLeft"":27,""ArrowUp,ArrowRight"":15,""ArrowDown,ArrowLeft"":21,""ArrowDown,ArrowRight"":7}","true","ArrowUp,ArrowLeft","","","","revaluation","1","0","","",""
"html-keyboard-response","220","1033396","0.0-4.0-4.0-1.0","spark_pilot_2","7991","6","23","Female","","","","","","","null","<div style=""font-size:60px;"">+</div>","null","fixation","","","","","","","","","","","1","","",""
"revaluation","221","1037426","0.0-4.0-4.0-0.1","spark_pilot_2","7991","6","23","Female","","false","","","","","[593]","./assets/img/canyon/animals/lion.jpg","[""ArrowRight""]","revaluation","canyon","7","{""ArrowUp,ArrowLeft"":27,""ArrowUp,ArrowRight"":15,""ArrowDown,ArrowLeft"":21,""ArrowDown,ArrowRight"":7}","false","ArrowDown,ArrowRight","","","","revaluation","1","2","","",""
"html-keyboard-response","222","1037939","0.0-4.0-4.0-1.1","spark_pilot_2","7991","6","23","Female","","","","","","","null","<div style=""font-size:60px;"">+</div>","null","fixation","","","","","","","","","","","3","","",""
"revaluation","223","1041959","0.0-4.0-4.0-0.2","spark_pilot_2","7991","6","23","Female","","false","","","","","[980]","./assets/img/canyon/animals/lion.jpg","[""ArrowLeft""]","revaluation","canyon","21","{""ArrowUp,ArrowLeft"":27,""ArrowUp,ArrowRight"":15,""ArrowDown,ArrowLeft"":21,""ArrowDown,ArrowRight"":7}","true","ArrowDown,ArrowLeft","","","","revaluation","1","4","","",""
"html-keyboard-response","224","1042473","0.0-4.0-4.0-1.2","spark_pilot_2","7991","6","23","Female","","","","","","","null","<div style=""font-size:60px;"">+</div>","null","fixation","","","","","","","","","","","5","","",""
"revaluation","225","1046480","0.0-4.0-4.0-0.3","spark_pilot_2","7991","6","23","Female","","false","","","","","[1098]","./assets/img/canyon/animals/lion.jpg","[""ArrowLeft""]","revaluation","canyon","21","{""ArrowUp,ArrowLeft"":27,""ArrowUp,ArrowRight"":15,""ArrowDown,ArrowLeft"":21,""ArrowDown,ArrowRight"":7}","true","ArrowDown,ArrowLeft","","","","revaluation","1","6","","",""
"html-keyboard-response","226","1046993","0.0-4.0-4.0-1.3","spark_pilot_2","7991","6","23","Female","","","","","","","null","<div style=""font-size:60px;"">+</div>","null","fixation","","","","","","","","","","","7","","",""
"revaluation","227","1051015","0.0-4.0-4.0-0.4","spark_pilot_2","7991","6","23","Female","","false","","","","","[521]","./assets/img/canyon/animals/lion.jpg","[""ArrowLeft""]","revaluation","canyon","21","{""ArrowUp,ArrowLeft"":27,""ArrowUp,ArrowRight"":15,""ArrowDown,ArrowLeft"":21,""ArrowDown,ArrowRight"":7}","true","ArrowDown,ArrowLeft","","","","revaluation","1","8","","",""
"html-keyboard-response","228","1051530","0.0-4.0-4.0-1.4","spark_pilot_2","7991","6","23","Female","","","","","","","null","<div style=""font-size:60px;"">+</div>","null","fixation","","","","","","","","","","","9","","",""
"revaluation","229","1055556","0.0-4.0-4.0-0.5","spark_pilot_2","7991","6","23","Female","","false","","","","","[765]","./assets/img/canyon/animals/giraffe.jpg","[""ArrowRight""]","revaluation","canyon","15","{""ArrowUp,ArrowLeft"":27,""ArrowUp,ArrowRight"":15,""ArrowDown,ArrowLeft"":21,""ArrowDown,ArrowRight"":7}","false","ArrowUp,ArrowRight","","","","revaluation","1","10","","",""
"html-keyboard-response","230","1056064","0.0-4.0-4.0-1.5","spark_pilot_2","7991","6","23","Female","","","","","","","null","<div style=""font-size:60px;"">+</div>","null","fixation","","","","","","","","","","","11","","",""
"revaluation","231","1060084","0.0-4.0-4.0-0.6","spark_pilot_2","7991","6","23","Female","","false","","","","","[418]","./assets/img/canyon/animals/giraffe.jpg","[""ArrowLeft""]","revaluation","canyon","27","{""ArrowUp,ArrowLeft"":27,""ArrowUp,ArrowRight"":15,""ArrowDown,ArrowLeft"":21,""ArrowDown,ArrowRight"":7}","true","ArrowUp,ArrowLeft","","","","revaluation","1","12","","",""
"html-keyboard-response","232","1060598","0.0-4.0-4.0-1.6","spark_pilot_2","7991","6","23","Female","","","","","","","null","<div style=""font-size:60px;"">+</div>","null","fixation","","","","","","","","","","","13","","",""
"revaluation","233","1064606","0.0-4.0-4.0-0.7","spark_pilot_2","7991","6","23","Female","","false","","","","","[613]","./assets/img/canyon/animals/lion.jpg","[""ArrowLeft""]","revaluation","canyon","21","{""ArrowUp,ArrowLeft"":27,""ArrowUp,ArrowRight"":15,""ArrowDown,ArrowLeft"":21,""ArrowDown,ArrowRight"":7}","true","ArrowDown,ArrowLeft","","","","revaluation","1","14","","",""
"html-keyboard-response","234","1065120","0.0-4.0-4.0-1.7","spark_pilot_2","7991","6","23","Female","","","","","","","null","<div style=""font-size:60px;"">+</div>","null","fixation","","","","","","","","","","","15","","",""
"revaluation","235","1069136","0.0-4.0-4.0-0.8","spark_pilot_2","7991","6","23","Female","","false","","","","","[550]","./assets/img/canyon/animals/giraffe.jpg","[""ArrowLeft""]","revaluation","canyon","27","{""ArrowUp,ArrowLeft"":27,""ArrowUp,ArrowRight"":15,""ArrowDown,ArrowLeft"":21,""ArrowDown,ArrowRight"":7}","true","ArrowUp,ArrowLeft","","","","revaluation","1","16","","",""
"html-keyboard-response","236","1069643","0.0-4.0-4.0-1.8","spark_pilot_2","7991","6","23","Female","","","","","","","null","<div style=""font-size:60px;"">+</div>","null","fixation","","","","","","","","","","","17","","",""
"revaluation","237","1073671","0.0-4.0-4.0-0.9","spark_pilot_2","7991","6","23","Female","","false","","","","","[999]","./assets/img/canyon/animals/giraffe.jpg","[""ArrowLeft""]","revaluation","canyon","27","{""ArrowUp,ArrowLeft"":27,""ArrowUp,ArrowRight"":15,""ArrowDown,ArrowLeft"":21,""ArrowDown,ArrowRight"":7}","true","ArrowUp,ArrowLeft","","","","revaluation","1","18","","",""
"html-keyboard-response","238","1074179","0.0-4.0-4.0-1.9","spark_pilot_2","7991","6","23","Female","","","","","","","null","<div style=""font-size:60px;"">+</div>","null","fixation","","","","","","","","","","","19","","",""
"revaluation","239","1078196","0.0-4.0-4.0-0.10","spark_pilot_2","7991","6","23","Female","","false","","","","","[900]","./assets/img/canyon/animals/giraffe.jpg","[""ArrowLeft""]","revaluation","canyon","27","{""ArrowUp,ArrowLeft"":27,""ArrowUp,ArrowRight"":15,""ArrowDown,ArrowLeft"":21,""ArrowDown,ArrowRight"":7}","true","ArrowUp,ArrowLeft","","","","revaluation","1","20","","",""
"html-keyboard-response","240","1078711","0.0-4.0-4.0-1.10","spark_pilot_2","7991","6","23","Female","","","","","","","null","<div style=""font-size:60px;"">+</div>","null","fixation","","","","","","","","","","","21","","",""
"revaluation","241","1082730","0.0-4.0-4.0-0.11","spark_pilot_2","7991","6","23","Female","","false","","","","","[341]","./assets/img/canyon/animals/lion.jpg","[""ArrowLeft""]","revaluation","canyon","21","{""ArrowUp,ArrowLeft"":27,""ArrowUp,ArrowRight"":15,""ArrowDown,ArrowLeft"":21,""ArrowDown,ArrowRight"":7}","true","ArrowDown,ArrowLeft","","","","revaluation","1","22","","",""
"html-keyboard-response","242","1083231","0.0-4.0-4.0-1.11","spark_pilot_2","7991","6","23","Female","","","","","","","null","<div style=""font-size:60px;"">+</div>","null","fixation","","","","","","","","","","","23","","",""
"revaluation","243","1087250","0.0-4.0-4.0-0.12","spark_pilot_2","7991","6","23","Female","","false","","","","","[665]","./assets/img/canyon/animals/giraffe.jpg","[""ArrowLeft""]","revaluation","canyon","27","{""ArrowUp,ArrowLeft"":27,""ArrowUp,ArrowRight"":15,""ArrowDown,ArrowLeft"":21,""ArrowDown,ArrowRight"":7}","true","ArrowUp,ArrowLeft","","","","revaluation","1","24","","",""
"html-keyboard-response","244","1087756","0.0-4.0-4.0-1.12","spark_pilot_2","7991","6","23","Female","","","","","","","null","<div style=""font-size:60px;"">+</div>","null","fixation","","","","","","","","","","","25","","",""
"revaluation","245","1091776","0.0-4.0-4.0-0.13","spark_pilot_2","7991","6","23","Female","","false","","","","","[470]","./assets/img/canyon/animals/lion.jpg","[""ArrowLeft""]","revaluation","canyon","21","{""ArrowUp,ArrowLeft"":27,""ArrowUp,ArrowRight"":15,""ArrowDown,ArrowLeft"":21,""ArrowDown,ArrowRight"":7}","true","ArrowDown,ArrowLeft","","","","revaluation","1","26","","",""
"html-keyboard-response","246","1092287","0.0-4.0-4.0-1.13","spark_pilot_2","7991","6","23","Female","","","","","","","null","<div style=""font-size:60px;"">+</div>","null","fixation","","","","","","","","","","","27","","",""
"revaluation","247","1096303","0.0-4.0-4.0-0.14","spark_pilot_2","7991","6","23","Female","","false","","","","","[528]","./assets/img/canyon/animals/lion.jpg","[""ArrowLeft""]","revaluation","canyon","21","{""ArrowUp,ArrowLeft"":27,""ArrowUp,ArrowRight"":15,""ArrowDown,ArrowLeft"":21,""ArrowDown,ArrowRight"":7}","true","ArrowDown,ArrowLeft","","","","revaluation","1","28","","",""
"html-keyboard-response","248","1096816","0.0-4.0-4.0-1.14","spark_pilot_2","7991","6","23","Female","","","","","","","null","<div style=""font-size:60px;"">+</div>","null","fixation","","","","","","","","","","","29","","",""
"revaluation","249","1100832","0.0-4.0-4.0-0.15","spark_pilot_2","7991","6","23","Female","","false","","","","","[846]","./assets/img/canyon/animals/lion.jpg","[""ArrowLeft""]","revaluation","canyon","21","{""ArrowUp,ArrowLeft"":27,""ArrowUp,ArrowRight"":15,""ArrowDown,ArrowLeft"":21,""ArrowDown,ArrowRight"":7}","true","ArrowDown,ArrowLeft","","","","revaluation","1","30","","",""
"html-keyboard-response","250","1101336","0.0-4.0-4.0-1.15","spark_pilot_2","7991","6","23","Female","","","","","","","null","<div style=""font-size:60px;"">+</div>","null","fixation","","","","","","","","","","","31","","",""
"revaluation","251","1105346","0.0-4.0-4.0-0.16","spark_pilot_2","7991","6","23","Female","","false","","","","","[492]","./assets/img/canyon/animals/giraffe.jpg","[""ArrowLeft""]","revaluation","canyon","27","{""ArrowUp,ArrowLeft"":27,""ArrowUp,ArrowRight"":15,""ArrowDown,ArrowLeft"":21,""ArrowDown,ArrowRight"":7}","true","ArrowUp,ArrowLeft","","","","revaluation","1","32","","",""
"html-keyboard-response","252","1105859","0.0-4.0-4.0-1.16","spark_pilot_2","7991","6","23","Female","","","","","","","null","<div style=""font-size:60px;"">+</div>","null","fixation","","","","","","","","","","","33","","",""
"revaluation","253","1109873","0.0-4.0-4.0-0.17","spark_pilot_2","7991","6","23","Female","","false","","","","","[1152]","./assets/img/canyon/animals/giraffe.jpg","[""ArrowLeft""]","revaluation","canyon","27","{""ArrowUp,ArrowLeft"":27,""ArrowUp,ArrowRight"":15,""ArrowDown,ArrowLeft"":21,""ArrowDown,ArrowRight"":7}","true","ArrowUp,ArrowLeft","","","","revaluation","1","34","","",""
"html-keyboard-response","254","1110381","0.0-4.0-4.0-1.17","spark_pilot_2","7991","6","23","Female","","","","","","","null","<div style=""font-size:60px;"">+</div>","null","fixation","","","","","","","","","","","35","","",""
"learning-instructions","255","1122940","0.0-4.0-5.0-0.0","spark_pilot_2","7991","6","23","Female","","","","","","","1053","<p> Time to play the dot game! </p>
            <p> For one minute, click the red dots on the following screen as they appear. </p>
            <p><b> Don't look away, as you will earn bonus for clicking dots</b>. </p>","","instructions","","","","","","","","","","","","","",""
"revaluation","256","1182956","0.0-4.0-6.0-0.0","spark_pilot_2","7991","6","23","Female","","","","","","","[79,107,95,67,101,89,104]","","","rest","","70","","","","","0","60000","","","","","",""
"learning-instructions","257","1190656","0.0-4.0-7.0-0.0","spark_pilot_2","7991","6","23","Female","","","","","","","1589","<p> You have almost finished this part of the game! </p>
            <p> We are going to ask you to make a few more choices. </p>","","instructions","","","","","","","","","","","","","",""
"learning-instructions","258","1206685","0.0-4.0-7.0-0.1","spark_pilot_2","7991","6","23","Female","","","","","","","2046","<p> First, you need to decide whether to go up or down. When you see each picture, use the arrow keys to make your choice. </p>
            <p><b>You will not see which animal you found, but try to get to the one that will give you the most treasure.</b></p>","","instructions","","","","","","","","","","","","","",""
"revaluation","259","1207936","0.0-4.0-8.0-0.0","spark_pilot_2","7991","6","23","Female","","false","","","","","[1248]","./assets/img/canyon/test/0.jpg","[""ArrowDown""]","first stage test","canyon","0","{""ArrowUp,ArrowLeft"":27,""ArrowUp,ArrowRight"":15,""ArrowDown,ArrowLeft"":21,""ArrowDown,ArrowRight"":7}","false","ArrowDown","false","","","revaluation","1","","","",""
"html-keyboard-response","260","1208441","0.0-4.0-8.0-1.0","spark_pilot_2","7991","6","23","Female","","","","","","","null","<div style=""font-size:60px;"">+</div>","null","fixation","","","","","","","","","","","","","",""
"revaluation","261","1209929","0.0-4.0-8.0-0.1","spark_pilot_2","7991","6","23","Female","","false","","","","","[1485]","./assets/img/canyon/test/2.jpg","[""ArrowDown""]","first stage test","canyon","0","{""ArrowUp,ArrowLeft"":27,""ArrowUp,ArrowRight"":15,""ArrowDown,ArrowLeft"":21,""ArrowDown,ArrowRight"":7}","false","ArrowDown","false","","","revaluation","1","","","",""
"html-keyboard-response","262","1210444","0.0-4.0-8.0-1.1","spark_pilot_2","7991","6","23","Female","","","","","","","null","<div style=""font-size:60px;"">+</div>","null","fixation","","","","","","","","","","","","","",""
"revaluation","263","1211447","0.0-4.0-8.0-0.2","spark_pilot_2","7991","6","23","Female","","false","","","","","[999]","./assets/img/canyon/test/3.jpg","[""ArrowUp""]","first stage test","canyon","0","{""ArrowUp,ArrowLeft"":27,""ArrowUp,ArrowRight"":15,""ArrowDown,ArrowLeft"":21,""ArrowDown,ArrowRight"":7}","true","ArrowUp","false","","","revaluation","1","","","",""
"html-keyboard-response","264","1211952","0.0-4.0-8.0-1.2","spark_pilot_2","7991","6","23","Female","","","","","","","null","<div style=""font-size:60px;"">+</div>","null","fixation","","","","","","","","","","","","","",""
"revaluation","265","1212655","0.0-4.0-8.0-0.3","spark_pilot_2","7991","6","23","Female","","false","","","","","[699]","./assets/img/canyon/test/1.jpg","[""ArrowUp""]","first stage test","canyon","0","{""ArrowUp,ArrowLeft"":27,""ArrowUp,ArrowRight"":15,""ArrowDown,ArrowLeft"":21,""ArrowDown,ArrowRight"":7}","true","ArrowUp","false","","","revaluation","1","","","",""
"html-keyboard-response","266","1213156","0.0-4.0-8.0-1.3","spark_pilot_2","7991","6","23","Female","","","","","","","null","<div style=""font-size:60px;"">+</div>","null","fixation","","","","","","","","","","","","","",""
"learning-instructions","267","1226569","0.0-4.0-9.0-0.0","spark_pilot_2","7991","6","23","Female","","","","","","","2061","<p> Now you will see the animals again and can search their chests for treasure. </p>
            <p> This time, you will not see how much treasure you earned, but you will earn more bonus money for making better choices. </p>","","instructions","","","","","","","","","","","","","",""
"revaluation","268","1227737","0.0-4.0-10.0-0.0","spark_pilot_2","7991","6","23","Female","","false","","","","","[1164]","./assets/img/canyon/animals/giraffe.jpg","[""ArrowRight""]","second stage test","canyon","0","{""ArrowUp,ArrowLeft"":27,""ArrowUp,ArrowRight"":15,""ArrowDown,ArrowLeft"":21,""ArrowDown,ArrowRight"":7}","false","ArrowUp,ArrowRight","","","","revaluation","1","","","",""
"html-keyboard-response","269","1228248","0.0-4.0-10.0-1.0","spark_pilot_2","7991","6","23","Female","","","","","","","null","<div style=""font-size:60px;"">+</div>","null","fixation","","","","","","","","","","","","","",""
"revaluation","270","1229306","0.0-4.0-10.0-0.1","spark_pilot_2","7991","6","23","Female","","false","","","","","[1055]","./assets/img/canyon/animals/giraffe.jpg","[""ArrowRight""]","second stage test","canyon","0","{""ArrowUp,ArrowLeft"":27,""ArrowUp,ArrowRight"":15,""ArrowDown,ArrowLeft"":21,""ArrowDown,ArrowRight"":7}","false","ArrowUp,ArrowRight","","","","revaluation","1","","","",""
"html-keyboard-response","271","1229822","0.0-4.0-10.0-1.1","spark_pilot_2","7991","6","23","Female","","","","","","","null","<div style=""font-size:60px;"">+</div>","null","fixation","","","","","","","","","","","","","",""
"revaluation","272","1231628","0.0-4.0-10.0-0.2","spark_pilot_2","7991","6","23","Female","","false","","","","","[1800]","./assets/img/canyon/animals/giraffe.jpg","[""ArrowRight""]","second stage test","canyon","0","{""ArrowUp,ArrowLeft"":27,""ArrowUp,ArrowRight"":15,""ArrowDown,ArrowLeft"":21,""ArrowDown,ArrowRight"":7}","false","ArrowUp,ArrowRight","","","","revaluation","1","","","",""
"html-keyboard-response","273","1232137","0.0-4.0-10.0-1.2","spark_pilot_2","7991","6","23","Female","","","","","","","null","<div style=""font-size:60px;"">+</div>","null","fixation","","","","","","","","","","","","","",""
"revaluation","274","1232690","0.0-4.0-10.0-0.3","spark_pilot_2","7991","6","23","Female","","false","","","","","[549]","./assets/img/canyon/animals/giraffe.jpg","[""ArrowRight""]","second stage test","canyon","0","{""ArrowUp,ArrowLeft"":27,""ArrowUp,ArrowRight"":15,""ArrowDown,ArrowLeft"":21,""ArrowDown,ArrowRight"":7}","false","ArrowUp,ArrowRight","","","","revaluation","1","","","",""
"html-keyboard-response","275","1233198","0.0-4.0-10.0-1.3","spark_pilot_2","7991","6","23","Female","","","","","","","null","<div style=""font-size:60px;"">+</div>","null","fixation","","","","","","","","","","","","","",""
"revaluation","276","1234891","0.0-4.0-10.0-0.4","spark_pilot_2","7991","6","23","Female","","false","","","","","[1689]","./assets/img/canyon/animals/lion.jpg","[""ArrowLeft""]","second stage test","canyon","0","{""ArrowUp,ArrowLeft"":27,""ArrowUp,ArrowRight"":15,""ArrowDown,ArrowLeft"":21,""ArrowDown,ArrowRight"":7}","true","ArrowDown,ArrowLeft","","","","revaluation","1","","","",""
"html-keyboard-response","277","1235407","0.0-4.0-10.0-1.4","spark_pilot_2","7991","6","23","Female","","","","","","","null","<div style=""font-size:60px;"">+</div>","null","fixation","","","","","","","","","","","","","",""
"revaluation","278","1235763","0.0-4.0-10.0-0.5","spark_pilot_2","7991","6","23","Female","","false","","","","","[352]","./assets/img/canyon/animals/lion.jpg","[""ArrowLeft""]","second stage test","canyon","0","{""ArrowUp,ArrowLeft"":27,""ArrowUp,ArrowRight"":15,""ArrowDown,ArrowLeft"":21,""ArrowDown,ArrowRight"":7}","true","ArrowDown,ArrowLeft","","","","revaluation","1","","","",""
"html-keyboard-response","279","1236267","0.0-4.0-10.0-1.5","spark_pilot_2","7991","6","23","Female","","","","","","","null","<div style=""font-size:60px;"">+</div>","null","fixation","","","","","","","","","","","","","",""
"revaluation","280","1236616","0.0-4.0-10.0-0.6","spark_pilot_2","7991","6","23","Female","","false","","","","","[345]","./assets/img/canyon/animals/lion.jpg","[""ArrowLeft""]","second stage test","canyon","0","{""ArrowUp,ArrowLeft"":27,""ArrowUp,ArrowRight"":15,""ArrowDown,ArrowLeft"":21,""ArrowDown,ArrowRight"":7}","true","ArrowDown,ArrowLeft","","","","revaluation","1","","","",""
"html-keyboard-response","281","1237127","0.0-4.0-10.0-1.6","spark_pilot_2","7991","6","23","Female","","","","","","","null","<div style=""font-size:60px;"">+</div>","null","fixation","","","","","","","","","","","","","",""
"revaluation","282","1237520","0.0-4.0-10.0-0.7","spark_pilot_2","7991","6","23","Female","","false","","","","","[388]","./assets/img/canyon/animals/lion.jpg","[""ArrowLeft""]","second stage test","canyon","0","{""ArrowUp,ArrowLeft"":27,""ArrowUp,ArrowRight"":15,""ArrowDown,ArrowLeft"":21,""ArrowDown,ArrowRight"":7}","true","ArrowDown,ArrowLeft","","","","revaluation","1","","","",""
"html-keyboard-response","283","1238026","0.0-4.0-10.0-1.7","spark_pilot_2","7991","6","23","Female","","","","","","","null","<div style=""font-size:60px;"">+</div>","null","fixation","","","","","","","","","","","","","",""
"learning-instructions","284","1242381","0.0-4.0-0.1-0.2","spark_pilot_2","7991","6","23","Female","","","","","","","1592","<p> This time you are searching for treasure in the <b>ocean</b>.</p>","","instructions","","","","","","","","","","","","","",""
"learning-instructions","285","1261756","0.0-4.0-0.1-0.3","spark_pilot_2","7991","6","23","Female","","","","","","","2118","<p><b>New</b> animals with <b>new</b> treasure chests live here. You need to explore to discover where the animal with the best treasure chest is.</p>
                    <p> Like before, once you figure out which animal has the chest with the most treasure, you should try to get to that animal and select that chest! </p>","","instructions","","","","","","","","","","","","","",""
"learning-instructions","286","1280393","0.0-4.0-1.1-0.1","spark_pilot_2","7991","6","23","Female","","","","","","","3904","<p> Remember, when you see a picture of the place, use the up and down keys to <b>find an animal</b>.</p>
            <p> When you encounter an animal, you should use the left and right keys to <b>select a treasure chest</b>.</p>
            <p> Don't forget to look out for the robber! </p>","","instructions","","","","","","","","","","","","","",""
"revaluation","287","1286428","0.0-4.0-2.1-0.50","spark_pilot_2","7991","6","23","Female","","false","","","","","[1055,1102]","./assets/img/ocean/memory/26.jpg","[""ArrowDown"",""ArrowRight""]","value training","ocean","17","{""ArrowUp,ArrowLeft"":26,""ArrowUp,ArrowRight"":10,""ArrowDown,ArrowLeft"":5,""ArrowDown,ArrowRight"":17}","false","ArrowDown,ArrowRight","false","","","original","2","0","","",""
"html-keyboard-response","288","1286933","0.0-4.0-2.1-1.50","spark_pilot_2","7991","6","23","Female","","","","","","","null","<div style=""font-size:60px;"">+</div>","null","fixation","","","","","","","","","","","1","","",""
"revaluation","289","1292962","0.0-4.0-2.1-0.51","spark_pilot_2","7991","6","23","Female","","false","","","","","[568,1542]","./assets/img/ocean/memory/11.jpg","[""ArrowDown"",""ArrowLeft""]","value training","ocean","5","{""ArrowUp,ArrowLeft"":26,""ArrowUp,ArrowRight"":10,""ArrowDown,ArrowLeft"":5,""ArrowDown,ArrowRight"":17}","false","ArrowDown,ArrowLeft","false","","","original","2","2","","",""
"html-keyboard-response","290","1293465","0.0-4.0-2.1-1.51","spark_pilot_2","7991","6","23","Female","","","","","","","null","<div style=""font-size:60px;"">+</div>","null","fixation","","","","","","","","","","","3","","",""
"revaluation","291","1299508","0.0-4.0-2.1-0.52","spark_pilot_2","7991","6","23","Female","","false","","","","","[464,412]","./assets/img/ocean/memory/1.jpg","[""ArrowUp"",""ArrowRight""]","value training","ocean","10","{""ArrowUp,ArrowLeft"":26,""ArrowUp,ArrowRight"":10,""ArrowDown,ArrowLeft"":5,""ArrowDown,ArrowRight"":17}","false","ArrowUp,ArrowRight","false","","","original","2","4","","",""
"html-keyboard-response","292","1300022","0.0-4.0-2.1-1.52","spark_pilot_2","7991","6","23","Female","","","","","","","null","<div style=""font-size:60px;"">+</div>","null","fixation","","","","","","","","","","","5","","",""
"revaluation","293","1306046","0.0-4.0-2.1-0.53","spark_pilot_2","7991","6","23","Female","","false","","","","","[329,310]","./assets/img/ocean/memory/4.jpg","[""ArrowUp"",""ArrowLeft""]","value training","ocean","26","{""ArrowUp,ArrowLeft"":26,""ArrowUp,ArrowRight"":10,""ArrowDown,ArrowLeft"":5,""ArrowDown,ArrowRight"":17}","true","ArrowUp,ArrowLeft","false","","","original","2","6","","",""
"html-keyboard-response","294","1306561","0.0-4.0-2.1-1.53","spark_pilot_2","7991","6","23","Female","","","","","","","null","<div style=""font-size:60px;"">+</div>","null","fixation","","","","","","","","","","","7","","",""
"revaluation","295","1310586","0.0-4.0-2.1-0.54","spark_pilot_2","7991","6","23","Female","","false","","","","","[456]","./assets/img/ocean/catch/7.jpg","[""ArrowUp""]","value training","ocean","-10","{""ArrowUp,ArrowLeft"":26,""ArrowUp,ArrowRight"":10,""ArrowDown,ArrowLeft"":5,""ArrowDown,ArrowRight"":17}","false","ArrowUp","true","","","original","2","8","","",""
"html-keyboard-response","296","1311102","0.0-4.0-2.1-1.54","spark_pilot_2","7991","6","23","Female","","","","","","","null","<div style=""font-size:60px;"">+</div>","null","fixation","","","","","","","","","","","9","","",""
"revaluation","297","1317116","0.0-4.0-2.1-0.55","spark_pilot_2","7991","6","23","Female","","false","","","","","[504,390]","./assets/img/ocean/memory/6.jpg","[""ArrowUp"",""ArrowLeft""]","value training","ocean","26","{""ArrowUp,ArrowLeft"":26,""ArrowUp,ArrowRight"":10,""ArrowDown,ArrowLeft"":5,""ArrowDown,ArrowRight"":17}","true","ArrowUp,ArrowLeft","false","","","original","2","10","","",""
"html-keyboard-response","298","1317626","0.0-4.0-2.1-1.55","spark_pilot_2","7991","6","23","Female","","","","","","","null","<div style=""font-size:60px;"">+</div>","null","fixation","","","","","","","","","","","11","","",""
"revaluation","299","1323652","0.0-4.0-2.1-0.56","spark_pilot_2","7991","6","23","Female","","false","","","","","[490,518]","./assets/img/ocean/memory/30.jpg","[""ArrowUp"",""ArrowLeft""]","value training","ocean","26","{""ArrowUp,ArrowLeft"":26,""ArrowUp,ArrowRight"":10,""ArrowDown,ArrowLeft"":5,""ArrowDown,ArrowRight"":17}","true","ArrowUp,ArrowLeft","false","","","original","2","12","","",""
"html-keyboard-response","300","1324156","0.0-4.0-2.1-1.56","spark_pilot_2","7991","6","23","Female","","","","","","","null","<div style=""font-size:60px;"">+</div>","null","fixation","","","","","","","","","","","13","","",""
"revaluation","301","1330193","0.0-4.0-2.1-0.57","spark_pilot_2","7991","6","23","Female","","false","","","","","[524,691]","./assets/img/ocean/memory/18.jpg","[""ArrowUp"",""ArrowLeft""]","value training","ocean","26","{""ArrowUp,ArrowLeft"":26,""ArrowUp,ArrowRight"":10,""ArrowDown,ArrowLeft"":5,""ArrowDown,ArrowRight"":17}","true","ArrowUp,ArrowLeft","false","","","original","2","14","","",""
"html-keyboard-response","302","1330695","0.0-4.0-2.1-1.57","spark_pilot_2","7991","6","23","Female","","","","","","","null","<div style=""font-size:60px;"">+</div>","null","fixation","","","","","","","","","","","15","","",""
"revaluation","303","1334702","0.0-4.0-2.1-0.58","spark_pilot_2","7991","6","23","Female","","false","","","","","[1385]","./assets/img/ocean/catch/3.jpg","[""spaceBar""]","value training","ocean","0","{""ArrowUp,ArrowLeft"":26,""ArrowUp,ArrowRight"":10,""ArrowDown,ArrowLeft"":5,""ArrowDown,ArrowRight"":17}","true","spaceBar","true","","","original","2","16","","",""
"html-keyboard-response","304","1335216","0.0-4.0-2.1-1.58","spark_pilot_2","7991","6","23","Female","","","","","","","null","<div style=""font-size:60px;"">+</div>","null","fixation","","","","","","","","","","","17","","",""
"revaluation","305","1341256","0.0-4.0-2.1-0.59","spark_pilot_2","7991","6","23","Female","","false","","","","","[475,792]","./assets/img/ocean/memory/5.jpg","[""ArrowUp"",""ArrowLeft""]","value training","ocean","26","{""ArrowUp,ArrowLeft"":26,""ArrowUp,ArrowRight"":10,""ArrowDown,ArrowLeft"":5,""ArrowDown,ArrowRight"":17}","true","ArrowUp,ArrowLeft","false","","","original","2","18","","",""
"html-keyboard-response","306","1341758","0.0-4.0-2.1-1.59","spark_pilot_2","7991","6","23","Female","","","","","","","null","<div style=""font-size:60px;"">+</div>","null","fixation","","","","","","","","","","","19","","",""
"revaluation","307","1347783","0.0-4.0-2.1-0.60","spark_pilot_2","7991","6","23","Female","","false","","","","","[1006,295]","./assets/img/ocean/memory/0.jpg","[""ArrowUp"",""ArrowLeft""]","value training","ocean","26","{""ArrowUp,ArrowLeft"":26,""ArrowUp,ArrowRight"":10,""ArrowDown,ArrowLeft"":5,""ArrowDown,ArrowRight"":17}","true","ArrowUp,ArrowLeft","false","","","original","2","20","","",""
"html-keyboard-response","308","1348284","0.0-4.0-2.1-1.60","spark_pilot_2","7991","6","23","Female","","","","","","","null","<div style=""font-size:60px;"">+</div>","null","fixation","","","","","","","","","","","21","","",""
"revaluation","309","1354314","0.0-4.0-2.1-0.61","spark_pilot_2","7991","6","23","Female","","false","","","","","[726,1282]","./assets/img/ocean/memory/3.jpg","[""ArrowUp"",""ArrowLeft""]","value training","ocean","26","{""ArrowUp,ArrowLeft"":26,""ArrowUp,ArrowRight"":10,""ArrowDown,ArrowLeft"":5,""ArrowDown,ArrowRight"":17}","true","ArrowUp,ArrowLeft","false","","","original","2","22","","",""
"html-keyboard-response","310","1354826","0.0-4.0-2.1-1.61","spark_pilot_2","7991","6","23","Female","","","","","","","null","<div style=""font-size:60px;"">+</div>","null","fixation","","","","","","","","","","","23","","",""
"revaluation","311","1360858","0.0-4.0-2.1-0.62","spark_pilot_2","7991","6","23","Female","","false","","","","","[417,776]","./assets/img/ocean/memory/29.jpg","[""ArrowUp"",""ArrowLeft""]","value training","ocean","26","{""ArrowUp,ArrowLeft"":26,""ArrowUp,ArrowRight"":10,""ArrowDown,ArrowLeft"":5,""ArrowDown,ArrowRight"":17}","true","ArrowUp,ArrowLeft","false","","","original","2","24","","",""
"html-keyboard-response","312","1361364","0.0-4.0-2.1-1.62","spark_pilot_2","7991","6","23","Female","","","","","","","null","<div style=""font-size:60px;"">+</div>","null","fixation","","","","","","","","","","","25","","",""
"revaluation","313","1367407","0.0-4.0-2.1-0.63","spark_pilot_2","7991","6","23","Female","","false","","","","","[492,462]","./assets/img/ocean/memory/23.jpg","[""ArrowUp"",""ArrowLeft""]","value training","ocean","26","{""ArrowUp,ArrowLeft"":26,""ArrowUp,ArrowRight"":10,""ArrowDown,ArrowLeft"":5,""ArrowDown,ArrowRight"":17}","true","ArrowUp,ArrowLeft","false","","","original","2","26","","",""
"html-keyboard-response","314","1367922","0.0-4.0-2.1-1.63","spark_pilot_2","7991","6","23","Female","","","","","","","null","<div style=""font-size:60px;"">+</div>","null","fixation","","","","","","","","","","","27","","",""
