"trial_type","trial_index","time_elapsed","internal_node_id","task_version","subject_id","assigned_condition","age","gender","success","timeout","failed_images","failed_audio","failed_video","browser_interaction","value","rt","stimulus","response","task_part","environment","score","rewardMap","correct","fullState","isCatch","numberMissed","duration","condition","order","trial_num","key_press","ground_truth","bonus"
"pavlovia","0","1669","0.0-0.0","spark_pilot_2","7484","8","21","Male","","","","","","","","","","","","","","","","","","","","","","","","",""
"preload","1","8800","0.0-1.0","spark_pilot_2","7484","8","21","Male","true","false","[]","[]","[]","[{""event"":""fullscreenenter"",""trial"":2,""time"":10663}]","","","","","","","","","","","","","","","","","","",""
"fullscreen","2","11497","0.0-2.0","spark_pilot_2","7484","8","21","Male","true","","","","","","","","","","","","","","","","","","","","","","","",""
"call-function","3","21449","0.0-3.0","spark_pilot_2","7484","8","21","Male","","","","","","","","","","","","","","","","","","","","","","","","",""
"audio-button-response","4","22961","0.0-4.0-0.0-0.0","spark_pilot_2","7484","8","21","Male","","","","","","","","1123","./assets/audio/audiotest/turtle.mp3","2","audio_test","","","","","","","","","","","","","",""
"learning-instructions","5","32707","0.0-4.0-1.0-0.0","spark_pilot_2","7484","8","21","Male","","","","","","","","2782","<p> Welcome! Please remember to stay in fullscreen mode and don't click away from the experiment. </p>","","instructions","","","","","","","","","","","","","",""
"learning-instructions","6","41897","0.0-4.0-1.0-0.1","spark_pilot_2","7484","8","21","Male","","","","","","","","794","<p> Today you will be playing a game to earn treasure. </p>
            <p> At the end of the experiment, you will earn a bonus based on how much treasure you find. </p>
            <img src='./assets/img/instructions/treasure.jpg' class='instructions-image'>","","instructions","","","","","","","","","","","","","",""
"learning-instructions","7","51069","0.0-4.0-1.0-0.2","spark_pilot_2","7484","8","21","Male","","","","","","","","923","<p> Animals have hidden treasure in treasure chests. </p>
            <p> You need to first find an animal and then choose which of their treasure chests to search. </p>
            <img src='./assets/img/space/animals/cat.jpg' class='instructions-image'>","","instructions","","","","","","","","","","","","","",""
"learning-instructions","8","68983","0.0-4.0-1.0-0.3","spark_pilot_2","7484","8","21","Male","","","","","","","","4782","<p> In each round, you will search for treasure in a different place. In the real game, there will be two rounds. </p>
            <p> You will begin with a separate, practice round where you will search for treasure in outer space. </p>
            <img src='./assets/img/space/0.jpg' class='instructions-image'>","","instructions","","","","","","","","","","","","","",""
"learning-instructions","9","84022","0.0-4.0-1.0-0.4","spark_pilot_2","7484","8","21","Male","","","","","","","","2729.9999999999854","<p> On every turn, you will see a picture of the place that you are in, but the specific image may be different each time. </p>
            <p> For example, both of these images mean you are in outer space. </p>
            <img src='./assets/img/instructions/outerspace.jpg' class='instructions-image'>","","instructions","","","","","","","","","","","","","",""
"learning-instructions","10","93181","0.0-4.0-1.0-0.5","spark_pilot_2","7484","8","21","Male","","","","","","","","1344","<p> You need to decide which direction to travel in. </p>
            <p> You can choose between going <b>up or down</b> by using the arrow keys. </p>
            <img src='./assets/img/instructions/updown.jpg' class='instructions-image'>","","instructions","","","","","","","","","","","","","",""
"learning-instructions","11","103859","0.0-4.0-1.0-0.6","spark_pilot_2","7484","8","21","Male","","","","","","","","1883","<p> You will have <b>2 seconds</b> to make your choice. </p>
            <p> If you do not make a choice within 2 seconds, you will not find an animal or earn treasure. </p>
            <img src='./assets/img/instructions/2seconds.jpg' class='instructions-image'>","","instructions","","","","","","","","","","","","","",""
"learning-instructions","12","120536","0.0-4.0-1.0-0.7","spark_pilot_2","7484","8","21","Male","","","","","","","","9654","<p> Let’s try practicing that now! </p>
            <p> When you see a picture of the place you are in, press the <b>up</b> key to travel up. </p>
            <img src='./assets/img/instructions/pressUp.jpg' class='instructions-image'>","","instructions","","","","","","","","","","","","","",""
"revaluation","13","124554","0.0-4.0-2.0-0.0","spark_pilot_2","7484","8","21","Male","","false","","","","","","[1202]","./assets/img/space/0.jpg","[""ArrowUp""]","first stage practice","space","0","null","null","ArrowUp","false","","","","","","","",""
"html-keyboard-response","14","125056","0.0-4.0-2.0-1.0","spark_pilot_2","7484","8","21","Male","","","","","","","","null","<div style=""font-size:60px;"">+</div>","null","fixation","","","","","","","","","","","","","",""
"revaluation","15","129060","0.0-4.0-2.0-0.1","spark_pilot_2","7484","8","21","Male","","false","","","","","","[744]","./assets/img/space/1.jpg","[""ArrowUp""]","first stage practice","space","0","null","null","ArrowUp","false","","","","","","","",""
"html-keyboard-response","16","129561","0.0-4.0-2.0-1.1","spark_pilot_2","7484","8","21","Male","","","","","","","","null","<div style=""font-size:60px;"">+</div>","null","fixation","","","","","","","","","","","","","",""
"revaluation","17","133566","0.0-4.0-2.0-0.2","spark_pilot_2","7484","8","21","Male","","false","","","","","","[618]","./assets/img/space/2.jpg","[""ArrowUp""]","first stage practice","space","0","null","null","ArrowUp","false","","","","","","","",""
"html-keyboard-response","18","134067","0.0-4.0-2.0-1.2","spark_pilot_2","7484","8","21","Male","","","","","","","","null","<div style=""font-size:60px;"">+</div>","null","fixation","","","","","","","","","","","","","",""
"learning-instructions","19","139872","0.0-4.0-3.0-0.0","spark_pilot_2","7484","8","21","Male","","","","","","","","1116","<p> Great job! Now try pressing the <b>down</b> key to travel down. </p>
            <img src='./assets/img/instructions/pressDown.jpg' class='instructions-image'>","","instructions","","","","","","","","","","","","","",""
"revaluation","20","143875","0.0-4.0-4.0-0.0","spark_pilot_2","7484","8","21","Male","","false","","","","","","[889]","./assets/img/space/3.jpg","[""ArrowDown""]","first stage practice","space","0","null","null","ArrowDown","false","","","","","","","",""
"html-keyboard-response","21","144377","0.0-4.0-4.0-1.0","spark_pilot_2","7484","8","21","Male","","","","","","","","null","<div style=""font-size:60px;"">+</div>","null","fixation","","","","","","","","","","","","","",""
"revaluation","22","148381","0.0-4.0-4.0-0.1","spark_pilot_2","7484","8","21","Male","","false","","","","","","[534]","./assets/img/space/4.jpg","[""ArrowDown""]","first stage practice","space","0","null","null","ArrowDown","false","","","","","","","",""
"html-keyboard-response","23","148884","0.0-4.0-4.0-1.1","spark_pilot_2","7484","8","21","Male","","","","","","","","null","<div style=""font-size:60px;"">+</div>","null","fixation","","","","","","","","","","","","","",""
"revaluation","24","152889","0.0-4.0-4.0-0.2","spark_pilot_2","7484","8","21","Male","","false","","","","","","[517]","./assets/img/space/5.jpg","[""ArrowDown""]","first stage practice","space","0","null","null","ArrowDown","false","","","","","","","",""
"html-keyboard-response","25","153391","0.0-4.0-4.0-1.2","spark_pilot_2","7484","8","21","Male","","","","","","","","null","<div style=""font-size:60px;"">+</div>","null","fixation","","","","","","","","","","","","","",""
"learning-instructions","26","188522","0.0-4.0-5.0-0.0","spark_pilot_2","7484","8","21","Male","","","","","","","","25296","<p> The animals don’t move, so the animal in the upper part of a place will stay in the upper part of a place, and the animal in the lower part of a place will stay in the lower part of a place. </p>","","instructions","","","","","","","","","","","","","",""
"learning-instructions","27","245420","0.0-4.0-5.0-0.1","spark_pilot_2","7484","8","21","Male","","","","","","","","47779","<p> Each animal has two treasure chests for you to choose from. </p>
            <p> The amount of treasure in each chest can range from <b> 0 to 40 pieces.</b></p>","","instructions","","","","","","","","","","","","","",""
"learning-instructions","28","258137","0.0-4.0-5.0-0.2","spark_pilot_2","7484","8","21","Male","","","","","","","","690","<p> You should decide which chest to search for treasure by using the <b>left</b> and <b>right</b> arrow keys. </p>
            <p><b> Pay attention to which animal is on the screen, as the animals have different treasure chests. </b></p>
            <img src='./assets/img/instructions/leftright.jpg' class='instructions-image'>","","instructions","","","","","","","","","","","","","",""
"learning-instructions","29","265523","0.0-4.0-5.0-0.3","spark_pilot_2","7484","8","21","Male","","","","","","","","1036","<p> Let’s try practicing that now. </p>
            <p> When you see an animal, choose which chest to search for treasure. </p>
            <img src='./assets/img/instructions/chooseChest.jpg' class='instructions-image'>","","instructions","","","","","","","","","","","","","",""
"revaluation","30","269529","0.0-4.0-6.0-0.0","spark_pilot_2","7484","8","21","Male","","false","","","","","","[788.0000000000582]","./assets/img/space/animals/cat.jpg","[""ArrowRight""]","second stage practice","space","36","{""ArrowUp,ArrowLeft"":3,""ArrowUp,ArrowRight"":36,""ArrowDown,ArrowLeft"":15,""ArrowDown,ArrowRight"":23}","true","ArrowUp,ArrowRight","","","","","","","","",""
"html-keyboard-response","31","270031","0.0-4.0-6.0-1.0","spark_pilot_2","7484","8","21","Male","","","","","","","","null","<div style=""font-size:60px;"">+</div>","null","fixation","","","","","","","","","","","","","",""
"revaluation","32","274036","0.0-4.0-6.0-0.1","spark_pilot_2","7484","8","21","Male","","false","","","","","","[504]","./assets/img/space/animals/rabbit.jpg","[""ArrowLeft""]","second stage practice","space","15","{""ArrowUp,ArrowLeft"":3,""ArrowUp,ArrowRight"":36,""ArrowDown,ArrowLeft"":15,""ArrowDown,ArrowRight"":23}","false","ArrowDown,ArrowLeft","","","","","","","","",""
"html-keyboard-response","33","274538","0.0-4.0-6.0-1.1","spark_pilot_2","7484","8","21","Male","","","","","","","","null","<div style=""font-size:60px;"">+</div>","null","fixation","","","","","","","","","","","","","",""
"revaluation","34","278543","0.0-4.0-6.0-0.2","spark_pilot_2","7484","8","21","Male","","false","","","","","","[398.0000000000582]","./assets/img/space/animals/cat.jpg","[""ArrowLeft""]","second stage practice","space","3","{""ArrowUp,ArrowLeft"":3,""ArrowUp,ArrowRight"":36,""ArrowDown,ArrowLeft"":15,""ArrowDown,ArrowRight"":23}","false","ArrowUp,ArrowLeft","","","","","","","","",""
"html-keyboard-response","35","279045","0.0-4.0-6.0-1.2","spark_pilot_2","7484","8","21","Male","","","","","","","","null","<div style=""font-size:60px;"">+</div>","null","fixation","","","","","","","","","","","","","",""
"revaluation","36","283050","0.0-4.0-6.0-0.3","spark_pilot_2","7484","8","21","Male","","false","","","","","","[267]","./assets/img/space/animals/rabbit.jpg","[""ArrowRight""]","second stage practice","space","23","{""ArrowUp,ArrowLeft"":3,""ArrowUp,ArrowRight"":36,""ArrowDown,ArrowLeft"":15,""ArrowDown,ArrowRight"":23}","true","ArrowDown,ArrowRight","","","","","","","","",""
"html-keyboard-response","37","283553","0.0-4.0-6.0-1.3","spark_pilot_2","7484","8","21","Male","","","","","","","","null","<div style=""font-size:60px;"">+</div>","null","fixation","","","","","","","","","","","","","",""
"learning-instructions","38","337999","0.0-4.0-7.0-0.0","spark_pilot_2","7484","8","21","Male","","","","","","","","37640","<p> Great job. Now let’s try putting it together. </p>
            <p> On each turn, you will first see a picture to remind you of the place you are in, and you need to choose whether to go up or down. </p>
            <p> Then you will see an animal and choose which of its chests to search for treasure. </p>","","instructions","","","","","","","","","","","","","",""
"learning-instructions","39","358537","0.0-4.0-7.0-0.1","spark_pilot_2","7484","8","21","Male","","","","","","","","12295.999999999942","<p> When you choose whether to go up or down, try to go to the animal with the chest with the most treasure. </p>
            <p> Try practicing that now! </p>","","instructions","","","","","","","","","","","","","",""
"revaluation","40","364543","0.0-4.0-8.0-0.0","spark_pilot_2","7484","8","21","Male","","false","","","","","","[1214,562]","./assets/img/space/6.jpg","[""ArrowUp"",""ArrowRight""]","full practice","space","36","{""ArrowUp,ArrowLeft"":3,""ArrowUp,ArrowRight"":36,""ArrowDown,ArrowLeft"":15,""ArrowDown,ArrowRight"":23}","true","ArrowUp,ArrowRight","false","","","","","","","",""
"html-keyboard-response","41","365045","0.0-4.0-8.0-1.0","spark_pilot_2","7484","8","21","Male","","","","","","","","null","<div style=""font-size:60px;"">+</div>","null","fixation","","","","","","","","","","","","","",""
"revaluation","42","371052","0.0-4.0-8.0-0.1","spark_pilot_2","7484","8","21","Male","","false","","","","","","[997,832]","./assets/img/space/7.jpg","[""ArrowUp"",""ArrowLeft""]","full practice","space","3","{""ArrowUp,ArrowLeft"":3,""ArrowUp,ArrowRight"":36,""ArrowDown,ArrowLeft"":15,""ArrowDown,ArrowRight"":23}","false","ArrowUp,ArrowLeft","false","","","","","","","",""
"html-keyboard-response","43","371554","0.0-4.0-8.0-1.1","spark_pilot_2","7484","8","21","Male","","","","","","","","null","<div style=""font-size:60px;"">+</div>","null","fixation","","","","","","","","","","","","","",""
"revaluation","44","377561","0.0-4.0-8.0-0.2","spark_pilot_2","7484","8","21","Male","","false","","","","","","[665,391.0000000000582]","./assets/img/space/8.jpg","[""ArrowDown"",""ArrowRight""]","full practice","space","23","{""ArrowUp,ArrowLeft"":3,""ArrowUp,ArrowRight"":36,""ArrowDown,ArrowLeft"":15,""ArrowDown,ArrowRight"":23}","false","ArrowDown,ArrowRight","false","","","","","","","",""
"html-keyboard-response","45","378064","0.0-4.0-8.0-1.2","spark_pilot_2","7484","8","21","Male","","","","","","","","null","<div style=""font-size:60px;"">+</div>","null","fixation","","","","","","","","","","","","","",""
"revaluation","46","384069","0.0-4.0-8.0-0.3","spark_pilot_2","7484","8","21","Male","","false","","","","","","[1220,293]","./assets/img/space/9.jpg","[""ArrowUp"",""ArrowRight""]","full practice","space","36","{""ArrowUp,ArrowLeft"":3,""ArrowUp,ArrowRight"":36,""ArrowDown,ArrowLeft"":15,""ArrowDown,ArrowRight"":23}","true","ArrowUp,ArrowRight","false","","","","","","","",""
"html-keyboard-response","47","384571","0.0-4.0-8.0-1.3","spark_pilot_2","7484","8","21","Male","","","","","","","","null","<div style=""font-size:60px;"">+</div>","null","fixation","","","","","","","","","","","","","",""
"revaluation","48","390577","0.0-4.0-8.0-0.4","spark_pilot_2","7484","8","21","Male","","false","","","","","","[339,380]","./assets/img/space/10.jpg","[""ArrowUp"",""ArrowRight""]","full practice","space","36","{""ArrowUp,ArrowLeft"":3,""ArrowUp,ArrowRight"":36,""ArrowDown,ArrowLeft"":15,""ArrowDown,ArrowRight"":23}","true","ArrowUp,ArrowRight","false","","","","","","","",""
"html-keyboard-response","49","391078","0.0-4.0-8.0-1.4","spark_pilot_2","7484","8","21","Male","","","","","","","","null","<div style=""font-size:60px;"">+</div>","null","fixation","","","","","","","","","","","","","",""
"learning-instructions","50","412013","0.0-4.0-9.0-0.0","spark_pilot_2","7484","8","21","Male","","","","","","","","10631","<p> One last thing: sometimes, you will see a robber. The robber can be anywhere in the picture. </p>
            <p> If you do not stop them, you will lose treasure. </p>
            <img src='./assets/img/instructions/robber.jpg' class='instructions-image'>","","instructions","","","","","","","","","","","","","",""
"learning-instructions","51","423060","0.0-4.0-9.0-0.1","spark_pilot_2","7484","8","21","Male","","","","","","","","2580.999999999942","<p> If you see the robber, you should <b>press the space bar</b> rather than using the arrow keys. </p>
            <p> Try practicing that now! </p>","","instructions","","","","","","","","","","","","","",""
"revaluation","52","427063","0.0-4.0-10.0-0.0","spark_pilot_2","7484","8","21","Male","","false","","","","","","[642]","./assets/img/space/catch/0.jpg","[""spaceBar""]","catch practice","space","0","{""ArrowUp,ArrowLeft"":3,""ArrowUp,ArrowRight"":36,""ArrowDown,ArrowLeft"":15,""ArrowDown,ArrowRight"":23}","true","spaceBar","true","","","","","","","",""
"html-keyboard-response","53","427565","0.0-4.0-10.0-1.0","spark_pilot_2","7484","8","21","Male","","","","","","","","null","<div style=""font-size:60px;"">+</div>","null","fixation","","","","","","","","","","","","","",""
"revaluation","54","431570","0.0-4.0-10.0-0.1","spark_pilot_2","7484","8","21","Male","","false","","","","","","[1027]","./assets/img/space/catch/1.jpg","[""spaceBar""]","catch practice","space","0","{""ArrowUp,ArrowLeft"":3,""ArrowUp,ArrowRight"":36,""ArrowDown,ArrowLeft"":15,""ArrowDown,ArrowRight"":23}","true","spaceBar","true","","","","","","","",""
"html-keyboard-response","55","432072","0.0-4.0-10.0-1.1","spark_pilot_2","7484","8","21","Male","","","","","","","","null","<div style=""font-size:60px;"">+</div>","null","fixation","","","","","","","","","","","","","",""
"revaluation","56","436076","0.0-4.0-10.0-0.2","spark_pilot_2","7484","8","21","Male","","false","","","","","","[557.9999999999418]","./assets/img/space/catch/2.jpg","[""spaceBar""]","catch practice","space","0","{""ArrowUp,ArrowLeft"":3,""ArrowUp,ArrowRight"":36,""ArrowDown,ArrowLeft"":15,""ArrowDown,ArrowRight"":23}","true","spaceBar","true","","","","","","","",""
"html-keyboard-response","57","436577","0.0-4.0-10.0-1.2","spark_pilot_2","7484","8","21","Male","","","","","","","","null","<div style=""font-size:60px;"">+</div>","null","fixation","","","","","","","","","","","","","",""
"learning-instructions","58","453022","0.0-4.0-11.0-0.0","spark_pilot_2","7484","8","21","Male","","","","","","","","2863","<p> After you explore a place to find treasure, it will be time to play a different game. </p>
            <p> During this game, red dots will appear on the screen and fall down slowly. </p>
            <p><b> You must click on them before they reach the bottom. </b></p>
            <img src='./assets/img/instructions/dotGame.jpg' class='instructions-image'>","","instructions","","","","","","","","","","","","","",""
"learning-instructions","59","460081","0.0-4.0-11.0-0.1","spark_pilot_2","7484","8","21","Male","","","","","","","","1395","<p> For every dot you click, you will earn additional treasure. </p>
            <p> Let’s try practicing that now. </p>","","instructions","","","","","","","","","","","","","",""
"revaluation","60","475085","0.0-4.0-12.0-0.0","spark_pilot_2","7484","8","21","Male","","","","","","","","[92]","","","rest practice","","10","","","","","0","15000","","","","","",""
"learning-instructions","61","482968","0.0-4.0-13.0-0.0-0.0","spark_pilot_2","7484","8","21","Male","","","","","","","","2656","<p> Now, you will practice a shortened version of the game to get a sense of how it all fits together. </p>","","instructions","","","","","","","","","","","","","",""
"learning-instructions","62","487297","0.0-4.0-13.0-0.0-0.1","spark_pilot_2","7484","8","21","Male","","","","","","","","1150","<p>This time you are searching for treasure in outer space.</p>","","instructions","","","","","","","","","","","","","",""
"learning-instructions","63","503975","0.0-4.0-13.0-1.0-0.0","spark_pilot_2","7484","8","21","Male","","","","","","","","945","<p> Remember, when you see a picture of the place, use the up and down keys to <b>find an animal</b>.</p>
            <p> When you encounter an animal, you should use the left and right keys to <b>select a treasure chest</b>.</p>
            <p> Don't forget to look out for the robber! </p>","","instructions","","","","","","","","","","","","","",""
"revaluation","64","509979","0.0-4.0-13.0-2.0-0.0","spark_pilot_2","7484","8","21","Male","","false","","","","","","[1279,345]","./assets/img/space/11.jpg","[""ArrowUp"",""ArrowRight""]","practice block","space","36","{""ArrowUp,ArrowLeft"":3,""ArrowUp,ArrowRight"":36,""ArrowDown,ArrowLeft"":15,""ArrowDown,ArrowRight"":23}","true","ArrowUp,ArrowRight","false","","","","","","","",""
"html-keyboard-response","65","510480","0.0-4.0-13.0-2.0-1.0","spark_pilot_2","7484","8","21","Male","","","","","","","","null","<div style=""font-size:60px;"">+</div>","null","fixation","","","","","","","","","","","","","",""
"revaluation","66","516486","0.0-4.0-13.0-2.0-0.1","spark_pilot_2","7484","8","21","Male","","false","","","","","","[934.0000000001164,641.0000000001164]","./assets/img/space/12.jpg","[""ArrowUp"",""ArrowRight""]","practice block","space","36","{""ArrowUp,ArrowLeft"":3,""ArrowUp,ArrowRight"":36,""ArrowDown,ArrowLeft"":15,""ArrowDown,ArrowRight"":23}","true","ArrowUp,ArrowRight","false","","","","","","","",""
"html-keyboard-response","67","516988","0.0-4.0-13.0-2.0-1.1","spark_pilot_2","7484","8","21","Male","","","","","","","","null","<div style=""font-size:60px;"">+</div>","null","fixation","","","","","","","","","","","","","",""
"revaluation","68","522993","0.0-4.0-13.0-2.0-0.2","spark_pilot_2","7484","8","21","Male","","false","","","","","","[1264,517.0000000000582]","./assets/img/space/13.jpg","[""ArrowDown"",""ArrowRight""]","practice block","space","23","{""ArrowUp,ArrowLeft"":3,""ArrowUp,ArrowRight"":36,""ArrowDown,ArrowLeft"":15,""ArrowDown,ArrowRight"":23}","false","ArrowDown,ArrowRight","false","","","","","","","",""
"html-keyboard-response","69","523495","0.0-4.0-13.0-2.0-1.2","spark_pilot_2","7484","8","21","Male","","","","","","","","null","<div style=""font-size:60px;"">+</div>","null","fixation","","","","","","","","","","","","","",""
"revaluation","70","529500","0.0-4.0-13.0-2.0-0.3","spark_pilot_2","7484","8","21","Male","","false","","","","","","[1072,359]","./assets/img/space/14.jpg","[""ArrowUp"",""ArrowRight""]","practice block","space","36","{""ArrowUp,ArrowLeft"":3,""ArrowUp,ArrowRight"":36,""ArrowDown,ArrowLeft"":15,""ArrowDown,ArrowRight"":23}","true","ArrowUp,ArrowRight","false","","","","","","","",""
"html-keyboard-response","71","530002","0.0-4.0-13.0-2.0-1.3","spark_pilot_2","7484","8","21","Male","","","","","","","","null","<div style=""font-size:60px;"">+</div>","null","fixation","","","","","","","","","","","","","",""
"revaluation","72","536007","0.0-4.0-13.0-2.0-0.4","spark_pilot_2","7484","8","21","Male","","false","","","","","","[1072,320]","./assets/img/space/11.jpg","[""ArrowUp"",""ArrowRight""]","practice block","space","36","{""ArrowUp,ArrowLeft"":3,""ArrowUp,ArrowRight"":36,""ArrowDown,ArrowLeft"":15,""ArrowDown,ArrowRight"":23}","true","ArrowUp,ArrowRight","false","","","","","","","",""
"html-keyboard-response","73","536509","0.0-4.0-13.0-2.0-1.4","spark_pilot_2","7484","8","21","Male","","","","","","","","null","<div style=""font-size:60px;"">+</div>","null","fixation","","","","","","","","","","","","","",""
"revaluation","74","542515","0.0-4.0-13.0-2.0-0.5","spark_pilot_2","7484","8","21","Male","","false","","","","","","[1114,212]","./assets/img/space/12.jpg","[""ArrowUp"",""ArrowRight""]","practice block","space","36","{""ArrowUp,ArrowLeft"":3,""ArrowUp,ArrowRight"":36,""ArrowDown,ArrowLeft"":15,""ArrowDown,ArrowRight"":23}","true","ArrowUp,ArrowRight","false","","","","","","","",""
"html-keyboard-response","75","543017","0.0-4.0-13.0-2.0-1.5","spark_pilot_2","7484","8","21","Male","","","","","","","","null","<div style=""font-size:60px;"">+</div>","null","fixation","","","","","","","","","","","","","",""
"revaluation","76","549022","0.0-4.0-13.0-2.0-0.6","spark_pilot_2","7484","8","21","Male","","false","","","","","","[780,39]","./assets/img/space/13.jpg","[""ArrowUp"",""ArrowRight""]","practice block","space","36","{""ArrowUp,ArrowLeft"":3,""ArrowUp,ArrowRight"":36,""ArrowDown,ArrowLeft"":15,""ArrowDown,ArrowRight"":23}","true","ArrowUp,ArrowRight","false","","","","","","","",""
"html-keyboard-response","77","549524","0.0-4.0-13.0-2.0-1.6","spark_pilot_2","7484","8","21","Male","","","","","","","","null","<div style=""font-size:60px;"">+</div>","null","fixation","","","","","","","","","","","","","",""
"revaluation","78","555530","0.0-4.0-13.0-2.0-0.7","spark_pilot_2","7484","8","21","Male","","false","","","","","","[870.9999999998836,243]","./assets/img/space/14.jpg","[""ArrowUp"",""ArrowRight""]","practice block","space","36","{""ArrowUp,ArrowLeft"":3,""ArrowUp,ArrowRight"":36,""ArrowDown,ArrowLeft"":15,""ArrowDown,ArrowRight"":23}","true","ArrowUp,ArrowRight","false","","","","","","","",""
"html-keyboard-response","79","556032","0.0-4.0-13.0-2.0-1.7","spark_pilot_2","7484","8","21","Male","","","","","","","","null","<div style=""font-size:60px;"">+</div>","null","fixation","","","","","","","","","","","","","",""
"revaluation","80","560036","0.0-4.0-13.0-2.0-0.8","spark_pilot_2","7484","8","21","Male","","false","","","","","","[615]","./assets/img/space/catch/3.jpg","[""spaceBar""]","practice block","space","0","{""ArrowUp,ArrowLeft"":3,""ArrowUp,ArrowRight"":36,""ArrowDown,ArrowLeft"":15,""ArrowDown,ArrowRight"":23}","true","spaceBar","true","","","","","","","",""
"html-keyboard-response","81","560538","0.0-4.0-13.0-2.0-1.8","spark_pilot_2","7484","8","21","Male","","","","","","","","null","<div style=""font-size:60px;"">+</div>","null","fixation","","","","","","","","","","","","","",""
"learning-instructions","82","577387","0.0-4.0-13.0-3.0-0.0","spark_pilot_2","7484","8","21","Male","","","","","","","","3037","<p> Now, you will travel with a friend who will choose whether you go up or down first. </p>
            <p> On these turns, you will just see the animal that they found. You will still get to choose which chest to search for treasure.</p>","","instructions","","","","","","","","","","","","","",""
"revaluation","83","581391","0.0-4.0-13.0-4.0-0.0","spark_pilot_2","7484","8","21","Male","","false","","","","","","[722]","./assets/img/space/animals/rabbit.jpg","[""ArrowRight""]","practice block","space","23","{""ArrowUp,ArrowLeft"":3,""ArrowUp,ArrowRight"":36,""ArrowDown,ArrowLeft"":15,""ArrowDown,ArrowRight"":23}","true","ArrowDown,ArrowRight","","","","","","","","",""
"html-keyboard-response","84","581893","0.0-4.0-13.0-4.0-1.0","spark_pilot_2","7484","8","21","Male","","","","","","","","null","<div style=""font-size:60px;"">+</div>","null","fixation","","","","","","","","","","","","","",""
"revaluation","85","585897","0.0-4.0-13.0-4.0-0.1","spark_pilot_2","7484","8","21","Male","","false","","","","","","[493]","./assets/img/space/animals/cat.jpg","[""ArrowRight""]","practice block","space","36","{""ArrowUp,ArrowLeft"":3,""ArrowUp,ArrowRight"":36,""ArrowDown,ArrowLeft"":15,""ArrowDown,ArrowRight"":23}","true","ArrowUp,ArrowRight","","","","","","","","",""
"html-keyboard-response","86","586398","0.0-4.0-13.0-4.0-1.1","spark_pilot_2","7484","8","21","Male","","","","","","","","null","<div style=""font-size:60px;"">+</div>","null","fixation","","","","","","","","","","","","","",""
"revaluation","87","590401","0.0-4.0-13.0-4.0-0.2","spark_pilot_2","7484","8","21","Male","","false","","","","","","[388]","./assets/img/space/animals/rabbit.jpg","[""ArrowLeft""]","practice block","space","15","{""ArrowUp,ArrowLeft"":3,""ArrowUp,ArrowRight"":36,""ArrowDown,ArrowLeft"":15,""ArrowDown,ArrowRight"":23}","false","ArrowDown,ArrowLeft","","","","","","","","",""
"html-keyboard-response","88","590903","0.0-4.0-13.0-4.0-1.2","spark_pilot_2","7484","8","21","Male","","","","","","","","null","<div style=""font-size:60px;"">+</div>","null","fixation","","","","","","","","","","","","","",""
"revaluation","89","594906","0.0-4.0-13.0-4.0-0.3","spark_pilot_2","7484","8","21","Male","","false","","","","","","[575.9999999998836]","./assets/img/space/animals/cat.jpg","[""ArrowRight""]","practice block","space","36","{""ArrowUp,ArrowLeft"":3,""ArrowUp,ArrowRight"":36,""ArrowDown,ArrowLeft"":15,""ArrowDown,ArrowRight"":23}","true","ArrowUp,ArrowRight","","","","","","","","",""
"html-keyboard-response","90","595409","0.0-4.0-13.0-4.0-1.3","spark_pilot_2","7484","8","21","Male","","","","","","","","null","<div style=""font-size:60px;"">+</div>","null","fixation","","","","","","","","","","","","","",""
"learning-instructions","91","608636","0.0-4.0-13.0-5.0-0.0","spark_pilot_2","7484","8","21","Male","","","","","","","","613","<p> Time to play the dot game! </p>
            <p> For 15 seconds, click the red dots on the following screen as they appear. </p>","","instructions","","","","","","","","","","","","","",""
"revaluation","92","623639","0.0-4.0-13.0-6.0-0.0","spark_pilot_2","7484","8","21","Male","","","","","","","","[103]","","","rest practice","","10","","","","","0","15000","","","","","",""
"learning-instructions","93","631147","0.0-4.0-13.0-7.0-0.0","spark_pilot_2","7484","8","21","Male","","","","","","","","1389","<p> You have almost finished this part of the game! </p>
            <p> We are going to ask you to make a few more choices. </p>","","instructions","","","","","","","","","","","","","",""
"learning-instructions","94","648443","0.0-4.0-13.0-7.0-0.1","spark_pilot_2","7484","8","21","Male","","","","","","","","3294","<p> First, you need to decide whether to go up or down. When you see each picture, use the arrow keys to make your choice. </p>
            <p><b>You will not see which animal you found, but try to get to the one that will give you the most treasure.</b></p>","","instructions","","","","","","","","","","","","","",""
"revaluation","95","649342","0.0-4.0-13.0-8.0","spark_pilot_2","7484","8","21","Male","","false","","","","","","[898]","./assets/img/space/15.jpg","[""ArrowUp""]","practice block","space","0","{""ArrowUp,ArrowLeft"":3,""ArrowUp,ArrowRight"":36,""ArrowDown,ArrowLeft"":15,""ArrowDown,ArrowRight"":23}","true","ArrowUp","false","","","","","","","",""
"html-keyboard-response","96","649844","0.0-4.0-13.0-9.0","spark_pilot_2","7484","8","21","Male","","","","","","","","null","<div style=""font-size:60px;"">+</div>","null","fixation","","","","","","","","","","","","","",""
"learning-instructions","97","665872","0.0-4.0-13.0-10.0-0.0","spark_pilot_2","7484","8","21","Male","","","","","","","","1331","<p> Now you will see the animals again and can search their chests for treasure. </p>
            <p> This time, you will not see how much treasure you earned, but you will earn more bonus money for making better choices. </p>","","instructions","","","","","","","","","","","","","",""
"revaluation","98","666390","0.0-4.0-13.0-11.0-0.0","spark_pilot_2","7484","8","21","Male","","false","","","","","","[515]","./assets/img/space/animals/cat.jpg","[""ArrowRight""]","practice block","space","0","{""ArrowUp,ArrowLeft"":3,""ArrowUp,ArrowRight"":36,""ArrowDown,ArrowLeft"":15,""ArrowDown,ArrowRight"":23}","true","ArrowUp,ArrowRight","","","","","","","","",""
"html-keyboard-response","99","666891","0.0-4.0-13.0-11.0-1.0","spark_pilot_2","7484","8","21","Male","","","","","","","","null","<div style=""font-size:60px;"">+</div>","null","fixation","","","","","","","","","","","","","",""
"revaluation","100","667675","0.0-4.0-13.0-11.0-0.1","spark_pilot_2","7484","8","21","Male","","false","","","","","","[779]","./assets/img/space/animals/rabbit.jpg","[""ArrowRight""]","practice block","space","0","{""ArrowUp,ArrowLeft"":3,""ArrowUp,ArrowRight"":36,""ArrowDown,ArrowLeft"":15,""ArrowDown,ArrowRight"":23}","true","ArrowDown,ArrowRight","","","","","","","","",""
"html-keyboard-response","101","668177","0.0-4.0-13.0-11.0-1.1","spark_pilot_2","7484","8","21","Male","","","","","","","","null","<div style=""font-size:60px;"">+</div>","null","fixation","","","","","","","","","","","","","",""
"learning-instructions","102","682399","0.0-4.0-14.0-0.0","spark_pilot_2","7484","8","21","Male","","","","","","","","9652.999999999884","<p> Before you start, we're going to ask you a few questions about how the game works. </p>","","instructions","","","","","","","","","","","","","",""
"comp-q","103","689770","0.0-4.0-15.0-0.0-0.0","spark_pilot_2","7484","8","21","Male","","","","","","","","716","<p> <b> True or False? </b> </p>
            <p> There can be 50 pieces of treasure in a given animal's chest. </p>","1","comp_question","","","","true","","","","","","","","","",""
"comp-q","104","698375","0.0-4.0-15.0-0.0-1.0","spark_pilot_2","7484","8","21","Male","","","","","","","","1959","<p> <b> That's right! </b> The amount of treasure in each chest can range from 0 to 40 pieces. </p>","0","comp_answer","","","","","","","","","","","","","",""
"comp-q","105","707416","0.0-4.0-15.0-0.1-0.1","spark_pilot_2","7484","8","21","Male","","","","","","","","720","<p> <b> True or False? </b> </p><p> In this game, all animals have the same amount of treasure in their left and right chests. </p>","1","comp_question","","","","true","","","","","","","","","",""
"comp-q","106","713834","0.0-4.0-15.0-0.1-1.1","spark_pilot_2","7484","8","21","Male","","","","","","","","1199","<p> <b> That's right! </b> Animals have different amounts of treasure in their treasure chests. </p>","0","comp_answer","","","","","","","","","","","","","",""
"comp-q","107","720301","0.0-4.0-15.0-0.2-0.2","spark_pilot_2","7484","8","21","Male","","","","","","","","633","<p> <b> True or False? </b> </p><p> The same animal will always be there if you go up in the same place. </p>","0","comp_question","","","","true","","","","","","","","","",""
"comp-q","108","727871","0.0-4.0-15.0-0.2-1.2","spark_pilot_2","7484","8","21","Male","","","","","","","","1136.0000000001164","<p> <b> That's right! </b> One animal lives in the upper part and one lives in the lower part of every place. </p>","0","comp_answer","","","","","","","","","","","","","",""
"comp-q","109","733970","0.0-4.0-15.0-0.3-0.3","spark_pilot_2","7484","8","21","Male","","","","","","","","588","<p> <b> True or False? </b> </p><p> If you see a different picture, it means you are in a new place. </p>","0","comp_question","","","","false","","","","","","","","","",""
"comp-q","110","754424","0.0-4.0-15.0-0.3-1.3","spark_pilot_2","7484","8","21","Male","","","","","","","","9372","<p> <b>Incorrect.</b> Lots of different images may show the same place. For example,  you may see three different images that all remind you that you are in outer space. </p>","0","comp_answer","","","","","","","","","","","","","",""
"comp-q","111","760557","0.0-4.0-15.0-0.4-0.4","spark_pilot_2","7484","8","21","Male","","","","","","","","633","<p> <b> True or False? </b> </p><p> If you see a different picture, it means you are in a new place. </p>","1","comp_question","","","","true","","","","","","","","","",""
"comp-q","112","777202","0.0-4.0-15.0-0.4-1.4","spark_pilot_2","7484","8","21","Male","","","","","","","","5430.000000000116","<p> <b> That's right! </b> Lots of different images may show the same place. For example,  you may see three different images that all remind you that you are in outer space. </p>","0","comp_answer","","","","","","","","","","","","","",""
"learning-instructions","113","790036","0.0-4.0-16.0-0.0","spark_pilot_2","7484","8","21","Male","","","","","","","","2991","<p> Good job. Remember to do your best because the amount of treasure you earn will be converted into bonus money. </p>
            <p> It’s time to start the real game! </p>","","instructions","","","","","","","","","","","","","",""
"learning-instructions","114","807449","0.0-5.0-0.0-0.0","spark_pilot_2","7484","8","21","Male","","","","","","","","14657","<p> This time you are searching for treasure in the <b>canyon</b>.</p>","","instructions","","","","","","","","","","","","","",""
"learning-instructions","115","831981","0.0-5.0-0.0-0.1","spark_pilot_2","7484","8","21","Male","","","","","","","","5764","<p><b>New</b> animals with <b>new</b> treasure chests live here. You need to explore to discover where the animal with the best treasure chest is.</p>
                    <p> Like before, once you figure out which animal has the chest with the most treasure, you should try to get to that animal and select that chest! </p>","","instructions","","","","","","","","","","","","","",""
"learning-instructions","116","869648","0.0-5.0-1.0-0.0","spark_pilot_2","7484","8","21","Male","","","","","","","","22937.000000000116","<p> Remember, when you see a picture of the place, use the up and down keys to <b>find an animal</b>.</p>
            <p> When you encounter an animal, you should use the left and right keys to <b>select a treasure chest</b>.</p>
            <p> Don't forget to look out for the robber! </p>","","instructions","","","","","","","","","","","","","",""
"revaluation","117","875653","0.0-5.0-2.0-0.0","spark_pilot_2","7484","8","21","Male","","false","","","","","","[945,599.0000000001164]","./assets/img/canyon/memory/32.jpg","[""ArrowUp"",""ArrowRight""]","value training","canyon","10","{""ArrowUp,ArrowLeft"":26,""ArrowUp,ArrowRight"":10,""ArrowDown,ArrowLeft"":5,""ArrowDown,ArrowRight"":17}","false","ArrowUp,ArrowRight","false","","","revaluation","1","0","","",""
"html-keyboard-response","118","876156","0.0-5.0-2.0-1.0","spark_pilot_2","7484","8","21","Male","","","","","","","","null","<div style=""font-size:60px;"">+</div>","null","fixation","","","","","","","","","","","1","","",""
"revaluation","119","880161","0.0-5.0-2.0-0.1","spark_pilot_2","7484","8","21","Male","","false","","","","","","[480.0000000001164]","./assets/img/canyon/catch/5.jpg","[""ArrowUp""]","value training","canyon","-10","{""ArrowUp,ArrowLeft"":26,""ArrowUp,ArrowRight"":10,""ArrowDown,ArrowLeft"":5,""ArrowDown,ArrowRight"":17}","false","ArrowUp","true","","","revaluation","1","2","","",""
"html-keyboard-response","120","880663","0.0-5.0-2.0-1.1","spark_pilot_2","7484","8","21","Male","","","","","","","","null","<div style=""font-size:60px;"">+</div>","null","fixation","","","","","","","","","","","3","","",""
"revaluation","121","886668","0.0-5.0-2.0-0.2","spark_pilot_2","7484","8","21","Male","","false","","","","","","[718,365]","./assets/img/canyon/memory/1.jpg","[""ArrowUp"",""ArrowLeft""]","value training","canyon","26","{""ArrowUp,ArrowLeft"":26,""ArrowUp,ArrowRight"":10,""ArrowDown,ArrowLeft"":5,""ArrowDown,ArrowRight"":17}","true","ArrowUp,ArrowLeft","false","","","revaluation","1","4","","",""
"html-keyboard-response","122","887170","0.0-5.0-2.0-1.2","spark_pilot_2","7484","8","21","Male","","","","","","","","null","<div style=""font-size:60px;"">+</div>","null","fixation","","","","","","","","","","","5","","",""
"revaluation","123","893174","0.0-5.0-2.0-0.3","spark_pilot_2","7484","8","21","Male","","false","","","","","","[676.9999999998836,464.9999999998836]","./assets/img/canyon/memory/40.jpg","[""ArrowDown"",""ArrowLeft""]","value training","canyon","5","{""ArrowUp,ArrowLeft"":26,""ArrowUp,ArrowRight"":10,""ArrowDown,ArrowLeft"":5,""ArrowDown,ArrowRight"":17}","false","ArrowDown,ArrowLeft","false","","","revaluation","1","6","","",""
"html-keyboard-response","124","893676","0.0-5.0-2.0-1.3","spark_pilot_2","7484","8","21","Male","","","","","","","","null","<div style=""font-size:60px;"">+</div>","null","fixation","","","","","","","","","","","7","","",""
"revaluation","125","899681","0.0-5.0-2.0-0.4","spark_pilot_2","7484","8","21","Male","","false","","","","","","[553.9999999998836,298]","./assets/img/canyon/memory/40.jpg","[""ArrowDown"",""ArrowRight""]","value training","canyon","17","{""ArrowUp,ArrowLeft"":26,""ArrowUp,ArrowRight"":10,""ArrowDown,ArrowLeft"":5,""ArrowDown,ArrowRight"":17}","false","ArrowDown,ArrowRight","false","","","revaluation","1","8","","",""
"html-keyboard-response","126","900183","0.0-5.0-2.0-1.4","spark_pilot_2","7484","8","21","Male","","","","","","","","null","<div style=""font-size:60px;"">+</div>","null","fixation","","","","","","","","","","","9","","",""
"revaluation","127","906189","0.0-5.0-2.0-0.5","spark_pilot_2","7484","8","21","Male","","false","","","","","","[729,263.9999999998836]","./assets/img/canyon/memory/7.jpg","[""ArrowUp"",""ArrowLeft""]","value training","canyon","26","{""ArrowUp,ArrowLeft"":26,""ArrowUp,ArrowRight"":10,""ArrowDown,ArrowLeft"":5,""ArrowDown,ArrowRight"":17}","true","ArrowUp,ArrowLeft","false","","","revaluation","1","10","","",""
"html-keyboard-response","128","906691","0.0-5.0-2.0-1.5","spark_pilot_2","7484","8","21","Male","","","","","","","","null","<div style=""font-size:60px;"">+</div>","null","fixation","","","","","","","","","","","11","","",""
"revaluation","129","910695","0.0-5.0-2.0-0.6","spark_pilot_2","7484","8","21","Male","","false","","","","","","[1179]","./assets/img/canyon/catch/2.jpg","[""spaceBar""]","value training","canyon","0","{""ArrowUp,ArrowLeft"":26,""ArrowUp,ArrowRight"":10,""ArrowDown,ArrowLeft"":5,""ArrowDown,ArrowRight"":17}","true","spaceBar","true","","","revaluation","1","12","","",""
"html-keyboard-response","130","911197","0.0-5.0-2.0-1.6","spark_pilot_2","7484","8","21","Male","","","","","","","","null","<div style=""font-size:60px;"">+</div>","null","fixation","","","","","","","","","","","13","","",""
"revaluation","131","915201","0.0-5.0-2.0-0.7","spark_pilot_2","7484","8","21","Male","","false","","","","","","[1415.0000000001164]","./assets/img/canyon/catch/7.jpg","[""spaceBar""]","value training","canyon","0","{""ArrowUp,ArrowLeft"":26,""ArrowUp,ArrowRight"":10,""ArrowDown,ArrowLeft"":5,""ArrowDown,ArrowRight"":17}","true","spaceBar","true","","","revaluation","1","14","","",""
"html-keyboard-response","132","915703","0.0-5.0-2.0-1.7","spark_pilot_2","7484","8","21","Male","","","","","","","","null","<div style=""font-size:60px;"">+</div>","null","fixation","","","","","","","","","","","15","","",""
"revaluation","133","919707","0.0-5.0-2.0-0.8","spark_pilot_2","7484","8","21","Male","","false","","","","","","[601]","./assets/img/canyon/catch/6.jpg","[""spaceBar""]","value training","canyon","0","{""ArrowUp,ArrowLeft"":26,""ArrowUp,ArrowRight"":10,""ArrowDown,ArrowLeft"":5,""ArrowDown,ArrowRight"":17}","true","spaceBar","true","","","revaluation","1","16","","",""
"html-keyboard-response","134","920209","0.0-5.0-2.0-1.8","spark_pilot_2","7484","8","21","Male","","","","","","","","null","<div style=""font-size:60px;"">+</div>","null","fixation","","","","","","","","","","","17","","",""
"revaluation","135","926213","0.0-5.0-2.0-0.9","spark_pilot_2","7484","8","21","Male","","false","","","","","","[638,265]","./assets/img/canyon/memory/34.jpg","[""ArrowUp"",""ArrowLeft""]","value training","canyon","26","{""ArrowUp,ArrowLeft"":26,""ArrowUp,ArrowRight"":10,""ArrowDown,ArrowLeft"":5,""ArrowDown,ArrowRight"":17}","true","ArrowUp,ArrowLeft","false","","","revaluation","1","18","","",""
"html-keyboard-response","136","926715","0.0-5.0-2.0-1.9","spark_pilot_2","7484","8","21","Male","","","","","","","","null","<div style=""font-size:60px;"">+</div>","null","fixation","","","","","","","","","","","19","","",""
"revaluation","137","932720","0.0-5.0-2.0-0.10","spark_pilot_2","7484","8","21","Male","","false","","","","","","[1139,438]","./assets/img/canyon/memory/33.jpg","[""ArrowUp"",""ArrowLeft""]","value training","canyon","26","{""ArrowUp,ArrowLeft"":26,""ArrowUp,ArrowRight"":10,""ArrowDown,ArrowLeft"":5,""ArrowDown,ArrowRight"":17}","true","ArrowUp,ArrowLeft","false","","","revaluation","1","20","","",""
"html-keyboard-response","138","933222","0.0-5.0-2.0-1.10","spark_pilot_2","7484","8","21","Male","","","","","","","","null","<div style=""font-size:60px;"">+</div>","null","fixation","","","","","","","","","","","21","","",""
"revaluation","139","937226","0.0-5.0-2.0-0.11","spark_pilot_2","7484","8","21","Male","","false","","","","","","[733]","./assets/img/canyon/catch/1.jpg","[""spaceBar""]","value training","canyon","0","{""ArrowUp,ArrowLeft"":26,""ArrowUp,ArrowRight"":10,""ArrowDown,ArrowLeft"":5,""ArrowDown,ArrowRight"":17}","true","spaceBar","true","","","revaluation","1","22","","",""
"html-keyboard-response","140","937728","0.0-5.0-2.0-1.11","spark_pilot_2","7484","8","21","Male","","","","","","","","null","<div style=""font-size:60px;"">+</div>","null","fixation","","","","","","","","","","","23","","",""
"revaluation","141","943734","0.0-5.0-2.0-0.12","spark_pilot_2","7484","8","21","Male","","false","","","","","","[877,272.0000000001164]","./assets/img/canyon/memory/5.jpg","[""ArrowUp"",""ArrowLeft""]","value training","canyon","26","{""ArrowUp,ArrowLeft"":26,""ArrowUp,ArrowRight"":10,""ArrowDown,ArrowLeft"":5,""ArrowDown,ArrowRight"":17}","true","ArrowUp,ArrowLeft","false","","","revaluation","1","24","","",""
"html-keyboard-response","142","944236","0.0-5.0-2.0-1.12","spark_pilot_2","7484","8","21","Male","","","","","","","","null","<div style=""font-size:60px;"">+</div>","null","fixation","","","","","","","","","","","25","","",""
"revaluation","143","950241","0.0-5.0-2.0-0.13","spark_pilot_2","7484","8","21","Male","","false","","","","","","[636.0000000001164,517.9999999998836]","./assets/img/canyon/memory/38.jpg","[""ArrowUp"",""ArrowLeft""]","value training","canyon","26","{""ArrowUp,ArrowLeft"":26,""ArrowUp,ArrowRight"":10,""ArrowDown,ArrowLeft"":5,""ArrowDown,ArrowRight"":17}","true","ArrowUp,ArrowLeft","false","","","revaluation","1","26","","",""
"html-keyboard-response","144","950743","0.0-5.0-2.0-1.13","spark_pilot_2","7484","8","21","Male","","","","","","","","null","<div style=""font-size:60px;"">+</div>","null","fixation","","","","","","","","","","","27","","",""
"revaluation","145","956749","0.0-5.0-2.0-0.14","spark_pilot_2","7484","8","21","Male","","false","","","","","","[987,319.0000000001164]","./assets/img/canyon/memory/36.jpg","[""ArrowUp"",""ArrowLeft""]","value training","canyon","26","{""ArrowUp,ArrowLeft"":26,""ArrowUp,ArrowRight"":10,""ArrowDown,ArrowLeft"":5,""ArrowDown,ArrowRight"":17}","true","ArrowUp,ArrowLeft","false","","","revaluation","1","28","","",""
"html-keyboard-response","146","957251","0.0-5.0-2.0-1.14","spark_pilot_2","7484","8","21","Male","","","","","","","","null","<div style=""font-size:60px;"">+</div>","null","fixation","","","","","","","","","","","29","","",""
"revaluation","147","961256","0.0-5.0-2.0-0.15","spark_pilot_2","7484","8","21","Male","","false","","","","","","[536]","./assets/img/canyon/catch/3.jpg","[""spaceBar""]","value training","canyon","0","{""ArrowUp,ArrowLeft"":26,""ArrowUp,ArrowRight"":10,""ArrowDown,ArrowLeft"":5,""ArrowDown,ArrowRight"":17}","true","spaceBar","true","","","revaluation","1","30","","",""
"html-keyboard-response","148","961757","0.0-5.0-2.0-1.15","spark_pilot_2","7484","8","21","Male","","","","","","","","null","<div style=""font-size:60px;"">+</div>","null","fixation","","","","","","","","","","","31","","",""
"revaluation","149","967762","0.0-5.0-2.0-0.16","spark_pilot_2","7484","8","21","Male","","false","","","","","","[565,251]","./assets/img/canyon/memory/5.jpg","[""ArrowUp"",""ArrowLeft""]","value training","canyon","26","{""ArrowUp,ArrowLeft"":26,""ArrowUp,ArrowRight"":10,""ArrowDown,ArrowLeft"":5,""ArrowDown,ArrowRight"":17}","true","ArrowUp,ArrowLeft","false","","","revaluation","1","32","","",""
"html-keyboard-response","150","968264","0.0-5.0-2.0-1.16","spark_pilot_2","7484","8","21","Male","","","","","","","","null","<div style=""font-size:60px;"">+</div>","null","fixation","","","","","","","","","","","33","","",""
"revaluation","151","974269","0.0-5.0-2.0-0.17","spark_pilot_2","7484","8","21","Male","","false","","","","","","[733.0000000001164,416]","./assets/img/canyon/memory/0.jpg","[""ArrowUp"",""ArrowLeft""]","value training","canyon","26","{""ArrowUp,ArrowLeft"":26,""ArrowUp,ArrowRight"":10,""ArrowDown,ArrowLeft"":5,""ArrowDown,ArrowRight"":17}","true","ArrowUp,ArrowLeft","false","","","revaluation","1","34","","",""
"html-keyboard-response","152","974771","0.0-5.0-2.0-1.17","spark_pilot_2","7484","8","21","Male","","","","","","","","null","<div style=""font-size:60px;"">+</div>","null","fixation","","","","","","","","","","","35","","",""
"revaluation","153","980776","0.0-5.0-2.0-0.18","spark_pilot_2","7484","8","21","Male","","false","","","","","","[721,430]","./assets/img/canyon/memory/39.jpg","[""ArrowUp"",""ArrowLeft""]","value training","canyon","26","{""ArrowUp,ArrowLeft"":26,""ArrowUp,ArrowRight"":10,""ArrowDown,ArrowLeft"":5,""ArrowDown,ArrowRight"":17}","true","ArrowUp,ArrowLeft","false","","","revaluation","1","36","","",""
"html-keyboard-response","154","981278","0.0-5.0-2.0-1.18","spark_pilot_2","7484","8","21","Male","","","","","","","","null","<div style=""font-size:60px;"">+</div>","null","fixation","","","","","","","","","","","37","","",""
"revaluation","155","987284","0.0-5.0-2.0-0.19","spark_pilot_2","7484","8","21","Male","","false","","","","","","[734,83.00000000011642]","./assets/img/canyon/memory/37.jpg","[""ArrowUp"",""ArrowLeft""]","value training","canyon","26","{""ArrowUp,ArrowLeft"":26,""ArrowUp,ArrowRight"":10,""ArrowDown,ArrowLeft"":5,""ArrowDown,ArrowRight"":17}","true","ArrowUp,ArrowLeft","false","","","revaluation","1","38","","",""
"html-keyboard-response","156","987786","0.0-5.0-2.0-1.19","spark_pilot_2","7484","8","21","Male","","","","","","","","null","<div style=""font-size:60px;"">+</div>","null","fixation","","","","","","","","","","","39","","",""
"revaluation","157","993791","0.0-5.0-2.0-0.20","spark_pilot_2","7484","8","21","Male","","false","","","","","","[788.0000000001164,317]","./assets/img/canyon/memory/4.jpg","[""ArrowUp"",""ArrowLeft""]","value training","canyon","26","{""ArrowUp,ArrowLeft"":26,""ArrowUp,ArrowRight"":10,""ArrowDown,ArrowLeft"":5,""ArrowDown,ArrowRight"":17}","true","ArrowUp,ArrowLeft","false","","","revaluation","1","40","","",""
"html-keyboard-response","158","994293","0.0-5.0-2.0-1.20","spark_pilot_2","7484","8","21","Male","","","","","","","","null","<div style=""font-size:60px;"">+</div>","null","fixation","","","","","","","","","","","41","","",""
"revaluation","159","1000298","0.0-5.0-2.0-0.21","spark_pilot_2","7484","8","21","Male","","false","","","","","","[944.0000000001164,285]","./assets/img/canyon/memory/32.jpg","[""ArrowUp"",""ArrowLeft""]","value training","canyon","26","{""ArrowUp,ArrowLeft"":26,""ArrowUp,ArrowRight"":10,""ArrowDown,ArrowLeft"":5,""ArrowDown,ArrowRight"":17}","true","ArrowUp,ArrowLeft","false","","","revaluation","1","42","","",""
"html-keyboard-response","160","1000800","0.0-5.0-2.0-1.21","spark_pilot_2","7484","8","21","Male","","","","","","","","null","<div style=""font-size:60px;"">+</div>","null","fixation","","","","","","","","","","","43","","",""
"revaluation","161","1004803","0.0-5.0-2.0-0.22","spark_pilot_2","7484","8","21","Male","","false","","","","","","[568]","./assets/img/canyon/catch/0.jpg","[""spaceBar""]","value training","canyon","0","{""ArrowUp,ArrowLeft"":26,""ArrowUp,ArrowRight"":10,""ArrowDown,ArrowLeft"":5,""ArrowDown,ArrowRight"":17}","true","spaceBar","true","","","revaluation","1","44","","",""
"html-keyboard-response","162","1005305","0.0-5.0-2.0-1.22","spark_pilot_2","7484","8","21","Male","","","","","","","","null","<div style=""font-size:60px;"">+</div>","null","fixation","","","","","","","","","","","45","","",""
"revaluation","163","1011310","0.0-5.0-2.0-0.23","spark_pilot_2","7484","8","21","Male","","false","","","","","","[683,402.0000000001164]","./assets/img/canyon/memory/39.jpg","[""ArrowUp"",""ArrowLeft""]","value training","canyon","26","{""ArrowUp,ArrowLeft"":26,""ArrowUp,ArrowRight"":10,""ArrowDown,ArrowLeft"":5,""ArrowDown,ArrowRight"":17}","true","ArrowUp,ArrowLeft","false","","","revaluation","1","46","","",""
"html-keyboard-response","164","1011812","0.0-5.0-2.0-1.23","spark_pilot_2","7484","8","21","Male","","","","","","","","null","<div style=""font-size:60px;"">+</div>","null","fixation","","","","","","","","","","","47","","",""
"revaluation","165","1017818","0.0-5.0-2.0-0.24","spark_pilot_2","7484","8","21","Male","","false","","","","","","[796,493.9999999998836]","./assets/img/canyon/memory/2.jpg","[""ArrowUp"",""ArrowLeft""]","value training","canyon","26","{""ArrowUp,ArrowLeft"":26,""ArrowUp,ArrowRight"":10,""ArrowDown,ArrowLeft"":5,""ArrowDown,ArrowRight"":17}","true","ArrowUp,ArrowLeft","false","","","revaluation","1","48","","",""
"html-keyboard-response","166","1018320","0.0-5.0-2.0-1.24","spark_pilot_2","7484","8","21","Male","","","","","","","","null","<div style=""font-size:60px;"">+</div>","null","fixation","","","","","","","","","","","49","","",""
"revaluation","167","1024324","0.0-5.0-2.0-0.25","spark_pilot_2","7484","8","21","Male","","false","","","","","","[575,282]","./assets/img/canyon/memory/22.jpg","[""ArrowUp"",""ArrowLeft""]","value training","canyon","26","{""ArrowUp,ArrowLeft"":26,""ArrowUp,ArrowRight"":10,""ArrowDown,ArrowLeft"":5,""ArrowDown,ArrowRight"":17}","true","ArrowUp,ArrowLeft","false","","","revaluation","1","50","","",""
"html-keyboard-response","168","1024826","0.0-5.0-2.0-1.25","spark_pilot_2","7484","8","21","Male","","","","","","","","null","<div style=""font-size:60px;"">+</div>","null","fixation","","","","","","","","","","","51","","",""
"revaluation","169","1030831","0.0-5.0-2.0-0.26","spark_pilot_2","7484","8","21","Male","","false","","","","","","[525.0000000001164,757]","./assets/img/canyon/memory/6.jpg","[""ArrowUp"",""ArrowLeft""]","value training","canyon","26","{""ArrowUp,ArrowLeft"":26,""ArrowUp,ArrowRight"":10,""ArrowDown,ArrowLeft"":5,""ArrowDown,ArrowRight"":17}","true","ArrowUp,ArrowLeft","false","","","revaluation","1","52","","",""
"html-keyboard-response","170","1031333","0.0-5.0-2.0-1.26","spark_pilot_2","7484","8","21","Male","","","","","","","","null","<div style=""font-size:60px;"">+</div>","null","fixation","","","","","","","","","","","53","","",""
"revaluation","171","1037338","0.0-5.0-2.0-0.27","spark_pilot_2","7484","8","21","Male","","false","","","","","","[713,237.00000000011642]","./assets/img/canyon/memory/21.jpg","[""ArrowUp"",""ArrowLeft""]","value training","canyon","26","{""ArrowUp,ArrowLeft"":26,""ArrowUp,ArrowRight"":10,""ArrowDown,ArrowLeft"":5,""ArrowDown,ArrowRight"":17}","true","ArrowUp,ArrowLeft","false","","","revaluation","1","54","","",""
"html-keyboard-response","172","1037840","0.0-5.0-2.0-1.27","spark_pilot_2","7484","8","21","Male","","","","","","","","null","<div style=""font-size:60px;"">+</div>","null","fixation","","","","","","","","","","","55","","",""
"revaluation","173","1043846","0.0-5.0-2.0-0.28","spark_pilot_2","7484","8","21","Male","","false","","","","","","[796.9999999997672,270]","./assets/img/canyon/memory/19.jpg","[""ArrowUp"",""ArrowLeft""]","value training","canyon","26","{""ArrowUp,ArrowLeft"":26,""ArrowUp,ArrowRight"":10,""ArrowDown,ArrowLeft"":5,""ArrowDown,ArrowRight"":17}","true","ArrowUp,ArrowLeft","false","","","revaluation","1","56","","",""
"html-keyboard-response","174","1044348","0.0-5.0-2.0-1.28","spark_pilot_2","7484","8","21","Male","","","","","","","","null","<div style=""font-size:60px;"">+</div>","null","fixation","","","","","","","","","","","57","","",""
"revaluation","175","1050353","0.0-5.0-2.0-0.29","spark_pilot_2","7484","8","21","Male","","false","","","","","","[635,231.00000000011642]","./assets/img/canyon/memory/22.jpg","[""ArrowDown"",""ArrowRight""]","value training","canyon","17","{""ArrowUp,ArrowLeft"":26,""ArrowUp,ArrowRight"":10,""ArrowDown,ArrowLeft"":5,""ArrowDown,ArrowRight"":17}","false","ArrowDown,ArrowRight","false","","","revaluation","1","58","","",""
"html-keyboard-response","176","1050855","0.0-5.0-2.0-1.29","spark_pilot_2","7484","8","21","Male","","","","","","","","null","<div style=""font-size:60px;"">+</div>","null","fixation","","","","","","","","","","","59","","",""
"revaluation","177","1056860","0.0-5.0-2.0-0.30","spark_pilot_2","7484","8","21","Male","","false","","","","","","[629.0000000002328,236]","./assets/img/canyon/memory/41.jpg","[""ArrowDown"",""ArrowLeft""]","value training","canyon","5","{""ArrowUp,ArrowLeft"":26,""ArrowUp,ArrowRight"":10,""ArrowDown,ArrowLeft"":5,""ArrowDown,ArrowRight"":17}","false","ArrowDown,ArrowLeft","false","","","revaluation","1","60","","",""
"html-keyboard-response","178","1057362","0.0-5.0-2.0-1.30","spark_pilot_2","7484","8","21","Male","","","","","","","","null","<div style=""font-size:60px;"">+</div>","null","fixation","","","","","","","","","","","61","","",""
"revaluation","179","1063368","0.0-5.0-2.0-0.31","spark_pilot_2","7484","8","21","Male","","false","","","","","","[485,243]","./assets/img/canyon/memory/4.jpg","[""ArrowUp"",""ArrowLeft""]","value training","canyon","26","{""ArrowUp,ArrowLeft"":26,""ArrowUp,ArrowRight"":10,""ArrowDown,ArrowLeft"":5,""ArrowDown,ArrowRight"":17}","true","ArrowUp,ArrowLeft","false","","","revaluation","1","62","","",""
"html-keyboard-response","180","1063870","0.0-5.0-2.0-1.31","spark_pilot_2","7484","8","21","Male","","","","","","","","null","<div style=""font-size:60px;"">+</div>","null","fixation","","","","","","","","","","","63","","",""
"revaluation","181","1069875","0.0-5.0-2.0-0.32","spark_pilot_2","7484","8","21","Male","","false","","","","","","[521,313]","./assets/img/canyon/memory/7.jpg","[""ArrowUp"",""ArrowLeft""]","value training","canyon","26","{""ArrowUp,ArrowLeft"":26,""ArrowUp,ArrowRight"":10,""ArrowDown,ArrowLeft"":5,""ArrowDown,ArrowRight"":17}","true","ArrowUp,ArrowLeft","false","","","revaluation","1","64","","",""
"html-keyboard-response","182","1070377","0.0-5.0-2.0-1.32","spark_pilot_2","7484","8","21","Male","","","","","","","","null","<div style=""font-size:60px;"">+</div>","null","fixation","","","","","","","","","","","65","","",""
"revaluation","183","1076382","0.0-5.0-2.0-0.33","spark_pilot_2","7484","8","21","Male","","false","","","","","","[554,905.9999999997672]","./assets/img/canyon/memory/0.jpg","[""ArrowUp"",""ArrowLeft""]","value training","canyon","26","{""ArrowUp,ArrowLeft"":26,""ArrowUp,ArrowRight"":10,""ArrowDown,ArrowLeft"":5,""ArrowDown,ArrowRight"":17}","true","ArrowUp,ArrowLeft","false","","","revaluation","1","66","","",""
"html-keyboard-response","184","1076884","0.0-5.0-2.0-1.33","spark_pilot_2","7484","8","21","Male","","","","","","","","null","<div style=""font-size:60px;"">+</div>","null","fixation","","","","","","","","","","","67","","",""
"revaluation","185","1082888","0.0-5.0-2.0-0.34","spark_pilot_2","7484","8","21","Male","","false","","","","","","[586,602]","./assets/img/canyon/memory/21.jpg","[""ArrowUp"",""ArrowLeft""]","value training","canyon","26","{""ArrowUp,ArrowLeft"":26,""ArrowUp,ArrowRight"":10,""ArrowDown,ArrowLeft"":5,""ArrowDown,ArrowRight"":17}","true","ArrowUp,ArrowLeft","false","","","revaluation","1","68","","",""
"html-keyboard-response","186","1083389","0.0-5.0-2.0-1.34","spark_pilot_2","7484","8","21","Male","","","","","","","","null","<div style=""font-size:60px;"">+</div>","null","fixation","","","","","","","","","","","69","","",""
"revaluation","187","1089394","0.0-5.0-2.0-0.35","spark_pilot_2","7484","8","21","Male","","false","","","","","","[490,389]","./assets/img/canyon/memory/35.jpg","[""ArrowUp"",""ArrowLeft""]","value training","canyon","26","{""ArrowUp,ArrowLeft"":26,""ArrowUp,ArrowRight"":10,""ArrowDown,ArrowLeft"":5,""ArrowDown,ArrowRight"":17}","true","ArrowUp,ArrowLeft","false","","","revaluation","1","70","","",""
"html-keyboard-response","188","1089896","0.0-5.0-2.0-1.35","spark_pilot_2","7484","8","21","Male","","","","","","","","null","<div style=""font-size:60px;"">+</div>","null","fixation","","","","","","","","","","","71","","",""
"revaluation","189","1093900","0.0-5.0-2.0-0.36","spark_pilot_2","7484","8","21","Male","","false","","","","","","[685]","./assets/img/canyon/catch/4.jpg","[""spaceBar""]","value training","canyon","0","{""ArrowUp,ArrowLeft"":26,""ArrowUp,ArrowRight"":10,""ArrowDown,ArrowLeft"":5,""ArrowDown,ArrowRight"":17}","true","spaceBar","true","","","revaluation","1","72","","",""
"html-keyboard-response","190","1094402","0.0-5.0-2.0-1.36","spark_pilot_2","7484","8","21","Male","","","","","","","","null","<div style=""font-size:60px;"">+</div>","null","fixation","","","","","","","","","","","73","","",""
"revaluation","191","1100407","0.0-5.0-2.0-0.37","spark_pilot_2","7484","8","21","Male","","false","","","","","","[661,490]","./assets/img/canyon/memory/36.jpg","[""ArrowUp"",""ArrowLeft""]","value training","canyon","26","{""ArrowUp,ArrowLeft"":26,""ArrowUp,ArrowRight"":10,""ArrowDown,ArrowLeft"":5,""ArrowDown,ArrowRight"":17}","true","ArrowUp,ArrowLeft","false","","","revaluation","1","74","","",""
"html-keyboard-response","192","1100909","0.0-5.0-2.0-1.37","spark_pilot_2","7484","8","21","Male","","","","","","","","null","<div style=""font-size:60px;"">+</div>","null","fixation","","","","","","","","","","","75","","",""
"revaluation","193","1106915","0.0-5.0-2.0-0.38","spark_pilot_2","7484","8","21","Male","","false","","","","","","[539,291]","./assets/img/canyon/memory/2.jpg","[""ArrowUp"",""ArrowLeft""]","value training","canyon","26","{""ArrowUp,ArrowLeft"":26,""ArrowUp,ArrowRight"":10,""ArrowDown,ArrowLeft"":5,""ArrowDown,ArrowRight"":17}","true","ArrowUp,ArrowLeft","false","","","revaluation","1","76","","",""
"html-keyboard-response","194","1107417","0.0-5.0-2.0-1.38","spark_pilot_2","7484","8","21","Male","","","","","","","","null","<div style=""font-size:60px;"">+</div>","null","fixation","","","","","","","","","","","77","","",""
"revaluation","195","1113422","0.0-5.0-2.0-0.39","spark_pilot_2","7484","8","21","Male","","false","","","","","","[610,239.00000000023283]","./assets/img/canyon/memory/34.jpg","[""ArrowUp"",""ArrowLeft""]","value training","canyon","26","{""ArrowUp,ArrowLeft"":26,""ArrowUp,ArrowRight"":10,""ArrowDown,ArrowLeft"":5,""ArrowDown,ArrowRight"":17}","true","ArrowUp,ArrowLeft","false","","","revaluation","1","78","","",""
"html-keyboard-response","196","1113924","0.0-5.0-2.0-1.39","spark_pilot_2","7484","8","21","Male","","","","","","","","null","<div style=""font-size:60px;"">+</div>","null","fixation","","","","","","","","","","","79","","",""
"revaluation","197","1119929","0.0-5.0-2.0-0.40","spark_pilot_2","7484","8","21","Male","","false","","","","","","[494,298]","./assets/img/canyon/memory/20.jpg","[""ArrowUp"",""ArrowLeft""]","value training","canyon","26","{""ArrowUp,ArrowLeft"":26,""ArrowUp,ArrowRight"":10,""ArrowDown,ArrowLeft"":5,""ArrowDown,ArrowRight"":17}","true","ArrowUp,ArrowLeft","false","","","revaluation","1","80","","",""
"html-keyboard-response","198","1120431","0.0-5.0-2.0-1.40","spark_pilot_2","7484","8","21","Male","","","","","","","","null","<div style=""font-size:60px;"">+</div>","null","fixation","","","","","","","","","","","81","","",""
"revaluation","199","1126436","0.0-5.0-2.0-0.41","spark_pilot_2","7484","8","21","Male","","false","","","","","","[421,250]","./assets/img/canyon/memory/6.jpg","[""ArrowUp"",""ArrowLeft""]","value training","canyon","26","{""ArrowUp,ArrowLeft"":26,""ArrowUp,ArrowRight"":10,""ArrowDown,ArrowLeft"":5,""ArrowDown,ArrowRight"":17}","true","ArrowUp,ArrowLeft","false","","","revaluation","1","82","","",""
"html-keyboard-response","200","1126938","0.0-5.0-2.0-1.41","spark_pilot_2","7484","8","21","Male","","","","","","","","null","<div style=""font-size:60px;"">+</div>","null","fixation","","","","","","","","","","","83","","",""
"revaluation","201","1132944","0.0-5.0-2.0-0.42","spark_pilot_2","7484","8","21","Male","","false","","","","","","[520,150]","./assets/img/canyon/memory/19.jpg","[""ArrowUp"",""ArrowLeft""]","value training","canyon","26","{""ArrowUp,ArrowLeft"":26,""ArrowUp,ArrowRight"":10,""ArrowDown,ArrowLeft"":5,""ArrowDown,ArrowRight"":17}","true","ArrowUp,ArrowLeft","false","","","revaluation","1","84","","",""
"html-keyboard-response","202","1133446","0.0-5.0-2.0-1.42","spark_pilot_2","7484","8","21","Male","","","","","","","","null","<div style=""font-size:60px;"">+</div>","null","fixation","","","","","","","","","","","85","","",""
"revaluation","203","1139451","0.0-5.0-2.0-0.43","spark_pilot_2","7484","8","21","Male","","false","","","","","","[556,797]","./assets/img/canyon/memory/20.jpg","[""ArrowUp"",""ArrowLeft""]","value training","canyon","26","{""ArrowUp,ArrowLeft"":26,""ArrowUp,ArrowRight"":10,""ArrowDown,ArrowLeft"":5,""ArrowDown,ArrowRight"":17}","true","ArrowUp,ArrowLeft","false","","","revaluation","1","86","","",""
"html-keyboard-response","204","1139953","0.0-5.0-2.0-1.43","spark_pilot_2","7484","8","21","Male","","","","","","","","null","<div style=""font-size:60px;"">+</div>","null","fixation","","","","","","","","","","","87","","",""
"revaluation","205","1145959","0.0-5.0-2.0-0.44","spark_pilot_2","7484","8","21","Male","","false","","","","","","[499,395.99999999976717]","./assets/img/canyon/memory/38.jpg","[""ArrowUp"",""ArrowLeft""]","value training","canyon","26","{""ArrowUp,ArrowLeft"":26,""ArrowUp,ArrowRight"":10,""ArrowDown,ArrowLeft"":5,""ArrowDown,ArrowRight"":17}","true","ArrowUp,ArrowLeft","false","","","revaluation","1","88","","",""
"html-keyboard-response","206","1146461","0.0-5.0-2.0-1.44","spark_pilot_2","7484","8","21","Male","","","","","","","","null","<div style=""font-size:60px;"">+</div>","null","fixation","","","","","","","","","","","89","","",""
"revaluation","207","1152466","0.0-5.0-2.0-0.45","spark_pilot_2","7484","8","21","Male","","false","","","","","","[478,429]","./assets/img/canyon/memory/35.jpg","[""ArrowUp"",""ArrowLeft""]","value training","canyon","26","{""ArrowUp,ArrowLeft"":26,""ArrowUp,ArrowRight"":10,""ArrowDown,ArrowLeft"":5,""ArrowDown,ArrowRight"":17}","true","ArrowUp,ArrowLeft","false","","","revaluation","1","90","","",""
"html-keyboard-response","208","1152967","0.0-5.0-2.0-1.45","spark_pilot_2","7484","8","21","Male","","","","","","","","null","<div style=""font-size:60px;"">+</div>","null","fixation","","","","","","","","","","","91","","",""
"revaluation","209","1158972","0.0-5.0-2.0-0.46","spark_pilot_2","7484","8","21","Male","","false","","","","","","[462,458]","./assets/img/canyon/memory/33.jpg","[""ArrowUp"",""ArrowLeft""]","value training","canyon","26","{""ArrowUp,ArrowLeft"":26,""ArrowUp,ArrowRight"":10,""ArrowDown,ArrowLeft"":5,""ArrowDown,ArrowRight"":17}","true","ArrowUp,ArrowLeft","false","","","revaluation","1","92","","",""
"html-keyboard-response","210","1159474","0.0-5.0-2.0-1.46","spark_pilot_2","7484","8","21","Male","","","","","","","","null","<div style=""font-size:60px;"">+</div>","null","fixation","","","","","","","","","","","93","","",""
"revaluation","211","1165479","0.0-5.0-2.0-0.47","spark_pilot_2","7484","8","21","Male","","false","","","","","","[585,497]","./assets/img/canyon/memory/37.jpg","[""ArrowUp"",""ArrowLeft""]","value training","canyon","26","{""ArrowUp,ArrowLeft"":26,""ArrowUp,ArrowRight"":10,""ArrowDown,ArrowLeft"":5,""ArrowDown,ArrowRight"":17}","true","ArrowUp,ArrowLeft","false","","","revaluation","1","94","","",""
"html-keyboard-response","212","1165981","0.0-5.0-2.0-1.47","spark_pilot_2","7484","8","21","Male","","","","","","","","null","<div style=""font-size:60px;"">+</div>","null","fixation","","","","","","","","","","","95","","",""
"revaluation","213","1171987","0.0-5.0-2.0-0.48","spark_pilot_2","7484","8","21","Male","","false","","","","","","[628,513]","./assets/img/canyon/memory/41.jpg","[""ArrowUp"",""ArrowRight""]","value training","canyon","10","{""ArrowUp,ArrowLeft"":26,""ArrowUp,ArrowRight"":10,""ArrowDown,ArrowLeft"":5,""ArrowDown,ArrowRight"":17}","false","ArrowUp,ArrowRight","false","","","revaluation","1","96","","",""
"html-keyboard-response","214","1172489","0.0-5.0-2.0-1.48","spark_pilot_2","7484","8","21","Male","","","","","","","","null","<div style=""font-size:60px;"">+</div>","null","fixation","","","","","","","","","","","97","","",""
"revaluation","215","1178494","0.0-5.0-2.0-0.49","spark_pilot_2","7484","8","21","Male","","false","","","","","","[533,282]","./assets/img/canyon/memory/1.jpg","[""ArrowUp"",""ArrowLeft""]","value training","canyon","26","{""ArrowUp,ArrowLeft"":26,""ArrowUp,ArrowRight"":10,""ArrowDown,ArrowLeft"":5,""ArrowDown,ArrowRight"":17}","true","ArrowUp,ArrowLeft","false","","","revaluation","1","98","","",""
"html-keyboard-response","216","1178996","0.0-5.0-2.0-1.49","spark_pilot_2","7484","8","21","Male","","","","","","","","null","<div style=""font-size:60px;"">+</div>","null","fixation","","","","","","","","","","","99","","",""
"learning-instructions","217","1192608","0.0-5.0-3.0-0.0","spark_pilot_2","7484","8","21","Male","","","","","","","","728.9999999997672","<p> Now, you will travel with a friend who will choose whether you go up or down first. </p>
            <p> On these turns, you will just see the animal that they found. You will still get to choose which chest to search for treasure.</p>","","instructions","","","","","","","","","","","","","",""
"revaluation","218","1196611","0.0-5.0-4.0-0.0","spark_pilot_2","7484","8","21","Male","","false","","","","","","[623]","./assets/img/canyon/animals/lion.jpg","[""ArrowLeft""]","revaluation","canyon","8","{""ArrowUp,ArrowLeft"":2,""ArrowUp,ArrowRight"":11,""ArrowDown,ArrowLeft"":8,""ArrowDown,ArrowRight"":27}","false","ArrowDown,ArrowLeft","","","","revaluation","1","0","","",""
"html-keyboard-response","219","1197115","0.0-5.0-4.0-1.0","spark_pilot_2","7484","8","21","Male","","","","","","","","null","<div style=""font-size:60px;"">+</div>","null","fixation","","","","","","","","","","","1","","",""
"revaluation","220","1201119","0.0-5.0-4.0-0.1","spark_pilot_2","7484","8","21","Male","","false","","","","","","[712]","./assets/img/canyon/animals/lion.jpg","[""ArrowRight""]","revaluation","canyon","27","{""ArrowUp,ArrowLeft"":2,""ArrowUp,ArrowRight"":11,""ArrowDown,ArrowLeft"":8,""ArrowDown,ArrowRight"":27}","true","ArrowDown,ArrowRight","","","","revaluation","1","2","","",""
"html-keyboard-response","221","1201621","0.0-5.0-4.0-1.1","spark_pilot_2","7484","8","21","Male","","","","","","","","null","<div style=""font-size:60px;"">+</div>","null","fixation","","","","","","","","","","","3","","",""
"revaluation","222","1205625","0.0-5.0-4.0-0.2","spark_pilot_2","7484","8","21","Male","","false","","","","","","[550]","./assets/img/canyon/animals/lion.jpg","[""ArrowRight""]","revaluation","canyon","27","{""ArrowUp,ArrowLeft"":2,""ArrowUp,ArrowRight"":11,""ArrowDown,ArrowLeft"":8,""ArrowDown,ArrowRight"":27}","true","ArrowDown,ArrowRight","","","","revaluation","1","4","","",""
"html-keyboard-response","223","1206127","0.0-5.0-4.0-1.2","spark_pilot_2","7484","8","21","Male","","","","","","","","null","<div style=""font-size:60px;"">+</div>","null","fixation","","","","","","","","","","","5","","",""
"revaluation","224","1210131","0.0-5.0-4.0-0.3","spark_pilot_2","7484","8","21","Male","","false","","","","","","[788.9999999997672]","./assets/img/canyon/animals/giraffe.jpg","[""ArrowLeft""]","revaluation","canyon","2","{""ArrowUp,ArrowLeft"":2,""ArrowUp,ArrowRight"":11,""ArrowDown,ArrowLeft"":8,""ArrowDown,ArrowRight"":27}","false","ArrowUp,ArrowLeft","","","","revaluation","1","6","","",""
"html-keyboard-response","225","1210633","0.0-5.0-4.0-1.3","spark_pilot_2","7484","8","21","Male","","","","","","","","null","<div style=""font-size:60px;"">+</div>","null","fixation","","","","","","","","","","","7","","",""
"revaluation","226","1214637","0.0-5.0-4.0-0.4","spark_pilot_2","7484","8","21","Male","","false","","","","","","[657]","./assets/img/canyon/animals/lion.jpg","[""ArrowRight""]","revaluation","canyon","27","{""ArrowUp,ArrowLeft"":2,""ArrowUp,ArrowRight"":11,""ArrowDown,ArrowLeft"":8,""ArrowDown,ArrowRight"":27}","true","ArrowDown,ArrowRight","","","","revaluation","1","8","","",""
"html-keyboard-response","227","1215139","0.0-5.0-4.0-1.4","spark_pilot_2","7484","8","21","Male","","","","","","","","null","<div style=""font-size:60px;"">+</div>","null","fixation","","","","","","","","","","","9","","",""
"revaluation","228","1219143","0.0-5.0-4.0-0.5","spark_pilot_2","7484","8","21","Male","","false","","","","","","[729]","./assets/img/canyon/animals/lion.jpg","[""ArrowRight""]","revaluation","canyon","27","{""ArrowUp,ArrowLeft"":2,""ArrowUp,ArrowRight"":11,""ArrowDown,ArrowLeft"":8,""ArrowDown,ArrowRight"":27}","true","ArrowDown,ArrowRight","","","","revaluation","1","10","","",""
"html-keyboard-response","229","1219645","0.0-5.0-4.0-1.5","spark_pilot_2","7484","8","21","Male","","","","","","","","null","<div style=""font-size:60px;"">+</div>","null","fixation","","","","","","","","","","","11","","",""
"revaluation","230","1223649","0.0-5.0-4.0-0.6","spark_pilot_2","7484","8","21","Male","","false","","","","","","[458]","./assets/img/canyon/animals/lion.jpg","[""ArrowRight""]","revaluation","canyon","27","{""ArrowUp,ArrowLeft"":2,""ArrowUp,ArrowRight"":11,""ArrowDown,ArrowLeft"":8,""ArrowDown,ArrowRight"":27}","true","ArrowDown,ArrowRight","","","","revaluation","1","12","","",""
"html-keyboard-response","231","1224151","0.0-5.0-4.0-1.6","spark_pilot_2","7484","8","21","Male","","","","","","","","null","<div style=""font-size:60px;"">+</div>","null","fixation","","","","","","","","","","","13","","",""
"revaluation","232","1228155","0.0-5.0-4.0-0.7","spark_pilot_2","7484","8","21","Male","","false","","","","","","[423]","./assets/img/canyon/animals/lion.jpg","[""ArrowRight""]","revaluation","canyon","27","{""ArrowUp,ArrowLeft"":2,""ArrowUp,ArrowRight"":11,""ArrowDown,ArrowLeft"":8,""ArrowDown,ArrowRight"":27}","true","ArrowDown,ArrowRight","","","","revaluation","1","14","","",""
"html-keyboard-response","233","1228657","0.0-5.0-4.0-1.7","spark_pilot_2","7484","8","21","Male","","","","","","","","null","<div style=""font-size:60px;"">+</div>","null","fixation","","","","","","","","","","","15","","",""
"revaluation","234","1232662","0.0-5.0-4.0-0.8","spark_pilot_2","7484","8","21","Male","","false","","","","","","[480]","./assets/img/canyon/animals/giraffe.jpg","[""ArrowRight""]","revaluation","canyon","11","{""ArrowUp,ArrowLeft"":2,""ArrowUp,ArrowRight"":11,""ArrowDown,ArrowLeft"":8,""ArrowDown,ArrowRight"":27}","true","ArrowUp,ArrowRight","","","","revaluation","1","16","","",""
"html-keyboard-response","235","1233163","0.0-5.0-4.0-1.8","spark_pilot_2","7484","8","21","Male","","","","","","","","null","<div style=""font-size:60px;"">+</div>","null","fixation","","","","","","","","","","","17","","",""
"revaluation","236","1237167","0.0-5.0-4.0-0.9","spark_pilot_2","7484","8","21","Male","","false","","","","","","[503]","./assets/img/canyon/animals/giraffe.jpg","[""ArrowRight""]","revaluation","canyon","11","{""ArrowUp,ArrowLeft"":2,""ArrowUp,ArrowRight"":11,""ArrowDown,ArrowLeft"":8,""ArrowDown,ArrowRight"":27}","true","ArrowUp,ArrowRight","","","","revaluation","1","18","","",""
"html-keyboard-response","237","1237668","0.0-5.0-4.0-1.9","spark_pilot_2","7484","8","21","Male","","","","","","","","null","<div style=""font-size:60px;"">+</div>","null","fixation","","","","","","","","","","","19","","",""
"revaluation","238","1241672","0.0-5.0-4.0-0.10","spark_pilot_2","7484","8","21","Male","","false","","","","","","[475]","./assets/img/canyon/animals/giraffe.jpg","[""ArrowRight""]","revaluation","canyon","11","{""ArrowUp,ArrowLeft"":2,""ArrowUp,ArrowRight"":11,""ArrowDown,ArrowLeft"":8,""ArrowDown,ArrowRight"":27}","true","ArrowUp,ArrowRight","","","","revaluation","1","20","","",""
"html-keyboard-response","239","1242174","0.0-5.0-4.0-1.10","spark_pilot_2","7484","8","21","Male","","","","","","","","null","<div style=""font-size:60px;"">+</div>","null","fixation","","","","","","","","","","","21","","",""
"revaluation","240","1246178","0.0-5.0-4.0-0.11","spark_pilot_2","7484","8","21","Male","","false","","","","","","[508]","./assets/img/canyon/animals/lion.jpg","[""ArrowRight""]","revaluation","canyon","27","{""ArrowUp,ArrowLeft"":2,""ArrowUp,ArrowRight"":11,""ArrowDown,ArrowLeft"":8,""ArrowDown,ArrowRight"":27}","true","ArrowDown,ArrowRight","","","","revaluation","1","22","","",""
"html-keyboard-response","241","1246680","0.0-5.0-4.0-1.11","spark_pilot_2","7484","8","21","Male","","","","","","","","null","<div style=""font-size:60px;"">+</div>","null","fixation","","","","","","","","","","","23","","",""
"revaluation","242","1250684","0.0-5.0-4.0-0.12","spark_pilot_2","7484","8","21","Male","","false","","","","","","[426]","./assets/img/canyon/animals/giraffe.jpg","[""ArrowRight""]","revaluation","canyon","11","{""ArrowUp,ArrowLeft"":2,""ArrowUp,ArrowRight"":11,""ArrowDown,ArrowLeft"":8,""ArrowDown,ArrowRight"":27}","true","ArrowUp,ArrowRight","","","","revaluation","1","24","","",""
"html-keyboard-response","243","1251186","0.0-5.0-4.0-1.12","spark_pilot_2","7484","8","21","Male","","","","","","","","null","<div style=""font-size:60px;"">+</div>","null","fixation","","","","","","","","","","","25","","",""
"revaluation","244","1255190","0.0-5.0-4.0-0.13","spark_pilot_2","7484","8","21","Male","","false","","","","","","[447]","./assets/img/canyon/animals/lion.jpg","[""ArrowRight""]","revaluation","canyon","27","{""ArrowUp,ArrowLeft"":2,""ArrowUp,ArrowRight"":11,""ArrowDown,ArrowLeft"":8,""ArrowDown,ArrowRight"":27}","true","ArrowDown,ArrowRight","","","","revaluation","1","26","","",""
"html-keyboard-response","245","1255692","0.0-5.0-4.0-1.13","spark_pilot_2","7484","8","21","Male","","","","","","","","null","<div style=""font-size:60px;"">+</div>","null","fixation","","","","","","","","","","","27","","",""
"revaluation","246","1259697","0.0-5.0-4.0-0.14","spark_pilot_2","7484","8","21","Male","","false","","","","","","[517]","./assets/img/canyon/animals/giraffe.jpg","[""ArrowRight""]","revaluation","canyon","11","{""ArrowUp,ArrowLeft"":2,""ArrowUp,ArrowRight"":11,""ArrowDown,ArrowLeft"":8,""ArrowDown,ArrowRight"":27}","true","ArrowUp,ArrowRight","","","","revaluation","1","28","","",""
"html-keyboard-response","247","1260199","0.0-5.0-4.0-1.14","spark_pilot_2","7484","8","21","Male","","","","","","","","null","<div style=""font-size:60px;"">+</div>","null","fixation","","","","","","","","","","","29","","",""
"revaluation","248","1264203","0.0-5.0-4.0-0.15","spark_pilot_2","7484","8","21","Male","","false","","","","","","[871]","./assets/img/canyon/animals/giraffe.jpg","[""ArrowRight""]","revaluation","canyon","11","{""ArrowUp,ArrowLeft"":2,""ArrowUp,ArrowRight"":11,""ArrowDown,ArrowLeft"":8,""ArrowDown,ArrowRight"":27}","true","ArrowUp,ArrowRight","","","","revaluation","1","30","","",""
"html-keyboard-response","249","1264704","0.0-5.0-4.0-1.15","spark_pilot_2","7484","8","21","Male","","","","","","","","null","<div style=""font-size:60px;"">+</div>","null","fixation","","","","","","","","","","","31","","",""
"revaluation","250","1268709","0.0-5.0-4.0-0.16","spark_pilot_2","7484","8","21","Male","","false","","","","","","[364.00000000023283]","./assets/img/canyon/animals/giraffe.jpg","[""ArrowLeft""]","revaluation","canyon","2","{""ArrowUp,ArrowLeft"":2,""ArrowUp,ArrowRight"":11,""ArrowDown,ArrowLeft"":8,""ArrowDown,ArrowRight"":27}","false","ArrowUp,ArrowLeft","","","","revaluation","1","32","","",""
"html-keyboard-response","251","1269211","0.0-5.0-4.0-1.16","spark_pilot_2","7484","8","21","Male","","","","","","","","null","<div style=""font-size:60px;"">+</div>","null","fixation","","","","","","","","","","","33","","",""
"revaluation","252","1273215","0.0-5.0-4.0-0.17","spark_pilot_2","7484","8","21","Male","","false","","","","","","[836]","./assets/img/canyon/animals/giraffe.jpg","[""ArrowRight""]","revaluation","canyon","11","{""ArrowUp,ArrowLeft"":2,""ArrowUp,ArrowRight"":11,""ArrowDown,ArrowLeft"":8,""ArrowDown,ArrowRight"":27}","true","ArrowUp,ArrowRight","","","","revaluation","1","34","","",""
"html-keyboard-response","253","1273717","0.0-5.0-4.0-1.17","spark_pilot_2","7484","8","21","Male","","","","","","","","null","<div style=""font-size:60px;"">+</div>","null","fixation","","","","","","","","","","","35","","",""
"learning-instructions","254","1287210","0.0-5.0-5.0-0.0","spark_pilot_2","7484","8","21","Male","","","","","","","","2181","<p> Time to play the dot game! </p>
            <p> For one minute, click the red dots on the following screen as they appear. </p>
            <p><b> Don't look away, as you will earn bonus for clicking dots</b>. </p>","","instructions","","","","","","","","","","","","","",""
"revaluation","255","1347212","0.0-5.0-6.0-0.0","spark_pilot_2","7484","8","21","Male","","","","","","","","[64,62,69,55,56,44]","","","rest","","60","","","","","0","60000","","","","","",""
"learning-instructions","256","1357079","0.0-5.0-7.0-0.0","spark_pilot_2","7484","8","21","Male","","","","","","","","3765.000000000233","<p> You have almost finished this part of the game! </p>
            <p> We are going to ask you to make a few more choices. </p>","","instructions","","","","","","","","","","","","","",""
"learning-instructions","257","1373540","0.0-5.0-7.0-0.1","spark_pilot_2","7484","8","21","Male","","","","","","","","2488","<p> First, you need to decide whether to go up or down. When you see each picture, use the arrow keys to make your choice. </p>
            <p><b>You will not see which animal you found, but try to get to the one that will give you the most treasure.</b></p>","","instructions","","","","","","","","","","","","","",""
"revaluation","258","1375062","0.0-5.0-8.0-0.0","spark_pilot_2","7484","8","21","Male","","false","","","","","","[1520]","./assets/img/canyon/test/0.jpg","[""ArrowUp""]","first stage test","canyon","0","{""ArrowUp,ArrowLeft"":2,""ArrowUp,ArrowRight"":11,""ArrowDown,ArrowLeft"":8,""ArrowDown,ArrowRight"":27}","false","ArrowUp","false","","","revaluation","1","","","",""
"html-keyboard-response","259","1375564","0.0-5.0-8.0-1.0","spark_pilot_2","7484","8","21","Male","","","","","","","","null","<div style=""font-size:60px;"">+</div>","null","fixation","","","","","","","","","","","","","",""
"revaluation","260","1376511","0.0-5.0-8.0-0.1","spark_pilot_2","7484","8","21","Male","","false","","","","","","[945.0000000002328]","./assets/img/canyon/test/3.jpg","[""ArrowUp""]","first stage test","canyon","0","{""ArrowUp,ArrowLeft"":2,""ArrowUp,ArrowRight"":11,""ArrowDown,ArrowLeft"":8,""ArrowDown,ArrowRight"":27}","false","ArrowUp","false","","","revaluation","1","","","",""
"html-keyboard-response","261","1377013","0.0-5.0-8.0-1.1","spark_pilot_2","7484","8","21","Male","","","","","","","","null","<div style=""font-size:60px;"">+</div>","null","fixation","","","","","","","","","","","","","",""
"revaluation","262","1377739","0.0-5.0-8.0-0.2","spark_pilot_2","7484","8","21","Male","","false","","","","","","[725]","./assets/img/canyon/test/1.jpg","[""ArrowUp""]","first stage test","canyon","0","{""ArrowUp,ArrowLeft"":2,""ArrowUp,ArrowRight"":11,""ArrowDown,ArrowLeft"":8,""ArrowDown,ArrowRight"":27}","false","ArrowUp","false","","","revaluation","1","","","",""
"html-keyboard-response","263","1378240","0.0-5.0-8.0-1.2","spark_pilot_2","7484","8","21","Male","","","","","","","","null","<div style=""font-size:60px;"">+</div>","null","fixation","","","","","","","","","","","","","",""
"revaluation","264","1379036","0.0-5.0-8.0-0.3","spark_pilot_2","7484","8","21","Male","","false","","","","","","[793.9999999997672]","./assets/img/canyon/test/2.jpg","[""ArrowUp""]","first stage test","canyon","0","{""ArrowUp,ArrowLeft"":2,""ArrowUp,ArrowRight"":11,""ArrowDown,ArrowLeft"":8,""ArrowDown,ArrowRight"":27}","false","ArrowUp","false","","","revaluation","1","","","",""
"html-keyboard-response","265","1379538","0.0-5.0-8.0-1.3","spark_pilot_2","7484","8","21","Male","","","","","","","","null","<div style=""font-size:60px;"">+</div>","null","fixation","","","","","","","","","","","","","",""
"learning-instructions","266","1393827","0.0-5.0-9.0-0.0","spark_pilot_2","7484","8","21","Male","","","","","","","","2949","<p> Now you will see the animals again and can search their chests for treasure. </p>
            <p> This time, you will not see how much treasure you earned, but you will earn more bonus money for making better choices. </p>","","instructions","","","","","","","","","","","","","",""
"revaluation","267","1394570","0.0-5.0-10.0-0.0","spark_pilot_2","7484","8","21","Male","","false","","","","","","[742]","./assets/img/canyon/animals/giraffe.jpg","[""ArrowLeft""]","second stage test","canyon","0","{""ArrowUp,ArrowLeft"":2,""ArrowUp,ArrowRight"":11,""ArrowDown,ArrowLeft"":8,""ArrowDown,ArrowRight"":27}","false","ArrowUp,ArrowLeft","","","","revaluation","1","","","",""
"html-keyboard-response","268","1395072","0.0-5.0-10.0-1.0","spark_pilot_2","7484","8","21","Male","","","","","","","","null","<div style=""font-size:60px;"">+</div>","null","fixation","","","","","","","","","","","","","",""
"revaluation","269","1396247","0.0-5.0-10.0-0.1","spark_pilot_2","7484","8","21","Male","","false","","","","","","[1173]","./assets/img/canyon/animals/giraffe.jpg","[""ArrowLeft""]","second stage test","canyon","0","{""ArrowUp,ArrowLeft"":2,""ArrowUp,ArrowRight"":11,""ArrowDown,ArrowLeft"":8,""ArrowDown,ArrowRight"":27}","false","ArrowUp,ArrowLeft","","","","revaluation","1","","","",""
"html-keyboard-response","270","1396749","0.0-5.0-10.0-1.1","spark_pilot_2","7484","8","21","Male","","","","","","","","null","<div style=""font-size:60px;"">+</div>","null","fixation","","","","","","","","","","","","","",""
"revaluation","271","1397154","0.0-5.0-10.0-0.2","spark_pilot_2","7484","8","21","Male","","false","","","","","","[403]","./assets/img/canyon/animals/giraffe.jpg","[""ArrowLeft""]","second stage test","canyon","0","{""ArrowUp,ArrowLeft"":2,""ArrowUp,ArrowRight"":11,""ArrowDown,ArrowLeft"":8,""ArrowDown,ArrowRight"":27}","false","ArrowUp,ArrowLeft","","","","revaluation","1","","","",""
"html-keyboard-response","272","1397655","0.0-5.0-10.0-1.2","spark_pilot_2","7484","8","21","Male","","","","","","","","null","<div style=""font-size:60px;"">+</div>","null","fixation","","","","","","","","","","","","","",""
"revaluation","273","1398040","0.0-5.0-10.0-0.3","spark_pilot_2","7484","8","21","Male","","false","","","","","","[383.00000000023283]","./assets/img/canyon/animals/giraffe.jpg","[""ArrowLeft""]","second stage test","canyon","0","{""ArrowUp,ArrowLeft"":2,""ArrowUp,ArrowRight"":11,""ArrowDown,ArrowLeft"":8,""ArrowDown,ArrowRight"":27}","false","ArrowUp,ArrowLeft","","","","revaluation","1","","","",""
"html-keyboard-response","274","1398542","0.0-5.0-10.0-1.3","spark_pilot_2","7484","8","21","Male","","","","","","","","null","<div style=""font-size:60px;"">+</div>","null","fixation","","","","","","","","","","","","","",""
"revaluation","275","1399325","0.0-5.0-10.0-0.4","spark_pilot_2","7484","8","21","Male","","false","","","","","","[781]","./assets/img/canyon/animals/lion.jpg","[""ArrowRight""]","second stage test","canyon","0","{""ArrowUp,ArrowLeft"":2,""ArrowUp,ArrowRight"":11,""ArrowDown,ArrowLeft"":8,""ArrowDown,ArrowRight"":27}","true","ArrowDown,ArrowRight","","","","revaluation","1","","","",""
"html-keyboard-response","276","1399826","0.0-5.0-10.0-1.4","spark_pilot_2","7484","8","21","Male","","","","","","","","null","<div style=""font-size:60px;"">+</div>","null","fixation","","","","","","","","","","","","","",""
"revaluation","277","1400442","0.0-5.0-10.0-0.5","spark_pilot_2","7484","8","21","Male","","false","","","","","","[614]","./assets/img/canyon/animals/lion.jpg","[""ArrowRight""]","second stage test","canyon","0","{""ArrowUp,ArrowLeft"":2,""ArrowUp,ArrowRight"":11,""ArrowDown,ArrowLeft"":8,""ArrowDown,ArrowRight"":27}","true","ArrowDown,ArrowRight","","","","revaluation","1","","","",""
"html-keyboard-response","278","1400943","0.0-5.0-10.0-1.5","spark_pilot_2","7484","8","21","Male","","","","","","","","null","<div style=""font-size:60px;"">+</div>","null","fixation","","","","","","","","","","","","","",""
"revaluation","279","1401478","0.0-5.0-10.0-0.6","spark_pilot_2","7484","8","21","Male","","false","","","","","","[532]","./assets/img/canyon/animals/lion.jpg","[""ArrowRight""]","second stage test","canyon","0","{""ArrowUp,ArrowLeft"":2,""ArrowUp,ArrowRight"":11,""ArrowDown,ArrowLeft"":8,""ArrowDown,ArrowRight"":27}","true","ArrowDown,ArrowRight","","","","revaluation","1","","","",""
"html-keyboard-response","280","1401980","0.0-5.0-10.0-1.6","spark_pilot_2","7484","8","21","Male","","","","","","","","null","<div style=""font-size:60px;"">+</div>","null","fixation","","","","","","","","","","","","","",""
"revaluation","281","1402419","0.0-5.0-10.0-0.7","spark_pilot_2","7484","8","21","Male","","false","","","","","","[438]","./assets/img/canyon/animals/lion.jpg","[""ArrowRight""]","second stage test","canyon","0","{""ArrowUp,ArrowLeft"":2,""ArrowUp,ArrowRight"":11,""ArrowDown,ArrowLeft"":8,""ArrowDown,ArrowRight"":27}","true","ArrowDown,ArrowRight","","","","revaluation","1","","","",""
"html-keyboard-response","282","1402920","0.0-5.0-10.0-1.7","spark_pilot_2","7484","8","21","Male","","","","","","","","null","<div style=""font-size:60px;"">+</div>","null","fixation","","","","","","","","","","","","","",""
"learning-instructions","283","1407614","0.0-5.0-0.1-0.2","spark_pilot_2","7484","8","21","Male","","","","","","","","2000","<p> This time you are searching for treasure in the <b>ocean</b>.</p>","","instructions","","","","","","","","","","","","","",""
"learning-instructions","284","1432647","0.0-5.0-0.1-0.3","spark_pilot_2","7484","8","21","Male","","","","","","","","7781","<p><b>New</b> animals with <b>new</b> treasure chests live here. You need to explore to discover where the animal with the best treasure chest is.</p>
                    <p> Like before, once you figure out which animal has the chest with the most treasure, you should try to get to that animal and select that chest! </p>","","instructions","","","","","","","","","","","","","",""
"learning-instructions","285","1449793","0.0-5.0-1.1-0.1","spark_pilot_2","7484","8","21","Male","","","","","","","","2415","<p> Remember, when you see a picture of the place, use the up and down keys to <b>find an animal</b>.</p>
            <p> When you encounter an animal, you should use the left and right keys to <b>select a treasure chest</b>.</p>
            <p> Don't forget to look out for the robber! </p>","","instructions","","","","","","","","","","","","","",""
"revaluation","286","1455797","0.0-5.0-2.1-0.50","spark_pilot_2","7484","8","21","Male","","false","","","","","","[794.0000000002328,404]","./assets/img/ocean/memory/19.jpg","[""ArrowUp"",""ArrowLeft""]","value training","ocean","23","{""ArrowUp,ArrowLeft"":23,""ArrowUp,ArrowRight"":10,""ArrowDown,ArrowLeft"":8,""ArrowDown,ArrowRight"":30}","false","ArrowUp,ArrowLeft","false","","","original","2","0","","",""
"html-keyboard-response","287","1456299","0.0-5.0-2.1-1.50","spark_pilot_2","7484","8","21","Male","","","","","","","","null","<div style=""font-size:60px;"">+</div>","null","fixation","","","","","","","","","","","1","","",""
"revaluation","288","1462305","0.0-5.0-2.1-0.51","spark_pilot_2","7484","8","21","Male","","false","","","","","","[824,573]","./assets/img/ocean/memory/40.jpg","[""ArrowUp"",""ArrowRight""]","value training","ocean","10","{""ArrowUp,ArrowLeft"":23,""ArrowUp,ArrowRight"":10,""ArrowDown,ArrowLeft"":8,""ArrowDown,ArrowRight"":30}","false","ArrowUp,ArrowRight","false","","","original","2","2","","",""
"html-keyboard-response","289","1462807","0.0-5.0-2.1-1.51","spark_pilot_2","7484","8","21","Male","","","","","","","","null","<div style=""font-size:60px;"">+</div>","null","fixation","","","","","","","","","","","3","","",""
"revaluation","290","1468812","0.0-5.0-2.1-0.52","spark_pilot_2","7484","8","21","Male","","false","","","","","","[526.9999999997672,322.99999999976717]","./assets/img/ocean/memory/34.jpg","[""ArrowDown"",""ArrowLeft""]","value training","ocean","8","{""ArrowUp,ArrowLeft"":23,""ArrowUp,ArrowRight"":10,""ArrowDown,ArrowLeft"":8,""ArrowDown,ArrowRight"":30}","false","ArrowDown,ArrowLeft","false","","","original","2","4","","",""
"html-keyboard-response","291","1469314","0.0-5.0-2.1-1.52","spark_pilot_2","7484","8","21","Male","","","","","","","","null","<div style=""font-size:60px;"">+</div>","null","fixation","","","","","","","","","","","5","","",""
"revaluation","292","1475320","0.0-5.0-2.1-0.53","spark_pilot_2","7484","8","21","Male","","false","","","","","","[475,288]","./assets/img/ocean/memory/37.jpg","[""ArrowDown"",""ArrowRight""]","value training","ocean","30","{""ArrowUp,ArrowLeft"":23,""ArrowUp,ArrowRight"":10,""ArrowDown,ArrowLeft"":8,""ArrowDown,ArrowRight"":30}","true","ArrowDown,ArrowRight","false","","","original","2","6","","",""
"html-keyboard-response","293","1475821","0.0-5.0-2.1-1.53","spark_pilot_2","7484","8","21","Male","","","","","","","","null","<div style=""font-size:60px;"">+</div>","null","fixation","","","","","","","","","","","7","","",""
"revaluation","294","1481827","0.0-5.0-2.1-0.54","spark_pilot_2","7484","8","21","Male","","false","","","","","","[574,248]","./assets/img/ocean/memory/2.jpg","[""ArrowDown"",""ArrowRight""]","value training","ocean","30","{""ArrowUp,ArrowLeft"":23,""ArrowUp,ArrowRight"":10,""ArrowDown,ArrowLeft"":8,""ArrowDown,ArrowRight"":30}","true","ArrowDown,ArrowRight","false","","","original","2","8","","",""
"html-keyboard-response","295","1482329","0.0-5.0-2.1-1.54","spark_pilot_2","7484","8","21","Male","","","","","","","","null","<div style=""font-size:60px;"">+</div>","null","fixation","","","","","","","","","","","9","","",""
"revaluation","296","1488334","0.0-5.0-2.1-0.55","spark_pilot_2","7484","8","21","Male","","false","","","","","","[605,126]","./assets/img/ocean/memory/33.jpg","[""ArrowDown"",""ArrowRight""]","value training","ocean","30","{""ArrowUp,ArrowLeft"":23,""ArrowUp,ArrowRight"":10,""ArrowDown,ArrowLeft"":8,""ArrowDown,ArrowRight"":30}","true","ArrowDown,ArrowRight","false","","","original","2","10","","",""
"html-keyboard-response","297","1488836","0.0-5.0-2.1-1.55","spark_pilot_2","7484","8","21","Male","","","","","","","","null","<div style=""font-size:60px;"">+</div>","null","fixation","","","","","","","","","","","11","","",""
"revaluation","298","1494842","0.0-5.0-2.1-0.56","spark_pilot_2","7484","8","21","Male","","false","","","","","","[602.9999999997672,119]","./assets/img/ocean/memory/7.jpg","[""ArrowUp"",""ArrowLeft""]","value training","ocean","23","{""ArrowUp,ArrowLeft"":23,""ArrowUp,ArrowRight"":10,""ArrowDown,ArrowLeft"":8,""ArrowDown,ArrowRight"":30}","false","ArrowUp,ArrowLeft","false","","","original","2","12","","",""
"html-keyboard-response","299","1495343","0.0-5.0-2.1-1.56","spark_pilot_2","7484","8","21","Male","","","","","","","","null","<div style=""font-size:60px;"">+</div>","null","fixation","","","","","","","","","","","13","","",""
"revaluation","300","1501349","0.0-5.0-2.1-0.57","spark_pilot_2","7484","8","21","Male","","false","","","","","","[479,299.00000000023283]","./assets/img/ocean/memory/2.jpg","[""ArrowDown"",""ArrowRight""]","value training","ocean","30","{""ArrowUp,ArrowLeft"":23,""ArrowUp,ArrowRight"":10,""ArrowDown,ArrowLeft"":8,""ArrowDown,ArrowRight"":30}","true","ArrowDown,ArrowRight","false","","","original","2","14","","",""
"html-keyboard-response","301","1501851","0.0-5.0-2.1-1.57","spark_pilot_2","7484","8","21","Male","","","","","","","","null","<div style=""font-size:60px;"">+</div>","null","fixation","","","","","","","","","","","15","","",""
"revaluation","302","1507856","0.0-5.0-2.1-0.58","spark_pilot_2","7484","8","21","Male","","false","","","","","","[706.0000000002328,504.00000000023283]","./assets/img/ocean/memory/4.jpg","[""ArrowDown"",""ArrowRight""]","value training","ocean","30","{""ArrowUp,ArrowLeft"":23,""ArrowUp,ArrowRight"":10,""ArrowDown,ArrowLeft"":8,""ArrowDown,ArrowRight"":30}","true","ArrowDown,ArrowRight","false","","","original","2","16","","",""
"html-keyboard-response","303","1508358","0.0-5.0-2.1-1.58","spark_pilot_2","7484","8","21","Male","","","","","","","","null","<div style=""font-size:60px;"">+</div>","null","fixation","","","","","","","","","","","17","","",""
"revaluation","304","1514363","0.0-5.0-2.1-0.59","spark_pilot_2","7484","8","21","Male","","false","","","","","","[706,285]","./assets/img/ocean/memory/35.jpg","[""ArrowDown"",""ArrowRight""]","value training","ocean","30","{""ArrowUp,ArrowLeft"":23,""ArrowUp,ArrowRight"":10,""ArrowDown,ArrowLeft"":8,""ArrowDown,ArrowRight"":30}","true","ArrowDown,ArrowRight","false","","","original","2","18","","",""
"html-keyboard-response","305","1514865","0.0-5.0-2.1-1.59","spark_pilot_2","7484","8","21","Male","","","","","","","","null","<div style=""font-size:60px;"">+</div>","null","fixation","","","","","","","","","","","19","","",""
"revaluation","306","1520871","0.0-5.0-2.1-0.60","spark_pilot_2","7484","8","21","Male","","false","","","","","","[625,232]","./assets/img/ocean/memory/22.jpg","[""ArrowDown"",""ArrowRight""]","value training","ocean","30","{""ArrowUp,ArrowLeft"":23,""ArrowUp,ArrowRight"":10,""ArrowDown,ArrowLeft"":8,""ArrowDown,ArrowRight"":30}","true","ArrowDown,ArrowRight","false","","","original","2","20","","",""
"html-keyboard-response","307","1521373","0.0-5.0-2.1-1.60","spark_pilot_2","7484","8","21","Male","","","","","","","","null","<div style=""font-size:60px;"">+</div>","null","fixation","","","","","","","","","","","21","","",""
"revaluation","308","1527378","0.0-5.0-2.1-0.61","spark_pilot_2","7484","8","21","Male","","false","","","","","","[598.0000000002328,384.99999999976717]","./assets/img/ocean/memory/39.jpg","[""ArrowDown"",""ArrowRight""]","value training","ocean","30","{""ArrowUp,ArrowLeft"":23,""ArrowUp,ArrowRight"":10,""ArrowDown,ArrowLeft"":8,""ArrowDown,ArrowRight"":30}","true","ArrowDown,ArrowRight","false","","","original","2","22","","",""
"html-keyboard-response","309","1527880","0.0-5.0-2.1-1.61","spark_pilot_2","7484","8","21","Male","","","","","","","","null","<div style=""font-size:60px;"">+</div>","null","fixation","","","","","","","","","","","23","","",""
"revaluation","310","1533886","0.0-5.0-2.1-0.62","spark_pilot_2","7484","8","21","Male","","false","","","","","","[524,370]","./assets/img/ocean/memory/4.jpg","[""ArrowDown"",""ArrowRight""]","value training","ocean","30","{""ArrowUp,ArrowLeft"":23,""ArrowUp,ArrowRight"":10,""ArrowDown,ArrowLeft"":8,""ArrowDown,ArrowRight"":30}","true","ArrowDown,ArrowRight","false","","","original","2","24","","",""
