"trial_type","trial_index","time_elapsed","internal_node_id","task_version","subject_id","assigned_condition","age","gender","success","timeout","failed_images","failed_audio","failed_video","browser_interaction","rt","stimulus","response","task_part","environment","score","rewardMap","correct","fullState","isCatch","numberMissed","duration","condition","order","trial_num","key_press","ground_truth","bonus"
"pavlovia","0","1327","0.0-0.0","spark_pilot_2","7385","8","15","Female","","","","","","","","","","","","","","","","","","","","","","","",""
"preload","1","6862","0.0-1.0","spark_pilot_2","7385","8","15","Female","true","false","[]","[]","[]","[{""event"":""fullscreenenter"",""trial"":2,""time"":9907}]","","","","","","","","","","","","","","","","","",""
"fullscreen","2","10851","0.0-2.0","spark_pilot_2","7385","8","15","Female","true","","","","","","","","","","","","","","","","","","","","","","",""
"audio-button-response","3","12253","0.0-3.0-0.0-0.0","spark_pilot_2","7385","8","15","Female","","","","","","","1389","./assets/audio/audiotest/turtle.mp3","2","audio_test","","","","","","","","","","","","","",""
"learning-instructions","4","21935","0.0-3.0-1.0-0.0","spark_pilot_2","7385","8","15","Female","","","","","","","2683.199999809265","<p> Welcome! Please remember to stay in fullscreen mode and don't click away from the experiment. </p>","","instructions","","","","","","","","","","","","","",""
"learning-instructions","5","31826","0.0-3.0-1.0-0.1","spark_pilot_2","7385","8","15","Female","","","","","","","1464.6999998092651","<p> Today you will be playing a game to earn treasure. </p>
            <p> At the end of the experiment, you will earn a bonus based on how much treasure you find. </p>
            <img src='./assets/img/instructions/treasure.jpg' class='instructions-image'>","","instructions","","","","","","","","","","","","","",""
"learning-instructions","6","41301","0.0-3.0-1.0-0.2","spark_pilot_2","7385","8","15","Female","","","","","","","1199.2000002861023","<p> Animals have hidden treasure in treasure chests. </p>
            <p> You need to first find an animal and then choose which of their treasure chests to search. </p>
            <img src='./assets/img/space/animals/cat.jpg' class='instructions-image'>","","instructions","","","","","","","","","","","","","",""
"learning-instructions","7","55488","0.0-3.0-1.0-0.3","spark_pilot_2","7385","8","15","Female","","","","","","","1026.3000001907349","<p> In each round, you will search for treasure in a different place. In the real game, there will be two rounds. </p>
            <p> You will begin with a separate, practice round where you will search for treasure in outer space. </p>
            <img src='./assets/img/space/0.jpg' class='instructions-image'>","","instructions","","","","","","","","","","","","","",""
"learning-instructions","8","67779","0.0-3.0-1.0-0.4","spark_pilot_2","7385","8","15","Female","","","","","","","856.5","<p> On every turn, you will see a picture of the place that you are in, but the specific image may be different each time. </p>
            <p> For example, both of these images mean you are in outer space. </p>
            <img src='./assets/img/instructions/outerspace.jpg' class='instructions-image'>","","instructions","","","","","","","","","","","","","",""
"learning-instructions","9","77520","0.0-3.0-1.0-0.5","spark_pilot_2","7385","8","15","Female","","","","","","","1907.3000001907349","<p> You need to decide which direction to travel in. </p>
            <p> You can choose between going <b>up or down</b> by using the arrow keys. </p>
            <img src='./assets/img/instructions/updown.jpg' class='instructions-image'>","","instructions","","","","","","","","","","","","","",""
"learning-instructions","10","87237","0.0-3.0-1.0-0.6","spark_pilot_2","7385","8","15","Female","","","","","","","904.8999996185303","<p> You will have <b>2 seconds</b> to make your choice. </p>
            <p> If you do not make a choice within 2 seconds, you will not find an animal or earn treasure. </p>
            <img src='./assets/img/instructions/2seconds.jpg' class='instructions-image'>","","instructions","","","","","","","","","","","","","",""
"learning-instructions","11","95727","0.0-3.0-1.0-0.7","spark_pilot_2","7385","8","15","Female","","","","","","","1424.2000002861023","<p> Let’s try practicing that now! </p>
            <p> When you see a picture of the place you are in, press the <b>up</b> key to travel up. </p>
            <img src='./assets/img/instructions/pressUp.jpg' class='instructions-image'>","","instructions","","","","","","","","","","","","","",""
"revaluation","12","99749","0.0-3.0-2.0-0.0","spark_pilot_2","7385","8","15","Female","","true","","","","","[]","./assets/img/space/0.jpg","[]","first stage practice","space","-5","null","null","","false","","","","","","","",""
"html-keyboard-response","13","100260","0.0-3.0-2.0-1.0","spark_pilot_2","7385","8","15","Female","","","","","","","null","<div style=""font-size:60px;"">+</div>","null","fixation","","","","","","","","","","","","","",""
"revaluation","14","104274","0.0-3.0-2.0-0.1","spark_pilot_2","7385","8","15","Female","","false","","","","","[518.4000000953674]","./assets/img/space/1.jpg","[""ArrowUp""]","first stage practice","space","0","null","null","ArrowUp","false","","","","","","","",""
"html-keyboard-response","15","104784","0.0-3.0-2.0-1.1","spark_pilot_2","7385","8","15","Female","","","","","","","null","<div style=""font-size:60px;"">+</div>","null","fixation","","","","","","","","","","","","","",""
"revaluation","16","108802","0.0-3.0-2.0-0.2","spark_pilot_2","7385","8","15","Female","","false","","","","","[642.3999996185303]","./assets/img/space/2.jpg","[""ArrowUp""]","first stage practice","space","0","null","null","ArrowUp","false","","","","","","","",""
"html-keyboard-response","17","109314","0.0-3.0-2.0-1.2","spark_pilot_2","7385","8","15","Female","","","","","","","null","<div style=""font-size:60px;"">+</div>","null","fixation","","","","","","","","","","","","","",""
"learning-instructions","18","115645","0.0-3.0-3.0-0.0","spark_pilot_2","7385","8","15","Female","","","","","","","1632.5","<p> Great job! Now try pressing the <b>down</b> key to travel down. </p>
            <img src='./assets/img/instructions/pressDown.jpg' class='instructions-image'>","","instructions","","","","","","","","","","","","","",""
"revaluation","19","119651","0.0-3.0-4.0-0.0","spark_pilot_2","7385","8","15","Female","","false","","","","","[373.90000009536743]","./assets/img/space/3.jpg","[""ArrowDown""]","first stage practice","space","0","null","null","ArrowDown","false","","","","","","","",""
"html-keyboard-response","20","120165","0.0-3.0-4.0-1.0","spark_pilot_2","7385","8","15","Female","","","","","","","null","<div style=""font-size:60px;"">+</div>","null","fixation","","","","","","","","","","","","","",""
"revaluation","21","124176","0.0-3.0-4.0-0.1","spark_pilot_2","7385","8","15","Female","","false","","","","","[251.5]","./assets/img/space/4.jpg","[""ArrowDown""]","first stage practice","space","0","null","null","ArrowDown","false","","","","","","","",""
"html-keyboard-response","22","124690","0.0-3.0-4.0-1.1","spark_pilot_2","7385","8","15","Female","","","","","","","null","<div style=""font-size:60px;"">+</div>","null","fixation","","","","","","","","","","","","","",""
"revaluation","23","128701","0.0-3.0-4.0-0.2","spark_pilot_2","7385","8","15","Female","","false","","","","","[258]","./assets/img/space/5.jpg","[""ArrowDown""]","first stage practice","space","0","null","null","ArrowDown","false","","","","","","","",""
"html-keyboard-response","24","129212","0.0-3.0-4.0-1.2","spark_pilot_2","7385","8","15","Female","","","","","","","null","<div style=""font-size:60px;"">+</div>","null","fixation","","","","","","","","","","","","","",""
"learning-instructions","25","141473","0.0-3.0-5.0-0.0","spark_pilot_2","7385","8","15","Female","","","","","","","2390.0999999046326","<p> The animals don’t move, so the animal in the upper part of a place will stay in the upper part of a place, and the animal in the lower part of a place will stay in the lower part of a place. </p>","","instructions","","","","","","","","","","","","","",""
"learning-instructions","26","152707","0.0-3.0-5.0-0.1","spark_pilot_2","7385","8","15","Female","","","","","","","2094.4000000953674","<p> Each animal has two treasure chests for you to choose from. </p>
            <p> The amount of treasure in each chest can range from <b> 0 to 40 pieces.</b></p>","","instructions","","","","","","","","","","","","","",""
"learning-instructions","27","164756","0.0-3.0-5.0-0.2","spark_pilot_2","7385","8","15","Female","","","","","","","822.9000000953674","<p> You should decide which chest to search for treasure by using the <b>left</b> and <b>right</b> arrow keys. </p>
            <p><b> Pay attention to which animal is on the screen, as the animals have different treasure chests. </b></p>
            <img src='./assets/img/instructions/leftright.jpg' class='instructions-image'>","","instructions","","","","","","","","","","","","","",""
"learning-instructions","28","172803","0.0-3.0-5.0-0.3","spark_pilot_2","7385","8","15","Female","","","","","","","1670.5999999046326","<p> Let’s try practicing that now. </p>
            <p> When you see an animal, choose which chest to search for treasure. </p>
            <img src='./assets/img/instructions/chooseChest.jpg' class='instructions-image'>","","instructions","","","","","","","","","","","","","",""
"revaluation","29","176833","0.0-3.0-6.0-0.0","spark_pilot_2","7385","8","15","Female","","false","","","","","[391.40000009536743]","./assets/img/space/animals/rabbit.jpg","[""ArrowRight""]","second stage practice","space","23","{""ArrowUp,ArrowLeft"":3,""ArrowUp,ArrowRight"":36,""ArrowDown,ArrowLeft"":15,""ArrowDown,ArrowRight"":23}","true","ArrowDown,ArrowRight","","","","","","","","",""
"html-keyboard-response","30","177340","0.0-3.0-6.0-1.0","spark_pilot_2","7385","8","15","Female","","","","","","","null","<div style=""font-size:60px;"">+</div>","null","fixation","","","","","","","","","","","","","",""
"revaluation","31","181359","0.0-3.0-6.0-0.1","spark_pilot_2","7385","8","15","Female","","false","","","","","[927.5]","./assets/img/space/animals/rabbit.jpg","[""ArrowLeft""]","second stage practice","space","15","{""ArrowUp,ArrowLeft"":3,""ArrowUp,ArrowRight"":36,""ArrowDown,ArrowLeft"":15,""ArrowDown,ArrowRight"":23}","false","ArrowDown,ArrowLeft","","","","","","","","",""
"html-keyboard-response","32","181871","0.0-3.0-6.0-1.1","spark_pilot_2","7385","8","15","Female","","","","","","","null","<div style=""font-size:60px;"">+</div>","null","fixation","","","","","","","","","","","","","",""
"revaluation","33","185884","0.0-3.0-6.0-0.2","spark_pilot_2","7385","8","15","Female","","false","","","","","[436.5]","./assets/img/space/animals/cat.jpg","[""ArrowRight""]","second stage practice","space","36","{""ArrowUp,ArrowLeft"":3,""ArrowUp,ArrowRight"":36,""ArrowDown,ArrowLeft"":15,""ArrowDown,ArrowRight"":23}","true","ArrowUp,ArrowRight","","","","","","","","",""
"html-keyboard-response","34","186398","0.0-3.0-6.0-1.2","spark_pilot_2","7385","8","15","Female","","","","","","","null","<div style=""font-size:60px;"">+</div>","null","fixation","","","","","","","","","","","","","",""
"revaluation","35","190414","0.0-3.0-6.0-0.3","spark_pilot_2","7385","8","15","Female","","false","","","","","[939.3000001907349]","./assets/img/space/animals/cat.jpg","[""ArrowLeft""]","second stage practice","space","3","{""ArrowUp,ArrowLeft"":3,""ArrowUp,ArrowRight"":36,""ArrowDown,ArrowLeft"":15,""ArrowDown,ArrowRight"":23}","false","ArrowUp,ArrowLeft","","","","","","","","",""
"html-keyboard-response","36","190928","0.0-3.0-6.0-1.3","spark_pilot_2","7385","8","15","Female","","","","","","","null","<div style=""font-size:60px;"">+</div>","null","fixation","","","","","","","","","","","","","",""
"learning-instructions","37","208787","0.0-3.0-7.0-0.0","spark_pilot_2","7385","8","15","Female","","","","","","","1023.9000000953674","<p> Great job. Now let’s try putting it together. </p>
            <p> On each turn, you will first see a picture to remind you of the place you are in, and you need to choose whether to go up or down. </p>
            <p> Then you will see an animal and choose which of its chests to search for treasure. </p>","","instructions","","","","","","","","","","","","","",""
"learning-instructions","38","217944","0.0-3.0-7.0-0.1","spark_pilot_2","7385","8","15","Female","","","","","","","881.5","<p> When you choose whether to go up or down, try to go to the animal with the chest with the most treasure. </p>
            <p> Try practicing that now! </p>","","instructions","","","","","","","","","","","","","",""
"revaluation","39","223976","0.0-3.0-8.0-0.0","spark_pilot_2","7385","8","15","Female","","false","","","","","[610.2000002861023,587.5]","./assets/img/space/6.jpg","[""ArrowUp"",""ArrowRight""]","full practice","space","36","{""ArrowUp,ArrowLeft"":3,""ArrowUp,ArrowRight"":36,""ArrowDown,ArrowLeft"":15,""ArrowDown,ArrowRight"":23}","true","ArrowUp,ArrowRight","false","","","","","","","",""
"html-keyboard-response","40","224486","0.0-3.0-8.0-1.0","spark_pilot_2","7385","8","15","Female","","","","","","","null","<div style=""font-size:60px;"">+</div>","null","fixation","","","","","","","","","","","","","",""
"revaluation","41","230516","0.0-3.0-8.0-0.1","spark_pilot_2","7385","8","15","Female","","false","","","","","[303.19999980926514,626.5]","./assets/img/space/7.jpg","[""ArrowUp"",""ArrowLeft""]","full practice","space","3","{""ArrowUp,ArrowLeft"":3,""ArrowUp,ArrowRight"":36,""ArrowDown,ArrowLeft"":15,""ArrowDown,ArrowRight"":23}","false","ArrowUp,ArrowLeft","false","","","","","","","",""
"html-keyboard-response","42","231029","0.0-3.0-8.0-1.1","spark_pilot_2","7385","8","15","Female","","","","","","","null","<div style=""font-size:60px;"">+</div>","null","fixation","","","","","","","","","","","","","",""
"revaluation","43","237053","0.0-3.0-8.0-0.2","spark_pilot_2","7385","8","15","Female","","false","","","","","[1706.5,542.8999996185303]","./assets/img/space/8.jpg","[""ArrowUp"",""ArrowRight""]","full practice","space","36","{""ArrowUp,ArrowLeft"":3,""ArrowUp,ArrowRight"":36,""ArrowDown,ArrowLeft"":15,""ArrowDown,ArrowRight"":23}","true","ArrowUp,ArrowRight","false","","","","","","","",""
"html-keyboard-response","44","237566","0.0-3.0-8.0-1.2","spark_pilot_2","7385","8","15","Female","","","","","","","null","<div style=""font-size:60px;"">+</div>","null","fixation","","","","","","","","","","","","","",""
"revaluation","45","243599","0.0-3.0-8.0-0.3","spark_pilot_2","7385","8","15","Female","","false","","","","","[1133.6000003814697,677.5]","./assets/img/space/9.jpg","[""ArrowDown"",""ArrowLeft""]","full practice","space","15","{""ArrowUp,ArrowLeft"":3,""ArrowUp,ArrowRight"":36,""ArrowDown,ArrowLeft"":15,""ArrowDown,ArrowRight"":23}","false","ArrowDown,ArrowLeft","false","","","","","","","",""
"html-keyboard-response","46","244112","0.0-3.0-8.0-1.3","spark_pilot_2","7385","8","15","Female","","","","","","","null","<div style=""font-size:60px;"">+</div>","null","fixation","","","","","","","","","","","","","",""
"revaluation","47","250121","0.0-3.0-8.0-0.4","spark_pilot_2","7385","8","15","Female","","false","","","","","[250.30000019073486,554]","./assets/img/space/10.jpg","[""ArrowDown"",""ArrowRight""]","full practice","space","23","{""ArrowUp,ArrowLeft"":3,""ArrowUp,ArrowRight"":36,""ArrowDown,ArrowLeft"":15,""ArrowDown,ArrowRight"":23}","false","ArrowDown,ArrowRight","false","","","","","","","",""
"html-keyboard-response","48","250623","0.0-3.0-8.0-1.4","spark_pilot_2","7385","8","15","Female","","","","","","","null","<div style=""font-size:60px;"">+</div>","null","fixation","","","","","","","","","","","","","",""
"learning-instructions","49","262173","0.0-3.0-9.0-0.0","spark_pilot_2","7385","8","15","Female","","","","","","","1225.6999998092651","<p> One last thing: sometimes, you will see a robber. The robber can be anywhere in the picture. </p>
            <p> If you do not stop them, you will lose treasure. </p>
            <img src='./assets/img/instructions/robber.jpg' class='instructions-image'>","","instructions","","","","","","","","","","","","","",""
"learning-instructions","50","270463","0.0-3.0-9.0-0.1","spark_pilot_2","7385","8","15","Female","","","","","","","1105.3999996185303","<p> If you see the robber, you should <b>press the space bar</b> rather than using the arrow keys. </p>
            <p> Try practicing that now! </p>","","instructions","","","","","","","","","","","","","",""
"revaluation","51","274478","0.0-3.0-10.0-0.0","spark_pilot_2","7385","8","15","Female","","false","","","","","[1166.8000001907349]","./assets/img/space/catch/0.jpg","[""spaceBar""]","catch practice","space","0","{""ArrowUp,ArrowLeft"":3,""ArrowUp,ArrowRight"":36,""ArrowDown,ArrowLeft"":15,""ArrowDown,ArrowRight"":23}","true","spaceBar","true","","","","","","","",""
"html-keyboard-response","52","274992","0.0-3.0-10.0-1.0","spark_pilot_2","7385","8","15","Female","","","","","","","null","<div style=""font-size:60px;"">+</div>","null","fixation","","","","","","","","","","","","","",""
"revaluation","53","279017","0.0-3.0-10.0-0.1","spark_pilot_2","7385","8","15","Female","","false","","","","","[397]","./assets/img/space/catch/1.jpg","[""spaceBar""]","catch practice","space","0","{""ArrowUp,ArrowLeft"":3,""ArrowUp,ArrowRight"":36,""ArrowDown,ArrowLeft"":15,""ArrowDown,ArrowRight"":23}","true","spaceBar","true","","","","","","","",""
"html-keyboard-response","54","279530","0.0-3.0-10.0-1.1","spark_pilot_2","7385","8","15","Female","","","","","","","null","<div style=""font-size:60px;"">+</div>","null","fixation","","","","","","","","","","","","","",""
"revaluation","55","283556","0.0-3.0-10.0-0.2","spark_pilot_2","7385","8","15","Female","","false","","","","","[608.3999996185303]","./assets/img/space/catch/2.jpg","[""spaceBar""]","catch practice","space","0","{""ArrowUp,ArrowLeft"":3,""ArrowUp,ArrowRight"":36,""ArrowDown,ArrowLeft"":15,""ArrowDown,ArrowRight"":23}","true","spaceBar","true","","","","","","","",""
"html-keyboard-response","56","284070","0.0-3.0-10.0-1.2","spark_pilot_2","7385","8","15","Female","","","","","","","null","<div style=""font-size:60px;"">+</div>","null","fixation","","","","","","","","","","","","","",""
"learning-instructions","57","298782","0.0-3.0-11.0-0.0","spark_pilot_2","7385","8","15","Female","","","","","","","1093.5999999046326","<p> After you explore a place to find treasure, it will be time to play a different game. </p>
            <p> During this game, red dots will appear on the screen and fall down slowly. </p>
            <p><b> You must click on them before they reach the bottom. </b></p>
            <img src='./assets/img/instructions/dotGame.jpg' class='instructions-image'>","","instructions","","","","","","","","","","","","","",""
"learning-instructions","58","305440","0.0-3.0-11.0-0.1","spark_pilot_2","7385","8","15","Female","","","","","","","872.2000002861023","<p> For every dot you click, you will earn additional treasure. </p>
            <p> Let’s try practicing that now. </p>","","instructions","","","","","","","","","","","","","",""
"revaluation","59","320447","0.0-3.0-12.0-0.0","spark_pilot_2","7385","8","15","Female","","","","","","","[55,56]","","","rest practice","","20","","","","","0","15000","","","","","",""
"learning-instructions","60","326804","0.0-3.0-13.0-0.0-0.0","spark_pilot_2","7385","8","15","Female","","","","","","","1105.8000001907349","<p> Now, you will practice a shortened version of the game to get a sense of how it all fits together. </p>","","instructions","","","","","","","","","","","","","",""
"learning-instructions","61","332077","0.0-3.0-13.0-0.0-0.1","spark_pilot_2","7385","8","15","Female","","","","","","","2078.8999996185303","<p>This time you are searching for treasure in outer space.</p>","","instructions","","","","","","","","","","","","","",""
"learning-instructions","62","347639","0.0-3.0-13.0-1.0-0.0","spark_pilot_2","7385","8","15","Female","","","","","","","790.9000000953674","<p> Remember, when you see a picture of the place, use the up and down keys to <b>find an animal</b>.</p>
            <p> When you encounter an animal, you should use the left and right keys to <b>select a treasure chest</b>.</p>
            <p> Don't forget to look out for the robber! </p>","","instructions","","","","","","","","","","","","","",""
"revaluation","63","353674","0.0-3.0-13.0-2.0-0.0","spark_pilot_2","7385","8","15","Female","","false","","","","","[672.9000000953674,507.6000003814697]","./assets/img/space/11.jpg","[""ArrowUp"",""ArrowRight""]","practice block","space","36","{""ArrowUp,ArrowLeft"":3,""ArrowUp,ArrowRight"":36,""ArrowDown,ArrowLeft"":15,""ArrowDown,ArrowRight"":23}","true","ArrowUp,ArrowRight","false","","","","","","","",""
"html-keyboard-response","64","354186","0.0-3.0-13.0-2.0-1.0","spark_pilot_2","7385","8","15","Female","","","","","","","null","<div style=""font-size:60px;"">+</div>","null","fixation","","","","","","","","","","","","","",""
"revaluation","65","360202","0.0-3.0-13.0-2.0-0.1","spark_pilot_2","7385","8","15","Female","","false","","","","","[916,419.69999980926514]","./assets/img/space/12.jpg","[""ArrowUp"",""ArrowRight""]","practice block","space","36","{""ArrowUp,ArrowLeft"":3,""ArrowUp,ArrowRight"":36,""ArrowDown,ArrowLeft"":15,""ArrowDown,ArrowRight"":23}","true","ArrowUp,ArrowRight","false","","","","","","","",""
"html-keyboard-response","66","360706","0.0-3.0-13.0-2.0-1.1","spark_pilot_2","7385","8","15","Female","","","","","","","null","<div style=""font-size:60px;"">+</div>","null","fixation","","","","","","","","","","","","","",""
"revaluation","67","366725","0.0-3.0-13.0-2.0-0.2","spark_pilot_2","7385","8","15","Female","","false","","","","","[704.5,1011.0999999046326]","./assets/img/space/13.jpg","[""ArrowDown"",""ArrowRight""]","practice block","space","23","{""ArrowUp,ArrowLeft"":3,""ArrowUp,ArrowRight"":36,""ArrowDown,ArrowLeft"":15,""ArrowDown,ArrowRight"":23}","false","ArrowDown,ArrowRight","false","","","","","","","",""
"html-keyboard-response","68","367237","0.0-3.0-13.0-2.0-1.2","spark_pilot_2","7385","8","15","Female","","","","","","","null","<div style=""font-size:60px;"">+</div>","null","fixation","","","","","","","","","","","","","",""
"revaluation","69","373256","0.0-3.0-13.0-2.0-0.3","spark_pilot_2","7385","8","15","Female","","false","","","","","[1100.5999999046326,538]","./assets/img/space/14.jpg","[""ArrowUp"",""ArrowRight""]","practice block","space","36","{""ArrowUp,ArrowLeft"":3,""ArrowUp,ArrowRight"":36,""ArrowDown,ArrowLeft"":15,""ArrowDown,ArrowRight"":23}","true","ArrowUp,ArrowRight","false","","","","","","","",""
"html-keyboard-response","70","373769","0.0-3.0-13.0-2.0-1.3","spark_pilot_2","7385","8","15","Female","","","","","","","null","<div style=""font-size:60px;"">+</div>","null","fixation","","","","","","","","","","","","","",""
"revaluation","71","379787","0.0-3.0-13.0-2.0-0.4","spark_pilot_2","7385","8","15","Female","","false","","","","","[721,349.2999997138977]","./assets/img/space/11.jpg","[""ArrowUp"",""ArrowRight""]","practice block","space","36","{""ArrowUp,ArrowLeft"":3,""ArrowUp,ArrowRight"":36,""ArrowDown,ArrowLeft"":15,""ArrowDown,ArrowRight"":23}","true","ArrowUp,ArrowRight","false","","","","","","","",""
"html-keyboard-response","72","380289","0.0-3.0-13.0-2.0-1.4","spark_pilot_2","7385","8","15","Female","","","","","","","null","<div style=""font-size:60px;"">+</div>","null","fixation","","","","","","","","","","","","","",""
"revaluation","73","386294","0.0-3.0-13.0-2.0-0.5","spark_pilot_2","7385","8","15","Female","","false","","","","","[972.5,334.2000002861023]","./assets/img/space/12.jpg","[""ArrowUp"",""ArrowRight""]","practice block","space","36","{""ArrowUp,ArrowLeft"":3,""ArrowUp,ArrowRight"":36,""ArrowDown,ArrowLeft"":15,""ArrowDown,ArrowRight"":23}","true","ArrowUp,ArrowRight","false","","","","","","","",""
"html-keyboard-response","74","386795","0.0-3.0-13.0-2.0-1.5","spark_pilot_2","7385","8","15","Female","","","","","","","null","<div style=""font-size:60px;"">+</div>","null","fixation","","","","","","","","","","","","","",""
"revaluation","75","392802","0.0-3.0-13.0-2.0-0.6","spark_pilot_2","7385","8","15","Female","","false","","","","","[444.7000002861023,357.30000019073486]","./assets/img/space/13.jpg","[""ArrowUp"",""ArrowRight""]","practice block","space","36","{""ArrowUp,ArrowLeft"":3,""ArrowUp,ArrowRight"":36,""ArrowDown,ArrowLeft"":15,""ArrowDown,ArrowRight"":23}","true","ArrowUp,ArrowRight","false","","","","","","","",""
"html-keyboard-response","76","393303","0.0-3.0-13.0-2.0-1.6","spark_pilot_2","7385","8","15","Female","","","","","","","null","<div style=""font-size:60px;"">+</div>","null","fixation","","","","","","","","","","","","","",""
"revaluation","77","399310","0.0-3.0-13.0-2.0-0.7","spark_pilot_2","7385","8","15","Female","","false","","","","","[637.3000001907349,356.40000009536743]","./assets/img/space/14.jpg","[""ArrowUp"",""ArrowRight""]","practice block","space","36","{""ArrowUp,ArrowLeft"":3,""ArrowUp,ArrowRight"":36,""ArrowDown,ArrowLeft"":15,""ArrowDown,ArrowRight"":23}","true","ArrowUp,ArrowRight","false","","","","","","","",""
"html-keyboard-response","78","399812","0.0-3.0-13.0-2.0-1.7","spark_pilot_2","7385","8","15","Female","","","","","","","null","<div style=""font-size:60px;"">+</div>","null","fixation","","","","","","","","","","","","","",""
"revaluation","79","403818","0.0-3.0-13.0-2.0-0.8","spark_pilot_2","7385","8","15","Female","","false","","","","","[819.4000000953674]","./assets/img/space/catch/3.jpg","[""spaceBar""]","practice block","space","0","{""ArrowUp,ArrowLeft"":3,""ArrowUp,ArrowRight"":36,""ArrowDown,ArrowLeft"":15,""ArrowDown,ArrowRight"":23}","true","spaceBar","true","","","","","","","",""
"html-keyboard-response","80","404320","0.0-3.0-13.0-2.0-1.8","spark_pilot_2","7385","8","15","Female","","","","","","","null","<div style=""font-size:60px;"">+</div>","null","fixation","","","","","","","","","","","","","",""
"learning-instructions","81","418416","0.0-3.0-13.0-3.0-0.0","spark_pilot_2","7385","8","15","Female","","","","","","","929.5","<p> Now, you will travel with a friend who will choose whether you go up or down first. </p>
            <p> On these turns, you will just see the animal that they found. You will still get to choose which chest to search for treasure.</p>","","instructions","","","","","","","","","","","","","",""
"revaluation","82","422437","0.0-3.0-13.0-4.0-0.0","spark_pilot_2","7385","8","15","Female","","false","","","","","[956.1999998092651]","./assets/img/space/animals/cat.jpg","[""ArrowRight""]","practice block","space","36","{""ArrowUp,ArrowLeft"":3,""ArrowUp,ArrowRight"":36,""ArrowDown,ArrowLeft"":15,""ArrowDown,ArrowRight"":23}","true","ArrowUp,ArrowRight","","","","","","","","",""
"html-keyboard-response","83","422950","0.0-3.0-13.0-4.0-1.0","spark_pilot_2","7385","8","15","Female","","","","","","","null","<div style=""font-size:60px;"">+</div>","null","fixation","","","","","","","","","","","","","",""
"revaluation","84","426968","0.0-3.0-13.0-4.0-0.1","spark_pilot_2","7385","8","15","Female","","false","","","","","[491.59999990463257]","./assets/img/space/animals/cat.jpg","[""ArrowRight""]","practice block","space","36","{""ArrowUp,ArrowLeft"":3,""ArrowUp,ArrowRight"":36,""ArrowDown,ArrowLeft"":15,""ArrowDown,ArrowRight"":23}","true","ArrowUp,ArrowRight","","","","","","","","",""
"html-keyboard-response","85","427481","0.0-3.0-13.0-4.0-1.1","spark_pilot_2","7385","8","15","Female","","","","","","","null","<div style=""font-size:60px;"">+</div>","null","fixation","","","","","","","","","","","","","",""
"revaluation","86","431495","0.0-3.0-13.0-4.0-0.2","spark_pilot_2","7385","8","15","Female","","false","","","","","[889.1999998092651]","./assets/img/space/animals/rabbit.jpg","[""ArrowRight""]","practice block","space","23","{""ArrowUp,ArrowLeft"":3,""ArrowUp,ArrowRight"":36,""ArrowDown,ArrowLeft"":15,""ArrowDown,ArrowRight"":23}","true","ArrowDown,ArrowRight","","","","","","","","",""
"html-keyboard-response","87","432006","0.0-3.0-13.0-4.0-1.2","spark_pilot_2","7385","8","15","Female","","","","","","","null","<div style=""font-size:60px;"">+</div>","null","fixation","","","","","","","","","","","","","",""
"revaluation","88","436030","0.0-3.0-13.0-4.0-0.3","spark_pilot_2","7385","8","15","Female","","false","","","","","[455.7000002861023]","./assets/img/space/animals/rabbit.jpg","[""ArrowRight""]","practice block","space","23","{""ArrowUp,ArrowLeft"":3,""ArrowUp,ArrowRight"":36,""ArrowDown,ArrowLeft"":15,""ArrowDown,ArrowRight"":23}","true","ArrowDown,ArrowRight","","","","","","","","",""
"html-keyboard-response","89","436544","0.0-3.0-13.0-4.0-1.3","spark_pilot_2","7385","8","15","Female","","","","","","","null","<div style=""font-size:60px;"">+</div>","null","fixation","","","","","","","","","","","","","",""
"learning-instructions","90","444849","0.0-3.0-13.0-5.0-0.0","spark_pilot_2","7385","8","15","Female","","","","","","","932","<p> Time to play the dot game! </p>
            <p> For 15 seconds, click the red dots on the following screen as they appear. </p>","","instructions","","","","","","","","","","","","","",""
"revaluation","91","459851","0.0-3.0-13.0-6.0-0.0","spark_pilot_2","7385","8","15","Female","","","","","","","[56]","","","rest practice","","10","","","","","0","15000","","","","","",""
"learning-instructions","92","466832","0.0-3.0-13.0-7.0-0.0","spark_pilot_2","7385","8","15","Female","","","","","","","845.9000000953674","<p> You have almost finished this part of the game! </p>
            <p> We are going to ask you to make a few more choices. </p>","","instructions","","","","","","","","","","","","","",""
"learning-instructions","93","482584","0.0-3.0-13.0-7.0-0.1","spark_pilot_2","7385","8","15","Female","","","","","","","1717.1999998092651","<p> First, you need to decide whether to go up or down. When you see each picture, use the arrow keys to make your choice. </p>
            <p><b>You will not see which animal you found, but try to get to the one that will give you the most treasure.</b></p>","","instructions","","","","","","","","","","","","","",""
"revaluation","94","483428","0.0-3.0-13.0-8.0","spark_pilot_2","7385","8","15","Female","","false","","","","","[841.5]","./assets/img/space/15.jpg","[""ArrowUp""]","practice block","space","0","{""ArrowUp,ArrowLeft"":3,""ArrowUp,ArrowRight"":36,""ArrowDown,ArrowLeft"":15,""ArrowDown,ArrowRight"":23}","true","ArrowUp","false","","","","","","","",""
"html-keyboard-response","95","483937","0.0-3.0-13.0-9.0","spark_pilot_2","7385","8","15","Female","","","","","","","null","<div style=""font-size:60px;"">+</div>","null","fixation","","","","","","","","","","","","","",""
"learning-instructions","96","496040","0.0-3.0-13.0-10.0-0.0","spark_pilot_2","7385","8","15","Female","","","","","","","713.5999999046326","<p> Now you will see the animals again and can search their chests for treasure. </p>
            <p> This time, you will not see how much treasure you earned, but you will earn more bonus money for making better choices. </p>","","instructions","","","","","","","","","","","","","",""
"revaluation","97","497215","0.0-3.0-13.0-11.0-0.0","spark_pilot_2","7385","8","15","Female","","false","","","","","[1172.3999996185303]","./assets/img/space/animals/cat.jpg","[""ArrowRight""]","practice block","space","0","{""ArrowUp,ArrowLeft"":3,""ArrowUp,ArrowRight"":36,""ArrowDown,ArrowLeft"":15,""ArrowDown,ArrowRight"":23}","true","ArrowUp,ArrowRight","","","","","","","","",""
"html-keyboard-response","98","497719","0.0-3.0-13.0-11.0-1.0","spark_pilot_2","7385","8","15","Female","","","","","","","null","<div style=""font-size:60px;"">+</div>","null","fixation","","","","","","","","","","","","","",""
"revaluation","99","498725","0.0-3.0-13.0-11.0-0.1","spark_pilot_2","7385","8","15","Female","","false","","","","","[1001.8000001907349]","./assets/img/space/animals/rabbit.jpg","[""ArrowRight""]","practice block","space","0","{""ArrowUp,ArrowLeft"":3,""ArrowUp,ArrowRight"":36,""ArrowDown,ArrowLeft"":15,""ArrowDown,ArrowRight"":23}","true","ArrowDown,ArrowRight","","","","","","","","",""
"html-keyboard-response","100","499232","0.0-3.0-13.0-11.0-1.1","spark_pilot_2","7385","8","15","Female","","","","","","","null","<div style=""font-size:60px;"">+</div>","null","fixation","","","","","","","","","","","","","",""
"learning-instructions","101","504638","0.0-3.0-14.0-0.0","spark_pilot_2","7385","8","15","Female","","","","","","","821.8000001907349","<p> Before you start, we're going to ask you a few questions about how the game works. </p>","","instructions","","","","","","","","","","","","","",""
"comp-q","102","511207","0.0-3.0-15.0-0.0-0.0","spark_pilot_2","7385","8","15","Female","","","","","","","974.5","<p> <b> True or False? </b> </p>
            <p> There can be 50 pieces of treasure in a given animal's chest. </p>","0","comp_question","","","","false","","","","","","","","","",""
"comp-q","103","519353","0.0-3.0-15.0-0.0-1.0","spark_pilot_2","7385","8","15","Female","","","","","","","1605.9000000953674","<p> <b>Incorrect.</b> The amount of treasure in each chest can range from 0 to 40 pieces. </p>","0","comp_answer","","","","","","","","","","","","","",""
"comp-q","104","525918","0.0-3.0-15.0-0.1-0.1","spark_pilot_2","7385","8","15","Female","","","","","","","1000.7000002861023","<p> <b> True or False? </b> </p>
            <p> There can be 50 pieces of treasure in a given animal's chest. </p>","1","comp_question","","","","true","","","","","","","","","",""
"comp-q","105","533937","0.0-3.0-15.0-0.1-1.1","spark_pilot_2","7385","8","15","Female","","","","","","","1350.0999999046326","<p> <b> That's right! </b> The amount of treasure in each chest can range from 0 to 40 pieces. </p>","0","comp_answer","","","","","","","","","","","","","",""
"comp-q","106","542287","0.0-3.0-15.0-0.2-0.2","spark_pilot_2","7385","8","15","Female","","","","","","","1219.7999997138977","<p> <b> True or False? </b> </p><p> In this game, all animals have the same amount of treasure in their left and right chests. </p>","1","comp_question","","","","true","","","","","","","","","",""
"comp-q","107","548965","0.0-3.0-15.0-0.2-1.2","spark_pilot_2","7385","8","15","Female","","","","","","","1447.8000001907349","<p> <b> That's right! </b> Animals have different amounts of treasure in their treasure chests. </p>","0","comp_answer","","","","","","","","","","","","","",""
"comp-q","108","555748","0.0-3.0-15.0-0.3-0.3","spark_pilot_2","7385","8","15","Female","","","","","","","940.8000001907349","<p> <b> True or False? </b> </p><p> The same animal will always be there if you go up in the same place. </p>","1","comp_question","","","","false","","","","","","","","","",""
"comp-q","109","562899","0.0-3.0-15.0-0.3-1.3","spark_pilot_2","7385","8","15","Female","","","","","","","841.8000001907349","<p> <b>Incorrect.</b> One animal lives in the upper part and one lives in the lower part of every place. </p>","0","comp_answer","","","","","","","","","","","","","",""
"comp-q","110","569651","0.0-3.0-15.0-0.4-0.4","spark_pilot_2","7385","8","15","Female","","","","","","","933.6000003814697","<p> <b> True or False? </b> </p><p> The same animal will always be there if you go up in the same place. </p>","0","comp_question","","","","true","","","","","","","","","",""
"comp-q","111","577782","0.0-3.0-15.0-0.4-1.4","spark_pilot_2","7385","8","15","Female","","","","","","","1674.9000000953674","<p> <b> That's right! </b> One animal lives in the upper part and one lives in the lower part of every place. </p>","0","comp_answer","","","","","","","","","","","","","",""
"comp-q","112","584564","0.0-3.0-15.0-0.5-0.5","spark_pilot_2","7385","8","15","Female","","","","","","","1247.5","<p> <b> True or False? </b> </p><p> If you see a different picture, it means you are in a new place. </p>","1","comp_question","","","","true","","","","","","","","","",""
"comp-q","113","596798","0.0-3.0-15.0-0.5-1.5","spark_pilot_2","7385","8","15","Female","","","","","","","990.6999998092651","<p> <b> That's right! </b> Lots of different images may show the same place. For example,  you may see three different images that all remind you that you are in outer space. </p>","0","comp_answer","","","","","","","","","","","","","",""
"learning-instructions","114","607831","0.0-3.0-16.0-0.0","spark_pilot_2","7385","8","15","Female","","","","","","","1163.3999996185303","<p> Good job. Remember to do your best because the amount of treasure you earn will be converted into bonus money. </p>
            <p> It’s time to start the real game! </p>","","instructions","","","","","","","","","","","","","",""
"learning-instructions","115","612141","0.0-4.0-0.0-0.0","spark_pilot_2","7385","8","15","Female","","","","","","","1422.9000000953674","<p> This time you are searching for treasure in the <b>canyon</b>.</p>","","instructions","","","","","","","","","","","","","",""
"learning-instructions","116","630397","0.0-4.0-0.0-0.1","spark_pilot_2","7385","8","15","Female","","","","","","","929","<p><b>New</b> animals with <b>new</b> treasure chests live here. You need to explore to discover where the animal with the best treasure chest is.</p>
                    <p> Like before, once you figure out which animal has the chest with the most treasure, you should try to get to that animal and select that chest! </p>","","instructions","","","","","","","","","","","","","",""
"learning-instructions","117","646776","0.0-4.0-1.0-0.0","spark_pilot_2","7385","8","15","Female","","","","","","","1647.9000000953674","<p> Remember, when you see a picture of the place, use the up and down keys to <b>find an animal</b>.</p>
            <p> When you encounter an animal, you should use the left and right keys to <b>select a treasure chest</b>.</p>
            <p> Don't forget to look out for the robber! </p>","","instructions","","","","","","","","","","","","","",""
"revaluation","118","652809","0.0-4.0-2.0-0.0","spark_pilot_2","7385","8","15","Female","","false","","","","","[837.7999997138977,326.40000009536743]","./assets/img/canyon/memory/5.jpg","[""ArrowUp"",""ArrowRight""]","value training","canyon","10","{""ArrowUp,ArrowLeft"":26,""ArrowUp,ArrowRight"":10,""ArrowDown,ArrowLeft"":5,""ArrowDown,ArrowRight"":17}","false","ArrowUp,ArrowRight","false","","","revaluation","1","0","","",""
"html-keyboard-response","119","653322","0.0-4.0-2.0-1.0","spark_pilot_2","7385","8","15","Female","","","","","","","null","<div style=""font-size:60px;"">+</div>","null","fixation","","","","","","","","","","","1","","",""
"revaluation","120","659346","0.0-4.0-2.0-0.1","spark_pilot_2","7385","8","15","Female","","false","","","","","[311.09999990463257,335.7000002861023]","./assets/img/canyon/memory/16.jpg","[""ArrowUp"",""ArrowLeft""]","value training","canyon","26","{""ArrowUp,ArrowLeft"":26,""ArrowUp,ArrowRight"":10,""ArrowDown,ArrowLeft"":5,""ArrowDown,ArrowRight"":17}","true","ArrowUp,ArrowLeft","false","","","revaluation","1","2","","",""
"html-keyboard-response","121","659861","0.0-4.0-2.0-1.1","spark_pilot_2","7385","8","15","Female","","","","","","","null","<div style=""font-size:60px;"">+</div>","null","fixation","","","","","","","","","","","3","","",""
"revaluation","122","665876","0.0-4.0-2.0-0.2","spark_pilot_2","7385","8","15","Female","","false","","","","","[319.09999990463257,400.19999980926514]","./assets/img/canyon/memory/25.jpg","[""ArrowDown"",""ArrowRight""]","value training","canyon","17","{""ArrowUp,ArrowLeft"":26,""ArrowUp,ArrowRight"":10,""ArrowDown,ArrowLeft"":5,""ArrowDown,ArrowRight"":17}","false","ArrowDown,ArrowRight","false","","","revaluation","1","4","","",""
"html-keyboard-response","123","666389","0.0-4.0-2.0-1.2","spark_pilot_2","7385","8","15","Female","","","","","","","null","<div style=""font-size:60px;"">+</div>","null","fixation","","","","","","","","","","","5","","",""
"revaluation","124","670405","0.0-4.0-2.0-0.3","spark_pilot_2","7385","8","15","Female","","false","","","","","[466]","./assets/img/canyon/catch/2.jpg","[""ArrowDown""]","value training","canyon","-10","{""ArrowUp,ArrowLeft"":26,""ArrowUp,ArrowRight"":10,""ArrowDown,ArrowLeft"":5,""ArrowDown,ArrowRight"":17}","false","ArrowDown","true","","","revaluation","1","6","","",""
"html-keyboard-response","125","670919","0.0-4.0-2.0-1.3","spark_pilot_2","7385","8","15","Female","","","","","","","null","<div style=""font-size:60px;"">+</div>","null","fixation","","","","","","","","","","","7","","",""
"revaluation","126","676932","0.0-4.0-2.0-0.4","spark_pilot_2","7385","8","15","Female","","false","","","","","[884.6999998092651,420.59999990463257]","./assets/img/canyon/memory/12.jpg","[""ArrowDown"",""ArrowLeft""]","value training","canyon","5","{""ArrowUp,ArrowLeft"":26,""ArrowUp,ArrowRight"":10,""ArrowDown,ArrowLeft"":5,""ArrowDown,ArrowRight"":17}","false","ArrowDown,ArrowLeft","false","","","revaluation","1","8","","",""
"html-keyboard-response","127","677434","0.0-4.0-2.0-1.4","spark_pilot_2","7385","8","15","Female","","","","","","","null","<div style=""font-size:60px;"">+</div>","null","fixation","","","","","","","","","","","9","","",""
"revaluation","128","683441","0.0-4.0-2.0-0.5","spark_pilot_2","7385","8","15","Female","","false","","","","","[708.2999997138977,418.40000009536743]","./assets/img/canyon/memory/19.jpg","[""ArrowUp"",""ArrowLeft""]","value training","canyon","26","{""ArrowUp,ArrowLeft"":26,""ArrowUp,ArrowRight"":10,""ArrowDown,ArrowLeft"":5,""ArrowDown,ArrowRight"":17}","true","ArrowUp,ArrowLeft","false","","","revaluation","1","10","","",""
"html-keyboard-response","129","683943","0.0-4.0-2.0-1.5","spark_pilot_2","7385","8","15","Female","","","","","","","null","<div style=""font-size:60px;"">+</div>","null","fixation","","","","","","","","","","","11","","",""
"revaluation","130","689949","0.0-4.0-2.0-0.6","spark_pilot_2","7385","8","15","Female","","false","","","","","[971.2000002861023,423.69999980926514]","./assets/img/canyon/memory/36.jpg","[""ArrowUp"",""ArrowLeft""]","value training","canyon","26","{""ArrowUp,ArrowLeft"":26,""ArrowUp,ArrowRight"":10,""ArrowDown,ArrowLeft"":5,""ArrowDown,ArrowRight"":17}","true","ArrowUp,ArrowLeft","false","","","revaluation","1","12","","",""
"html-keyboard-response","131","690451","0.0-4.0-2.0-1.6","spark_pilot_2","7385","8","15","Female","","","","","","","null","<div style=""font-size:60px;"">+</div>","null","fixation","","","","","","","","","","","13","","",""
"revaluation","132","696457","0.0-4.0-2.0-0.7","spark_pilot_2","7385","8","15","Female","","false","","","","","[763.4000000953674,361.30000019073486]","./assets/img/canyon/memory/19.jpg","[""ArrowUp"",""ArrowLeft""]","value training","canyon","26","{""ArrowUp,ArrowLeft"":26,""ArrowUp,ArrowRight"":10,""ArrowDown,ArrowLeft"":5,""ArrowDown,ArrowRight"":17}","true","ArrowUp,ArrowLeft","false","","","revaluation","1","14","","",""
"html-keyboard-response","133","696958","0.0-4.0-2.0-1.7","spark_pilot_2","7385","8","15","Female","","","","","","","null","<div style=""font-size:60px;"">+</div>","null","fixation","","","","","","","","","","","15","","",""
"revaluation","134","702964","0.0-4.0-2.0-0.8","spark_pilot_2","7385","8","15","Female","","false","","","","","[736.0999999046326,454.6000003814697]","./assets/img/canyon/memory/40.jpg","[""ArrowUp"",""ArrowLeft""]","value training","canyon","26","{""ArrowUp,ArrowLeft"":26,""ArrowUp,ArrowRight"":10,""ArrowDown,ArrowLeft"":5,""ArrowDown,ArrowRight"":17}","true","ArrowUp,ArrowLeft","false","","","revaluation","1","16","","",""
"html-keyboard-response","135","703466","0.0-4.0-2.0-1.8","spark_pilot_2","7385","8","15","Female","","","","","","","null","<div style=""font-size:60px;"">+</div>","null","fixation","","","","","","","","","","","17","","",""
"revaluation","136","709471","0.0-4.0-2.0-0.9","spark_pilot_2","7385","8","15","Female","","false","","","","","[947.9000000953674,776.6999998092651]","./assets/img/canyon/memory/30.jpg","[""ArrowUp"",""ArrowLeft""]","value training","canyon","26","{""ArrowUp,ArrowLeft"":26,""ArrowUp,ArrowRight"":10,""ArrowDown,ArrowLeft"":5,""ArrowDown,ArrowRight"":17}","true","ArrowUp,ArrowLeft","false","","","revaluation","1","18","","",""
"html-keyboard-response","137","709973","0.0-4.0-2.0-1.9","spark_pilot_2","7385","8","15","Female","","","","","","","null","<div style=""font-size:60px;"">+</div>","null","fixation","","","","","","","","","","","19","","",""
"revaluation","138","715979","0.0-4.0-2.0-0.10","spark_pilot_2","7385","8","15","Female","","false","","","","","[702.8000001907349,416.40000009536743]","./assets/img/canyon/memory/2.jpg","[""ArrowUp"",""ArrowLeft""]","value training","canyon","26","{""ArrowUp,ArrowLeft"":26,""ArrowUp,ArrowRight"":10,""ArrowDown,ArrowLeft"":5,""ArrowDown,ArrowRight"":17}","true","ArrowUp,ArrowLeft","false","","","revaluation","1","20","","",""
"html-keyboard-response","139","716481","0.0-4.0-2.0-1.10","spark_pilot_2","7385","8","15","Female","","","","","","","null","<div style=""font-size:60px;"">+</div>","null","fixation","","","","","","","","","","","21","","",""
"revaluation","140","720487","0.0-4.0-2.0-0.11","spark_pilot_2","7385","8","15","Female","","false","","","","","[603.1999998092651]","./assets/img/canyon/catch/6.jpg","[""spaceBar""]","value training","canyon","0","{""ArrowUp,ArrowLeft"":26,""ArrowUp,ArrowRight"":10,""ArrowDown,ArrowLeft"":5,""ArrowDown,ArrowRight"":17}","true","spaceBar","true","","","revaluation","1","22","","",""
"html-keyboard-response","141","720995","0.0-4.0-2.0-1.11","spark_pilot_2","7385","8","15","Female","","","","","","","null","<div style=""font-size:60px;"">+</div>","null","fixation","","","","","","","","","","","23","","",""
"revaluation","142","725001","0.0-4.0-2.0-0.12","spark_pilot_2","7385","8","15","Female","","false","","","","","[759.1999998092651]","./assets/img/canyon/catch/0.jpg","[""spaceBar""]","value training","canyon","0","{""ArrowUp,ArrowLeft"":26,""ArrowUp,ArrowRight"":10,""ArrowDown,ArrowLeft"":5,""ArrowDown,ArrowRight"":17}","true","spaceBar","true","","","revaluation","1","24","","",""
"html-keyboard-response","143","725503","0.0-4.0-2.0-1.12","spark_pilot_2","7385","8","15","Female","","","","","","","null","<div style=""font-size:60px;"">+</div>","null","fixation","","","","","","","","","","","25","","",""
"revaluation","144","731508","0.0-4.0-2.0-0.13","spark_pilot_2","7385","8","15","Female","","false","","","","","[1121.3000001907349,410.2000002861023]","./assets/img/canyon/memory/41.jpg","[""ArrowUp"",""ArrowLeft""]","value training","canyon","26","{""ArrowUp,ArrowLeft"":26,""ArrowUp,ArrowRight"":10,""ArrowDown,ArrowLeft"":5,""ArrowDown,ArrowRight"":17}","true","ArrowUp,ArrowLeft","false","","","revaluation","1","26","","",""
"html-keyboard-response","145","732010","0.0-4.0-2.0-1.13","spark_pilot_2","7385","8","15","Female","","","","","","","null","<div style=""font-size:60px;"">+</div>","null","fixation","","","","","","","","","","","27","","",""
"revaluation","146","738015","0.0-4.0-2.0-0.14","spark_pilot_2","7385","8","15","Female","","false","","","","","[1154,382.19999980926514]","./assets/img/canyon/memory/31.jpg","[""ArrowUp"",""ArrowLeft""]","value training","canyon","26","{""ArrowUp,ArrowLeft"":26,""ArrowUp,ArrowRight"":10,""ArrowDown,ArrowLeft"":5,""ArrowDown,ArrowRight"":17}","true","ArrowUp,ArrowLeft","false","","","revaluation","1","28","","",""
"html-keyboard-response","147","738518","0.0-4.0-2.0-1.14","spark_pilot_2","7385","8","15","Female","","","","","","","null","<div style=""font-size:60px;"">+</div>","null","fixation","","","","","","","","","","","29","","",""
"revaluation","148","742525","0.0-4.0-2.0-0.15","spark_pilot_2","7385","8","15","Female","","false","","","","","[280.5]","./assets/img/canyon/catch/3.jpg","[""ArrowUp""]","value training","canyon","-10","{""ArrowUp,ArrowLeft"":26,""ArrowUp,ArrowRight"":10,""ArrowDown,ArrowLeft"":5,""ArrowDown,ArrowRight"":17}","false","ArrowUp","true","","","revaluation","1","30","","",""
"html-keyboard-response","149","743027","0.0-4.0-2.0-1.15","spark_pilot_2","7385","8","15","Female","","","","","","","null","<div style=""font-size:60px;"">+</div>","null","fixation","","","","","","","","","","","31","","",""
"revaluation","150","749033","0.0-4.0-2.0-0.16","spark_pilot_2","7385","8","15","Female","","false","","","","","[927.2000002861023,596.5]","./assets/img/canyon/memory/39.jpg","[""ArrowUp"",""ArrowLeft""]","value training","canyon","26","{""ArrowUp,ArrowLeft"":26,""ArrowUp,ArrowRight"":10,""ArrowDown,ArrowLeft"":5,""ArrowDown,ArrowRight"":17}","true","ArrowUp,ArrowLeft","false","","","revaluation","1","32","","",""
"html-keyboard-response","151","749534","0.0-4.0-2.0-1.16","spark_pilot_2","7385","8","15","Female","","","","","","","null","<div style=""font-size:60px;"">+</div>","null","fixation","","","","","","","","","","","33","","",""
"revaluation","152","753540","0.0-4.0-2.0-0.17","spark_pilot_2","7385","8","15","Female","","false","","","","","[820]","./assets/img/canyon/catch/4.jpg","[""ArrowUp""]","value training","canyon","-10","{""ArrowUp,ArrowLeft"":26,""ArrowUp,ArrowRight"":10,""ArrowDown,ArrowLeft"":5,""ArrowDown,ArrowRight"":17}","false","ArrowUp","true","","","revaluation","1","34","","",""
"html-keyboard-response","153","754042","0.0-4.0-2.0-1.17","spark_pilot_2","7385","8","15","Female","","","","","","","null","<div style=""font-size:60px;"">+</div>","null","fixation","","","","","","","","","","","35","","",""
"revaluation","154","760047","0.0-4.0-2.0-0.18","spark_pilot_2","7385","8","15","Female","","false","","","","","[323.1000003814697,622.9000000953674]","./assets/img/canyon/memory/5.jpg","[""ArrowUp"",""ArrowLeft""]","value training","canyon","26","{""ArrowUp,ArrowLeft"":26,""ArrowUp,ArrowRight"":10,""ArrowDown,ArrowLeft"":5,""ArrowDown,ArrowRight"":17}","true","ArrowUp,ArrowLeft","false","","","revaluation","1","36","","",""
"html-keyboard-response","155","760550","0.0-4.0-2.0-1.18","spark_pilot_2","7385","8","15","Female","","","","","","","null","<div style=""font-size:60px;"">+</div>","null","fixation","","","","","","","","","","","37","","",""
"revaluation","156","766558","0.0-4.0-2.0-0.19","spark_pilot_2","7385","8","15","Female","","false","","","","","[1055.0999999046326,424.19999980926514]","./assets/img/canyon/memory/40.jpg","[""ArrowUp"",""ArrowLeft""]","value training","canyon","26","{""ArrowUp,ArrowLeft"":26,""ArrowUp,ArrowRight"":10,""ArrowDown,ArrowLeft"":5,""ArrowDown,ArrowRight"":17}","true","ArrowUp,ArrowLeft","false","","","revaluation","1","38","","",""
"html-keyboard-response","157","767060","0.0-4.0-2.0-1.19","spark_pilot_2","7385","8","15","Female","","","","","","","null","<div style=""font-size:60px;"">+</div>","null","fixation","","","","","","","","","","","39","","",""
"revaluation","158","773066","0.0-4.0-2.0-0.20","spark_pilot_2","7385","8","15","Female","","false","","","","","[916.2999997138977,911.6999998092651]","./assets/img/canyon/memory/15.jpg","[""ArrowUp"",""ArrowLeft""]","value training","canyon","26","{""ArrowUp,ArrowLeft"":26,""ArrowUp,ArrowRight"":10,""ArrowDown,ArrowLeft"":5,""ArrowDown,ArrowRight"":17}","true","ArrowUp,ArrowLeft","false","","","revaluation","1","40","","",""
"html-keyboard-response","159","773569","0.0-4.0-2.0-1.20","spark_pilot_2","7385","8","15","Female","","","","","","","null","<div style=""font-size:60px;"">+</div>","null","fixation","","","","","","","","","","","41","","",""
"revaluation","160","779580","0.0-4.0-2.0-0.21","spark_pilot_2","7385","8","15","Female","","false","","","","","[685,515.9000000953674]","./assets/img/canyon/memory/16.jpg","[""ArrowUp"",""ArrowLeft""]","value training","canyon","26","{""ArrowUp,ArrowLeft"":26,""ArrowUp,ArrowRight"":10,""ArrowDown,ArrowLeft"":5,""ArrowDown,ArrowRight"":17}","true","ArrowUp,ArrowLeft","false","","","revaluation","1","42","","",""
"html-keyboard-response","161","780081","0.0-4.0-2.0-1.21","spark_pilot_2","7385","8","15","Female","","","","","","","null","<div style=""font-size:60px;"">+</div>","null","fixation","","","","","","","","","","","43","","",""
"revaluation","162","786089","0.0-4.0-2.0-0.22","spark_pilot_2","7385","8","15","Female","","false","","","","","[643.7000002861023,332]","./assets/img/canyon/memory/28.jpg","[""ArrowUp"",""ArrowLeft""]","value training","canyon","26","{""ArrowUp,ArrowLeft"":26,""ArrowUp,ArrowRight"":10,""ArrowDown,ArrowLeft"":5,""ArrowDown,ArrowRight"":17}","true","ArrowUp,ArrowLeft","false","","","revaluation","1","44","","",""
"html-keyboard-response","163","786591","0.0-4.0-2.0-1.22","spark_pilot_2","7385","8","15","Female","","","","","","","null","<div style=""font-size:60px;"">+</div>","null","fixation","","","","","","","","","","","45","","",""
"revaluation","164","792596","0.0-4.0-2.0-0.23","spark_pilot_2","7385","8","15","Female","","false","","","","","[562.8000001907349,262.69999980926514]","./assets/img/canyon/memory/35.jpg","[""ArrowUp"",""ArrowLeft""]","value training","canyon","26","{""ArrowUp,ArrowLeft"":26,""ArrowUp,ArrowRight"":10,""ArrowDown,ArrowLeft"":5,""ArrowDown,ArrowRight"":17}","true","ArrowUp,ArrowLeft","false","","","revaluation","1","46","","",""
"html-keyboard-response","165","793098","0.0-4.0-2.0-1.23","spark_pilot_2","7385","8","15","Female","","","","","","","null","<div style=""font-size:60px;"">+</div>","null","fixation","","","","","","","","","","","47","","",""
"revaluation","166","797103","0.0-4.0-2.0-0.24","spark_pilot_2","7385","8","15","Female","","false","","","","","[736.0999999046326]","./assets/img/canyon/catch/5.jpg","[""spaceBar""]","value training","canyon","0","{""ArrowUp,ArrowLeft"":26,""ArrowUp,ArrowRight"":10,""ArrowDown,ArrowLeft"":5,""ArrowDown,ArrowRight"":17}","true","spaceBar","true","","","revaluation","1","48","","",""
"html-keyboard-response","167","797605","0.0-4.0-2.0-1.24","spark_pilot_2","7385","8","15","Female","","","","","","","null","<div style=""font-size:60px;"">+</div>","null","fixation","","","","","","","","","","","49","","",""
"revaluation","168","803613","0.0-4.0-2.0-0.25","spark_pilot_2","7385","8","15","Female","","false","","","","","[668.3000001907349,120.40000009536743]","./assets/img/canyon/memory/31.jpg","[""ArrowUp"",""ArrowLeft""]","value training","canyon","26","{""ArrowUp,ArrowLeft"":26,""ArrowUp,ArrowRight"":10,""ArrowDown,ArrowLeft"":5,""ArrowDown,ArrowRight"":17}","true","ArrowUp,ArrowLeft","false","","","revaluation","1","50","","",""
"html-keyboard-response","169","804116","0.0-4.0-2.0-1.25","spark_pilot_2","7385","8","15","Female","","","","","","","null","<div style=""font-size:60px;"">+</div>","null","fixation","","","","","","","","","","","51","","",""
"revaluation","170","810123","0.0-4.0-2.0-0.26","spark_pilot_2","7385","8","15","Female","","false","","","","","[729.4000000953674,438.30000019073486]","./assets/img/canyon/memory/2.jpg","[""ArrowUp"",""ArrowLeft""]","value training","canyon","26","{""ArrowUp,ArrowLeft"":26,""ArrowUp,ArrowRight"":10,""ArrowDown,ArrowLeft"":5,""ArrowDown,ArrowRight"":17}","true","ArrowUp,ArrowLeft","false","","","revaluation","1","52","","",""
"html-keyboard-response","171","810624","0.0-4.0-2.0-1.26","spark_pilot_2","7385","8","15","Female","","","","","","","null","<div style=""font-size:60px;"">+</div>","null","fixation","","","","","","","","","","","53","","",""
"revaluation","172","816629","0.0-4.0-2.0-0.27","spark_pilot_2","7385","8","15","Female","","false","","","","","[240.7000002861023,379.7999997138977]","./assets/img/canyon/memory/26.jpg","[""ArrowUp"",""ArrowLeft""]","value training","canyon","26","{""ArrowUp,ArrowLeft"":26,""ArrowUp,ArrowRight"":10,""ArrowDown,ArrowLeft"":5,""ArrowDown,ArrowRight"":17}","true","ArrowUp,ArrowLeft","false","","","revaluation","1","54","","",""
"html-keyboard-response","173","817131","0.0-4.0-2.0-1.27","spark_pilot_2","7385","8","15","Female","","","","","","","null","<div style=""font-size:60px;"">+</div>","null","fixation","","","","","","","","","","","55","","",""
"revaluation","174","823138","0.0-4.0-2.0-0.28","spark_pilot_2","7385","8","15","Female","","false","","","","","[644.9000000953674,354.19999980926514]","./assets/img/canyon/memory/28.jpg","[""ArrowUp"",""ArrowLeft""]","value training","canyon","26","{""ArrowUp,ArrowLeft"":26,""ArrowUp,ArrowRight"":10,""ArrowDown,ArrowLeft"":5,""ArrowDown,ArrowRight"":17}","true","ArrowUp,ArrowLeft","false","","","revaluation","1","56","","",""
"html-keyboard-response","175","823640","0.0-4.0-2.0-1.28","spark_pilot_2","7385","8","15","Female","","","","","","","null","<div style=""font-size:60px;"">+</div>","null","fixation","","","","","","","","","","","57","","",""
"revaluation","176","829649","0.0-4.0-2.0-0.29","spark_pilot_2","7385","8","15","Female","","false","","","","","[633.7999997138977,412.19999980926514]","./assets/img/canyon/memory/35.jpg","[""ArrowUp"",""ArrowLeft""]","value training","canyon","26","{""ArrowUp,ArrowLeft"":26,""ArrowUp,ArrowRight"":10,""ArrowDown,ArrowLeft"":5,""ArrowDown,ArrowRight"":17}","true","ArrowUp,ArrowLeft","false","","","revaluation","1","58","","",""
"html-keyboard-response","177","830151","0.0-4.0-2.0-1.29","spark_pilot_2","7385","8","15","Female","","","","","","","null","<div style=""font-size:60px;"">+</div>","null","fixation","","","","","","","","","","","59","","",""
"revaluation","178","836166","0.0-4.0-2.0-0.30","spark_pilot_2","7385","8","15","Female","","false","","","","","[724.9000000953674,288]","./assets/img/canyon/memory/14.jpg","[""ArrowUp"",""ArrowLeft""]","value training","canyon","26","{""ArrowUp,ArrowLeft"":26,""ArrowUp,ArrowRight"":10,""ArrowDown,ArrowLeft"":5,""ArrowDown,ArrowRight"":17}","true","ArrowUp,ArrowLeft","false","","","revaluation","1","60","","",""
"html-keyboard-response","179","836678","0.0-4.0-2.0-1.30","spark_pilot_2","7385","8","15","Female","","","","","","","null","<div style=""font-size:60px;"">+</div>","null","fixation","","","","","","","","","","","61","","",""
"revaluation","180","842684","0.0-4.0-2.0-0.31","spark_pilot_2","7385","8","15","Female","","false","","","","","[806.5999999046326,325.59999990463257]","./assets/img/canyon/memory/26.jpg","[""ArrowUp"",""ArrowLeft""]","value training","canyon","26","{""ArrowUp,ArrowLeft"":26,""ArrowUp,ArrowRight"":10,""ArrowDown,ArrowLeft"":5,""ArrowDown,ArrowRight"":17}","true","ArrowUp,ArrowLeft","false","","","revaluation","1","62","","",""
"html-keyboard-response","181","843186","0.0-4.0-2.0-1.31","spark_pilot_2","7385","8","15","Female","","","","","","","null","<div style=""font-size:60px;"">+</div>","null","fixation","","","","","","","","","","","63","","",""
"revaluation","182","849192","0.0-4.0-2.0-0.32","spark_pilot_2","7385","8","15","Female","","false","","","","","[679.0999999046326,298.2999997138977]","./assets/img/canyon/memory/41.jpg","[""ArrowUp"",""ArrowLeft""]","value training","canyon","26","{""ArrowUp,ArrowLeft"":26,""ArrowUp,ArrowRight"":10,""ArrowDown,ArrowLeft"":5,""ArrowDown,ArrowRight"":17}","true","ArrowUp,ArrowLeft","false","","","revaluation","1","64","","",""
"html-keyboard-response","183","849695","0.0-4.0-2.0-1.32","spark_pilot_2","7385","8","15","Female","","","","","","","null","<div style=""font-size:60px;"">+</div>","null","fixation","","","","","","","","","","","65","","",""
"revaluation","184","855700","0.0-4.0-2.0-0.33","spark_pilot_2","7385","8","15","Female","","false","","","","","[601.5999999046326,250.59999990463257]","./assets/img/canyon/memory/39.jpg","[""ArrowUp"",""ArrowLeft""]","value training","canyon","26","{""ArrowUp,ArrowLeft"":26,""ArrowUp,ArrowRight"":10,""ArrowDown,ArrowLeft"":5,""ArrowDown,ArrowRight"":17}","true","ArrowUp,ArrowLeft","false","","","revaluation","1","66","","",""
"html-keyboard-response","185","856202","0.0-4.0-2.0-1.33","spark_pilot_2","7385","8","15","Female","","","","","","","null","<div style=""font-size:60px;"">+</div>","null","fixation","","","","","","","","","","","67","","",""
"revaluation","186","862210","0.0-4.0-2.0-0.34","spark_pilot_2","7385","8","15","Female","","false","","","","","[762.6000003814697,401.69999980926514]","./assets/img/canyon/memory/30.jpg","[""ArrowUp"",""ArrowLeft""]","value training","canyon","26","{""ArrowUp,ArrowLeft"":26,""ArrowUp,ArrowRight"":10,""ArrowDown,ArrowLeft"":5,""ArrowDown,ArrowRight"":17}","true","ArrowUp,ArrowLeft","false","","","revaluation","1","68","","",""
"html-keyboard-response","187","862711","0.0-4.0-2.0-1.34","spark_pilot_2","7385","8","15","Female","","","","","","","null","<div style=""font-size:60px;"">+</div>","null","fixation","","","","","","","","","","","69","","",""
"revaluation","188","866716","0.0-4.0-2.0-0.35","spark_pilot_2","7385","8","15","Female","","false","","","","","[1092.5999999046326]","./assets/img/canyon/catch/1.jpg","[""spaceBar""]","value training","canyon","0","{""ArrowUp,ArrowLeft"":26,""ArrowUp,ArrowRight"":10,""ArrowDown,ArrowLeft"":5,""ArrowDown,ArrowRight"":17}","true","spaceBar","true","","","revaluation","1","70","","",""
"html-keyboard-response","189","867218","0.0-4.0-2.0-1.35","spark_pilot_2","7385","8","15","Female","","","","","","","null","<div style=""font-size:60px;"">+</div>","null","fixation","","","","","","","","","","","71","","",""
"revaluation","190","873223","0.0-4.0-2.0-0.36","spark_pilot_2","7385","8","15","Female","","false","","","","","[1001.0999999046326,347.2999997138977]","./assets/img/canyon/memory/25.jpg","[""ArrowUp"",""ArrowLeft""]","value training","canyon","26","{""ArrowUp,ArrowLeft"":26,""ArrowUp,ArrowRight"":10,""ArrowDown,ArrowLeft"":5,""ArrowDown,ArrowRight"":17}","true","ArrowUp,ArrowLeft","false","","","revaluation","1","72","","",""
"html-keyboard-response","191","873725","0.0-4.0-2.0-1.36","spark_pilot_2","7385","8","15","Female","","","","","","","null","<div style=""font-size:60px;"">+</div>","null","fixation","","","","","","","","","","","73","","",""
"revaluation","192","879732","0.0-4.0-2.0-0.37","spark_pilot_2","7385","8","15","Female","","false","","","","","[729.8999996185303,298.2000002861023]","./assets/img/canyon/memory/1.jpg","[""ArrowUp"",""ArrowLeft""]","value training","canyon","26","{""ArrowUp,ArrowLeft"":26,""ArrowUp,ArrowRight"":10,""ArrowDown,ArrowLeft"":5,""ArrowDown,ArrowRight"":17}","true","ArrowUp,ArrowLeft","false","","","revaluation","1","74","","",""
"html-keyboard-response","193","880234","0.0-4.0-2.0-1.37","spark_pilot_2","7385","8","15","Female","","","","","","","null","<div style=""font-size:60px;"">+</div>","null","fixation","","","","","","","","","","","75","","",""
"revaluation","194","886244","0.0-4.0-2.0-0.38","spark_pilot_2","7385","8","15","Female","","false","","","","","[611.3000001907349,536.8000001907349]","./assets/img/canyon/memory/38.jpg","[""ArrowUp"",""ArrowLeft""]","value training","canyon","26","{""ArrowUp,ArrowLeft"":26,""ArrowUp,ArrowRight"":10,""ArrowDown,ArrowLeft"":5,""ArrowDown,ArrowRight"":17}","true","ArrowUp,ArrowLeft","false","","","revaluation","1","76","","",""
"html-keyboard-response","195","886746","0.0-4.0-2.0-1.38","spark_pilot_2","7385","8","15","Female","","","","","","","null","<div style=""font-size:60px;"">+</div>","null","fixation","","","","","","","","","","","77","","",""
"revaluation","196","892759","0.0-4.0-2.0-0.39","spark_pilot_2","7385","8","15","Female","","false","","","","","[555.0999999046326,292.59999990463257]","./assets/img/canyon/memory/14.jpg","[""ArrowUp"",""ArrowLeft""]","value training","canyon","26","{""ArrowUp,ArrowLeft"":26,""ArrowUp,ArrowRight"":10,""ArrowDown,ArrowLeft"":5,""ArrowDown,ArrowRight"":17}","true","ArrowUp,ArrowLeft","false","","","revaluation","1","78","","",""
"html-keyboard-response","197","893261","0.0-4.0-2.0-1.39","spark_pilot_2","7385","8","15","Female","","","","","","","null","<div style=""font-size:60px;"">+</div>","null","fixation","","","","","","","","","","","79","","",""
"revaluation","198","899268","0.0-4.0-2.0-0.40","spark_pilot_2","7385","8","15","Female","","false","","","","","[944.1999998092651,324.7999997138977]","./assets/img/canyon/memory/1.jpg","[""ArrowUp"",""ArrowLeft""]","value training","canyon","26","{""ArrowUp,ArrowLeft"":26,""ArrowUp,ArrowRight"":10,""ArrowDown,ArrowLeft"":5,""ArrowDown,ArrowRight"":17}","true","ArrowUp,ArrowLeft","false","","","revaluation","1","80","","",""
"html-keyboard-response","199","899770","0.0-4.0-2.0-1.40","spark_pilot_2","7385","8","15","Female","","","","","","","null","<div style=""font-size:60px;"">+</div>","null","fixation","","","","","","","","","","","81","","",""
"revaluation","200","905776","0.0-4.0-2.0-0.41","spark_pilot_2","7385","8","15","Female","","false","","","","","[904,314]","./assets/img/canyon/memory/38.jpg","[""ArrowUp"",""ArrowLeft""]","value training","canyon","26","{""ArrowUp,ArrowLeft"":26,""ArrowUp,ArrowRight"":10,""ArrowDown,ArrowLeft"":5,""ArrowDown,ArrowRight"":17}","true","ArrowUp,ArrowLeft","false","","","revaluation","1","82","","",""
"html-keyboard-response","201","906279","0.0-4.0-2.0-1.41","spark_pilot_2","7385","8","15","Female","","","","","","","null","<div style=""font-size:60px;"">+</div>","null","fixation","","","","","","","","","","","83","","",""
"revaluation","202","910285","0.0-4.0-2.0-0.42","spark_pilot_2","7385","8","15","Female","","false","","","","","[534.8000001907349]","./assets/img/canyon/catch/7.jpg","[""spaceBar""]","value training","canyon","0","{""ArrowUp,ArrowLeft"":26,""ArrowUp,ArrowRight"":10,""ArrowDown,ArrowLeft"":5,""ArrowDown,ArrowRight"":17}","true","spaceBar","true","","","revaluation","1","84","","",""
"html-keyboard-response","203","910792","0.0-4.0-2.0-1.42","spark_pilot_2","7385","8","15","Female","","","","","","","null","<div style=""font-size:60px;"">+</div>","null","fixation","","","","","","","","","","","85","","",""
"revaluation","204","916799","0.0-4.0-2.0-0.43","spark_pilot_2","7385","8","15","Female","","false","","","","","[827.5999999046326,402.19999980926514]","./assets/img/canyon/memory/15.jpg","[""ArrowUp"",""ArrowLeft""]","value training","canyon","26","{""ArrowUp,ArrowLeft"":26,""ArrowUp,ArrowRight"":10,""ArrowDown,ArrowLeft"":5,""ArrowDown,ArrowRight"":17}","true","ArrowUp,ArrowLeft","false","","","revaluation","1","86","","",""
"html-keyboard-response","205","917300","0.0-4.0-2.0-1.43","spark_pilot_2","7385","8","15","Female","","","","","","","null","<div style=""font-size:60px;"">+</div>","null","fixation","","","","","","","","","","","87","","",""
"revaluation","206","923306","0.0-4.0-2.0-0.44","spark_pilot_2","7385","8","15","Female","","false","","","","","[1094.4000000953674,463.90000009536743]","./assets/img/canyon/memory/23.jpg","[""ArrowUp"",""ArrowLeft""]","value training","canyon","26","{""ArrowUp,ArrowLeft"":26,""ArrowUp,ArrowRight"":10,""ArrowDown,ArrowLeft"":5,""ArrowDown,ArrowRight"":17}","true","ArrowUp,ArrowLeft","false","","","revaluation","1","88","","",""
"html-keyboard-response","207","923809","0.0-4.0-2.0-1.44","spark_pilot_2","7385","8","15","Female","","","","","","","null","<div style=""font-size:60px;"">+</div>","null","fixation","","","","","","","","","","","89","","",""
"revaluation","208","929819","0.0-4.0-2.0-0.45","spark_pilot_2","7385","8","15","Female","","false","","","","","[934.9000000953674,244.39999961853027]","./assets/img/canyon/memory/36.jpg","[""ArrowUp"",""ArrowLeft""]","value training","canyon","26","{""ArrowUp,ArrowLeft"":26,""ArrowUp,ArrowRight"":10,""ArrowDown,ArrowLeft"":5,""ArrowDown,ArrowRight"":17}","true","ArrowUp,ArrowLeft","false","","","revaluation","1","90","","",""
"html-keyboard-response","209","930321","0.0-4.0-2.0-1.45","spark_pilot_2","7385","8","15","Female","","","","","","","null","<div style=""font-size:60px;"">+</div>","null","fixation","","","","","","","","","","","91","","",""
"revaluation","210","936327","0.0-4.0-2.0-0.46","spark_pilot_2","7385","8","15","Female","","false","","","","","[674.5,343.5]","./assets/img/canyon/memory/10.jpg","[""ArrowUp"",""ArrowLeft""]","value training","canyon","26","{""ArrowUp,ArrowLeft"":26,""ArrowUp,ArrowRight"":10,""ArrowDown,ArrowLeft"":5,""ArrowDown,ArrowRight"":17}","true","ArrowUp,ArrowLeft","false","","","revaluation","1","92","","",""
"html-keyboard-response","211","936828","0.0-4.0-2.0-1.46","spark_pilot_2","7385","8","15","Female","","","","","","","null","<div style=""font-size:60px;"">+</div>","null","fixation","","","","","","","","","","","93","","",""
"revaluation","212","942835","0.0-4.0-2.0-0.47","spark_pilot_2","7385","8","15","Female","","false","","","","","[978.0999999046326,444.90000009536743]","./assets/img/canyon/memory/12.jpg","[""ArrowUp"",""ArrowLeft""]","value training","canyon","26","{""ArrowUp,ArrowLeft"":26,""ArrowUp,ArrowRight"":10,""ArrowDown,ArrowLeft"":5,""ArrowDown,ArrowRight"":17}","true","ArrowUp,ArrowLeft","false","","","revaluation","1","94","","",""
"html-keyboard-response","213","943336","0.0-4.0-2.0-1.47","spark_pilot_2","7385","8","15","Female","","","","","","","null","<div style=""font-size:60px;"">+</div>","null","fixation","","","","","","","","","","","95","","",""
"revaluation","214","949343","0.0-4.0-2.0-0.48","spark_pilot_2","7385","8","15","Female","","false","","","","","[1518.3999996185303,556.5999999046326]","./assets/img/canyon/memory/23.jpg","[""ArrowUp"",""ArrowLeft""]","value training","canyon","26","{""ArrowUp,ArrowLeft"":26,""ArrowUp,ArrowRight"":10,""ArrowDown,ArrowLeft"":5,""ArrowDown,ArrowRight"":17}","true","ArrowUp,ArrowLeft","false","","","revaluation","1","96","","",""
"html-keyboard-response","215","949845","0.0-4.0-2.0-1.48","spark_pilot_2","7385","8","15","Female","","","","","","","null","<div style=""font-size:60px;"">+</div>","null","fixation","","","","","","","","","","","97","","",""
"revaluation","216","955852","0.0-4.0-2.0-0.49","spark_pilot_2","7385","8","15","Female","","false","","","","","[1170.8000001907349,412.30000019073486]","./assets/img/canyon/memory/10.jpg","[""ArrowUp"",""ArrowLeft""]","value training","canyon","26","{""ArrowUp,ArrowLeft"":26,""ArrowUp,ArrowRight"":10,""ArrowDown,ArrowLeft"":5,""ArrowDown,ArrowRight"":17}","true","ArrowUp,ArrowLeft","false","","","revaluation","1","98","","",""
"html-keyboard-response","217","956353","0.0-4.0-2.0-1.49","spark_pilot_2","7385","8","15","Female","","","","","","","null","<div style=""font-size:60px;"">+</div>","null","fixation","","","","","","","","","","","99","","",""
"learning-instructions","218","970675","0.0-4.0-3.0-0.0","spark_pilot_2","7385","8","15","Female","","","","","","","1174.5","<p> Now, you will travel with a friend who will choose whether you go up or down first. </p>
            <p> On these turns, you will just see the animal that they found. You will still get to choose which chest to search for treasure.</p>","","instructions","","","","","","","","","","","","","",""
"revaluation","219","974695","0.0-4.0-4.0-0.0","spark_pilot_2","7385","8","15","Female","","false","","","","","[1433.6999998092651]","./assets/img/canyon/animals/lion.jpg","[""ArrowLeft""]","revaluation","canyon","8","{""ArrowUp,ArrowLeft"":2,""ArrowUp,ArrowRight"":11,""ArrowDown,ArrowLeft"":8,""ArrowDown,ArrowRight"":27}","false","ArrowDown,ArrowLeft","","","","revaluation","1","0","","",""
"html-keyboard-response","220","975210","0.0-4.0-4.0-1.0","spark_pilot_2","7385","8","15","Female","","","","","","","null","<div style=""font-size:60px;"">+</div>","null","fixation","","","","","","","","","","","1","","",""
"revaluation","221","979225","0.0-4.0-4.0-0.1","spark_pilot_2","7385","8","15","Female","","false","","","","","[946.5999999046326]","./assets/img/canyon/animals/giraffe.jpg","[""ArrowLeft""]","revaluation","canyon","2","{""ArrowUp,ArrowLeft"":2,""ArrowUp,ArrowRight"":11,""ArrowDown,ArrowLeft"":8,""ArrowDown,ArrowRight"":27}","false","ArrowUp,ArrowLeft","","","","revaluation","1","2","","",""
"html-keyboard-response","222","979738","0.0-4.0-4.0-1.1","spark_pilot_2","7385","8","15","Female","","","","","","","null","<div style=""font-size:60px;"">+</div>","null","fixation","","","","","","","","","","","3","","",""
"revaluation","223","983767","0.0-4.0-4.0-0.2","spark_pilot_2","7385","8","15","Female","","false","","","","","[768.5999999046326]","./assets/img/canyon/animals/lion.jpg","[""ArrowRight""]","revaluation","canyon","27","{""ArrowUp,ArrowLeft"":2,""ArrowUp,ArrowRight"":11,""ArrowDown,ArrowLeft"":8,""ArrowDown,ArrowRight"":27}","true","ArrowDown,ArrowRight","","","","revaluation","1","4","","",""
"html-keyboard-response","224","984279","0.0-4.0-4.0-1.2","spark_pilot_2","7385","8","15","Female","","","","","","","null","<div style=""font-size:60px;"">+</div>","null","fixation","","","","","","","","","","","5","","",""
"revaluation","225","988295","0.0-4.0-4.0-0.3","spark_pilot_2","7385","8","15","Female","","false","","","","","[937.3000001907349]","./assets/img/canyon/animals/lion.jpg","[""ArrowRight""]","revaluation","canyon","27","{""ArrowUp,ArrowLeft"":2,""ArrowUp,ArrowRight"":11,""ArrowDown,ArrowLeft"":8,""ArrowDown,ArrowRight"":27}","true","ArrowDown,ArrowRight","","","","revaluation","1","6","","",""
"html-keyboard-response","226","988809","0.0-4.0-4.0-1.3","spark_pilot_2","7385","8","15","Female","","","","","","","null","<div style=""font-size:60px;"">+</div>","null","fixation","","","","","","","","","","","7","","",""
"revaluation","227","992822","0.0-4.0-4.0-0.4","spark_pilot_2","7385","8","15","Female","","false","","","","","[457.5]","./assets/img/canyon/animals/giraffe.jpg","[""ArrowRight""]","revaluation","canyon","11","{""ArrowUp,ArrowLeft"":2,""ArrowUp,ArrowRight"":11,""ArrowDown,ArrowLeft"":8,""ArrowDown,ArrowRight"":27}","true","ArrowUp,ArrowRight","","","","revaluation","1","8","","",""
"html-keyboard-response","228","993335","0.0-4.0-4.0-1.4","spark_pilot_2","7385","8","15","Female","","","","","","","null","<div style=""font-size:60px;"">+</div>","null","fixation","","","","","","","","","","","9","","",""
"revaluation","229","997349","0.0-4.0-4.0-0.5","spark_pilot_2","7385","8","15","Female","","false","","","","","[1721.9000000953674]","./assets/img/canyon/animals/giraffe.jpg","[""ArrowLeft""]","revaluation","canyon","2","{""ArrowUp,ArrowLeft"":2,""ArrowUp,ArrowRight"":11,""ArrowDown,ArrowLeft"":8,""ArrowDown,ArrowRight"":27}","false","ArrowUp,ArrowLeft","","","","revaluation","1","10","","",""
"html-keyboard-response","230","997863","0.0-4.0-4.0-1.5","spark_pilot_2","7385","8","15","Female","","","","","","","null","<div style=""font-size:60px;"">+</div>","null","fixation","","","","","","","","","","","11","","",""
"revaluation","231","1001868","0.0-4.0-4.0-0.6","spark_pilot_2","7385","8","15","Female","","false","","","","","[732.6999998092651]","./assets/img/canyon/animals/giraffe.jpg","[""ArrowRight""]","revaluation","canyon","11","{""ArrowUp,ArrowLeft"":2,""ArrowUp,ArrowRight"":11,""ArrowDown,ArrowLeft"":8,""ArrowDown,ArrowRight"":27}","true","ArrowUp,ArrowRight","","","","revaluation","1","12","","",""
"html-keyboard-response","232","1002370","0.0-4.0-4.0-1.6","spark_pilot_2","7385","8","15","Female","","","","","","","null","<div style=""font-size:60px;"">+</div>","null","fixation","","","","","","","","","","","13","","",""
"revaluation","233","1006375","0.0-4.0-4.0-0.7","spark_pilot_2","7385","8","15","Female","","false","","","","","[600.5999999046326]","./assets/img/canyon/animals/lion.jpg","[""ArrowRight""]","revaluation","canyon","27","{""ArrowUp,ArrowLeft"":2,""ArrowUp,ArrowRight"":11,""ArrowDown,ArrowLeft"":8,""ArrowDown,ArrowRight"":27}","true","ArrowDown,ArrowRight","","","","revaluation","1","14","","",""
"html-keyboard-response","234","1006877","0.0-4.0-4.0-1.7","spark_pilot_2","7385","8","15","Female","","","","","","","null","<div style=""font-size:60px;"">+</div>","null","fixation","","","","","","","","","","","15","","",""
"revaluation","235","1010881","0.0-4.0-4.0-0.8","spark_pilot_2","7385","8","15","Female","","false","","","","","[391.19999980926514]","./assets/img/canyon/animals/giraffe.jpg","[""ArrowRight""]","revaluation","canyon","11","{""ArrowUp,ArrowLeft"":2,""ArrowUp,ArrowRight"":11,""ArrowDown,ArrowLeft"":8,""ArrowDown,ArrowRight"":27}","true","ArrowUp,ArrowRight","","","","revaluation","1","16","","",""
"html-keyboard-response","236","1011383","0.0-4.0-4.0-1.8","spark_pilot_2","7385","8","15","Female","","","","","","","null","<div style=""font-size:60px;"">+</div>","null","fixation","","","","","","","","","","","17","","",""
"revaluation","237","1015389","0.0-4.0-4.0-0.9","spark_pilot_2","7385","8","15","Female","","false","","","","","[293.5]","./assets/img/canyon/animals/lion.jpg","[""ArrowRight""]","revaluation","canyon","27","{""ArrowUp,ArrowLeft"":2,""ArrowUp,ArrowRight"":11,""ArrowDown,ArrowLeft"":8,""ArrowDown,ArrowRight"":27}","true","ArrowDown,ArrowRight","","","","revaluation","1","18","","",""
"html-keyboard-response","238","1015905","0.0-4.0-4.0-1.9","spark_pilot_2","7385","8","15","Female","","","","","","","null","<div style=""font-size:60px;"">+</div>","null","fixation","","","","","","","","","","","19","","",""
"revaluation","239","1019910","0.0-4.0-4.0-0.10","spark_pilot_2","7385","8","15","Female","","false","","","","","[279.90000009536743]","./assets/img/canyon/animals/lion.jpg","[""ArrowRight""]","revaluation","canyon","27","{""ArrowUp,ArrowLeft"":2,""ArrowUp,ArrowRight"":11,""ArrowDown,ArrowLeft"":8,""ArrowDown,ArrowRight"":27}","true","ArrowDown,ArrowRight","","","","revaluation","1","20","","",""
"html-keyboard-response","240","1020412","0.0-4.0-4.0-1.10","spark_pilot_2","7385","8","15","Female","","","","","","","null","<div style=""font-size:60px;"">+</div>","null","fixation","","","","","","","","","","","21","","",""
"revaluation","241","1024417","0.0-4.0-4.0-0.11","spark_pilot_2","7385","8","15","Female","","false","","","","","[286.8999996185303]","./assets/img/canyon/animals/giraffe.jpg","[""ArrowRight""]","revaluation","canyon","11","{""ArrowUp,ArrowLeft"":2,""ArrowUp,ArrowRight"":11,""ArrowDown,ArrowLeft"":8,""ArrowDown,ArrowRight"":27}","true","ArrowUp,ArrowRight","","","","revaluation","1","22","","",""
"html-keyboard-response","242","1024919","0.0-4.0-4.0-1.11","spark_pilot_2","7385","8","15","Female","","","","","","","null","<div style=""font-size:60px;"">+</div>","null","fixation","","","","","","","","","","","23","","",""
"revaluation","243","1028926","0.0-4.0-4.0-0.12","spark_pilot_2","7385","8","15","Female","","false","","","","","[206.5]","./assets/img/canyon/animals/lion.jpg","[""ArrowRight""]","revaluation","canyon","27","{""ArrowUp,ArrowLeft"":2,""ArrowUp,ArrowRight"":11,""ArrowDown,ArrowLeft"":8,""ArrowDown,ArrowRight"":27}","true","ArrowDown,ArrowRight","","","","revaluation","1","24","","",""
"html-keyboard-response","244","1029427","0.0-4.0-4.0-1.12","spark_pilot_2","7385","8","15","Female","","","","","","","null","<div style=""font-size:60px;"">+</div>","null","fixation","","","","","","","","","","","25","","",""
"revaluation","245","1033432","0.0-4.0-4.0-0.13","spark_pilot_2","7385","8","15","Female","","false","","","","","[340.30000019073486]","./assets/img/canyon/animals/lion.jpg","[""ArrowRight""]","revaluation","canyon","27","{""ArrowUp,ArrowLeft"":2,""ArrowUp,ArrowRight"":11,""ArrowDown,ArrowLeft"":8,""ArrowDown,ArrowRight"":27}","true","ArrowDown,ArrowRight","","","","revaluation","1","26","","",""
"html-keyboard-response","246","1033934","0.0-4.0-4.0-1.13","spark_pilot_2","7385","8","15","Female","","","","","","","null","<div style=""font-size:60px;"">+</div>","null","fixation","","","","","","","","","","","27","","",""
"revaluation","247","1037941","0.0-4.0-4.0-0.14","spark_pilot_2","7385","8","15","Female","","false","","","","","[332.2000002861023]","./assets/img/canyon/animals/giraffe.jpg","[""ArrowRight""]","revaluation","canyon","11","{""ArrowUp,ArrowLeft"":2,""ArrowUp,ArrowRight"":11,""ArrowDown,ArrowLeft"":8,""ArrowDown,ArrowRight"":27}","true","ArrowUp,ArrowRight","","","","revaluation","1","28","","",""
"html-keyboard-response","248","1038443","0.0-4.0-4.0-1.14","spark_pilot_2","7385","8","15","Female","","","","","","","null","<div style=""font-size:60px;"">+</div>","null","fixation","","","","","","","","","","","29","","",""
"revaluation","249","1042448","0.0-4.0-4.0-0.15","spark_pilot_2","7385","8","15","Female","","false","","","","","[285.40000009536743]","./assets/img/canyon/animals/giraffe.jpg","[""ArrowRight""]","revaluation","canyon","11","{""ArrowUp,ArrowLeft"":2,""ArrowUp,ArrowRight"":11,""ArrowDown,ArrowLeft"":8,""ArrowDown,ArrowRight"":27}","true","ArrowUp,ArrowRight","","","","revaluation","1","30","","",""
"html-keyboard-response","250","1042949","0.0-4.0-4.0-1.15","spark_pilot_2","7385","8","15","Female","","","","","","","null","<div style=""font-size:60px;"">+</div>","null","fixation","","","","","","","","","","","31","","",""
"revaluation","251","1046956","0.0-4.0-4.0-0.16","spark_pilot_2","7385","8","15","Female","","false","","","","","[347.09999990463257]","./assets/img/canyon/animals/lion.jpg","[""ArrowRight""]","revaluation","canyon","27","{""ArrowUp,ArrowLeft"":2,""ArrowUp,ArrowRight"":11,""ArrowDown,ArrowLeft"":8,""ArrowDown,ArrowRight"":27}","true","ArrowDown,ArrowRight","","","","revaluation","1","32","","",""
"html-keyboard-response","252","1047458","0.0-4.0-4.0-1.16","spark_pilot_2","7385","8","15","Female","","","","","","","null","<div style=""font-size:60px;"">+</div>","null","fixation","","","","","","","","","","","33","","",""
"revaluation","253","1051464","0.0-4.0-4.0-0.17","spark_pilot_2","7385","8","15","Female","","false","","","","","[367.80000019073486]","./assets/img/canyon/animals/giraffe.jpg","[""ArrowRight""]","revaluation","canyon","11","{""ArrowUp,ArrowLeft"":2,""ArrowUp,ArrowRight"":11,""ArrowDown,ArrowLeft"":8,""ArrowDown,ArrowRight"":27}","true","ArrowUp,ArrowRight","","","","revaluation","1","34","","",""
"html-keyboard-response","254","1051966","0.0-4.0-4.0-1.17","spark_pilot_2","7385","8","15","Female","","","","","","","null","<div style=""font-size:60px;"">+</div>","null","fixation","","","","","","","","","","","35","","",""
"learning-instructions","255","1064349","0.0-4.0-5.0-0.0","spark_pilot_2","7385","8","15","Female","","","","","","","824.0999999046326","<p> Time to play the dot game! </p>
            <p> For one minute, click the red dots on the following screen as they appear. </p>
            <p><b> Don't look away, as you will earn bonus for clicking dots</b>. </p>","","instructions","","","","","","","","","","","","","",""
"revaluation","256","1124351","0.0-4.0-6.0-0.0","spark_pilot_2","7385","8","15","Female","","","","","","","[60,52,81,56,64,60,47]","","","rest","","70","","","","","0","60000","","","","","",""
"learning-instructions","257","1131471","0.0-4.0-7.0-0.0","spark_pilot_2","7385","8","15","Female","","","","","","","789.4000000953674","<p> You have almost finished this part of the game! </p>
            <p> We are going to ask you to make a few more choices. </p>","","instructions","","","","","","","","","","","","","",""
"learning-instructions","258","1145944","0.0-4.0-7.0-0.1","spark_pilot_2","7385","8","15","Female","","","","","","","501.90000009536743","<p> First, you need to decide whether to go up or down. When you see each picture, use the arrow keys to make your choice. </p>
            <p><b>You will not see which animal you found, but try to get to the one that will give you the most treasure.</b></p>","","instructions","","","","","","","","","","","","","",""
"revaluation","259","1147171","0.0-4.0-8.0-0.0","spark_pilot_2","7385","8","15","Female","","false","","","","","[1226.1999998092651]","./assets/img/canyon/test/3.jpg","[""ArrowUp""]","first stage test","canyon","0","{""ArrowUp,ArrowLeft"":2,""ArrowUp,ArrowRight"":11,""ArrowDown,ArrowLeft"":8,""ArrowDown,ArrowRight"":27}","false","ArrowUp","false","","","revaluation","1","","","",""
"html-keyboard-response","260","1147682","0.0-4.0-8.0-1.0","spark_pilot_2","7385","8","15","Female","","","","","","","null","<div style=""font-size:60px;"">+</div>","null","fixation","","","","","","","","","","","","","",""
"revaluation","261","1148895","0.0-4.0-8.0-0.1","spark_pilot_2","7385","8","15","Female","","false","","","","","[1210.1000003814697]","./assets/img/canyon/test/2.jpg","[""ArrowUp""]","first stage test","canyon","0","{""ArrowUp,ArrowLeft"":2,""ArrowUp,ArrowRight"":11,""ArrowDown,ArrowLeft"":8,""ArrowDown,ArrowRight"":27}","false","ArrowUp","false","","","revaluation","1","","","",""
"html-keyboard-response","262","1149411","0.0-4.0-8.0-1.1","spark_pilot_2","7385","8","15","Female","","","","","","","null","<div style=""font-size:60px;"">+</div>","null","fixation","","","","","","","","","","","","","",""
"revaluation","263","1149955","0.0-4.0-8.0-0.2","spark_pilot_2","7385","8","15","Female","","false","","","","","[539.1999998092651]","./assets/img/canyon/test/0.jpg","[""ArrowUp""]","first stage test","canyon","0","{""ArrowUp,ArrowLeft"":2,""ArrowUp,ArrowRight"":11,""ArrowDown,ArrowLeft"":8,""ArrowDown,ArrowRight"":27}","false","ArrowUp","false","","","revaluation","1","","","",""
"html-keyboard-response","264","1150470","0.0-4.0-8.0-1.2","spark_pilot_2","7385","8","15","Female","","","","","","","null","<div style=""font-size:60px;"">+</div>","null","fixation","","","","","","","","","","","","","",""
"revaluation","265","1150774","0.0-4.0-8.0-0.3","spark_pilot_2","7385","8","15","Female","","false","","","","","[301.1000003814697]","./assets/img/canyon/test/1.jpg","[""ArrowUp""]","first stage test","canyon","0","{""ArrowUp,ArrowLeft"":2,""ArrowUp,ArrowRight"":11,""ArrowDown,ArrowLeft"":8,""ArrowDown,ArrowRight"":27}","false","ArrowUp","false","","","revaluation","1","","","",""
"html-keyboard-response","266","1151276","0.0-4.0-8.0-1.3","spark_pilot_2","7385","8","15","Female","","","","","","","null","<div style=""font-size:60px;"">+</div>","null","fixation","","","","","","","","","","","","","",""
"learning-instructions","267","1163307","0.0-4.0-9.0-0.0","spark_pilot_2","7385","8","15","Female","","","","","","","695.4000000953674","<p> Now you will see the animals again and can search their chests for treasure. </p>
            <p> This time, you will not see how much treasure you earned, but you will earn more bonus money for making better choices. </p>","","instructions","","","","","","","","","","","","","",""
"revaluation","268","1165505","0.0-4.0-10.0-0.0","spark_pilot_2","7385","8","15","Female","","false","","","","","[2195.800000190735]","./assets/img/canyon/animals/giraffe.jpg","[""ArrowRight""]","second stage test","canyon","0","{""ArrowUp,ArrowLeft"":2,""ArrowUp,ArrowRight"":11,""ArrowDown,ArrowLeft"":8,""ArrowDown,ArrowRight"":27}","true","ArrowUp,ArrowRight","","","","revaluation","1","","","",""
"html-keyboard-response","269","1166021","0.0-4.0-10.0-1.0","spark_pilot_2","7385","8","15","Female","","","","","","","null","<div style=""font-size:60px;"">+</div>","null","fixation","","","","","","","","","","","","","",""
"revaluation","270","1166734","0.0-4.0-10.0-0.1","spark_pilot_2","7385","8","15","Female","","false","","","","","[709.8000001907349]","./assets/img/canyon/animals/giraffe.jpg","[""ArrowRight""]","second stage test","canyon","0","{""ArrowUp,ArrowLeft"":2,""ArrowUp,ArrowRight"":11,""ArrowDown,ArrowLeft"":8,""ArrowDown,ArrowRight"":27}","true","ArrowUp,ArrowRight","","","","revaluation","1","","","",""
"html-keyboard-response","271","1167248","0.0-4.0-10.0-1.1","spark_pilot_2","7385","8","15","Female","","","","","","","null","<div style=""font-size:60px;"">+</div>","null","fixation","","","","","","","","","","","","","",""
"revaluation","272","1167795","0.0-4.0-10.0-0.2","spark_pilot_2","7385","8","15","Female","","false","","","","","[544.9000000953674]","./assets/img/canyon/animals/giraffe.jpg","[""ArrowRight""]","second stage test","canyon","0","{""ArrowUp,ArrowLeft"":2,""ArrowUp,ArrowRight"":11,""ArrowDown,ArrowLeft"":8,""ArrowDown,ArrowRight"":27}","true","ArrowUp,ArrowRight","","","","revaluation","1","","","",""
"html-keyboard-response","273","1168310","0.0-4.0-10.0-1.2","spark_pilot_2","7385","8","15","Female","","","","","","","null","<div style=""font-size:60px;"">+</div>","null","fixation","","","","","","","","","","","","","",""
"revaluation","274","1168835","0.0-4.0-10.0-0.3","spark_pilot_2","7385","8","15","Female","","false","","","","","[522.5]","./assets/img/canyon/animals/giraffe.jpg","[""ArrowRight""]","second stage test","canyon","0","{""ArrowUp,ArrowLeft"":2,""ArrowUp,ArrowRight"":11,""ArrowDown,ArrowLeft"":8,""ArrowDown,ArrowRight"":27}","true","ArrowUp,ArrowRight","","","","revaluation","1","","","",""
"html-keyboard-response","275","1169339","0.0-4.0-10.0-1.3","spark_pilot_2","7385","8","15","Female","","","","","","","null","<div style=""font-size:60px;"">+</div>","null","fixation","","","","","","","","","","","","","",""
"revaluation","276","1174817","0.0-4.0-10.0-0.4","spark_pilot_2","7385","8","15","Female","","false","","","","","[5474.299999713898]","./assets/img/canyon/animals/lion.jpg","[""ArrowRight""]","second stage test","canyon","0","{""ArrowUp,ArrowLeft"":2,""ArrowUp,ArrowRight"":11,""ArrowDown,ArrowLeft"":8,""ArrowDown,ArrowRight"":27}","true","ArrowDown,ArrowRight","","","","revaluation","1","","","",""
"html-keyboard-response","277","1175328","0.0-4.0-10.0-1.4","spark_pilot_2","7385","8","15","Female","","","","","","","null","<div style=""font-size:60px;"">+</div>","null","fixation","","","","","","","","","","","","","",""
"revaluation","278","1175815","0.0-4.0-10.0-0.5","spark_pilot_2","7385","8","15","Female","","false","","","","","[483.59999990463257]","./assets/img/canyon/animals/lion.jpg","[""ArrowRight""]","second stage test","canyon","0","{""ArrowUp,ArrowLeft"":2,""ArrowUp,ArrowRight"":11,""ArrowDown,ArrowLeft"":8,""ArrowDown,ArrowRight"":27}","true","ArrowDown,ArrowRight","","","","revaluation","1","","","",""
"html-keyboard-response","279","1176325","0.0-4.0-10.0-1.5","spark_pilot_2","7385","8","15","Female","","","","","","","null","<div style=""font-size:60px;"">+</div>","null","fixation","","","","","","","","","","","","","",""
"revaluation","280","1176794","0.0-4.0-10.0-0.6","spark_pilot_2","7385","8","15","Female","","false","","","","","[465.59999990463257]","./assets/img/canyon/animals/lion.jpg","[""ArrowRight""]","second stage test","canyon","0","{""ArrowUp,ArrowLeft"":2,""ArrowUp,ArrowRight"":11,""ArrowDown,ArrowLeft"":8,""ArrowDown,ArrowRight"":27}","true","ArrowDown,ArrowRight","","","","revaluation","1","","","",""
"html-keyboard-response","281","1177306","0.0-4.0-10.0-1.6","spark_pilot_2","7385","8","15","Female","","","","","","","null","<div style=""font-size:60px;"">+</div>","null","fixation","","","","","","","","","","","","","",""
"revaluation","282","1177735","0.0-4.0-10.0-0.7","spark_pilot_2","7385","8","15","Female","","false","","","","","[426]","./assets/img/canyon/animals/lion.jpg","[""ArrowRight""]","second stage test","canyon","0","{""ArrowUp,ArrowLeft"":2,""ArrowUp,ArrowRight"":11,""ArrowDown,ArrowLeft"":8,""ArrowDown,ArrowRight"":27}","true","ArrowDown,ArrowRight","","","","revaluation","1","","","",""
"html-keyboard-response","283","1178240","0.0-4.0-10.0-1.7","spark_pilot_2","7385","8","15","Female","","","","","","","null","<div style=""font-size:60px;"">+</div>","null","fixation","","","","","","","","","","","","","",""
"learning-instructions","284","1182948","0.0-4.0-0.1-0.2","spark_pilot_2","7385","8","15","Female","","","","","","","1986.4000000953674","<p> This time you are searching for treasure in the <b>ocean</b>.</p>","","instructions","","","","","","","","","","","","","",""
"learning-instructions","285","1200512","0.0-4.0-0.1-0.3","spark_pilot_2","7385","8","15","Female","","","","","","","310.69999980926514","<p><b>New</b> animals with <b>new</b> treasure chests live here. You need to explore to discover where the animal with the best treasure chest is.</p>
                    <p> Like before, once you figure out which animal has the chest with the most treasure, you should try to get to that animal and select that chest! </p>","","instructions","","","","","","","","","","","","","",""
"learning-instructions","286","1216156","0.0-4.0-1.1-0.1","spark_pilot_2","7385","8","15","Female","","","","","","","914.8000001907349","<p> Remember, when you see a picture of the place, use the up and down keys to <b>find an animal</b>.</p>
            <p> When you encounter an animal, you should use the left and right keys to <b>select a treasure chest</b>.</p>
            <p> Don't forget to look out for the robber! </p>","","instructions","","","","","","","","","","","","","",""
"revaluation","287","1222177","0.0-4.0-2.1-0.50","spark_pilot_2","7385","8","15","Female","","false","","","","","[815.3000001907349,378.5]","./assets/img/ocean/memory/5.jpg","[""ArrowDown"",""ArrowRight""]","value training","ocean","30","{""ArrowUp,ArrowLeft"":23,""ArrowUp,ArrowRight"":10,""ArrowDown,ArrowLeft"":8,""ArrowDown,ArrowRight"":30}","true","ArrowDown,ArrowRight","false","","","original","2","0","","",""
"html-keyboard-response","288","1222690","0.0-4.0-2.1-1.50","spark_pilot_2","7385","8","15","Female","","","","","","","null","<div style=""font-size:60px;"">+</div>","null","fixation","","","","","","","","","","","1","","",""
"revaluation","289","1228710","0.0-4.0-2.1-0.51","spark_pilot_2","7385","8","15","Female","","false","","","","","[271,366.90000009536743]","./assets/img/ocean/memory/35.jpg","[""ArrowDown"",""ArrowLeft""]","value training","ocean","8","{""ArrowUp,ArrowLeft"":23,""ArrowUp,ArrowRight"":10,""ArrowDown,ArrowLeft"":8,""ArrowDown,ArrowRight"":30}","false","ArrowDown,ArrowLeft","false","","","original","2","2","","",""
"html-keyboard-response","290","1229224","0.0-4.0-2.1-1.51","spark_pilot_2","7385","8","15","Female","","","","","","","null","<div style=""font-size:60px;"">+</div>","null","fixation","","","","","","","","","","","3","","",""
"revaluation","291","1235247","0.0-4.0-2.1-0.52","spark_pilot_2","7385","8","15","Female","","false","","","","","[317.5,521.5999999046326]","./assets/img/ocean/memory/15.jpg","[""ArrowUp"",""ArrowRight""]","value training","ocean","10","{""ArrowUp,ArrowLeft"":23,""ArrowUp,ArrowRight"":10,""ArrowDown,ArrowLeft"":8,""ArrowDown,ArrowRight"":30}","false","ArrowUp,ArrowRight","false","","","original","2","4","","",""
"html-keyboard-response","292","1235758","0.0-4.0-2.1-1.52","spark_pilot_2","7385","8","15","Female","","","","","","","null","<div style=""font-size:60px;"">+</div>","null","fixation","","","","","","","","","","","5","","",""
"revaluation","293","1239775","0.0-4.0-2.1-0.53","spark_pilot_2","7385","8","15","Female","","false","","","","","[712.3000001907349]","./assets/img/ocean/catch/6.jpg","[""ArrowUp""]","value training","ocean","-10","{""ArrowUp,ArrowLeft"":23,""ArrowUp,ArrowRight"":10,""ArrowDown,ArrowLeft"":8,""ArrowDown,ArrowRight"":30}","false","ArrowUp","true","","","original","2","6","","",""
"html-keyboard-response","294","1240287","0.0-4.0-2.1-1.53","spark_pilot_2","7385","8","15","Female","","","","","","","null","<div style=""font-size:60px;"">+</div>","null","fixation","","","","","","","","","","","7","","",""
"revaluation","295","1246303","0.0-4.0-2.1-0.54","spark_pilot_2","7385","8","15","Female","","false","","","","","[614.1999998092651,400.5]","./assets/img/ocean/memory/39.jpg","[""ArrowUp"",""ArrowLeft""]","value training","ocean","23","{""ArrowUp,ArrowLeft"":23,""ArrowUp,ArrowRight"":10,""ArrowDown,ArrowLeft"":8,""ArrowDown,ArrowRight"":30}","false","ArrowUp,ArrowLeft","false","","","original","2","8","","",""
"html-keyboard-response","296","1246805","0.0-4.0-2.1-1.54","spark_pilot_2","7385","8","15","Female","","","","","","","null","<div style=""font-size:60px;"">+</div>","null","fixation","","","","","","","","","","","9","","",""
"revaluation","297","1252810","0.0-4.0-2.1-0.55","spark_pilot_2","7385","8","15","Female","","false","","","","","[416.80000019073486,296.5]","./assets/img/ocean/memory/2.jpg","[""ArrowDown"",""ArrowRight""]","value training","ocean","30","{""ArrowUp,ArrowLeft"":23,""ArrowUp,ArrowRight"":10,""ArrowDown,ArrowLeft"":8,""ArrowDown,ArrowRight"":30}","true","ArrowDown,ArrowRight","false","","","original","2","10","","",""
"html-keyboard-response","298","1253326","0.0-4.0-2.1-1.55","spark_pilot_2","7385","8","15","Female","","","","","","","null","<div style=""font-size:60px;"">+</div>","null","fixation","","","","","","","","","","","11","","",""
"revaluation","299","1259333","0.0-4.0-2.1-0.56","spark_pilot_2","7385","8","15","Female","","false","","","","","[326.19999980926514,293.69999980926514]","./assets/img/ocean/memory/15.jpg","[""ArrowDown"",""ArrowRight""]","value training","ocean","30","{""ArrowUp,ArrowLeft"":23,""ArrowUp,ArrowRight"":10,""ArrowDown,ArrowLeft"":8,""ArrowDown,ArrowRight"":30}","true","ArrowDown,ArrowRight","false","","","original","2","12","","",""
"html-keyboard-response","300","1259835","0.0-4.0-2.1-1.56","spark_pilot_2","7385","8","15","Female","","","","","","","null","<div style=""font-size:60px;"">+</div>","null","fixation","","","","","","","","","","","13","","",""
"revaluation","301","1265840","0.0-4.0-2.1-0.57","spark_pilot_2","7385","8","15","Female","","false","","","","","[324.5,345.69999980926514]","./assets/img/ocean/memory/1.jpg","[""ArrowDown"",""ArrowRight""]","value training","ocean","30","{""ArrowUp,ArrowLeft"":23,""ArrowUp,ArrowRight"":10,""ArrowDown,ArrowLeft"":8,""ArrowDown,ArrowRight"":30}","true","ArrowDown,ArrowRight","false","","","original","2","14","","",""
"html-keyboard-response","302","1266341","0.0-4.0-2.1-1.57","spark_pilot_2","7385","8","15","Female","","","","","","","null","<div style=""font-size:60px;"">+</div>","null","fixation","","","","","","","","","","","15","","",""
"revaluation","303","1272359","0.0-4.0-2.1-0.58","spark_pilot_2","7385","8","15","Female","","false","","","","","[999.3999996185303,389.09999990463257]","./assets/img/ocean/memory/14.jpg","[""ArrowDown"",""ArrowRight""]","value training","ocean","30","{""ArrowUp,ArrowLeft"":23,""ArrowUp,ArrowRight"":10,""ArrowDown,ArrowLeft"":8,""ArrowDown,ArrowRight"":30}","true","ArrowDown,ArrowRight","false","","","original","2","16","","",""
"html-keyboard-response","304","1272861","0.0-4.0-2.1-1.58","spark_pilot_2","7385","8","15","Female","","","","","","","null","<div style=""font-size:60px;"">+</div>","null","fixation","","","","","","","","","","","17","","",""
"revaluation","305","1278868","0.0-4.0-2.1-0.59","spark_pilot_2","7385","8","15","Female","","false","","","","","[490.5,539.4000000953674]","./assets/img/ocean/memory/36.jpg","[""ArrowDown"",""ArrowRight""]","value training","ocean","30","{""ArrowUp,ArrowLeft"":23,""ArrowUp,ArrowRight"":10,""ArrowDown,ArrowLeft"":8,""ArrowDown,ArrowRight"":30}","true","ArrowDown,ArrowRight","false","","","original","2","18","","",""
