"trial_type","trial_index","time_elapsed","internal_node_id","task_version","subject_id","assigned_condition","age","gender","success","timeout","failed_images","failed_audio","failed_video","browser_interaction","rt","stimulus","response","task_part","environment","score","rewardMap","correct","fullState","isCatch","numberMissed","duration","condition","order","trial_num","key_press","ground_truth","bonus"
"pavlovia","0","1128","0.0-0.0","spark_pilot_2","7496","8","22","Male","","","","","","","","","","","","","","","","","","","","","","","",""
"preload","1","33999","0.0-1.0","spark_pilot_2","7496","8","22","Male","true","false","[]","[]","[]","[{""event"":""fullscreenenter"",""trial"":2,""time"":36682},{""event"":""fullscreenexit"",""trial"":105,""time"":1171482},{""event"":""blur"",""trial"":105,""time"":1175823},{""event"":""focus"",""trial"":105,""time"":1636015},{""event"":""blur"",""trial"":105,""time"":1638477},{""event"":""focus"",""trial"":105,""time"":5821958},{""event"":""blur"",""trial"":105,""time"":5825235},{""event"":""focus"",""trial"":105,""time"":5825441}]","","","","","","","","","","","","","","","","","",""
"fullscreen","2","37641","0.0-2.0","spark_pilot_2","7496","8","22","Male","true","","","","","","","","","","","","","","","","","","","","","","",""
"audio-button-response","3","44353","0.0-3.0-0.0-0.0","spark_pilot_2","7496","8","22","Male","","","","","","","6648","./assets/audio/audiotest/turtle.mp3","0","audio_test","","","","","","","","","","","","","",""
"audio-button-response","4","50527","0.0-3.0-0.1-0.1","spark_pilot_2","7496","8","22","Male","","","","","","","5160","./assets/audio/audiotest/turtle.mp3","4","audio_test","","","","","","","","","","","","","",""
"audio-button-response","5","54697","0.0-3.0-0.2-0.2","spark_pilot_2","7496","8","22","Male","","","","","","","3160","./assets/audio/audiotest/turtle.mp3","2","audio_test","","","","","","","","","","","","","",""
"learning-instructions","6","66545","0.0-3.0-1.0-0.0","spark_pilot_2","7496","8","22","Male","","","","","","","4821.900000000023","<p> Welcome! Please remember to stay in fullscreen mode and don't click away from the experiment. </p>","","instructions","","","","","","","","","","","","","",""
"learning-instructions","7","75932","0.0-3.0-1.0-0.1","spark_pilot_2","7496","8","22","Male","","","","","","","970.4000000000233","<p> Today you will be playing a game to earn treasure. </p>
            <p> At the end of the experiment, you will earn a bonus based on how much treasure you find. </p>
            <img src='./assets/img/instructions/treasure.jpg' class='instructions-image'>","","instructions","","","","","","","","","","","","","",""
"learning-instructions","8","86425","0.0-3.0-1.0-0.2","spark_pilot_2","7496","8","22","Male","","","","","","","2214.79999999993","<p> Animals have hidden treasure in treasure chests. </p>
            <p> You need to first find an animal and then choose which of their treasure chests to search. </p>
            <img src='./assets/img/space/animals/cat.jpg' class='instructions-image'>","","instructions","","","","","","","","","","","","","",""
"learning-instructions","9","103626","0.0-3.0-1.0-0.3","spark_pilot_2","7496","8","22","Male","","","","","","","4043.70000000007","<p> In each round, you will search for treasure in a different place. In the real game, there will be two rounds. </p>
            <p> You will begin with a separate, practice round where you will search for treasure in outer space. </p>
            <img src='./assets/img/space/0.jpg' class='instructions-image'>","","instructions","","","","","","","","","","","","","",""
"learning-instructions","10","116372","0.0-3.0-1.0-0.4","spark_pilot_2","7496","8","22","Male","","","","","","","1320.3000000000466","<p> On every turn, you will see a picture of the place that you are in, but the specific image may be different each time. </p>
            <p> For example, both of these images mean you are in outer space. </p>
            <img src='./assets/img/instructions/outerspace.jpg' class='instructions-image'>","","instructions","","","","","","","","","","","","","",""
"learning-instructions","11","125332","0.0-3.0-1.0-0.5","spark_pilot_2","7496","8","22","Male","","","","","","","1130.2000000000698","<p> You need to decide which direction to travel in. </p>
            <p> You can choose between going <b>up or down</b> by using the arrow keys. </p>
            <img src='./assets/img/instructions/updown.jpg' class='instructions-image'>","","instructions","","","","","","","","","","","","","",""
"learning-instructions","12","156952","0.0-3.0-1.0-0.6","spark_pilot_2","7496","8","22","Male","","","","","","","22790.199999999953","<p> You will have <b>2 seconds</b> to make your choice. </p>
            <p> If you do not make a choice within 2 seconds, you will not find an animal or earn treasure. </p>
            <img src='./assets/img/instructions/2seconds.jpg' class='instructions-image'>","","instructions","","","","","","","","","","","","","",""
"learning-instructions","13","164502","0.0-3.0-1.0-0.7","spark_pilot_2","7496","8","22","Male","","","","","","","499.79999999993015","<p> Let’s try practicing that now! </p>
            <p> When you see a picture of the place you are in, press the <b>up</b> key to travel up. </p>
            <img src='./assets/img/instructions/pressUp.jpg' class='instructions-image'>","","instructions","","","","","","","","","","","","","",""
"revaluation","14","168542","0.0-3.0-2.0-0.0","spark_pilot_2","7496","8","22","Male","","false","","","","","[878.9000000000233]","./assets/img/space/0.jpg","[""ArrowUp""]","first stage practice","space","0","null","null","ArrowUp","false","","","","","","","",""
"html-keyboard-response","15","169058","0.0-3.0-2.0-1.0","spark_pilot_2","7496","8","22","Male","","","","","","","null","<div style=""font-size:60px;"">+</div>","null","fixation","","","","","","","","","","","","","",""
"revaluation","16","173076","0.0-3.0-2.0-0.1","spark_pilot_2","7496","8","22","Male","","false","","","","","[701.3000000000466]","./assets/img/space/1.jpg","[""ArrowUp""]","first stage practice","space","0","null","null","ArrowUp","false","","","","","","","",""
"html-keyboard-response","17","173587","0.0-3.0-2.0-1.1","spark_pilot_2","7496","8","22","Male","","","","","","","null","<div style=""font-size:60px;"">+</div>","null","fixation","","","","","","","","","","","","","",""
"revaluation","18","177619","0.0-3.0-2.0-0.2","spark_pilot_2","7496","8","22","Male","","false","","","","","[377.20000000006985]","./assets/img/space/2.jpg","[""ArrowUp""]","first stage practice","space","0","null","null","ArrowUp","false","","","","","","","",""
"html-keyboard-response","19","178131","0.0-3.0-2.0-1.2","spark_pilot_2","7496","8","22","Male","","","","","","","null","<div style=""font-size:60px;"">+</div>","null","fixation","","","","","","","","","","","","","",""
"learning-instructions","20","184954","0.0-3.0-3.0-0.0","spark_pilot_2","7496","8","22","Male","","","","","","","1761.7000000000698","<p> Great job! Now try pressing the <b>down</b> key to travel down. </p>
            <img src='./assets/img/instructions/pressDown.jpg' class='instructions-image'>","","instructions","","","","","","","","","","","","","",""
"revaluation","21","188973","0.0-3.0-4.0-0.0","spark_pilot_2","7496","8","22","Male","","false","","","","","[425.79999999993015]","./assets/img/space/3.jpg","[""ArrowDown""]","first stage practice","space","0","null","null","ArrowDown","false","","","","","","","",""
"html-keyboard-response","22","189477","0.0-3.0-4.0-1.0","spark_pilot_2","7496","8","22","Male","","","","","","","null","<div style=""font-size:60px;"">+</div>","null","fixation","","","","","","","","","","","","","",""
"revaluation","23","193502","0.0-3.0-4.0-0.1","spark_pilot_2","7496","8","22","Male","","false","","","","","[756]","./assets/img/space/4.jpg","[""ArrowDown""]","first stage practice","space","0","null","null","ArrowDown","false","","","","","","","",""
"html-keyboard-response","24","194007","0.0-3.0-4.0-1.1","spark_pilot_2","7496","8","22","Male","","","","","","","null","<div style=""font-size:60px;"">+</div>","null","fixation","","","","","","","","","","","","","",""
"revaluation","25","198030","0.0-3.0-4.0-0.2","spark_pilot_2","7496","8","22","Male","","false","","","","","[884.3000000000466]","./assets/img/space/5.jpg","[""ArrowDown""]","first stage practice","space","0","null","null","ArrowDown","false","","","","","","","",""
"html-keyboard-response","26","198537","0.0-3.0-4.0-1.2","spark_pilot_2","7496","8","22","Male","","","","","","","null","<div style=""font-size:60px;"">+</div>","null","fixation","","","","","","","","","","","","","",""
"learning-instructions","27","211192","0.0-3.0-5.0-0.0","spark_pilot_2","7496","8","22","Male","","","","","","","2791.100000000093","<p> The animals don’t move, so the animal in the upper part of a place will stay in the upper part of a place, and the animal in the lower part of a place will stay in the lower part of a place. </p>","","instructions","","","","","","","","","","","","","",""
"learning-instructions","28","221073","0.0-3.0-5.0-0.1","spark_pilot_2","7496","8","22","Male","","","","","","","743.2000000000698","<p> Each animal has two treasure chests for you to choose from. </p>
            <p> The amount of treasure in each chest can range from <b> 0 to 40 pieces.</b></p>","","instructions","","","","","","","","","","","","","",""
"learning-instructions","29","233999","0.0-3.0-5.0-0.2","spark_pilot_2","7496","8","22","Male","","","","","","","1717.7999999999302","<p> You should decide which chest to search for treasure by using the <b>left</b> and <b>right</b> arrow keys. </p>
            <p><b> Pay attention to which animal is on the screen, as the animals have different treasure chests. </b></p>
            <img src='./assets/img/instructions/leftright.jpg' class='instructions-image'>","","instructions","","","","","","","","","","","","","",""
"learning-instructions","30","241790","0.0-3.0-5.0-0.3","spark_pilot_2","7496","8","22","Male","","","","","","","1418.8000000000466","<p> Let’s try practicing that now. </p>
            <p> When you see an animal, choose which chest to search for treasure. </p>
            <img src='./assets/img/instructions/chooseChest.jpg' class='instructions-image'>","","instructions","","","","","","","","","","","","","",""
"revaluation","31","245817","0.0-3.0-6.0-0.0","spark_pilot_2","7496","8","22","Male","","false","","","","","[627]","./assets/img/space/animals/cat.jpg","[""ArrowLeft""]","second stage practice","space","3","{""ArrowUp,ArrowLeft"":3,""ArrowUp,ArrowRight"":36,""ArrowDown,ArrowLeft"":15,""ArrowDown,ArrowRight"":23}","false","ArrowUp,ArrowLeft","","","","","","","","",""
"html-keyboard-response","32","246324","0.0-3.0-6.0-1.0","spark_pilot_2","7496","8","22","Male","","","","","","","null","<div style=""font-size:60px;"">+</div>","null","fixation","","","","","","","","","","","","","",""
"revaluation","33","250343","0.0-3.0-6.0-0.1","spark_pilot_2","7496","8","22","Male","","false","","","","","[525.1999999999534]","./assets/img/space/animals/rabbit.jpg","[""ArrowRight""]","second stage practice","space","23","{""ArrowUp,ArrowLeft"":3,""ArrowUp,ArrowRight"":36,""ArrowDown,ArrowLeft"":15,""ArrowDown,ArrowRight"":23}","true","ArrowDown,ArrowRight","","","","","","","","",""
"html-keyboard-response","34","250856","0.0-3.0-6.0-1.1","spark_pilot_2","7496","8","22","Male","","","","","","","null","<div style=""font-size:60px;"">+</div>","null","fixation","","","","","","","","","","","","","",""
"revaluation","35","254873","0.0-3.0-6.0-0.2","spark_pilot_2","7496","8","22","Male","","false","","","","","[103.90000000002328]","./assets/img/space/animals/cat.jpg","[""ArrowRight""]","second stage practice","space","36","{""ArrowUp,ArrowLeft"":3,""ArrowUp,ArrowRight"":36,""ArrowDown,ArrowLeft"":15,""ArrowDown,ArrowRight"":23}","true","ArrowUp,ArrowRight","","","","","","","","",""
"html-keyboard-response","36","255384","0.0-3.0-6.0-1.2","spark_pilot_2","7496","8","22","Male","","","","","","","null","<div style=""font-size:60px;"">+</div>","null","fixation","","","","","","","","","","","","","",""
"revaluation","37","259398","0.0-3.0-6.0-0.3","spark_pilot_2","7496","8","22","Male","","false","","","","","[232.20000000006985]","./assets/img/space/animals/rabbit.jpg","[""ArrowLeft""]","second stage practice","space","15","{""ArrowUp,ArrowLeft"":3,""ArrowUp,ArrowRight"":36,""ArrowDown,ArrowLeft"":15,""ArrowDown,ArrowRight"":23}","false","ArrowDown,ArrowLeft","","","","","","","","",""
"html-keyboard-response","38","259904","0.0-3.0-6.0-1.3","spark_pilot_2","7496","8","22","Male","","","","","","","null","<div style=""font-size:60px;"">+</div>","null","fixation","","","","","","","","","","","","","",""
"learning-instructions","39","279460","0.0-3.0-7.0-0.0","spark_pilot_2","7496","8","22","Male","","","","","","","2718.79999999993","<p> Great job. Now let’s try putting it together. </p>
            <p> On each turn, you will first see a picture to remind you of the place you are in, and you need to choose whether to go up or down. </p>
            <p> Then you will see an animal and choose which of its chests to search for treasure. </p>","","instructions","","","","","","","","","","","","","",""
"learning-instructions","40","291596","0.0-3.0-7.0-0.1","spark_pilot_2","7496","8","22","Male","","","","","","","3856.5999999999767","<p> When you choose whether to go up or down, try to go to the animal with the chest with the most treasure. </p>
            <p> Try practicing that now! </p>","","instructions","","","","","","","","","","","","","",""
"revaluation","41","297630","0.0-3.0-8.0-0.0","spark_pilot_2","7496","8","22","Male","","true","","","","","[1301.9000000000233]","./assets/img/space/6.jpg","[""ArrowUp""]","full practice","space","-5","{""ArrowUp,ArrowLeft"":3,""ArrowUp,ArrowRight"":36,""ArrowDown,ArrowLeft"":15,""ArrowDown,ArrowRight"":23}","false","ArrowUp","false","","","","","","","",""
"html-keyboard-response","42","298140","0.0-3.0-8.0-1.0","spark_pilot_2","7496","8","22","Male","","","","","","","null","<div style=""font-size:60px;"">+</div>","null","fixation","","","","","","","","","","","","","",""
"revaluation","43","304175","0.0-3.0-8.0-0.1","spark_pilot_2","7496","8","22","Male","","true","","","","","[346.10000000009313]","./assets/img/space/7.jpg","[""ArrowUp""]","full practice","space","-5","{""ArrowUp,ArrowLeft"":3,""ArrowUp,ArrowRight"":36,""ArrowDown,ArrowLeft"":15,""ArrowDown,ArrowRight"":23}","false","ArrowUp","false","","","","","","","",""
"html-keyboard-response","44","304678","0.0-3.0-8.0-1.1","spark_pilot_2","7496","8","22","Male","","","","","","","null","<div style=""font-size:60px;"">+</div>","null","fixation","","","","","","","","","","","","","",""
"revaluation","45","310709","0.0-3.0-8.0-0.2","spark_pilot_2","7496","8","22","Male","","false","","","","","[801.0999999999767,1146.1999999999534]","./assets/img/space/8.jpg","[""ArrowDown"",""ArrowRight""]","full practice","space","23","{""ArrowUp,ArrowLeft"":3,""ArrowUp,ArrowRight"":36,""ArrowDown,ArrowLeft"":15,""ArrowDown,ArrowRight"":23}","false","ArrowDown,ArrowRight","false","","","","","","","",""
"html-keyboard-response","46","311216","0.0-3.0-8.0-1.2","spark_pilot_2","7496","8","22","Male","","","","","","","null","<div style=""font-size:60px;"">+</div>","null","fixation","","","","","","","","","","","","","",""
"revaluation","47","317239","0.0-3.0-8.0-0.3","spark_pilot_2","7496","8","22","Male","","false","","","","","[293,303.79999999993015]","./assets/img/space/9.jpg","[""ArrowUp"",""ArrowLeft""]","full practice","space","3","{""ArrowUp,ArrowLeft"":3,""ArrowUp,ArrowRight"":36,""ArrowDown,ArrowLeft"":15,""ArrowDown,ArrowRight"":23}","false","ArrowUp,ArrowLeft","false","","","","","","","",""
"html-keyboard-response","48","317746","0.0-3.0-8.0-1.3","spark_pilot_2","7496","8","22","Male","","","","","","","null","<div style=""font-size:60px;"">+</div>","null","fixation","","","","","","","","","","","","","",""
"revaluation","49","323751","0.0-3.0-8.0-0.4","spark_pilot_2","7496","8","22","Male","","false","","","","","[254.59999999997672,159.19999999995343]","./assets/img/space/10.jpg","[""ArrowDown"",""ArrowRight""]","full practice","space","23","{""ArrowUp,ArrowLeft"":3,""ArrowUp,ArrowRight"":36,""ArrowDown,ArrowLeft"":15,""ArrowDown,ArrowRight"":23}","false","ArrowDown,ArrowRight","false","","","","","","","",""
"html-keyboard-response","50","324252","0.0-3.0-8.0-1.4","spark_pilot_2","7496","8","22","Male","","","","","","","null","<div style=""font-size:60px;"">+</div>","null","fixation","","","","","","","","","","","","","",""
"learning-instructions","51","335423","0.0-3.0-9.0-0.0","spark_pilot_2","7496","8","22","Male","","","","","","","834.2000000000698","<p> One last thing: sometimes, you will see a robber. The robber can be anywhere in the picture. </p>
            <p> If you do not stop them, you will lose treasure. </p>
            <img src='./assets/img/instructions/robber.jpg' class='instructions-image'>","","instructions","","","","","","","","","","","","","",""
"learning-instructions","52","343116","0.0-3.0-9.0-0.1","spark_pilot_2","7496","8","22","Male","","","","","","","505.9000000000233","<p> If you see the robber, you should <b>press the space bar</b> rather than using the arrow keys. </p>
            <p> Try practicing that now! </p>","","instructions","","","","","","","","","","","","","",""
"revaluation","53","347126","0.0-3.0-10.0-0.0","spark_pilot_2","7496","8","22","Male","","false","","","","","[1089]","./assets/img/space/catch/0.jpg","[""ArrowUp""]","catch practice","space","-10","{""ArrowUp,ArrowLeft"":3,""ArrowUp,ArrowRight"":36,""ArrowDown,ArrowLeft"":15,""ArrowDown,ArrowRight"":23}","false","ArrowUp","true","","","","","","","",""
"html-keyboard-response","54","347639","0.0-3.0-10.0-1.0","spark_pilot_2","7496","8","22","Male","","","","","","","null","<div style=""font-size:60px;"">+</div>","null","fixation","","","","","","","","","","","","","",""
"revaluation","55","351665","0.0-3.0-10.0-0.1","spark_pilot_2","7496","8","22","Male","","false","","","","","[1102.2000000000698]","./assets/img/space/catch/1.jpg","[""spaceBar""]","catch practice","space","0","{""ArrowUp,ArrowLeft"":3,""ArrowUp,ArrowRight"":36,""ArrowDown,ArrowLeft"":15,""ArrowDown,ArrowRight"":23}","true","spaceBar","true","","","","","","","",""
"html-keyboard-response","56","352172","0.0-3.0-10.0-1.1","spark_pilot_2","7496","8","22","Male","","","","","","","null","<div style=""font-size:60px;"">+</div>","null","fixation","","","","","","","","","","","","","",""
"revaluation","57","356209","0.0-3.0-10.0-0.2","spark_pilot_2","7496","8","22","Male","","false","","","","","[595.5]","./assets/img/space/catch/2.jpg","[""spaceBar""]","catch practice","space","0","{""ArrowUp,ArrowLeft"":3,""ArrowUp,ArrowRight"":36,""ArrowDown,ArrowLeft"":15,""ArrowDown,ArrowRight"":23}","true","spaceBar","true","","","","","","","",""
"html-keyboard-response","58","356721","0.0-3.0-10.0-1.2","spark_pilot_2","7496","8","22","Male","","","","","","","null","<div style=""font-size:60px;"">+</div>","null","fixation","","","","","","","","","","","","","",""
"learning-instructions","59","371362","0.0-3.0-11.0-0.0","spark_pilot_2","7496","8","22","Male","","","","","","","1019.8000000000466","<p> After you explore a place to find treasure, it will be time to play a different game. </p>
            <p> During this game, red dots will appear on the screen and fall down slowly. </p>
            <p><b> You must click on them before they reach the bottom. </b></p>
            <img src='./assets/img/instructions/dotGame.jpg' class='instructions-image'>","","instructions","","","","","","","","","","","","","",""
"learning-instructions","60","378363","0.0-3.0-11.0-0.1","spark_pilot_2","7496","8","22","Male","","","","","","","1321.4000000000233","<p> For every dot you click, you will earn additional treasure. </p>
            <p> Let’s try practicing that now. </p>","","instructions","","","","","","","","","","","","","",""
"revaluation","61","393377","0.0-3.0-12.0-0.0","spark_pilot_2","7496","8","22","Male","","","","","","","[75,57]","","","rest practice","","20","","","","","0","15000","","","","","",""
"learning-instructions","62","400322","0.0-3.0-13.0-0.0-0.0","spark_pilot_2","7496","8","22","Male","","","","","","","1671","<p> Now, you will practice a shortened version of the game to get a sense of how it all fits together. </p>","","instructions","","","","","","","","","","","","","",""
"learning-instructions","63","405390","0.0-3.0-13.0-0.0-0.1","spark_pilot_2","7496","8","22","Male","","","","","","","1868.1000000000931","<p>This time you are searching for treasure in outer space.</p>","","instructions","","","","","","","","","","","","","",""
"learning-instructions","64","420763","0.0-3.0-13.0-1.0-0.0","spark_pilot_2","7496","8","22","Male","","","","","","","593.0999999999767","<p> Remember, when you see a picture of the place, use the up and down keys to <b>find an animal</b>.</p>
            <p> When you encounter an animal, you should use the left and right keys to <b>select a treasure chest</b>.</p>
            <p> Don't forget to look out for the robber! </p>","","instructions","","","","","","","","","","","","","",""
"revaluation","65","426792","0.0-3.0-13.0-2.0-0.0","spark_pilot_2","7496","8","22","Male","","false","","","","","[638.5999999999767,593.1000000000931]","./assets/img/space/11.jpg","[""ArrowUp"",""ArrowRight""]","practice block","space","36","{""ArrowUp,ArrowLeft"":3,""ArrowUp,ArrowRight"":36,""ArrowDown,ArrowLeft"":15,""ArrowDown,ArrowRight"":23}","true","ArrowUp,ArrowRight","false","","","","","","","",""
"html-keyboard-response","66","427296","0.0-3.0-13.0-2.0-1.0","spark_pilot_2","7496","8","22","Male","","","","","","","null","<div style=""font-size:60px;"">+</div>","null","fixation","","","","","","","","","","","","","",""
"revaluation","67","433318","0.0-3.0-13.0-2.0-0.1","spark_pilot_2","7496","8","22","Male","","false","","","","","[1155.7000000000698,411.5999999999767]","./assets/img/space/12.jpg","[""ArrowUp"",""ArrowLeft""]","practice block","space","3","{""ArrowUp,ArrowLeft"":3,""ArrowUp,ArrowRight"":36,""ArrowDown,ArrowLeft"":15,""ArrowDown,ArrowRight"":23}","false","ArrowUp,ArrowLeft","false","","","","","","","",""
"html-keyboard-response","68","433824","0.0-3.0-13.0-2.0-1.1","spark_pilot_2","7496","8","22","Male","","","","","","","null","<div style=""font-size:60px;"">+</div>","null","fixation","","","","","","","","","","","","","",""
"revaluation","69","439841","0.0-3.0-13.0-2.0-0.2","spark_pilot_2","7496","8","22","Male","","false","","","","","[740.5,445.19999999995343]","./assets/img/space/13.jpg","[""ArrowUp"",""ArrowRight""]","practice block","space","36","{""ArrowUp,ArrowLeft"":3,""ArrowUp,ArrowRight"":36,""ArrowDown,ArrowLeft"":15,""ArrowDown,ArrowRight"":23}","true","ArrowUp,ArrowRight","false","","","","","","","",""
"html-keyboard-response","70","440355","0.0-3.0-13.0-2.0-1.2","spark_pilot_2","7496","8","22","Male","","","","","","","null","<div style=""font-size:60px;"">+</div>","null","fixation","","","","","","","","","","","","","",""
"revaluation","71","446376","0.0-3.0-13.0-2.0-0.3","spark_pilot_2","7496","8","22","Male","","false","","","","","[532,314.29999999993015]","./assets/img/space/14.jpg","[""ArrowUp"",""ArrowRight""]","practice block","space","36","{""ArrowUp,ArrowLeft"":3,""ArrowUp,ArrowRight"":36,""ArrowDown,ArrowLeft"":15,""ArrowDown,ArrowRight"":23}","true","ArrowUp,ArrowRight","false","","","","","","","",""
"html-keyboard-response","72","446887","0.0-3.0-13.0-2.0-1.3","spark_pilot_2","7496","8","22","Male","","","","","","","null","<div style=""font-size:60px;"">+</div>","null","fixation","","","","","","","","","","","","","",""
"revaluation","73","452899","0.0-3.0-13.0-2.0-0.4","spark_pilot_2","7496","8","22","Male","","false","","","","","[840.4000000000233,435.60000000009313]","./assets/img/space/11.jpg","[""ArrowUp"",""ArrowRight""]","practice block","space","36","{""ArrowUp,ArrowLeft"":3,""ArrowUp,ArrowRight"":36,""ArrowDown,ArrowLeft"":15,""ArrowDown,ArrowRight"":23}","true","ArrowUp,ArrowRight","false","","","","","","","",""
"html-keyboard-response","74","453401","0.0-3.0-13.0-2.0-1.4","spark_pilot_2","7496","8","22","Male","","","","","","","null","<div style=""font-size:60px;"">+</div>","null","fixation","","","","","","","","","","","","","",""
"revaluation","75","459409","0.0-3.0-13.0-2.0-0.5","spark_pilot_2","7496","8","22","Male","","false","","","","","[754.0999999999767,436.4000000000233]","./assets/img/space/12.jpg","[""ArrowUp"",""ArrowRight""]","practice block","space","36","{""ArrowUp,ArrowLeft"":3,""ArrowUp,ArrowRight"":36,""ArrowDown,ArrowLeft"":15,""ArrowDown,ArrowRight"":23}","true","ArrowUp,ArrowRight","false","","","","","","","",""
"html-keyboard-response","76","459913","0.0-3.0-13.0-2.0-1.5","spark_pilot_2","7496","8","22","Male","","","","","","","null","<div style=""font-size:60px;"">+</div>","null","fixation","","","","","","","","","","","","","",""
"revaluation","77","465922","0.0-3.0-13.0-2.0-0.6","spark_pilot_2","7496","8","22","Male","","false","","","","","[518.7000000000698,737.0999999999767]","./assets/img/space/13.jpg","[""ArrowUp"",""ArrowLeft""]","practice block","space","3","{""ArrowUp,ArrowLeft"":3,""ArrowUp,ArrowRight"":36,""ArrowDown,ArrowLeft"":15,""ArrowDown,ArrowRight"":23}","false","ArrowUp,ArrowLeft","false","","","","","","","",""
"html-keyboard-response","78","466424","0.0-3.0-13.0-2.0-1.6","spark_pilot_2","7496","8","22","Male","","","","","","","null","<div style=""font-size:60px;"">+</div>","null","fixation","","","","","","","","","","","","","",""
"revaluation","79","472432","0.0-3.0-13.0-2.0-0.7","spark_pilot_2","7496","8","22","Male","","false","","","","","[379.30000000004657,307]","./assets/img/space/14.jpg","[""ArrowUp"",""ArrowLeft""]","practice block","space","3","{""ArrowUp,ArrowLeft"":3,""ArrowUp,ArrowRight"":36,""ArrowDown,ArrowLeft"":15,""ArrowDown,ArrowRight"":23}","false","ArrowUp,ArrowLeft","false","","","","","","","",""
"html-keyboard-response","80","472934","0.0-3.0-13.0-2.0-1.7","spark_pilot_2","7496","8","22","Male","","","","","","","null","<div style=""font-size:60px;"">+</div>","null","fixation","","","","","","","","","","","","","",""
"revaluation","81","476941","0.0-3.0-13.0-2.0-0.8","spark_pilot_2","7496","8","22","Male","","false","","","","","[566.7000000001863]","./assets/img/space/catch/3.jpg","[""ArrowUp""]","practice block","space","-10","{""ArrowUp,ArrowLeft"":3,""ArrowUp,ArrowRight"":36,""ArrowDown,ArrowLeft"":15,""ArrowDown,ArrowRight"":23}","false","ArrowUp","true","","","","","","","",""
"html-keyboard-response","82","477444","0.0-3.0-13.0-2.0-1.8","spark_pilot_2","7496","8","22","Male","","","","","","","null","<div style=""font-size:60px;"">+</div>","null","fixation","","","","","","","","","","","","","",""
"learning-instructions","83","492839","0.0-3.0-13.0-3.0-0.0","spark_pilot_2","7496","8","22","Male","","","","","","","2137.7000000001863","<p> Now, you will travel with a friend who will choose whether you go up or down first. </p>
            <p> On these turns, you will just see the animal that they found. You will still get to choose which chest to search for treasure.</p>","","instructions","","","","","","","","","","","","","",""
"revaluation","84","496852","0.0-3.0-13.0-4.0-0.0","spark_pilot_2","7496","8","22","Male","","false","","","","","[818]","./assets/img/space/animals/rabbit.jpg","[""ArrowRight""]","practice block","space","23","{""ArrowUp,ArrowLeft"":3,""ArrowUp,ArrowRight"":36,""ArrowDown,ArrowLeft"":15,""ArrowDown,ArrowRight"":23}","true","ArrowDown,ArrowRight","","","","","","","","",""
"html-keyboard-response","85","497358","0.0-3.0-13.0-4.0-1.0","spark_pilot_2","7496","8","22","Male","","","","","","","null","<div style=""font-size:60px;"">+</div>","null","fixation","","","","","","","","","","","","","",""
"revaluation","86","501376","0.0-3.0-13.0-4.0-0.1","spark_pilot_2","7496","8","22","Male","","false","","","","","[350.10000000009313]","./assets/img/space/animals/cat.jpg","[""ArrowLeft""]","practice block","space","3","{""ArrowUp,ArrowLeft"":3,""ArrowUp,ArrowRight"":36,""ArrowDown,ArrowLeft"":15,""ArrowDown,ArrowRight"":23}","false","ArrowUp,ArrowLeft","","","","","","","","",""
"html-keyboard-response","87","501888","0.0-3.0-13.0-4.0-1.1","spark_pilot_2","7496","8","22","Male","","","","","","","null","<div style=""font-size:60px;"">+</div>","null","fixation","","","","","","","","","","","","","",""
"revaluation","88","505905","0.0-3.0-13.0-4.0-0.2","spark_pilot_2","7496","8","22","Male","","false","","","","","[52.699999999953434]","./assets/img/space/animals/rabbit.jpg","[""ArrowRight""]","practice block","space","23","{""ArrowUp,ArrowLeft"":3,""ArrowUp,ArrowRight"":36,""ArrowDown,ArrowLeft"":15,""ArrowDown,ArrowRight"":23}","true","ArrowDown,ArrowRight","","","","","","","","",""
"html-keyboard-response","89","506416","0.0-3.0-13.0-4.0-1.2","spark_pilot_2","7496","8","22","Male","","","","","","","null","<div style=""font-size:60px;"">+</div>","null","fixation","","","","","","","","","","","","","",""
"revaluation","90","510435","0.0-3.0-13.0-4.0-0.3","spark_pilot_2","7496","8","22","Male","","false","","","","","[968.3000000000466]","./assets/img/space/animals/cat.jpg","[""ArrowLeft""]","practice block","space","3","{""ArrowUp,ArrowLeft"":3,""ArrowUp,ArrowRight"":36,""ArrowDown,ArrowLeft"":15,""ArrowDown,ArrowRight"":23}","false","ArrowUp,ArrowLeft","","","","","","","","",""
"html-keyboard-response","91","510950","0.0-3.0-13.0-4.0-1.3","spark_pilot_2","7496","8","22","Male","","","","","","","null","<div style=""font-size:60px;"">+</div>","null","fixation","","","","","","","","","","","","","",""
"learning-instructions","92","519221","0.0-3.0-13.0-5.0-0.0","spark_pilot_2","7496","8","22","Male","","","","","","","530.8999999999069","<p> Time to play the dot game! </p>
            <p> For 15 seconds, click the red dots on the following screen as they appear. </p>","","instructions","","","","","","","","","","","","","",""
"revaluation","93","534231","0.0-3.0-13.0-6.0-0.0","spark_pilot_2","7496","8","22","Male","","","","","","","[69]","","","rest practice","","10","","","","","0","15000","","","","","",""
"learning-instructions","94","541772","0.0-3.0-13.0-7.0-0.0","spark_pilot_2","7496","8","22","Male","","","","","","","1411.1000000000931","<p> You have almost finished this part of the game! </p>
            <p> We are going to ask you to make a few more choices. </p>","","instructions","","","","","","","","","","","","","",""
"learning-instructions","95","556540","0.0-3.0-13.0-7.0-0.1","spark_pilot_2","7496","8","22","Male","","","","","","","739.0999999998603","<p> First, you need to decide whether to go up or down. When you see each picture, use the arrow keys to make your choice. </p>
            <p><b>You will not see which animal you found, but try to get to the one that will give you the most treasure.</b></p>","","instructions","","","","","","","","","","","","","",""
"revaluation","96","557877","0.0-3.0-13.0-8.0","spark_pilot_2","7496","8","22","Male","","false","","","","","[1333.1999999999534]","./assets/img/space/15.jpg","[""ArrowDown""]","practice block","space","0","{""ArrowUp,ArrowLeft"":3,""ArrowUp,ArrowRight"":36,""ArrowDown,ArrowLeft"":15,""ArrowDown,ArrowRight"":23}","false","ArrowDown","false","","","","","","","",""
"html-keyboard-response","97","558382","0.0-3.0-13.0-9.0","spark_pilot_2","7496","8","22","Male","","","","","","","null","<div style=""font-size:60px;"">+</div>","null","fixation","","","","","","","","","","","","","",""
"learning-instructions","98","573479","0.0-3.0-13.0-10.0-0.0","spark_pilot_2","7496","8","22","Male","","","","","","","3706.6999999999534","<p> Now you will see the animals again and can search their chests for treasure. </p>
            <p> This time, you will not see how much treasure you earned, but you will earn more bonus money for making better choices. </p>","","instructions","","","","","","","","","","","","","",""
"revaluation","99","574210","0.0-3.0-13.0-11.0-0.0","spark_pilot_2","7496","8","22","Male","","false","","","","","[726]","./assets/img/space/animals/cat.jpg","[""ArrowRight""]","practice block","space","0","{""ArrowUp,ArrowLeft"":3,""ArrowUp,ArrowRight"":36,""ArrowDown,ArrowLeft"":15,""ArrowDown,ArrowRight"":23}","true","ArrowUp,ArrowRight","","","","","","","","",""
"html-keyboard-response","100","574726","0.0-3.0-13.0-11.0-1.0","spark_pilot_2","7496","8","22","Male","","","","","","","null","<div style=""font-size:60px;"">+</div>","null","fixation","","","","","","","","","","","","","",""
"revaluation","101","575238","0.0-3.0-13.0-11.0-0.1","spark_pilot_2","7496","8","22","Male","","false","","","","","[508.69999999995343]","./assets/img/space/animals/rabbit.jpg","[""ArrowLeft""]","practice block","space","0","{""ArrowUp,ArrowLeft"":3,""ArrowUp,ArrowRight"":36,""ArrowDown,ArrowLeft"":15,""ArrowDown,ArrowRight"":23}","false","ArrowDown,ArrowLeft","","","","","","","","",""
"html-keyboard-response","102","575744","0.0-3.0-13.0-11.0-1.1","spark_pilot_2","7496","8","22","Male","","","","","","","null","<div style=""font-size:60px;"">+</div>","null","fixation","","","","","","","","","","","","","",""
"learning-instructions","103","581792","0.0-3.0-14.0-0.0","spark_pilot_2","7496","8","22","Male","","","","","","","1449.8000000000466","<p> Before you start, we're going to ask you a few questions about how the game works. </p>","","instructions","","","","","","","","","","","","","",""
"comp-q","104","589373","0.0-3.0-15.0-0.0-0.0","spark_pilot_2","7496","8","22","Male","","","","","","[{""event"":""fullscreenenter"",""trial"":2,""time"":36682},{""event"":""fullscreenexit"",""trial"":105,""time"":1171482},{""event"":""blur"",""trial"":105,""time"":1175823},{""event"":""focus"",""trial"":105,""time"":1636015},{""event"":""blur"",""trial"":105,""time"":1638477},{""event"":""focus"",""trial"":105,""time"":5821958},{""event"":""blur"",""trial"":105,""time"":5825235},{""event"":""focus"",""trial"":105,""time"":5825441}]","1973.8999999999069","<p> <b> True or False? </b> </p>
            <p> There can be 50 pieces of treasure in a given animal's chest. </p>","1","comp_question","","","","true","","","","","","","","","",""
"comp-q","105","5826572","0.0-3.0-15.0-0.0-1.0","spark_pilot_2","7496","8","22","Male","","","","","","","5230518.9","<p> <b> That's right! </b> The amount of treasure in each chest can range from 0 to 40 pieces. </p>","0","comp_answer","","","","","","","","","","","","","",""
"comp-q","106","5835868","0.0-3.0-15.0-0.1-0.1","spark_pilot_2","7496","8","22","Male","","","","","","","2016.0999999996275","<p> <b> True or False? </b> </p><p> In this game, all animals have the same amount of treasure in their left and right chests. </p>","1","comp_question","","","","true","","","","","","","","","",""
"comp-q","107","5845041","0.0-3.0-15.0-0.1-1.1","spark_pilot_2","7496","8","22","Male","","","","","","","3941.2000000001863","<p> <b> That's right! </b> Animals have different amounts of treasure in their treasure chests. </p>","0","comp_answer","","","","","","","","","","","","","",""
"comp-q","108","5852168","0.0-3.0-15.0-0.2-0.2","spark_pilot_2","7496","8","22","Male","","","","","","","668.9000000003725","<p> <b> True or False? </b> </p><p> The same animal will always be there if you go up in the same place. </p>","0","comp_question","","","","true","","","","","","","","","",""
"comp-q","109","5861138","0.0-3.0-15.0-0.2-1.2","spark_pilot_2","7496","8","22","Male","","","","","","","2517.800000000745","<p> <b> That's right! </b> One animal lives in the upper part and one lives in the lower part of every place. </p>","0","comp_answer","","","","","","","","","","","","","",""
"comp-q","110","5868298","0.0-3.0-15.0-0.3-0.3","spark_pilot_2","7496","8","22","Male","","","","","","","1598.2999999998137","<p> <b> True or False? </b> </p><p> If you see a different picture, it means you are in a new place. </p>","0","comp_question","","","","false","","","","","","","","","",""
"comp-q","111","5880403","0.0-3.0-15.0-0.3-1.3","spark_pilot_2","7496","8","22","Male","","","","","","","993.0999999996275","<p> <b>Incorrect.</b> Lots of different images may show the same place. For example,  you may see three different images that all remind you that you are in outer space. </p>","0","comp_answer","","","","","","","","","","","","","",""
"comp-q","112","5887490","0.0-3.0-15.0-0.4-0.4","spark_pilot_2","7496","8","22","Male","","","","","","","1590.2000000001863","<p> <b> True or False? </b> </p><p> If you see a different picture, it means you are in a new place. </p>","1","comp_question","","","","true","","","","","","","","","",""
"comp-q","113","5899712","0.0-3.0-15.0-0.4-1.4","spark_pilot_2","7496","8","22","Male","","","","","","","972.4000000003725","<p> <b> That's right! </b> Lots of different images may show the same place. For example,  you may see three different images that all remind you that you are in outer space. </p>","0","comp_answer","","","","","","","","","","","","","",""
"learning-instructions","114","5911205","0.0-3.0-16.0-0.0","spark_pilot_2","7496","8","22","Male","","","","","","","1624.6000000005588","<p> Good job. Remember to do your best because the amount of treasure you earn will be converted into bonus money. </p>
            <p> It’s time to start the real game! </p>","","instructions","","","","","","","","","","","","","",""
"learning-instructions","115","5915746","0.0-4.0-0.0-0.0","spark_pilot_2","7496","8","22","Male","","","","","","","1756.5999999996275","<p> This time you are searching for treasure in the <b>canyon</b>.</p>","","instructions","","","","","","","","","","","","","",""
"learning-instructions","116","5935448","0.0-4.0-0.0-0.1","spark_pilot_2","7496","8","22","Male","","","","","","","2389","<p><b>New</b> animals with <b>new</b> treasure chests live here. You need to explore to discover where the animal with the best treasure chest is.</p>
                    <p> Like before, once you figure out which animal has the chest with the most treasure, you should try to get to that animal and select that chest! </p>","","instructions","","","","","","","","","","","","","",""
"learning-instructions","117","5963049","0.0-4.0-1.0-0.0","spark_pilot_2","7496","8","22","Male","","","","","","","12870.400000000373","<p> Remember, when you see a picture of the place, use the up and down keys to <b>find an animal</b>.</p>
            <p> When you encounter an animal, you should use the left and right keys to <b>select a treasure chest</b>.</p>
            <p> Don't forget to look out for the robber! </p>","","instructions","","","","","","","","","","","","","",""
"revaluation","118","5969082","0.0-4.0-2.0-0.0","spark_pilot_2","7496","8","22","Male","","false","","","","","[953.2000000001863,503]","./assets/img/canyon/memory/12.jpg","[""ArrowUp"",""ArrowRight""]","value training","canyon","10","{""ArrowUp,ArrowLeft"":26,""ArrowUp,ArrowRight"":10,""ArrowDown,ArrowLeft"":5,""ArrowDown,ArrowRight"":17}","false","ArrowUp,ArrowRight","false","","","revaluation","1","0","","",""
"html-keyboard-response","119","5969594","0.0-4.0-2.0-1.0","spark_pilot_2","7496","8","22","Male","","","","","","","null","<div style=""font-size:60px;"">+</div>","null","fixation","","","","","","","","","","","1","","",""
"revaluation","120","5975623","0.0-4.0-2.0-0.1","spark_pilot_2","7496","8","22","Male","","false","","","","","[275.8999999994412,336]","./assets/img/canyon/memory/30.jpg","[""ArrowUp"",""ArrowLeft""]","value training","canyon","26","{""ArrowUp,ArrowLeft"":26,""ArrowUp,ArrowRight"":10,""ArrowDown,ArrowLeft"":5,""ArrowDown,ArrowRight"":17}","true","ArrowUp,ArrowLeft","false","","","revaluation","1","2","","",""
"html-keyboard-response","121","5976137","0.0-4.0-2.0-1.1","spark_pilot_2","7496","8","22","Male","","","","","","","null","<div style=""font-size:60px;"">+</div>","null","fixation","","","","","","","","","","","3","","",""
"revaluation","122","5982154","0.0-4.0-2.0-0.2","spark_pilot_2","7496","8","22","Male","","false","","","","","[375.90000000037253,732.8000000007451]","./assets/img/canyon/memory/40.jpg","[""ArrowUp"",""ArrowLeft""]","value training","canyon","26","{""ArrowUp,ArrowLeft"":26,""ArrowUp,ArrowRight"":10,""ArrowDown,ArrowLeft"":5,""ArrowDown,ArrowRight"":17}","true","ArrowUp,ArrowLeft","false","","","revaluation","1","4","","",""
"html-keyboard-response","123","5982656","0.0-4.0-2.0-1.2","spark_pilot_2","7496","8","22","Male","","","","","","","null","<div style=""font-size:60px;"">+</div>","null","fixation","","","","","","","","","","","5","","",""
"revaluation","124","5988663","0.0-4.0-2.0-0.3","spark_pilot_2","7496","8","22","Male","","false","","","","","[366.09999999962747,266]","./assets/img/canyon/memory/35.jpg","[""ArrowUp"",""ArrowRight""]","value training","canyon","10","{""ArrowUp,ArrowLeft"":26,""ArrowUp,ArrowRight"":10,""ArrowDown,ArrowLeft"":5,""ArrowDown,ArrowRight"":17}","false","ArrowUp,ArrowRight","false","","","revaluation","1","6","","",""
"html-keyboard-response","125","5989165","0.0-4.0-2.0-1.3","spark_pilot_2","7496","8","22","Male","","","","","","","null","<div style=""font-size:60px;"">+</div>","null","fixation","","","","","","","","","","","7","","",""
"revaluation","126","5995177","0.0-4.0-2.0-0.4","spark_pilot_2","7496","8","22","Male","","false","","","","","[40.09999999962747,142.90000000037253]","./assets/img/canyon/memory/41.jpg","[""ArrowUp"",""ArrowRight""]","value training","canyon","10","{""ArrowUp,ArrowLeft"":26,""ArrowUp,ArrowRight"":10,""ArrowDown,ArrowLeft"":5,""ArrowDown,ArrowRight"":17}","false","ArrowUp,ArrowRight","false","","","revaluation","1","8","","",""
"html-keyboard-response","127","5995680","0.0-4.0-2.0-1.4","spark_pilot_2","7496","8","22","Male","","","","","","","null","<div style=""font-size:60px;"">+</div>","null","fixation","","","","","","","","","","","9","","",""
"revaluation","128","6001691","0.0-4.0-2.0-0.5","spark_pilot_2","7496","8","22","Male","","false","","","","","[657.1000000005588,356.70000000018626]","./assets/img/canyon/memory/7.jpg","[""ArrowUp"",""ArrowLeft""]","value training","canyon","26","{""ArrowUp,ArrowLeft"":26,""ArrowUp,ArrowRight"":10,""ArrowDown,ArrowLeft"":5,""ArrowDown,ArrowRight"":17}","true","ArrowUp,ArrowLeft","false","","","revaluation","1","10","","",""
"html-keyboard-response","129","6002192","0.0-4.0-2.0-1.5","spark_pilot_2","7496","8","22","Male","","","","","","","null","<div style=""font-size:60px;"">+</div>","null","fixation","","","","","","","","","","","11","","",""
"revaluation","130","6008199","0.0-4.0-2.0-0.6","spark_pilot_2","7496","8","22","Male","","false","","","","","[258.70000000018626,154.70000000018626]","./assets/img/canyon/memory/3.jpg","[""ArrowUp"",""ArrowRight""]","value training","canyon","10","{""ArrowUp,ArrowLeft"":26,""ArrowUp,ArrowRight"":10,""ArrowDown,ArrowLeft"":5,""ArrowDown,ArrowRight"":17}","false","ArrowUp,ArrowRight","false","","","revaluation","1","12","","",""
"html-keyboard-response","131","6008701","0.0-4.0-2.0-1.6","spark_pilot_2","7496","8","22","Male","","","","","","","null","<div style=""font-size:60px;"">+</div>","null","fixation","","","","","","","","","","","13","","",""
"revaluation","132","6012708","0.0-4.0-2.0-0.7","spark_pilot_2","7496","8","22","Male","","false","","","","","[113.09999999962747]","./assets/img/canyon/catch/7.jpg","[""ArrowUp""]","value training","canyon","-10","{""ArrowUp,ArrowLeft"":26,""ArrowUp,ArrowRight"":10,""ArrowDown,ArrowLeft"":5,""ArrowDown,ArrowRight"":17}","false","ArrowUp","true","","","revaluation","1","14","","",""
"html-keyboard-response","133","6013211","0.0-4.0-2.0-1.7","spark_pilot_2","7496","8","22","Male","","","","","","","null","<div style=""font-size:60px;"">+</div>","null","fixation","","","","","","","","","","","15","","",""
"revaluation","134","6019217","0.0-4.0-2.0-0.8","spark_pilot_2","7496","8","22","Male","","false","","","","","[468.6000000005588,466.79999999981374]","./assets/img/canyon/memory/33.jpg","[""ArrowUp"",""ArrowLeft""]","value training","canyon","26","{""ArrowUp,ArrowLeft"":26,""ArrowUp,ArrowRight"":10,""ArrowDown,ArrowLeft"":5,""ArrowDown,ArrowRight"":17}","true","ArrowUp,ArrowLeft","false","","","revaluation","1","16","","",""
"html-keyboard-response","135","6019719","0.0-4.0-2.0-1.8","spark_pilot_2","7496","8","22","Male","","","","","","","null","<div style=""font-size:60px;"">+</div>","null","fixation","","","","","","","","","","","17","","",""
"revaluation","136","6023724","0.0-4.0-2.0-0.9","spark_pilot_2","7496","8","22","Male","","false","","","","","[896]","./assets/img/canyon/catch/0.jpg","[""spaceBar""]","value training","canyon","0","{""ArrowUp,ArrowLeft"":26,""ArrowUp,ArrowRight"":10,""ArrowDown,ArrowLeft"":5,""ArrowDown,ArrowRight"":17}","true","spaceBar","true","","","revaluation","1","18","","",""
"html-keyboard-response","137","6024227","0.0-4.0-2.0-1.9","spark_pilot_2","7496","8","22","Male","","","","","","","null","<div style=""font-size:60px;"">+</div>","null","fixation","","","","","","","","","","","19","","",""
"revaluation","138","6028235","0.0-4.0-2.0-0.10","spark_pilot_2","7496","8","22","Male","","false","","","","","[813.2999999998137]","./assets/img/canyon/catch/4.jpg","[""spaceBar""]","value training","canyon","0","{""ArrowUp,ArrowLeft"":26,""ArrowUp,ArrowRight"":10,""ArrowDown,ArrowLeft"":5,""ArrowDown,ArrowRight"":17}","true","spaceBar","true","","","revaluation","1","20","","",""
"html-keyboard-response","139","6028737","0.0-4.0-2.0-1.10","spark_pilot_2","7496","8","22","Male","","","","","","","null","<div style=""font-size:60px;"">+</div>","null","fixation","","","","","","","","","","","21","","",""
"revaluation","140","6034747","0.0-4.0-2.0-0.11","spark_pilot_2","7496","8","22","Male","","false","","","","","[805.6000000005588,521.7000000001863]","./assets/img/canyon/memory/24.jpg","[""ArrowUp"",""ArrowLeft""]","value training","canyon","26","{""ArrowUp,ArrowLeft"":26,""ArrowUp,ArrowRight"":10,""ArrowDown,ArrowLeft"":5,""ArrowDown,ArrowRight"":17}","true","ArrowUp,ArrowLeft","false","","","revaluation","1","22","","",""
"html-keyboard-response","141","6035250","0.0-4.0-2.0-1.11","spark_pilot_2","7496","8","22","Male","","","","","","","null","<div style=""font-size:60px;"">+</div>","null","fixation","","","","","","","","","","","23","","",""
"revaluation","142","6041264","0.0-4.0-2.0-0.12","spark_pilot_2","7496","8","22","Male","","false","","","","","[861,315.90000000037253]","./assets/img/canyon/memory/31.jpg","[""ArrowUp"",""ArrowLeft""]","value training","canyon","26","{""ArrowUp,ArrowLeft"":26,""ArrowUp,ArrowRight"":10,""ArrowDown,ArrowLeft"":5,""ArrowDown,ArrowRight"":17}","true","ArrowUp,ArrowLeft","false","","","revaluation","1","24","","",""
"html-keyboard-response","143","6041766","0.0-4.0-2.0-1.12","spark_pilot_2","7496","8","22","Male","","","","","","","null","<div style=""font-size:60px;"">+</div>","null","fixation","","","","","","","","","","","25","","",""
"revaluation","144","6047779","0.0-4.0-2.0-0.13","spark_pilot_2","7496","8","22","Male","","false","","","","","[664.2999999998137,338.20000000018626]","./assets/img/canyon/memory/20.jpg","[""ArrowUp"",""ArrowLeft""]","value training","canyon","26","{""ArrowUp,ArrowLeft"":26,""ArrowUp,ArrowRight"":10,""ArrowDown,ArrowLeft"":5,""ArrowDown,ArrowRight"":17}","true","ArrowUp,ArrowLeft","false","","","revaluation","1","26","","",""
"html-keyboard-response","145","6048280","0.0-4.0-2.0-1.13","spark_pilot_2","7496","8","22","Male","","","","","","","null","<div style=""font-size:60px;"">+</div>","null","fixation","","","","","","","","","","","27","","",""
"revaluation","146","6054286","0.0-4.0-2.0-0.14","spark_pilot_2","7496","8","22","Male","","false","","","","","[812.2999999998137,292.79999999981374]","./assets/img/canyon/memory/24.jpg","[""ArrowUp"",""ArrowLeft""]","value training","canyon","26","{""ArrowUp,ArrowLeft"":26,""ArrowUp,ArrowRight"":10,""ArrowDown,ArrowLeft"":5,""ArrowDown,ArrowRight"":17}","true","ArrowUp,ArrowLeft","false","","","revaluation","1","28","","",""
"html-keyboard-response","147","6054789","0.0-4.0-2.0-1.14","spark_pilot_2","7496","8","22","Male","","","","","","","null","<div style=""font-size:60px;"">+</div>","null","fixation","","","","","","","","","","","29","","",""
"revaluation","148","6060796","0.0-4.0-2.0-0.15","spark_pilot_2","7496","8","22","Male","","false","","","","","[673.9000000003725,230.20000000018626]","./assets/img/canyon/memory/20.jpg","[""ArrowUp"",""ArrowRight""]","value training","canyon","10","{""ArrowUp,ArrowLeft"":26,""ArrowUp,ArrowRight"":10,""ArrowDown,ArrowLeft"":5,""ArrowDown,ArrowRight"":17}","false","ArrowUp,ArrowRight","false","","","revaluation","1","30","","",""
"html-keyboard-response","149","6061298","0.0-4.0-2.0-1.15","spark_pilot_2","7496","8","22","Male","","","","","","","null","<div style=""font-size:60px;"">+</div>","null","fixation","","","","","","","","","","","31","","",""
"revaluation","150","6067305","0.0-4.0-2.0-0.16","spark_pilot_2","7496","8","22","Male","","false","","","","","[1059.9000000003725,336.70000000018626]","./assets/img/canyon/memory/21.jpg","[""ArrowUp"",""ArrowLeft""]","value training","canyon","26","{""ArrowUp,ArrowLeft"":26,""ArrowUp,ArrowRight"":10,""ArrowDown,ArrowLeft"":5,""ArrowDown,ArrowRight"":17}","true","ArrowUp,ArrowLeft","false","","","revaluation","1","32","","",""
"html-keyboard-response","151","6067807","0.0-4.0-2.0-1.16","spark_pilot_2","7496","8","22","Male","","","","","","","null","<div style=""font-size:60px;"">+</div>","null","fixation","","","","","","","","","","","33","","",""
"revaluation","152","6073813","0.0-4.0-2.0-0.17","spark_pilot_2","7496","8","22","Male","","false","","","","","[879.2000000001863,450.90000000037253]","./assets/img/canyon/memory/11.jpg","[""ArrowUp"",""ArrowLeft""]","value training","canyon","26","{""ArrowUp,ArrowLeft"":26,""ArrowUp,ArrowRight"":10,""ArrowDown,ArrowLeft"":5,""ArrowDown,ArrowRight"":17}","true","ArrowUp,ArrowLeft","false","","","revaluation","1","34","","",""
"html-keyboard-response","153","6074315","0.0-4.0-2.0-1.17","spark_pilot_2","7496","8","22","Male","","","","","","","null","<div style=""font-size:60px;"">+</div>","null","fixation","","","","","","","","","","","35","","",""
"revaluation","154","6080321","0.0-4.0-2.0-0.18","spark_pilot_2","7496","8","22","Male","","false","","","","","[706,393.59999999962747]","./assets/img/canyon/memory/0.jpg","[""ArrowUp"",""ArrowLeft""]","value training","canyon","26","{""ArrowUp,ArrowLeft"":26,""ArrowUp,ArrowRight"":10,""ArrowDown,ArrowLeft"":5,""ArrowDown,ArrowRight"":17}","true","ArrowUp,ArrowLeft","false","","","revaluation","1","36","","",""
"html-keyboard-response","155","6080823","0.0-4.0-2.0-1.18","spark_pilot_2","7496","8","22","Male","","","","","","","null","<div style=""font-size:60px;"">+</div>","null","fixation","","","","","","","","","","","37","","",""
"revaluation","156","6084828","0.0-4.0-2.0-0.19","spark_pilot_2","7496","8","22","Male","","false","","","","","[796.7000000001863]","./assets/img/canyon/catch/3.jpg","[""spaceBar""]","value training","canyon","0","{""ArrowUp,ArrowLeft"":26,""ArrowUp,ArrowRight"":10,""ArrowDown,ArrowLeft"":5,""ArrowDown,ArrowRight"":17}","true","spaceBar","true","","","revaluation","1","38","","",""
"html-keyboard-response","157","6085329","0.0-4.0-2.0-1.19","spark_pilot_2","7496","8","22","Male","","","","","","","null","<div style=""font-size:60px;"">+</div>","null","fixation","","","","","","","","","","","39","","",""
"revaluation","158","6089334","0.0-4.0-2.0-0.20","spark_pilot_2","7496","8","22","Male","","false","","","","","[1107.1000000005588]","./assets/img/canyon/catch/2.jpg","[""spaceBar""]","value training","canyon","0","{""ArrowUp,ArrowLeft"":26,""ArrowUp,ArrowRight"":10,""ArrowDown,ArrowLeft"":5,""ArrowDown,ArrowRight"":17}","true","spaceBar","true","","","revaluation","1","40","","",""
"html-keyboard-response","159","6089836","0.0-4.0-2.0-1.20","spark_pilot_2","7496","8","22","Male","","","","","","","null","<div style=""font-size:60px;"">+</div>","null","fixation","","","","","","","","","","","41","","",""
"revaluation","160","6095846","0.0-4.0-2.0-0.21","spark_pilot_2","7496","8","22","Male","","false","","","","","[819.4000000003725,580.8999999994412]","./assets/img/canyon/memory/30.jpg","[""ArrowUp"",""ArrowLeft""]","value training","canyon","26","{""ArrowUp,ArrowLeft"":26,""ArrowUp,ArrowRight"":10,""ArrowDown,ArrowLeft"":5,""ArrowDown,ArrowRight"":17}","true","ArrowUp,ArrowLeft","false","","","revaluation","1","42","","",""
"html-keyboard-response","161","6096347","0.0-4.0-2.0-1.21","spark_pilot_2","7496","8","22","Male","","","","","","","null","<div style=""font-size:60px;"">+</div>","null","fixation","","","","","","","","","","","43","","",""
"revaluation","162","6102354","0.0-4.0-2.0-0.22","spark_pilot_2","7496","8","22","Male","","false","","","","","[783.1000000005588,436]","./assets/img/canyon/memory/11.jpg","[""ArrowUp"",""ArrowLeft""]","value training","canyon","26","{""ArrowUp,ArrowLeft"":26,""ArrowUp,ArrowRight"":10,""ArrowDown,ArrowLeft"":5,""ArrowDown,ArrowRight"":17}","true","ArrowUp,ArrowLeft","false","","","revaluation","1","44","","",""
"html-keyboard-response","163","6102857","0.0-4.0-2.0-1.22","spark_pilot_2","7496","8","22","Male","","","","","","","null","<div style=""font-size:60px;"">+</div>","null","fixation","","","","","","","","","","","45","","",""
"revaluation","164","6106862","0.0-4.0-2.0-0.23","spark_pilot_2","7496","8","22","Male","","false","","","","","[942.1000000005588]","./assets/img/canyon/catch/6.jpg","[""spaceBar""]","value training","canyon","0","{""ArrowUp,ArrowLeft"":26,""ArrowUp,ArrowRight"":10,""ArrowDown,ArrowLeft"":5,""ArrowDown,ArrowRight"":17}","true","spaceBar","true","","","revaluation","1","46","","",""
"html-keyboard-response","165","6107364","0.0-4.0-2.0-1.23","spark_pilot_2","7496","8","22","Male","","","","","","","null","<div style=""font-size:60px;"">+</div>","null","fixation","","","","","","","","","","","47","","",""
"revaluation","166","6113370","0.0-4.0-2.0-0.24","spark_pilot_2","7496","8","22","Male","","false","","","","","[1286.5999999996275,499.09999999962747]","./assets/img/canyon/memory/12.jpg","[""ArrowUp"",""ArrowLeft""]","value training","canyon","26","{""ArrowUp,ArrowLeft"":26,""ArrowUp,ArrowRight"":10,""ArrowDown,ArrowLeft"":5,""ArrowDown,ArrowRight"":17}","true","ArrowUp,ArrowLeft","false","","","revaluation","1","48","","",""
"html-keyboard-response","167","6113872","0.0-4.0-2.0-1.24","spark_pilot_2","7496","8","22","Male","","","","","","","null","<div style=""font-size:60px;"">+</div>","null","fixation","","","","","","","","","","","49","","",""
"revaluation","168","6119878","0.0-4.0-2.0-0.25","spark_pilot_2","7496","8","22","Male","","false","","","","","[783.7999999998137,434.59999999962747]","./assets/img/canyon/memory/25.jpg","[""ArrowUp"",""ArrowLeft""]","value training","canyon","26","{""ArrowUp,ArrowLeft"":26,""ArrowUp,ArrowRight"":10,""ArrowDown,ArrowLeft"":5,""ArrowDown,ArrowRight"":17}","true","ArrowUp,ArrowLeft","false","","","revaluation","1","50","","",""
"html-keyboard-response","169","6120379","0.0-4.0-2.0-1.25","spark_pilot_2","7496","8","22","Male","","","","","","","null","<div style=""font-size:60px;"">+</div>","null","fixation","","","","","","","","","","","51","","",""
"revaluation","170","6126386","0.0-4.0-2.0-0.26","spark_pilot_2","7496","8","22","Male","","false","","","","","[941.9000000003725,334]","./assets/img/canyon/memory/14.jpg","[""ArrowUp"",""ArrowLeft""]","value training","canyon","26","{""ArrowUp,ArrowLeft"":26,""ArrowUp,ArrowRight"":10,""ArrowDown,ArrowLeft"":5,""ArrowDown,ArrowRight"":17}","true","ArrowUp,ArrowLeft","false","","","revaluation","1","52","","",""
"html-keyboard-response","171","6126888","0.0-4.0-2.0-1.26","spark_pilot_2","7496","8","22","Male","","","","","","","null","<div style=""font-size:60px;"">+</div>","null","fixation","","","","","","","","","","","53","","",""
"revaluation","172","6132895","0.0-4.0-2.0-0.27","spark_pilot_2","7496","8","22","Male","","false","","","","","[890.1000000005588,360.20000000018626]","./assets/img/canyon/memory/19.jpg","[""ArrowUp"",""ArrowRight""]","value training","canyon","10","{""ArrowUp,ArrowLeft"":26,""ArrowUp,ArrowRight"":10,""ArrowDown,ArrowLeft"":5,""ArrowDown,ArrowRight"":17}","false","ArrowUp,ArrowRight","false","","","revaluation","1","54","","",""
"html-keyboard-response","173","6133397","0.0-4.0-2.0-1.27","spark_pilot_2","7496","8","22","Male","","","","","","","null","<div style=""font-size:60px;"">+</div>","null","fixation","","","","","","","","","","","55","","",""
"revaluation","174","6139403","0.0-4.0-2.0-0.28","spark_pilot_2","7496","8","22","Male","","false","","","","","[910.2000000001863,403.20000000018626]","./assets/img/canyon/memory/32.jpg","[""ArrowUp"",""ArrowLeft""]","value training","canyon","26","{""ArrowUp,ArrowLeft"":26,""ArrowUp,ArrowRight"":10,""ArrowDown,ArrowLeft"":5,""ArrowDown,ArrowRight"":17}","true","ArrowUp,ArrowLeft","false","","","revaluation","1","56","","",""
"html-keyboard-response","175","6139904","0.0-4.0-2.0-1.28","spark_pilot_2","7496","8","22","Male","","","","","","","null","<div style=""font-size:60px;"">+</div>","null","fixation","","","","","","","","","","","57","","",""
"revaluation","176","6145909","0.0-4.0-2.0-0.29","spark_pilot_2","7496","8","22","Male","","false","","","","","[846,383.5]","./assets/img/canyon/memory/39.jpg","[""ArrowUp"",""ArrowLeft""]","value training","canyon","26","{""ArrowUp,ArrowLeft"":26,""ArrowUp,ArrowRight"":10,""ArrowDown,ArrowLeft"":5,""ArrowDown,ArrowRight"":17}","true","ArrowUp,ArrowLeft","false","","","revaluation","1","58","","",""
"html-keyboard-response","177","6146410","0.0-4.0-2.0-1.29","spark_pilot_2","7496","8","22","Male","","","","","","","null","<div style=""font-size:60px;"">+</div>","null","fixation","","","","","","","","","","","59","","",""
"revaluation","178","6152417","0.0-4.0-2.0-0.30","spark_pilot_2","7496","8","22","Male","","false","","","","","[580.7000000001863,1041.4000000003725]","./assets/img/canyon/memory/16.jpg","[""ArrowUp"",""ArrowLeft""]","value training","canyon","26","{""ArrowUp,ArrowLeft"":26,""ArrowUp,ArrowRight"":10,""ArrowDown,ArrowLeft"":5,""ArrowDown,ArrowRight"":17}","true","ArrowUp,ArrowLeft","false","","","revaluation","1","60","","",""
"html-keyboard-response","179","6152930","0.0-4.0-2.0-1.30","spark_pilot_2","7496","8","22","Male","","","","","","","null","<div style=""font-size:60px;"">+</div>","null","fixation","","","","","","","","","","","61","","",""
"revaluation","180","6158934","0.0-4.0-2.0-0.31","spark_pilot_2","7496","8","22","Male","","false","","","","","[762.7999999998137,528.2000000001863]","./assets/img/canyon/memory/19.jpg","[""ArrowUp"",""ArrowLeft""]","value training","canyon","26","{""ArrowUp,ArrowLeft"":26,""ArrowUp,ArrowRight"":10,""ArrowDown,ArrowLeft"":5,""ArrowDown,ArrowRight"":17}","true","ArrowUp,ArrowLeft","false","","","revaluation","1","62","","",""
"html-keyboard-response","181","6159436","0.0-4.0-2.0-1.31","spark_pilot_2","7496","8","22","Male","","","","","","","null","<div style=""font-size:60px;"">+</div>","null","fixation","","","","","","","","","","","63","","",""
"revaluation","182","6163440","0.0-4.0-2.0-0.32","spark_pilot_2","7496","8","22","Male","","false","","","","","[938.5999999996275]","./assets/img/canyon/catch/5.jpg","[""spaceBar""]","value training","canyon","0","{""ArrowUp,ArrowLeft"":26,""ArrowUp,ArrowRight"":10,""ArrowDown,ArrowLeft"":5,""ArrowDown,ArrowRight"":17}","true","spaceBar","true","","","revaluation","1","64","","",""
"html-keyboard-response","183","6163942","0.0-4.0-2.0-1.32","spark_pilot_2","7496","8","22","Male","","","","","","","null","<div style=""font-size:60px;"">+</div>","null","fixation","","","","","","","","","","","65","","",""
"revaluation","184","6169948","0.0-4.0-2.0-0.33","spark_pilot_2","7496","8","22","Male","","false","","","","","[676,270.3999999994412]","./assets/img/canyon/memory/40.jpg","[""ArrowUp"",""ArrowLeft""]","value training","canyon","26","{""ArrowUp,ArrowLeft"":26,""ArrowUp,ArrowRight"":10,""ArrowDown,ArrowLeft"":5,""ArrowDown,ArrowRight"":17}","true","ArrowUp,ArrowLeft","false","","","revaluation","1","66","","",""
"html-keyboard-response","185","6170450","0.0-4.0-2.0-1.33","spark_pilot_2","7496","8","22","Male","","","","","","","null","<div style=""font-size:60px;"">+</div>","null","fixation","","","","","","","","","","","67","","",""
"revaluation","186","6176457","0.0-4.0-2.0-0.34","spark_pilot_2","7496","8","22","Male","","false","","","","","[628.8999999994412,1252.6000000005588]","./assets/img/canyon/memory/0.jpg","[""ArrowUp"",""ArrowLeft""]","value training","canyon","26","{""ArrowUp,ArrowLeft"":26,""ArrowUp,ArrowRight"":10,""ArrowDown,ArrowLeft"":5,""ArrowDown,ArrowRight"":17}","true","ArrowUp,ArrowLeft","false","","","revaluation","1","68","","",""
"html-keyboard-response","187","6176959","0.0-4.0-2.0-1.34","spark_pilot_2","7496","8","22","Male","","","","","","","null","<div style=""font-size:60px;"">+</div>","null","fixation","","","","","","","","","","","69","","",""
"revaluation","188","6182970","0.0-4.0-2.0-0.35","spark_pilot_2","7496","8","22","Male","","false","","","","","[936.3999999994412,628.5999999996275]","./assets/img/canyon/memory/25.jpg","[""ArrowUp"",""ArrowLeft""]","value training","canyon","26","{""ArrowUp,ArrowLeft"":26,""ArrowUp,ArrowRight"":10,""ArrowDown,ArrowLeft"":5,""ArrowDown,ArrowRight"":17}","true","ArrowUp,ArrowLeft","false","","","revaluation","1","70","","",""
"html-keyboard-response","189","6183471","0.0-4.0-2.0-1.35","spark_pilot_2","7496","8","22","Male","","","","","","","null","<div style=""font-size:60px;"">+</div>","null","fixation","","","","","","","","","","","71","","",""
"revaluation","190","6189476","0.0-4.0-2.0-0.36","spark_pilot_2","7496","8","22","Male","","false","","","","","[628.5,655.3000000007451]","./assets/img/canyon/memory/41.jpg","[""ArrowUp"",""ArrowLeft""]","value training","canyon","26","{""ArrowUp,ArrowLeft"":26,""ArrowUp,ArrowRight"":10,""ArrowDown,ArrowLeft"":5,""ArrowDown,ArrowRight"":17}","true","ArrowUp,ArrowLeft","false","","","revaluation","1","72","","",""
"html-keyboard-response","191","6189978","0.0-4.0-2.0-1.36","spark_pilot_2","7496","8","22","Male","","","","","","","null","<div style=""font-size:60px;"">+</div>","null","fixation","","","","","","","","","","","73","","",""
"revaluation","192","6195994","0.0-4.0-2.0-0.37","spark_pilot_2","7496","8","22","Male","","false","","","","","[635.8999999994412,473.29999999981374]","./assets/img/canyon/memory/35.jpg","[""ArrowUp"",""ArrowLeft""]","value training","canyon","26","{""ArrowUp,ArrowLeft"":26,""ArrowUp,ArrowRight"":10,""ArrowDown,ArrowLeft"":5,""ArrowDown,ArrowRight"":17}","true","ArrowUp,ArrowLeft","false","","","revaluation","1","74","","",""
"html-keyboard-response","193","6196495","0.0-4.0-2.0-1.37","spark_pilot_2","7496","8","22","Male","","","","","","","null","<div style=""font-size:60px;"">+</div>","null","fixation","","","","","","","","","","","75","","",""
"revaluation","194","6202503","0.0-4.0-2.0-0.38","spark_pilot_2","7496","8","22","Male","","false","","","","","[671.6999999992549,386]","./assets/img/canyon/memory/31.jpg","[""ArrowUp"",""ArrowLeft""]","value training","canyon","26","{""ArrowUp,ArrowLeft"":26,""ArrowUp,ArrowRight"":10,""ArrowDown,ArrowLeft"":5,""ArrowDown,ArrowRight"":17}","true","ArrowUp,ArrowLeft","false","","","revaluation","1","76","","",""
"html-keyboard-response","195","6203005","0.0-4.0-2.0-1.38","spark_pilot_2","7496","8","22","Male","","","","","","","null","<div style=""font-size:60px;"">+</div>","null","fixation","","","","","","","","","","","77","","",""
"revaluation","196","6209021","0.0-4.0-2.0-0.39","spark_pilot_2","7496","8","22","Male","","false","","","","","[659.3999999994412,446.20000000018626]","./assets/img/canyon/memory/21.jpg","[""ArrowUp"",""ArrowLeft""]","value training","canyon","26","{""ArrowUp,ArrowLeft"":26,""ArrowUp,ArrowRight"":10,""ArrowDown,ArrowLeft"":5,""ArrowDown,ArrowRight"":17}","true","ArrowUp,ArrowLeft","false","","","revaluation","1","78","","",""
"html-keyboard-response","197","6209523","0.0-4.0-2.0-1.39","spark_pilot_2","7496","8","22","Male","","","","","","","null","<div style=""font-size:60px;"">+</div>","null","fixation","","","","","","","","","","","79","","",""
"revaluation","198","6215529","0.0-4.0-2.0-0.40","spark_pilot_2","7496","8","22","Male","","false","","","","","[553.3000000007451,1338.2000000001863]","./assets/img/canyon/memory/16.jpg","[""ArrowUp"",""ArrowLeft""]","value training","canyon","26","{""ArrowUp,ArrowLeft"":26,""ArrowUp,ArrowRight"":10,""ArrowDown,ArrowLeft"":5,""ArrowDown,ArrowRight"":17}","true","ArrowUp,ArrowLeft","false","","","revaluation","1","80","","",""
"html-keyboard-response","199","6216032","0.0-4.0-2.0-1.40","spark_pilot_2","7496","8","22","Male","","","","","","","null","<div style=""font-size:60px;"">+</div>","null","fixation","","","","","","","","","","","81","","",""
"revaluation","200","6222038","0.0-4.0-2.0-0.41","spark_pilot_2","7496","8","22","Male","","false","","","","","[726.0999999996275,857.1000000005588]","./assets/img/canyon/memory/37.jpg","[""ArrowUp"",""ArrowLeft""]","value training","canyon","26","{""ArrowUp,ArrowLeft"":26,""ArrowUp,ArrowRight"":10,""ArrowDown,ArrowLeft"":5,""ArrowDown,ArrowRight"":17}","true","ArrowUp,ArrowLeft","false","","","revaluation","1","82","","",""
"html-keyboard-response","201","6222540","0.0-4.0-2.0-1.41","spark_pilot_2","7496","8","22","Male","","","","","","","null","<div style=""font-size:60px;"">+</div>","null","fixation","","","","","","","","","","","83","","",""
"revaluation","202","6228548","0.0-4.0-2.0-0.42","spark_pilot_2","7496","8","22","Male","","false","","","","","[826.2999999998137,823.2999999998137]","./assets/img/canyon/memory/32.jpg","[""ArrowUp"",""ArrowLeft""]","value training","canyon","26","{""ArrowUp,ArrowLeft"":26,""ArrowUp,ArrowRight"":10,""ArrowDown,ArrowLeft"":5,""ArrowDown,ArrowRight"":17}","true","ArrowUp,ArrowLeft","false","","","revaluation","1","84","","",""
"html-keyboard-response","203","6229051","0.0-4.0-2.0-1.42","spark_pilot_2","7496","8","22","Male","","","","","","","null","<div style=""font-size:60px;"">+</div>","null","fixation","","","","","","","","","","","85","","",""
"revaluation","204","6235057","0.0-4.0-2.0-0.43","spark_pilot_2","7496","8","22","Male","","false","","","","","[530.5999999996275,210.90000000037253]","./assets/img/canyon/memory/33.jpg","[""ArrowUp"",""ArrowLeft""]","value training","canyon","26","{""ArrowUp,ArrowLeft"":26,""ArrowUp,ArrowRight"":10,""ArrowDown,ArrowLeft"":5,""ArrowDown,ArrowRight"":17}","true","ArrowUp,ArrowLeft","false","","","revaluation","1","86","","",""
"html-keyboard-response","205","6235571","0.0-4.0-2.0-1.43","spark_pilot_2","7496","8","22","Male","","","","","","","null","<div style=""font-size:60px;"">+</div>","null","fixation","","","","","","","","","","","87","","",""
"revaluation","206","6241589","0.0-4.0-2.0-0.44","spark_pilot_2","7496","8","22","Male","","false","","","","","[758.2000000001863,257.5]","./assets/img/canyon/memory/37.jpg","[""ArrowUp"",""ArrowLeft""]","value training","canyon","26","{""ArrowUp,ArrowLeft"":26,""ArrowUp,ArrowRight"":10,""ArrowDown,ArrowLeft"":5,""ArrowDown,ArrowRight"":17}","true","ArrowUp,ArrowLeft","false","","","revaluation","1","88","","",""
"html-keyboard-response","207","6242091","0.0-4.0-2.0-1.44","spark_pilot_2","7496","8","22","Male","","","","","","","null","<div style=""font-size:60px;"">+</div>","null","fixation","","","","","","","","","","","89","","",""
"revaluation","208","6248103","0.0-4.0-2.0-0.45","spark_pilot_2","7496","8","22","Male","","false","","","","","[515.2000000001863,264.70000000018626]","./assets/img/canyon/memory/39.jpg","[""ArrowUp"",""ArrowLeft""]","value training","canyon","26","{""ArrowUp,ArrowLeft"":26,""ArrowUp,ArrowRight"":10,""ArrowDown,ArrowLeft"":5,""ArrowDown,ArrowRight"":17}","true","ArrowUp,ArrowLeft","false","","","revaluation","1","90","","",""
"html-keyboard-response","209","6248606","0.0-4.0-2.0-1.45","spark_pilot_2","7496","8","22","Male","","","","","","","null","<div style=""font-size:60px;"">+</div>","null","fixation","","","","","","","","","","","91","","",""
"revaluation","210","6254616","0.0-4.0-2.0-0.46","spark_pilot_2","7496","8","22","Male","","false","","","","","[452,422.59999999962747]","./assets/img/canyon/memory/14.jpg","[""ArrowUp"",""ArrowLeft""]","value training","canyon","26","{""ArrowUp,ArrowLeft"":26,""ArrowUp,ArrowRight"":10,""ArrowDown,ArrowLeft"":5,""ArrowDown,ArrowRight"":17}","true","ArrowUp,ArrowLeft","false","","","revaluation","1","92","","",""
"html-keyboard-response","211","6255119","0.0-4.0-2.0-1.46","spark_pilot_2","7496","8","22","Male","","","","","","","null","<div style=""font-size:60px;"">+</div>","null","fixation","","","","","","","","","","","93","","",""
"revaluation","212","6259133","0.0-4.0-2.0-0.47","spark_pilot_2","7496","8","22","Male","","false","","","","","[682.8999999994412]","./assets/img/canyon/catch/1.jpg","[""ArrowUp""]","value training","canyon","-10","{""ArrowUp,ArrowLeft"":26,""ArrowUp,ArrowRight"":10,""ArrowDown,ArrowLeft"":5,""ArrowDown,ArrowRight"":17}","false","ArrowUp","true","","","revaluation","1","94","","",""
"html-keyboard-response","213","6259635","0.0-4.0-2.0-1.47","spark_pilot_2","7496","8","22","Male","","","","","","","null","<div style=""font-size:60px;"">+</div>","null","fixation","","","","","","","","","","","95","","",""
"revaluation","214","6265647","0.0-4.0-2.0-0.48","spark_pilot_2","7496","8","22","Male","","false","","","","","[626.5,549]","./assets/img/canyon/memory/3.jpg","[""ArrowUp"",""ArrowLeft""]","value training","canyon","26","{""ArrowUp,ArrowLeft"":26,""ArrowUp,ArrowRight"":10,""ArrowDown,ArrowLeft"":5,""ArrowDown,ArrowRight"":17}","true","ArrowUp,ArrowLeft","false","","","revaluation","1","96","","",""
"html-keyboard-response","215","6266148","0.0-4.0-2.0-1.48","spark_pilot_2","7496","8","22","Male","","","","","","","null","<div style=""font-size:60px;"">+</div>","null","fixation","","","","","","","","","","","97","","",""
"revaluation","216","6272159","0.0-4.0-2.0-0.49","spark_pilot_2","7496","8","22","Male","","false","","","","","[554.2999999998137,363.40000000037253]","./assets/img/canyon/memory/7.jpg","[""ArrowUp"",""ArrowLeft""]","value training","canyon","26","{""ArrowUp,ArrowLeft"":26,""ArrowUp,ArrowRight"":10,""ArrowDown,ArrowLeft"":5,""ArrowDown,ArrowRight"":17}","true","ArrowUp,ArrowLeft","false","","","revaluation","1","98","","",""
"html-keyboard-response","217","6272661","0.0-4.0-2.0-1.49","spark_pilot_2","7496","8","22","Male","","","","","","","null","<div style=""font-size:60px;"">+</div>","null","fixation","","","","","","","","","","","99","","",""
"learning-instructions","218","6289835","0.0-4.0-3.0-0.0","spark_pilot_2","7496","8","22","Male","","","","","","","4281.700000000186","<p> Now, you will travel with a friend who will choose whether you go up or down first. </p>
            <p> On these turns, you will just see the animal that they found. You will still get to choose which chest to search for treasure.</p>","","instructions","","","","","","","","","","","","","",""
"revaluation","219","6293863","0.0-4.0-4.0-0.0","spark_pilot_2","7496","8","22","Male","","false","","","","","[1313.7000000001863]","./assets/img/canyon/animals/giraffe.jpg","[""ArrowLeft""]","revaluation","canyon","8","{""ArrowUp,ArrowLeft"":2,""ArrowUp,ArrowRight"":11,""ArrowDown,ArrowLeft"":8,""ArrowDown,ArrowRight"":27}","false","ArrowDown,ArrowLeft","","","","revaluation","1","0","","",""
"html-keyboard-response","220","6294386","0.0-4.0-4.0-1.0","spark_pilot_2","7496","8","22","Male","","","","","","","null","<div style=""font-size:60px;"">+</div>","null","fixation","","","","","","","","","","","1","","",""
"revaluation","221","6298418","0.0-4.0-4.0-0.1","spark_pilot_2","7496","8","22","Male","","false","","","","","[339.3999999994412]","./assets/img/canyon/animals/giraffe.jpg","[""ArrowRight""]","revaluation","canyon","27","{""ArrowUp,ArrowLeft"":2,""ArrowUp,ArrowRight"":11,""ArrowDown,ArrowLeft"":8,""ArrowDown,ArrowRight"":27}","true","ArrowDown,ArrowRight","","","","revaluation","1","2","","",""
"html-keyboard-response","222","6298920","0.0-4.0-4.0-1.1","spark_pilot_2","7496","8","22","Male","","","","","","","null","<div style=""font-size:60px;"">+</div>","null","fixation","","","","","","","","","","","3","","",""
"revaluation","223","6302936","0.0-4.0-4.0-0.2","spark_pilot_2","7496","8","22","Male","","false","","","","","[297.40000000037253]","./assets/img/canyon/animals/giraffe.jpg","[""ArrowRight""]","revaluation","canyon","27","{""ArrowUp,ArrowLeft"":2,""ArrowUp,ArrowRight"":11,""ArrowDown,ArrowLeft"":8,""ArrowDown,ArrowRight"":27}","true","ArrowDown,ArrowRight","","","","revaluation","1","4","","",""
"html-keyboard-response","224","6303449","0.0-4.0-4.0-1.2","spark_pilot_2","7496","8","22","Male","","","","","","","null","<div style=""font-size:60px;"">+</div>","null","fixation","","","","","","","","","","","5","","",""
"revaluation","225","6307472","0.0-4.0-4.0-0.3","spark_pilot_2","7496","8","22","Male","","false","","","","","[180.30000000074506]","./assets/img/canyon/animals/lion.jpg","[""ArrowRight""]","revaluation","canyon","11","{""ArrowUp,ArrowLeft"":2,""ArrowUp,ArrowRight"":11,""ArrowDown,ArrowLeft"":8,""ArrowDown,ArrowRight"":27}","true","ArrowUp,ArrowRight","","","","revaluation","1","6","","",""
"html-keyboard-response","226","6307984","0.0-4.0-4.0-1.3","spark_pilot_2","7496","8","22","Male","","","","","","","null","<div style=""font-size:60px;"">+</div>","null","fixation","","","","","","","","","","","7","","",""
"revaluation","227","6312000","0.0-4.0-4.0-0.4","spark_pilot_2","7496","8","22","Male","","false","","","","","[459.59999999962747]","./assets/img/canyon/animals/lion.jpg","[""ArrowLeft""]","revaluation","canyon","2","{""ArrowUp,ArrowLeft"":2,""ArrowUp,ArrowRight"":11,""ArrowDown,ArrowLeft"":8,""ArrowDown,ArrowRight"":27}","false","ArrowUp,ArrowLeft","","","","revaluation","1","8","","",""
"html-keyboard-response","228","6312509","0.0-4.0-4.0-1.4","spark_pilot_2","7496","8","22","Male","","","","","","","null","<div style=""font-size:60px;"">+</div>","null","fixation","","","","","","","","","","","9","","",""
"revaluation","229","6316520","0.0-4.0-4.0-0.5","spark_pilot_2","7496","8","22","Male","","false","","","","","[667]","./assets/img/canyon/animals/giraffe.jpg","[""ArrowRight""]","revaluation","canyon","27","{""ArrowUp,ArrowLeft"":2,""ArrowUp,ArrowRight"":11,""ArrowDown,ArrowLeft"":8,""ArrowDown,ArrowRight"":27}","true","ArrowDown,ArrowRight","","","","revaluation","1","10","","",""
"html-keyboard-response","230","6317022","0.0-4.0-4.0-1.5","spark_pilot_2","7496","8","22","Male","","","","","","","null","<div style=""font-size:60px;"">+</div>","null","fixation","","","","","","","","","","","11","","",""
"revaluation","231","6321038","0.0-4.0-4.0-0.6","spark_pilot_2","7496","8","22","Male","","false","","","","","[450.5]","./assets/img/canyon/animals/giraffe.jpg","[""ArrowRight""]","revaluation","canyon","27","{""ArrowUp,ArrowLeft"":2,""ArrowUp,ArrowRight"":11,""ArrowDown,ArrowLeft"":8,""ArrowDown,ArrowRight"":27}","true","ArrowDown,ArrowRight","","","","revaluation","1","12","","",""
"html-keyboard-response","232","6321540","0.0-4.0-4.0-1.6","spark_pilot_2","7496","8","22","Male","","","","","","","null","<div style=""font-size:60px;"">+</div>","null","fixation","","","","","","","","","","","13","","",""
"revaluation","233","6325551","0.0-4.0-4.0-0.7","spark_pilot_2","7496","8","22","Male","","false","","","","","[371.1000000005588]","./assets/img/canyon/animals/lion.jpg","[""ArrowRight""]","revaluation","canyon","11","{""ArrowUp,ArrowLeft"":2,""ArrowUp,ArrowRight"":11,""ArrowDown,ArrowLeft"":8,""ArrowDown,ArrowRight"":27}","true","ArrowUp,ArrowRight","","","","revaluation","1","14","","",""
"html-keyboard-response","234","6326056","0.0-4.0-4.0-1.7","spark_pilot_2","7496","8","22","Male","","","","","","","null","<div style=""font-size:60px;"">+</div>","null","fixation","","","","","","","","","","","15","","",""
"revaluation","235","6330076","0.0-4.0-4.0-0.8","spark_pilot_2","7496","8","22","Male","","false","","","","","[278.29999999981374]","./assets/img/canyon/animals/lion.jpg","[""ArrowRight""]","revaluation","canyon","11","{""ArrowUp,ArrowLeft"":2,""ArrowUp,ArrowRight"":11,""ArrowDown,ArrowLeft"":8,""ArrowDown,ArrowRight"":27}","true","ArrowUp,ArrowRight","","","","revaluation","1","16","","",""
"html-keyboard-response","236","6330580","0.0-4.0-4.0-1.8","spark_pilot_2","7496","8","22","Male","","","","","","","null","<div style=""font-size:60px;"">+</div>","null","fixation","","","","","","","","","","","17","","",""
"revaluation","237","6334601","0.0-4.0-4.0-0.9","spark_pilot_2","7496","8","22","Male","","false","","","","","[237.70000000018626]","./assets/img/canyon/animals/giraffe.jpg","[""ArrowRight""]","revaluation","canyon","27","{""ArrowUp,ArrowLeft"":2,""ArrowUp,ArrowRight"":11,""ArrowDown,ArrowLeft"":8,""ArrowDown,ArrowRight"":27}","true","ArrowDown,ArrowRight","","","","revaluation","1","18","","",""
"html-keyboard-response","238","6335102","0.0-4.0-4.0-1.9","spark_pilot_2","7496","8","22","Male","","","","","","","null","<div style=""font-size:60px;"">+</div>","null","fixation","","","","","","","","","","","19","","",""
"revaluation","239","6339107","0.0-4.0-4.0-0.10","spark_pilot_2","7496","8","22","Male","","false","","","","","[9.399999999441206]","./assets/img/canyon/animals/giraffe.jpg","[""ArrowRight""]","revaluation","canyon","27","{""ArrowUp,ArrowLeft"":2,""ArrowUp,ArrowRight"":11,""ArrowDown,ArrowLeft"":8,""ArrowDown,ArrowRight"":27}","true","ArrowDown,ArrowRight","","","","revaluation","1","20","","",""
"html-keyboard-response","240","6339610","0.0-4.0-4.0-1.10","spark_pilot_2","7496","8","22","Male","","","","","","","null","<div style=""font-size:60px;"">+</div>","null","fixation","","","","","","","","","","","21","","",""
"revaluation","241","6343616","0.0-4.0-4.0-0.11","spark_pilot_2","7496","8","22","Male","","false","","","","","[135.90000000037253]","./assets/img/canyon/animals/giraffe.jpg","[""ArrowRight""]","revaluation","canyon","27","{""ArrowUp,ArrowLeft"":2,""ArrowUp,ArrowRight"":11,""ArrowDown,ArrowLeft"":8,""ArrowDown,ArrowRight"":27}","true","ArrowDown,ArrowRight","","","","revaluation","1","22","","",""
"html-keyboard-response","242","6344119","0.0-4.0-4.0-1.11","spark_pilot_2","7496","8","22","Male","","","","","","","null","<div style=""font-size:60px;"">+</div>","null","fixation","","","","","","","","","","","23","","",""
"revaluation","243","6348126","0.0-4.0-4.0-0.12","spark_pilot_2","7496","8","22","Male","","false","","","","","[646.7999999998137]","./assets/img/canyon/animals/lion.jpg","[""ArrowRight""]","revaluation","canyon","11","{""ArrowUp,ArrowLeft"":2,""ArrowUp,ArrowRight"":11,""ArrowDown,ArrowLeft"":8,""ArrowDown,ArrowRight"":27}","true","ArrowUp,ArrowRight","","","","revaluation","1","24","","",""
"html-keyboard-response","244","6348627","0.0-4.0-4.0-1.12","spark_pilot_2","7496","8","22","Male","","","","","","","null","<div style=""font-size:60px;"">+</div>","null","fixation","","","","","","","","","","","25","","",""
"revaluation","245","6352633","0.0-4.0-4.0-0.13","spark_pilot_2","7496","8","22","Male","","false","","","","","[47]","./assets/img/canyon/animals/lion.jpg","[""ArrowRight""]","revaluation","canyon","11","{""ArrowUp,ArrowLeft"":2,""ArrowUp,ArrowRight"":11,""ArrowDown,ArrowLeft"":8,""ArrowDown,ArrowRight"":27}","true","ArrowUp,ArrowRight","","","","revaluation","1","26","","",""
"html-keyboard-response","246","6353134","0.0-4.0-4.0-1.13","spark_pilot_2","7496","8","22","Male","","","","","","","null","<div style=""font-size:60px;"">+</div>","null","fixation","","","","","","","","","","","27","","",""
"revaluation","247","6357143","0.0-4.0-4.0-0.14","spark_pilot_2","7496","8","22","Male","","false","","","","","[9.5]","./assets/img/canyon/animals/lion.jpg","[""ArrowRight""]","revaluation","canyon","11","{""ArrowUp,ArrowLeft"":2,""ArrowUp,ArrowRight"":11,""ArrowDown,ArrowLeft"":8,""ArrowDown,ArrowRight"":27}","true","ArrowUp,ArrowRight","","","","revaluation","1","28","","",""
"html-keyboard-response","248","6357646","0.0-4.0-4.0-1.14","spark_pilot_2","7496","8","22","Male","","","","","","","null","<div style=""font-size:60px;"">+</div>","null","fixation","","","","","","","","","","","29","","",""
"revaluation","249","6361653","0.0-4.0-4.0-0.15","spark_pilot_2","7496","8","22","Male","","false","","","","","[113.1000000005588]","./assets/img/canyon/animals/lion.jpg","[""ArrowRight""]","revaluation","canyon","11","{""ArrowUp,ArrowLeft"":2,""ArrowUp,ArrowRight"":11,""ArrowDown,ArrowLeft"":8,""ArrowDown,ArrowRight"":27}","true","ArrowUp,ArrowRight","","","","revaluation","1","30","","",""
"html-keyboard-response","250","6362154","0.0-4.0-4.0-1.15","spark_pilot_2","7496","8","22","Male","","","","","","","null","<div style=""font-size:60px;"">+</div>","null","fixation","","","","","","","","","","","31","","",""
"revaluation","251","6366171","0.0-4.0-4.0-0.16","spark_pilot_2","7496","8","22","Male","","false","","","","","[150.40000000037253]","./assets/img/canyon/animals/giraffe.jpg","[""ArrowRight""]","revaluation","canyon","27","{""ArrowUp,ArrowLeft"":2,""ArrowUp,ArrowRight"":11,""ArrowDown,ArrowLeft"":8,""ArrowDown,ArrowRight"":27}","true","ArrowDown,ArrowRight","","","","revaluation","1","32","","",""
"html-keyboard-response","252","6366674","0.0-4.0-4.0-1.16","spark_pilot_2","7496","8","22","Male","","","","","","","null","<div style=""font-size:60px;"">+</div>","null","fixation","","","","","","","","","","","33","","",""
"revaluation","253","6370682","0.0-4.0-4.0-0.17","spark_pilot_2","7496","8","22","Male","","false","","","","","[20]","./assets/img/canyon/animals/lion.jpg","[""ArrowRight""]","revaluation","canyon","11","{""ArrowUp,ArrowLeft"":2,""ArrowUp,ArrowRight"":11,""ArrowDown,ArrowLeft"":8,""ArrowDown,ArrowRight"":27}","true","ArrowUp,ArrowRight","","","","revaluation","1","34","","",""
"html-keyboard-response","254","6371185","0.0-4.0-4.0-1.17","spark_pilot_2","7496","8","22","Male","","","","","","","null","<div style=""font-size:60px;"">+</div>","null","fixation","","","","","","","","","","","35","","",""
"learning-instructions","255","6384204","0.0-4.0-5.0-0.0","spark_pilot_2","7496","8","22","Male","","","","","","","1637.7999999998137","<p> Time to play the dot game! </p>
            <p> For one minute, click the red dots on the following screen as they appear. </p>
            <p><b> Don't look away, as you will earn bonus for clicking dots</b>. </p>","","instructions","","","","","","","","","","","","","",""
"revaluation","256","6444225","0.0-4.0-6.0-0.0","spark_pilot_2","7496","8","22","Male","","","","","","","[77,73,119,91,65,97]","","","rest","","60","","","","","0","60000","","","","","",""
"learning-instructions","257","6452134","0.0-4.0-7.0-0.0","spark_pilot_2","7496","8","22","Male","","","","","","","1477.9000000003725","<p> You have almost finished this part of the game! </p>
            <p> We are going to ask you to make a few more choices. </p>","","instructions","","","","","","","","","","","","","",""
"learning-instructions","258","6466981","0.0-4.0-7.0-0.1","spark_pilot_2","7496","8","22","Male","","","","","","","876","<p> First, you need to decide whether to go up or down. When you see each picture, use the arrow keys to make your choice. </p>
            <p><b>You will not see which animal you found, but try to get to the one that will give you the most treasure.</b></p>","","instructions","","","","","","","","","","","","","",""
"revaluation","259","6468152","0.0-4.0-8.0-0.0","spark_pilot_2","7496","8","22","Male","","false","","","","","[1169.300000000745]","./assets/img/canyon/test/3.jpg","[""ArrowUp""]","first stage test","canyon","0","{""ArrowUp,ArrowLeft"":2,""ArrowUp,ArrowRight"":11,""ArrowDown,ArrowLeft"":8,""ArrowDown,ArrowRight"":27}","false","ArrowUp","false","","","revaluation","1","","","",""
"html-keyboard-response","260","6468660","0.0-4.0-8.0-1.0","spark_pilot_2","7496","8","22","Male","","","","","","","null","<div style=""font-size:60px;"">+</div>","null","fixation","","","","","","","","","","","","","",""
"revaluation","261","6469031","0.0-4.0-8.0-0.1","spark_pilot_2","7496","8","22","Male","","false","","","","","[363.6000000005588]","./assets/img/canyon/test/1.jpg","[""ArrowUp""]","first stage test","canyon","0","{""ArrowUp,ArrowLeft"":2,""ArrowUp,ArrowRight"":11,""ArrowDown,ArrowLeft"":8,""ArrowDown,ArrowRight"":27}","false","ArrowUp","false","","","revaluation","1","","","",""
"html-keyboard-response","262","6469541","0.0-4.0-8.0-1.1","spark_pilot_2","7496","8","22","Male","","","","","","","null","<div style=""font-size:60px;"">+</div>","null","fixation","","","","","","","","","","","","","",""
"revaluation","263","6469824","0.0-4.0-8.0-0.2","spark_pilot_2","7496","8","22","Male","","false","","","","","[277.79999999981374]","./assets/img/canyon/test/2.jpg","[""ArrowDown""]","first stage test","canyon","0","{""ArrowUp,ArrowLeft"":2,""ArrowUp,ArrowRight"":11,""ArrowDown,ArrowLeft"":8,""ArrowDown,ArrowRight"":27}","true","ArrowDown","false","","","revaluation","1","","","",""
"html-keyboard-response","264","6470327","0.0-4.0-8.0-1.2","spark_pilot_2","7496","8","22","Male","","","","","","","null","<div style=""font-size:60px;"">+</div>","null","fixation","","","","","","","","","","","","","",""
"revaluation","265","6470510","0.0-4.0-8.0-0.3","spark_pilot_2","7496","8","22","Male","","false","","","","","[179]","./assets/img/canyon/test/0.jpg","[""ArrowUp""]","first stage test","canyon","0","{""ArrowUp,ArrowLeft"":2,""ArrowUp,ArrowRight"":11,""ArrowDown,ArrowLeft"":8,""ArrowDown,ArrowRight"":27}","false","ArrowUp","false","","","revaluation","1","","","",""
"html-keyboard-response","266","6471012","0.0-4.0-8.0-1.3","spark_pilot_2","7496","8","22","Male","","","","","","","null","<div style=""font-size:60px;"">+</div>","null","fixation","","","","","","","","","","","","","",""
"learning-instructions","267","6483696","0.0-4.0-9.0-0.0","spark_pilot_2","7496","8","22","Male","","","","","","","1350.300000000745","<p> Now you will see the animals again and can search their chests for treasure. </p>
            <p> This time, you will not see how much treasure you earned, but you will earn more bonus money for making better choices. </p>","","instructions","","","","","","","","","","","","","",""
"revaluation","268","6484872","0.0-4.0-10.0-0.0","spark_pilot_2","7496","8","22","Male","","false","","","","","[1173.7000000001863]","./assets/img/canyon/animals/lion.jpg","[""ArrowRight""]","second stage test","canyon","0","{""ArrowUp,ArrowLeft"":2,""ArrowUp,ArrowRight"":11,""ArrowDown,ArrowLeft"":8,""ArrowDown,ArrowRight"":27}","true","ArrowUp,ArrowRight","","","","revaluation","1","","","",""
"html-keyboard-response","269","6485388","0.0-4.0-10.0-1.0","spark_pilot_2","7496","8","22","Male","","","","","","","null","<div style=""font-size:60px;"">+</div>","null","fixation","","","","","","","","","","","","","",""
"revaluation","270","6485867","0.0-4.0-10.0-0.1","spark_pilot_2","7496","8","22","Male","","false","","","","","[471.5]","./assets/img/canyon/animals/lion.jpg","[""ArrowRight""]","second stage test","canyon","0","{""ArrowUp,ArrowLeft"":2,""ArrowUp,ArrowRight"":11,""ArrowDown,ArrowLeft"":8,""ArrowDown,ArrowRight"":27}","true","ArrowUp,ArrowRight","","","","revaluation","1","","","",""
"html-keyboard-response","271","6486370","0.0-4.0-10.0-1.1","spark_pilot_2","7496","8","22","Male","","","","","","","null","<div style=""font-size:60px;"">+</div>","null","fixation","","","","","","","","","","","","","",""
"revaluation","272","6486845","0.0-4.0-10.0-0.2","spark_pilot_2","7496","8","22","Male","","false","","","","","[464.70000000018626]","./assets/img/canyon/animals/lion.jpg","[""ArrowRight""]","second stage test","canyon","0","{""ArrowUp,ArrowLeft"":2,""ArrowUp,ArrowRight"":11,""ArrowDown,ArrowLeft"":8,""ArrowDown,ArrowRight"":27}","true","ArrowUp,ArrowRight","","","","revaluation","1","","","",""
"html-keyboard-response","273","6487356","0.0-4.0-10.0-1.2","spark_pilot_2","7496","8","22","Male","","","","","","","null","<div style=""font-size:60px;"">+</div>","null","fixation","","","","","","","","","","","","","",""
"revaluation","274","6487807","0.0-4.0-10.0-0.3","spark_pilot_2","7496","8","22","Male","","false","","","","","[443.5]","./assets/img/canyon/animals/lion.jpg","[""ArrowLeft""]","second stage test","canyon","0","{""ArrowUp,ArrowLeft"":2,""ArrowUp,ArrowRight"":11,""ArrowDown,ArrowLeft"":8,""ArrowDown,ArrowRight"":27}","false","ArrowUp,ArrowLeft","","","","revaluation","1","","","",""
"html-keyboard-response","275","6488322","0.0-4.0-10.0-1.3","spark_pilot_2","7496","8","22","Male","","","","","","","null","<div style=""font-size:60px;"">+</div>","null","fixation","","","","","","","","","","","","","",""
"revaluation","276","6488803","0.0-4.0-10.0-0.4","spark_pilot_2","7496","8","22","Male","","false","","","","","[474.59999999962747]","./assets/img/canyon/animals/giraffe.jpg","[""ArrowRight""]","second stage test","canyon","0","{""ArrowUp,ArrowLeft"":2,""ArrowUp,ArrowRight"":11,""ArrowDown,ArrowLeft"":8,""ArrowDown,ArrowRight"":27}","true","ArrowDown,ArrowRight","","","","revaluation","1","","","",""
"html-keyboard-response","277","6489307","0.0-4.0-10.0-1.4","spark_pilot_2","7496","8","22","Male","","","","","","","null","<div style=""font-size:60px;"">+</div>","null","fixation","","","","","","","","","","","","","",""
"revaluation","278","6489521","0.0-4.0-10.0-0.5","spark_pilot_2","7496","8","22","Male","","false","","","","","[207.79999999981374]","./assets/img/canyon/animals/giraffe.jpg","[""ArrowRight""]","second stage test","canyon","0","{""ArrowUp,ArrowLeft"":2,""ArrowUp,ArrowRight"":11,""ArrowDown,ArrowLeft"":8,""ArrowDown,ArrowRight"":27}","true","ArrowDown,ArrowRight","","","","revaluation","1","","","",""
"html-keyboard-response","279","6490033","0.0-4.0-10.0-1.5","spark_pilot_2","7496","8","22","Male","","","","","","","null","<div style=""font-size:60px;"">+</div>","null","fixation","","","","","","","","","","","","","",""
"revaluation","280","6490321","0.0-4.0-10.0-0.6","spark_pilot_2","7496","8","22","Male","","false","","","","","[280.8999999994412]","./assets/img/canyon/animals/giraffe.jpg","[""ArrowRight""]","second stage test","canyon","0","{""ArrowUp,ArrowLeft"":2,""ArrowUp,ArrowRight"":11,""ArrowDown,ArrowLeft"":8,""ArrowDown,ArrowRight"":27}","true","ArrowDown,ArrowRight","","","","revaluation","1","","","",""
"html-keyboard-response","281","6490824","0.0-4.0-10.0-1.6","spark_pilot_2","7496","8","22","Male","","","","","","","null","<div style=""font-size:60px;"">+</div>","null","fixation","","","","","","","","","","","","","",""
"revaluation","282","6491094","0.0-4.0-10.0-0.7","spark_pilot_2","7496","8","22","Male","","false","","","","","[258.3999999994412]","./assets/img/canyon/animals/giraffe.jpg","[""ArrowRight""]","second stage test","canyon","0","{""ArrowUp,ArrowLeft"":2,""ArrowUp,ArrowRight"":11,""ArrowDown,ArrowLeft"":8,""ArrowDown,ArrowRight"":27}","true","ArrowDown,ArrowRight","","","","revaluation","1","","","",""
"html-keyboard-response","283","6491600","0.0-4.0-10.0-1.7","spark_pilot_2","7496","8","22","Male","","","","","","","null","<div style=""font-size:60px;"">+</div>","null","fixation","","","","","","","","","","","","","",""
"learning-instructions","284","6495931","0.0-4.0-0.1-0.2","spark_pilot_2","7496","8","22","Male","","","","","","","1624.7999999998137","<p> This time you are searching for treasure in the <b>ocean</b>.</p>","","instructions","","","","","","","","","","","","","",""
"learning-instructions","285","6515587","0.0-4.0-0.1-0.3","spark_pilot_2","7496","8","22","Male","","","","","","","2411.300000000745","<p><b>New</b> animals with <b>new</b> treasure chests live here. You need to explore to discover where the animal with the best treasure chest is.</p>
                    <p> Like before, once you figure out which animal has the chest with the most treasure, you should try to get to that animal and select that chest! </p>","","instructions","","","","","","","","","","","","","",""
"learning-instructions","286","6532413","0.0-4.0-1.1-0.1","spark_pilot_2","7496","8","22","Male","","","","","","","2087.699999999255","<p> Remember, when you see a picture of the place, use the up and down keys to <b>find an animal</b>.</p>
            <p> When you encounter an animal, you should use the left and right keys to <b>select a treasure chest</b>.</p>
            <p> Don't forget to look out for the robber! </p>","","instructions","","","","","","","","","","","","","",""
"revaluation","287","6536426","0.0-4.0-2.1-0.50","spark_pilot_2","7496","8","22","Male","","false","","","","","[1449.5999999996275]","./assets/img/ocean/catch/3.jpg","[""spaceBar""]","value training","ocean","0","{""ArrowUp,ArrowLeft"":23,""ArrowUp,ArrowRight"":10,""ArrowDown,ArrowLeft"":8,""ArrowDown,ArrowRight"":30}","true","spaceBar","true","","","original","2","0","","",""
"html-keyboard-response","288","6536935","0.0-4.0-2.1-1.50","spark_pilot_2","7496","8","22","Male","","","","","","","null","<div style=""font-size:60px;"">+</div>","null","fixation","","","","","","","","","","","1","","",""
"revaluation","289","6542963","0.0-4.0-2.1-0.51","spark_pilot_2","7496","8","22","Male","","false","","","","","[1214.2999999998137,811.6000000005588]","./assets/img/ocean/memory/21.jpg","[""ArrowDown"",""ArrowRight""]","value training","ocean","30","{""ArrowUp,ArrowLeft"":23,""ArrowUp,ArrowRight"":10,""ArrowDown,ArrowLeft"":8,""ArrowDown,ArrowRight"":30}","true","ArrowDown,ArrowRight","false","","","original","2","2","","",""
"html-keyboard-response","290","6543472","0.0-4.0-2.1-1.51","spark_pilot_2","7496","8","22","Male","","","","","","","null","<div style=""font-size:60px;"">+</div>","null","fixation","","","","","","","","","","","3","","",""
"revaluation","291","6549522","0.0-4.0-2.1-0.52","spark_pilot_2","7496","8","22","Male","","false","","","","","[542.3999999994412,376.90000000037253]","./assets/img/ocean/memory/0.jpg","[""ArrowUp"",""ArrowLeft""]","value training","ocean","23","{""ArrowUp,ArrowLeft"":23,""ArrowUp,ArrowRight"":10,""ArrowDown,ArrowLeft"":8,""ArrowDown,ArrowRight"":30}","false","ArrowUp,ArrowLeft","false","","","original","2","4","","",""
"html-keyboard-response","292","6550030","0.0-4.0-2.1-1.52","spark_pilot_2","7496","8","22","Male","","","","","","","null","<div style=""font-size:60px;"">+</div>","null","fixation","","","","","","","","","","","5","","",""
"revaluation","293","6556071","0.0-4.0-2.1-0.53","spark_pilot_2","7496","8","22","Male","","false","","","","","[1091.3999999994412,988.0999999996275]","./assets/img/ocean/memory/25.jpg","[""ArrowDown"",""ArrowRight""]","value training","ocean","30","{""ArrowUp,ArrowLeft"":23,""ArrowUp,ArrowRight"":10,""ArrowDown,ArrowLeft"":8,""ArrowDown,ArrowRight"":30}","true","ArrowDown,ArrowRight","false","","","original","2","6","","",""
"html-keyboard-response","294","6556589","0.0-4.0-2.1-1.53","spark_pilot_2","7496","8","22","Male","","","","","","","null","<div style=""font-size:60px;"">+</div>","null","fixation","","","","","","","","","","","7","","",""
"revaluation","295","6562609","0.0-4.0-2.1-0.54","spark_pilot_2","7496","8","22","Male","","false","","","","","[936,586.2999999998137]","./assets/img/ocean/memory/35.jpg","[""ArrowUp"",""ArrowRight""]","value training","ocean","10","{""ArrowUp,ArrowLeft"":23,""ArrowUp,ArrowRight"":10,""ArrowDown,ArrowLeft"":8,""ArrowDown,ArrowRight"":30}","false","ArrowUp,ArrowRight","false","","","original","2","8","","",""
"html-keyboard-response","296","6563111","0.0-4.0-2.1-1.54","spark_pilot_2","7496","8","22","Male","","","","","","","null","<div style=""font-size:60px;"">+</div>","null","fixation","","","","","","","","","","","9","","",""
"revaluation","297","6569120","0.0-4.0-2.1-0.55","spark_pilot_2","7496","8","22","Male","","false","","","","","[663.6000000005588,43.5]","./assets/img/ocean/memory/41.jpg","[""ArrowDown"",""ArrowLeft""]","value training","ocean","8","{""ArrowUp,ArrowLeft"":23,""ArrowUp,ArrowRight"":10,""ArrowDown,ArrowLeft"":8,""ArrowDown,ArrowRight"":30}","false","ArrowDown,ArrowLeft","false","","","original","2","10","","",""
"html-keyboard-response","298","6569622","0.0-4.0-2.1-1.55","spark_pilot_2","7496","8","22","Male","","","","","","","null","<div style=""font-size:60px;"">+</div>","null","fixation","","","","","","","","","","","11","","",""
"revaluation","299","6575633","0.0-4.0-2.1-0.56","spark_pilot_2","7496","8","22","Male","","false","","","","","[605.5,506.6000000005588]","./assets/img/ocean/memory/19.jpg","[""ArrowDown"",""ArrowRight""]","value training","ocean","30","{""ArrowUp,ArrowLeft"":23,""ArrowUp,ArrowRight"":10,""ArrowDown,ArrowLeft"":8,""ArrowDown,ArrowRight"":30}","true","ArrowDown,ArrowRight","false","","","original","2","12","","",""
"html-keyboard-response","300","6576135","0.0-4.0-2.1-1.56","spark_pilot_2","7496","8","22","Male","","","","","","","null","<div style=""font-size:60px;"">+</div>","null","fixation","","","","","","","","","","","13","","",""
"revaluation","301","6582145","0.0-4.0-2.1-0.57","spark_pilot_2","7496","8","22","Male","","false","","","","","[993.2999999998137,422.29999999981374]","./assets/img/ocean/memory/39.jpg","[""ArrowDown"",""ArrowRight""]","value training","ocean","30","{""ArrowUp,ArrowLeft"":23,""ArrowUp,ArrowRight"":10,""ArrowDown,ArrowLeft"":8,""ArrowDown,ArrowRight"":30}","true","ArrowDown,ArrowRight","false","","","original","2","14","","",""
"html-keyboard-response","302","6582649","0.0-4.0-2.1-1.57","spark_pilot_2","7496","8","22","Male","","","","","","","null","<div style=""font-size:60px;"">+</div>","null","fixation","","","","","","","","","","","15","","",""
"revaluation","303","6588657","0.0-4.0-2.1-0.58","spark_pilot_2","7496","8","22","Male","","false","","","","","[892.2999999998137,304.6000000005588]","./assets/img/ocean/memory/19.jpg","[""ArrowUp"",""ArrowLeft""]","value training","ocean","23","{""ArrowUp,ArrowLeft"":23,""ArrowUp,ArrowRight"":10,""ArrowDown,ArrowLeft"":8,""ArrowDown,ArrowRight"":30}","false","ArrowUp,ArrowLeft","false","","","original","2","16","","",""
"html-keyboard-response","304","6589160","0.0-4.0-2.1-1.58","spark_pilot_2","7496","8","22","Male","","","","","","","null","<div style=""font-size:60px;"">+</div>","null","fixation","","","","","","","","","","","17","","",""
