"trial_type","trial_index","time_elapsed","internal_node_id","task_version","subject_id","assigned_condition","age","gender","success","timeout","failed_images","failed_audio","failed_video","browser_interaction","rt","stimulus","response","task_part","environment","score","rewardMap","correct","fullState","isCatch","numberMissed","duration","condition","order","trial_num","key_press","ground_truth","bonus"
"pavlovia","0","1118","0.0-0.0","spark_pilot_2","7425","1","18","Male","","","","","","","","","","","","","","","","","","","","","","","",""
"preload","1","16007","0.0-1.0","spark_pilot_2","7425","1","18","Male","true","false","[]","[]","[]","[{""event"":""fullscreenenter"",""trial"":2,""time"":21719},{""event"":""fullscreenexit"",""trial"":3,""time"":23965},{""event"":""blur"",""trial"":63,""time"":520666},{""event"":""focus"",""trial"":63,""time"":522285},{""event"":""blur"",""trial"":115,""time"":822917},{""event"":""focus"",""trial"":115,""time"":829649},{""event"":""blur"",""trial"":126,""time"":937342},{""event"":""focus"",""trial"":126,""time"":939057},{""event"":""blur"",""trial"":128,""time"":946832},{""event"":""focus"",""trial"":129,""time"":947822},{""event"":""blur"",""trial"":150,""time"":1014070},{""event"":""focus"",""trial"":150,""time"":1014618},{""event"":""blur"",""trial"":225,""time"":1256330},{""event"":""focus"",""trial"":225,""time"":1258763}]","","","","","","","","","","","","","","","","","",""
"fullscreen","2","22688","0.0-2.0","spark_pilot_2","7425","1","18","Male","true","","","","","[{""event"":""fullscreenenter"",""trial"":2,""time"":21719},{""event"":""fullscreenexit"",""trial"":3,""time"":23965},{""event"":""blur"",""trial"":63,""time"":520666},{""event"":""focus"",""trial"":63,""time"":522285},{""event"":""blur"",""trial"":115,""time"":822917},{""event"":""focus"",""trial"":115,""time"":829649},{""event"":""blur"",""trial"":126,""time"":937342},{""event"":""focus"",""trial"":126,""time"":939057},{""event"":""blur"",""trial"":128,""time"":946832},{""event"":""focus"",""trial"":129,""time"":947822},{""event"":""blur"",""trial"":150,""time"":1014070},{""event"":""focus"",""trial"":150,""time"":1014618},{""event"":""blur"",""trial"":225,""time"":1256330},{""event"":""focus"",""trial"":225,""time"":1258763}]","","","","","","","","","","","","","","","","","",""
"audio-button-response","3","24768","0.0-3.0-0.0-0.0","spark_pilot_2","7425","1","18","Male","","","","","","","1920","./assets/audio/audiotest/turtle.mp3","2","audio_test","","","","","","","","","","","","","",""
"learning-instructions","4","36146","0.0-3.0-1.0-0.0","spark_pilot_2","7425","1","18","Male","","","","","","","4365.79999999702","<p> Welcome! Please remember to stay in fullscreen mode and don't click away from the experiment. </p>","","instructions","","","","","","","","","","","","","",""
"learning-instructions","5","48614","0.0-3.0-1.0-0.1","spark_pilot_2","7425","1","18","Male","","","","","","","4002.8000000044703","<p> Today you will be playing a game to earn treasure. </p>
            <p> At the end of the experiment, you will earn a bonus based on how much treasure you find. </p>
            <img src='./assets/img/instructions/treasure.jpg' class='instructions-image'>","","instructions","","","","","","","","","","","","","",""
"learning-instructions","6","60037","0.0-3.0-1.0-0.2","spark_pilot_2","7425","1","18","Male","","","","","","","3106.7000000029802","<p> Animals have hidden treasure in treasure chests. </p>
            <p> You need to first find an animal and then choose which of their treasure chests to search. </p>
            <img src='./assets/img/space/animals/cat.jpg' class='instructions-image'>","","instructions","","","","","","","","","","","","","",""
"learning-instructions","7","77490","0.0-3.0-1.0-0.3","spark_pilot_2","7425","1","18","Male","","","","","","","4230.39999999851","<p> In each round, you will search for treasure in a different place. In the real game, there will be two rounds. </p>
            <p> You will begin with a separate, practice round where you will search for treasure in outer space. </p>
            <img src='./assets/img/space/0.jpg' class='instructions-image'>","","instructions","","","","","","","","","","","","","",""
"learning-instructions","8","91990","0.0-3.0-1.0-0.4","spark_pilot_2","7425","1","18","Male","","","","","","","3019.39999999851","<p> On every turn, you will see a picture of the place that you are in, but the specific image may be different each time. </p>
            <p> For example, both of these images mean you are in outer space. </p>
            <img src='./assets/img/instructions/outerspace.jpg' class='instructions-image'>","","instructions","","","","","","","","","","","","","",""
"learning-instructions","9","102656","0.0-3.0-1.0-0.5","spark_pilot_2","7425","1","18","Male","","","","","","","2785.7000000029802","<p> You need to decide which direction to travel in. </p>
            <p> You can choose between going <b>up or down</b> by using the arrow keys. </p>
            <img src='./assets/img/instructions/updown.jpg' class='instructions-image'>","","instructions","","","","","","","","","","","","","",""
"learning-instructions","10","115353","0.0-3.0-1.0-0.6","spark_pilot_2","7425","1","18","Male","","","","","","","3823","<p> You will have <b>2 seconds</b> to make your choice. </p>
            <p> If you do not make a choice within 2 seconds, you will not find an animal or earn treasure. </p>
            <img src='./assets/img/instructions/2seconds.jpg' class='instructions-image'>","","instructions","","","","","","","","","","","","","",""
"learning-instructions","11","125778","0.0-3.0-1.0-0.7","spark_pilot_2","7425","1","18","Male","","","","","","","3337.2999999970198","<p> Let’s try practicing that now! </p>
            <p> When you see a picture of the place you are in, press the <b>up</b> key to travel up. </p>
            <img src='./assets/img/instructions/pressUp.jpg' class='instructions-image'>","","instructions","","","","","","","","","","","","","",""
"revaluation","12","129809","0.0-3.0-2.0-0.0","spark_pilot_2","7425","1","18","Male","","false","","","","","[1064.7000000029802]","./assets/img/space/0.jpg","[""ArrowUp""]","first stage practice","space","0","null","null","ArrowUp","false","","","","","","","",""
"html-keyboard-response","13","130313","0.0-3.0-2.0-1.0","spark_pilot_2","7425","1","18","Male","","","","","","","null","<div style=""font-size:60px;"">+</div>","null","fixation","","","","","","","","","","","","","",""
"revaluation","14","134322","0.0-3.0-2.0-0.1","spark_pilot_2","7425","1","18","Male","","true","","","","","[]","./assets/img/space/1.jpg","[]","first stage practice","space","-5","null","null","","false","","","","","","","",""
"html-keyboard-response","15","134825","0.0-3.0-2.0-1.1","spark_pilot_2","7425","1","18","Male","","","","","","","null","<div style=""font-size:60px;"">+</div>","null","fixation","","","","","","","","","","","","","",""
"revaluation","16","138834","0.0-3.0-2.0-0.2","spark_pilot_2","7425","1","18","Male","","false","","","","","[799.5999999940395]","./assets/img/space/2.jpg","[""ArrowUp""]","first stage practice","space","0","null","null","ArrowUp","false","","","","","","","",""
"html-keyboard-response","17","139338","0.0-3.0-2.0-1.2","spark_pilot_2","7425","1","18","Male","","","","","","","null","<div style=""font-size:60px;"">+</div>","null","fixation","","","","","","","","","","","","","",""
"learning-instructions","18","146765","0.0-3.0-3.0-0.0","spark_pilot_2","7425","1","18","Male","","","","","","","2704.7000000029802","<p> Great job! Now try pressing the <b>down</b> key to travel down. </p>
            <img src='./assets/img/instructions/pressDown.jpg' class='instructions-image'>","","instructions","","","","","","","","","","","","","",""
"revaluation","19","150772","0.0-3.0-4.0-0.0","spark_pilot_2","7425","1","18","Male","","false","","","","","[907.1000000014901]","./assets/img/space/3.jpg","[""ArrowDown""]","first stage practice","space","0","null","null","ArrowDown","false","","","","","","","",""
"html-keyboard-response","20","151275","0.0-3.0-4.0-1.0","spark_pilot_2","7425","1","18","Male","","","","","","","null","<div style=""font-size:60px;"">+</div>","null","fixation","","","","","","","","","","","","","",""
"revaluation","21","155284","0.0-3.0-4.0-0.1","spark_pilot_2","7425","1","18","Male","","false","","","","","[1492.1000000014901]","./assets/img/space/4.jpg","[""ArrowDown""]","first stage practice","space","0","null","null","ArrowDown","false","","","","","","","",""
"html-keyboard-response","22","155789","0.0-3.0-4.0-1.1","spark_pilot_2","7425","1","18","Male","","","","","","","null","<div style=""font-size:60px;"">+</div>","null","fixation","","","","","","","","","","","","","",""
"revaluation","23","159797","0.0-3.0-4.0-0.2","spark_pilot_2","7425","1","18","Male","","false","","","","","[802.8000000044703]","./assets/img/space/5.jpg","[""ArrowDown""]","first stage practice","space","0","null","null","ArrowDown","false","","","","","","","",""
"html-keyboard-response","24","160299","0.0-3.0-4.0-1.2","spark_pilot_2","7425","1","18","Male","","","","","","","null","<div style=""font-size:60px;"">+</div>","null","fixation","","","","","","","","","","","","","",""
"learning-instructions","25","172659","0.0-3.0-5.0-0.0","spark_pilot_2","7425","1","18","Male","","","","","","","2448.60000000149","<p> The animals don’t move, so the animal in the upper part of a place will stay in the upper part of a place, and the animal in the lower part of a place will stay in the lower part of a place. </p>","","instructions","","","","","","","","","","","","","",""
"learning-instructions","26","278187","0.0-3.0-5.0-0.1","spark_pilot_2","7425","1","18","Male","","","","","","","96336.79999999702","<p> Each animal has two treasure chests for you to choose from. </p>
            <p> The amount of treasure in each chest can range from <b> 0 to 40 pieces.</b></p>","","instructions","","","","","","","","","","","","","",""
"learning-instructions","27","290853","0.0-3.0-5.0-0.2","spark_pilot_2","7425","1","18","Male","","","","","","","1291.3000000044703","<p> You should decide which chest to search for treasure by using the <b>left</b> and <b>right</b> arrow keys. </p>
            <p><b> Pay attention to which animal is on the screen, as the animals have different treasure chests. </b></p>
            <img src='./assets/img/instructions/leftright.jpg' class='instructions-image'>","","instructions","","","","","","","","","","","","","",""
"learning-instructions","28","309564","0.0-3.0-5.0-0.3","spark_pilot_2","7425","1","18","Male","","","","","","","12303.39999999851","<p> Let’s try practicing that now. </p>
            <p> When you see an animal, choose which chest to search for treasure. </p>
            <img src='./assets/img/instructions/chooseChest.jpg' class='instructions-image'>","","instructions","","","","","","","","","","","","","",""
"revaluation","29","313579","0.0-3.0-6.0-0.0","spark_pilot_2","7425","1","18","Male","","false","","","","","[830]","./assets/img/space/animals/rabbit.jpg","[""ArrowRight""]","second stage practice","space","23","{""ArrowUp,ArrowLeft"":3,""ArrowUp,ArrowRight"":36,""ArrowDown,ArrowLeft"":15,""ArrowDown,ArrowRight"":23}","true","ArrowDown,ArrowRight","","","","","","","","",""
"html-keyboard-response","30","314082","0.0-3.0-6.0-1.0","spark_pilot_2","7425","1","18","Male","","","","","","","null","<div style=""font-size:60px;"">+</div>","null","fixation","","","","","","","","","","","","","",""
"revaluation","31","318089","0.0-3.0-6.0-0.1","spark_pilot_2","7425","1","18","Male","","false","","","","","[1061.6000000014901]","./assets/img/space/animals/cat.jpg","[""ArrowRight""]","second stage practice","space","36","{""ArrowUp,ArrowLeft"":3,""ArrowUp,ArrowRight"":36,""ArrowDown,ArrowLeft"":15,""ArrowDown,ArrowRight"":23}","true","ArrowUp,ArrowRight","","","","","","","","",""
"html-keyboard-response","32","318591","0.0-3.0-6.0-1.1","spark_pilot_2","7425","1","18","Male","","","","","","","null","<div style=""font-size:60px;"">+</div>","null","fixation","","","","","","","","","","","","","",""
"revaluation","33","322600","0.0-3.0-6.0-0.2","spark_pilot_2","7425","1","18","Male","","false","","","","","[673.4000000059605]","./assets/img/space/animals/rabbit.jpg","[""ArrowRight""]","second stage practice","space","23","{""ArrowUp,ArrowLeft"":3,""ArrowUp,ArrowRight"":36,""ArrowDown,ArrowLeft"":15,""ArrowDown,ArrowRight"":23}","true","ArrowDown,ArrowRight","","","","","","","","",""
"html-keyboard-response","34","323102","0.0-3.0-6.0-1.2","spark_pilot_2","7425","1","18","Male","","","","","","","null","<div style=""font-size:60px;"">+</div>","null","fixation","","","","","","","","","","","","","",""
"revaluation","35","327110","0.0-3.0-6.0-0.3","spark_pilot_2","7425","1","18","Male","","false","","","","","[1323.1000000014901]","./assets/img/space/animals/cat.jpg","[""ArrowLeft""]","second stage practice","space","3","{""ArrowUp,ArrowLeft"":3,""ArrowUp,ArrowRight"":36,""ArrowDown,ArrowLeft"":15,""ArrowDown,ArrowRight"":23}","false","ArrowUp,ArrowLeft","","","","","","","","",""
"html-keyboard-response","36","327613","0.0-3.0-6.0-1.3","spark_pilot_2","7425","1","18","Male","","","","","","","null","<div style=""font-size:60px;"">+</div>","null","fixation","","","","","","","","","","","","","",""
"learning-instructions","37","348186","0.0-3.0-7.0-0.0","spark_pilot_2","7425","1","18","Male","","","","","","","3630.5","<p> Great job. Now let’s try putting it together. </p>
            <p> On each turn, you will first see a picture to remind you of the place you are in, and you need to choose whether to go up or down. </p>
            <p> Then you will see an animal and choose which of its chests to search for treasure. </p>","","instructions","","","","","","","","","","","","","",""
"learning-instructions","38","357854","0.0-3.0-7.0-0.1","spark_pilot_2","7425","1","18","Male","","","","","","","1371.3000000044703","<p> When you choose whether to go up or down, try to go to the animal with the chest with the most treasure. </p>
            <p> Try practicing that now! </p>","","instructions","","","","","","","","","","","","","",""
"revaluation","39","363865","0.0-3.0-8.0-0.0","spark_pilot_2","7425","1","18","Male","","false","","","","","[915.6000000014901,559.8999999985099]","./assets/img/space/6.jpg","[""ArrowUp"",""ArrowLeft""]","full practice","space","3","{""ArrowUp,ArrowLeft"":3,""ArrowUp,ArrowRight"":36,""ArrowDown,ArrowLeft"":15,""ArrowDown,ArrowRight"":23}","false","ArrowUp,ArrowLeft","false","","","","","","","",""
"html-keyboard-response","40","364367","0.0-3.0-8.0-1.0","spark_pilot_2","7425","1","18","Male","","","","","","","null","<div style=""font-size:60px;"">+</div>","null","fixation","","","","","","","","","","","","","",""
"revaluation","41","370387","0.0-3.0-8.0-0.1","spark_pilot_2","7425","1","18","Male","","false","","","","","[847.3999999985099,957.2999999970198]","./assets/img/space/7.jpg","[""ArrowDown"",""ArrowRight""]","full practice","space","23","{""ArrowUp,ArrowLeft"":3,""ArrowUp,ArrowRight"":36,""ArrowDown,ArrowLeft"":15,""ArrowDown,ArrowRight"":23}","false","ArrowDown,ArrowRight","false","","","","","","","",""
"html-keyboard-response","42","370890","0.0-3.0-8.0-1.1","spark_pilot_2","7425","1","18","Male","","","","","","","null","<div style=""font-size:60px;"">+</div>","null","fixation","","","","","","","","","","","","","",""
"revaluation","43","376901","0.0-3.0-8.0-0.2","spark_pilot_2","7425","1","18","Male","","false","","","","","[269.29999999701977,59.70000000298023]","./assets/img/space/8.jpg","[""ArrowUp"",""ArrowRight""]","full practice","space","36","{""ArrowUp,ArrowLeft"":3,""ArrowUp,ArrowRight"":36,""ArrowDown,ArrowLeft"":15,""ArrowDown,ArrowRight"":23}","true","ArrowUp,ArrowRight","false","","","","","","","",""
"html-keyboard-response","44","377403","0.0-3.0-8.0-1.2","spark_pilot_2","7425","1","18","Male","","","","","","","null","<div style=""font-size:60px;"">+</div>","null","fixation","","","","","","","","","","","","","",""
"revaluation","45","383413","0.0-3.0-8.0-0.3","spark_pilot_2","7425","1","18","Male","","false","","","","","[55.20000000298023,460.1000000014901]","./assets/img/space/9.jpg","[""ArrowUp"",""ArrowLeft""]","full practice","space","3","{""ArrowUp,ArrowLeft"":3,""ArrowUp,ArrowRight"":36,""ArrowDown,ArrowLeft"":15,""ArrowDown,ArrowRight"":23}","false","ArrowUp,ArrowLeft","false","","","","","","","",""
"html-keyboard-response","46","383972","0.0-3.0-8.0-1.3","spark_pilot_2","7425","1","18","Male","","","","","","","null","<div style=""font-size:60px;"">+</div>","null","fixation","","","","","","","","","","","","","",""
"revaluation","47","389983","0.0-3.0-8.0-0.4","spark_pilot_2","7425","1","18","Male","","false","","","","","[338.90000000596046,1523.8000000044703]","./assets/img/space/10.jpg","[""ArrowDown"",""ArrowLeft""]","full practice","space","15","{""ArrowUp,ArrowLeft"":3,""ArrowUp,ArrowRight"":36,""ArrowDown,ArrowLeft"":15,""ArrowDown,ArrowRight"":23}","false","ArrowDown,ArrowLeft","false","","","","","","","",""
"html-keyboard-response","48","390486","0.0-3.0-8.0-1.4","spark_pilot_2","7425","1","18","Male","","","","","","","null","<div style=""font-size:60px;"">+</div>","null","fixation","","","","","","","","","","","","","",""
"learning-instructions","49","410477","0.0-3.0-9.0-0.0","spark_pilot_2","7425","1","18","Male","","","","","","","9622.70000000298","<p> One last thing: sometimes, you will see a robber. The robber can be anywhere in the picture. </p>
            <p> If you do not stop them, you will lose treasure. </p>
            <img src='./assets/img/instructions/robber.jpg' class='instructions-image'>","","instructions","","","","","","","","","","","","","",""
"learning-instructions","50","421875","0.0-3.0-9.0-0.1","spark_pilot_2","7425","1","18","Male","","","","","","","4181.30000000447","<p> If you see the robber, you should <b>press the space bar</b> rather than using the arrow keys. </p>
            <p> Try practicing that now! </p>","","instructions","","","","","","","","","","","","","",""
"revaluation","51","425880","0.0-3.0-10.0-0.0","spark_pilot_2","7425","1","18","Male","","false","","","","","[728]","./assets/img/space/catch/0.jpg","[""ArrowUp""]","catch practice","space","-10","{""ArrowUp,ArrowLeft"":3,""ArrowUp,ArrowRight"":36,""ArrowDown,ArrowLeft"":15,""ArrowDown,ArrowRight"":23}","false","ArrowUp","true","","","","","","","",""
"html-keyboard-response","52","426384","0.0-3.0-10.0-1.0","spark_pilot_2","7425","1","18","Male","","","","","","","null","<div style=""font-size:60px;"">+</div>","null","fixation","","","","","","","","","","","","","",""
"revaluation","53","430399","0.0-3.0-10.0-0.1","spark_pilot_2","7425","1","18","Male","","false","","","","","[1057.7000000029802]","./assets/img/space/catch/1.jpg","[""spaceBar""]","catch practice","space","0","{""ArrowUp,ArrowLeft"":3,""ArrowUp,ArrowRight"":36,""ArrowDown,ArrowLeft"":15,""ArrowDown,ArrowRight"":23}","true","spaceBar","true","","","","","","","",""
"html-keyboard-response","54","430901","0.0-3.0-10.0-1.1","spark_pilot_2","7425","1","18","Male","","","","","","","null","<div style=""font-size:60px;"">+</div>","null","fixation","","","","","","","","","","","","","",""
"revaluation","55","434909","0.0-3.0-10.0-0.2","spark_pilot_2","7425","1","18","Male","","false","","","","","[795.6000000014901]","./assets/img/space/catch/2.jpg","[""spaceBar""]","catch practice","space","0","{""ArrowUp,ArrowLeft"":3,""ArrowUp,ArrowRight"":36,""ArrowDown,ArrowLeft"":15,""ArrowDown,ArrowRight"":23}","true","spaceBar","true","","","","","","","",""
"html-keyboard-response","56","435417","0.0-3.0-10.0-1.2","spark_pilot_2","7425","1","18","Male","","","","","","","null","<div style=""font-size:60px;"">+</div>","null","fixation","","","","","","","","","","","","","",""
"learning-instructions","57","452279","0.0-3.0-11.0-0.0","spark_pilot_2","7425","1","18","Male","","","","","","","3184.7000000029802","<p> After you explore a place to find treasure, it will be time to play a different game. </p>
            <p> During this game, red dots will appear on the screen and fall down slowly. </p>
            <p><b> You must click on them before they reach the bottom. </b></p>
            <img src='./assets/img/instructions/dotGame.jpg' class='instructions-image'>","","instructions","","","","","","","","","","","","","",""
"learning-instructions","58","465303","0.0-3.0-11.0-0.1","spark_pilot_2","7425","1","18","Male","","","","","","","7320.20000000298","<p> For every dot you click, you will earn additional treasure. </p>
            <p> Let’s try practicing that now. </p>","","instructions","","","","","","","","","","","","","",""
"revaluation","59","480317","0.0-3.0-12.0-0.0","spark_pilot_2","7425","1","18","Male","","","","","","","[64]","","","rest practice","","10","","","","","0","15000","","","","","",""
"learning-instructions","60","490672","0.0-3.0-13.0-0.0-0.0","spark_pilot_2","7425","1","18","Male","","","","","","","5047.5999999940395","<p> Now, you will practice a shortened version of the game to get a sense of how it all fits together. </p>","","instructions","","","","","","","","","","","","","",""
"learning-instructions","61","497740","0.0-3.0-13.0-0.0-0.1","spark_pilot_2","7425","1","18","Male","","","","","","","3857","<p>This time you are searching for treasure in outer space.</p>","","instructions","","","","","","","","","","","","","",""
"learning-instructions","62","517511","0.0-3.0-13.0-1.0-0.0","spark_pilot_2","7425","1","18","Male","","","","","","[{""event"":""fullscreenenter"",""trial"":2,""time"":21719},{""event"":""fullscreenexit"",""trial"":3,""time"":23965},{""event"":""blur"",""trial"":63,""time"":520666},{""event"":""focus"",""trial"":63,""time"":522285},{""event"":""blur"",""trial"":115,""time"":822917},{""event"":""focus"",""trial"":115,""time"":829649},{""event"":""blur"",""trial"":126,""time"":937342},{""event"":""focus"",""trial"":126,""time"":939057},{""event"":""blur"",""trial"":128,""time"":946832},{""event"":""focus"",""trial"":129,""time"":947822},{""event"":""blur"",""trial"":150,""time"":1014070},{""event"":""focus"",""trial"":150,""time"":1014618},{""event"":""blur"",""trial"":225,""time"":1256330},{""event"":""focus"",""trial"":225,""time"":1258763}]","4937.30000000447","<p> Remember, when you see a picture of the place, use the up and down keys to <b>find an animal</b>.</p>
            <p> When you encounter an animal, you should use the left and right keys to <b>select a treasure chest</b>.</p>
            <p> Don't forget to look out for the robber! </p>","","instructions","","","","","","","","","","","","","",""
"revaluation","63","523518","0.0-3.0-13.0-2.0-0.0","spark_pilot_2","7425","1","18","Male","","true","","","","","[1122.3999999985099]","./assets/img/space/11.jpg","[""ArrowUp""]","practice block","space","-5","{""ArrowUp,ArrowLeft"":3,""ArrowUp,ArrowRight"":36,""ArrowDown,ArrowLeft"":15,""ArrowDown,ArrowRight"":23}","false","ArrowUp","false","","","","","","","",""
"html-keyboard-response","64","524020","0.0-3.0-13.0-2.0-1.0","spark_pilot_2","7425","1","18","Male","","","","","","","null","<div style=""font-size:60px;"">+</div>","null","fixation","","","","","","","","","","","","","",""
"revaluation","65","530031","0.0-3.0-13.0-2.0-0.1","spark_pilot_2","7425","1","18","Male","","false","","","","","[621.2000000029802,1194.8999999985099]","./assets/img/space/12.jpg","[""ArrowUp"",""ArrowRight""]","practice block","space","36","{""ArrowUp,ArrowLeft"":3,""ArrowUp,ArrowRight"":36,""ArrowDown,ArrowLeft"":15,""ArrowDown,ArrowRight"":23}","true","ArrowUp,ArrowRight","false","","","","","","","",""
"html-keyboard-response","66","530534","0.0-3.0-13.0-2.0-1.1","spark_pilot_2","7425","1","18","Male","","","","","","","null","<div style=""font-size:60px;"">+</div>","null","fixation","","","","","","","","","","","","","",""
"revaluation","67","536546","0.0-3.0-13.0-2.0-0.2","spark_pilot_2","7425","1","18","Male","","false","","","","","[666.6000000014901,620]","./assets/img/space/13.jpg","[""ArrowUp"",""ArrowRight""]","practice block","space","36","{""ArrowUp,ArrowLeft"":3,""ArrowUp,ArrowRight"":36,""ArrowDown,ArrowLeft"":15,""ArrowDown,ArrowRight"":23}","true","ArrowUp,ArrowRight","false","","","","","","","",""
"html-keyboard-response","68","537048","0.0-3.0-13.0-2.0-1.2","spark_pilot_2","7425","1","18","Male","","","","","","","null","<div style=""font-size:60px;"">+</div>","null","fixation","","","","","","","","","","","","","",""
"revaluation","69","543058","0.0-3.0-13.0-2.0-0.3","spark_pilot_2","7425","1","18","Male","","false","","","","","[479.70000000298023,78.5]","./assets/img/space/14.jpg","[""ArrowUp"",""ArrowRight""]","practice block","space","36","{""ArrowUp,ArrowLeft"":3,""ArrowUp,ArrowRight"":36,""ArrowDown,ArrowLeft"":15,""ArrowDown,ArrowRight"":23}","true","ArrowUp,ArrowRight","false","","","","","","","",""
"html-keyboard-response","70","543561","0.0-3.0-13.0-2.0-1.3","spark_pilot_2","7425","1","18","Male","","","","","","","null","<div style=""font-size:60px;"">+</div>","null","fixation","","","","","","","","","","","","","",""
"revaluation","71","549572","0.0-3.0-13.0-2.0-0.4","spark_pilot_2","7425","1","18","Male","","false","","","","","[407.90000000596046,319.59999999403954]","./assets/img/space/11.jpg","[""ArrowUp"",""ArrowRight""]","practice block","space","36","{""ArrowUp,ArrowLeft"":3,""ArrowUp,ArrowRight"":36,""ArrowDown,ArrowLeft"":15,""ArrowDown,ArrowRight"":23}","true","ArrowUp,ArrowRight","false","","","","","","","",""
"html-keyboard-response","72","550076","0.0-3.0-13.0-2.0-1.4","spark_pilot_2","7425","1","18","Male","","","","","","","null","<div style=""font-size:60px;"">+</div>","null","fixation","","","","","","","","","","","","","",""
"revaluation","73","556084","0.0-3.0-13.0-2.0-0.5","spark_pilot_2","7425","1","18","Male","","false","","","","","[958.7000000029802,447.5]","./assets/img/space/12.jpg","[""ArrowUp"",""ArrowLeft""]","practice block","space","3","{""ArrowUp,ArrowLeft"":3,""ArrowUp,ArrowRight"":36,""ArrowDown,ArrowLeft"":15,""ArrowDown,ArrowRight"":23}","false","ArrowUp,ArrowLeft","false","","","","","","","",""
"html-keyboard-response","74","556586","0.0-3.0-13.0-2.0-1.5","spark_pilot_2","7425","1","18","Male","","","","","","","null","<div style=""font-size:60px;"">+</div>","null","fixation","","","","","","","","","","","","","",""
"revaluation","75","562605","0.0-3.0-13.0-2.0-0.6","spark_pilot_2","7425","1","18","Male","","true","","","","","[37.899999998509884]","./assets/img/space/13.jpg","[""ArrowDown""]","practice block","space","-5","{""ArrowUp,ArrowLeft"":3,""ArrowUp,ArrowRight"":36,""ArrowDown,ArrowLeft"":15,""ArrowDown,ArrowRight"":23}","false","ArrowDown","false","","","","","","","",""
"html-keyboard-response","76","563108","0.0-3.0-13.0-2.0-1.6","spark_pilot_2","7425","1","18","Male","","","","","","","null","<div style=""font-size:60px;"">+</div>","null","fixation","","","","","","","","","","","","","",""
"revaluation","77","569127","0.0-3.0-13.0-2.0-0.7","spark_pilot_2","7425","1","18","Male","","false","","","","","[118.10000000149012,60]","./assets/img/space/14.jpg","[""ArrowUp"",""ArrowLeft""]","practice block","space","3","{""ArrowUp,ArrowLeft"":3,""ArrowUp,ArrowRight"":36,""ArrowDown,ArrowLeft"":15,""ArrowDown,ArrowRight"":23}","false","ArrowUp,ArrowLeft","false","","","","","","","",""
"html-keyboard-response","78","569631","0.0-3.0-13.0-2.0-1.7","spark_pilot_2","7425","1","18","Male","","","","","","","null","<div style=""font-size:60px;"">+</div>","null","fixation","","","","","","","","","","","","","",""
"revaluation","79","573647","0.0-3.0-13.0-2.0-0.8","spark_pilot_2","7425","1","18","Male","","false","","","","","[211.79999999701977]","./assets/img/space/catch/3.jpg","[""ArrowUp""]","practice block","space","-10","{""ArrowUp,ArrowLeft"":3,""ArrowUp,ArrowRight"":36,""ArrowDown,ArrowLeft"":15,""ArrowDown,ArrowRight"":23}","false","ArrowUp","true","","","","","","","",""
"html-keyboard-response","80","574157","0.0-3.0-13.0-2.0-1.8","spark_pilot_2","7425","1","18","Male","","","","","","","null","<div style=""font-size:60px;"">+</div>","null","fixation","","","","","","","","","","","","","",""
"learning-instructions","81","590323","0.0-3.0-13.0-3.0-0.0","spark_pilot_2","7425","1","18","Male","","","","","","","3033.2000000029802","<p> Now, you will travel with a friend who will choose whether you go up or down first. </p>
            <p> On these turns, you will just see the animal that they found. You will still get to choose which chest to search for treasure.</p>","","instructions","","","","","","","","","","","","","",""
"revaluation","82","594329","0.0-3.0-13.0-4.0-0.0","spark_pilot_2","7425","1","18","Male","","false","","","","","[1216.5]","./assets/img/space/animals/rabbit.jpg","[""ArrowRight""]","practice block","space","23","{""ArrowUp,ArrowLeft"":3,""ArrowUp,ArrowRight"":36,""ArrowDown,ArrowLeft"":15,""ArrowDown,ArrowRight"":23}","true","ArrowDown,ArrowRight","","","","","","","","",""
"html-keyboard-response","83","594832","0.0-3.0-13.0-4.0-1.0","spark_pilot_2","7425","1","18","Male","","","","","","","null","<div style=""font-size:60px;"">+</div>","null","fixation","","","","","","","","","","","","","",""
"revaluation","84","598840","0.0-3.0-13.0-4.0-0.1","spark_pilot_2","7425","1","18","Male","","false","","","","","[232.5]","./assets/img/space/animals/rabbit.jpg","[""ArrowRight""]","practice block","space","23","{""ArrowUp,ArrowLeft"":3,""ArrowUp,ArrowRight"":36,""ArrowDown,ArrowLeft"":15,""ArrowDown,ArrowRight"":23}","true","ArrowDown,ArrowRight","","","","","","","","",""
"html-keyboard-response","85","599342","0.0-3.0-13.0-4.0-1.1","spark_pilot_2","7425","1","18","Male","","","","","","","null","<div style=""font-size:60px;"">+</div>","null","fixation","","","","","","","","","","","","","",""
"revaluation","86","603366","0.0-3.0-13.0-4.0-0.2","spark_pilot_2","7425","1","18","Male","","false","","","","","[307.1000000014901]","./assets/img/space/animals/cat.jpg","[""ArrowRight""]","practice block","space","36","{""ArrowUp,ArrowLeft"":3,""ArrowUp,ArrowRight"":36,""ArrowDown,ArrowLeft"":15,""ArrowDown,ArrowRight"":23}","true","ArrowUp,ArrowRight","","","","","","","","",""
"html-keyboard-response","87","603869","0.0-3.0-13.0-4.0-1.2","spark_pilot_2","7425","1","18","Male","","","","","","","null","<div style=""font-size:60px;"">+</div>","null","fixation","","","","","","","","","","","","","",""
"revaluation","88","607878","0.0-3.0-13.0-4.0-0.3","spark_pilot_2","7425","1","18","Male","","false","","","","","[1066.6000000014901]","./assets/img/space/animals/cat.jpg","[""ArrowLeft""]","practice block","space","3","{""ArrowUp,ArrowLeft"":3,""ArrowUp,ArrowRight"":36,""ArrowDown,ArrowLeft"":15,""ArrowDown,ArrowRight"":23}","false","ArrowUp,ArrowLeft","","","","","","","","",""
"html-keyboard-response","89","608382","0.0-3.0-13.0-4.0-1.3","spark_pilot_2","7425","1","18","Male","","","","","","","null","<div style=""font-size:60px;"">+</div>","null","fixation","","","","","","","","","","","","","",""
"learning-instructions","90","620833","0.0-3.0-13.0-5.0-0.0","spark_pilot_2","7425","1","18","Male","","","","","","","5043","<p> Time to play the dot game! </p>
            <p> For 15 seconds, click the red dots on the following screen as they appear. </p>","","instructions","","","","","","","","","","","","","",""
"revaluation","91","635837","0.0-3.0-13.0-6.0-0.0","spark_pilot_2","7425","1","18","Male","","","","","","","[71]","","","rest practice","","10","","","","","0","15000","","","","","",""
"learning-instructions","92","644580","0.0-3.0-13.0-7.0-0.0","spark_pilot_2","7425","1","18","Male","","","","","","","2531.2000000029802","<p> You have almost finished this part of the game! </p>
            <p> We are going to ask you to make a few more choices. </p>","","instructions","","","","","","","","","","","","","",""
"learning-instructions","93","662908","0.0-3.0-13.0-7.0-0.1","spark_pilot_2","7425","1","18","Male","","","","","","","4259.19999999553","<p> First, you need to decide whether to go up or down. When you see each picture, use the arrow keys to make your choice. </p>
            <p><b>You will not see which animal you found, but try to get to the one that will give you the most treasure.</b></p>","","instructions","","","","","","","","","","","","","",""
"revaluation","94","664629","0.0-3.0-13.0-8.0","spark_pilot_2","7425","1","18","Male","","false","","","","","[1716.5]","./assets/img/space/15.jpg","[""ArrowDown""]","practice block","space","0","{""ArrowUp,ArrowLeft"":3,""ArrowUp,ArrowRight"":36,""ArrowDown,ArrowLeft"":15,""ArrowDown,ArrowRight"":23}","false","ArrowDown","false","","","","","","","",""
"html-keyboard-response","95","665132","0.0-3.0-13.0-9.0","spark_pilot_2","7425","1","18","Male","","","","","","","null","<div style=""font-size:60px;"">+</div>","null","fixation","","","","","","","","","","","","","",""
"learning-instructions","96","680232","0.0-3.0-13.0-10.0-0.0","spark_pilot_2","7425","1","18","Male","","","","","","","3643.1999999955297","<p> Now you will see the animals again and can search their chests for treasure. </p>
            <p> This time, you will not see how much treasure you earned, but you will earn more bonus money for making better choices. </p>","","instructions","","","","","","","","","","","","","",""
"revaluation","97","681261","0.0-3.0-13.0-11.0-0.0","spark_pilot_2","7425","1","18","Male","","false","","","","","[1024.5]","./assets/img/space/animals/cat.jpg","[""ArrowRight""]","practice block","space","0","{""ArrowUp,ArrowLeft"":3,""ArrowUp,ArrowRight"":36,""ArrowDown,ArrowLeft"":15,""ArrowDown,ArrowRight"":23}","true","ArrowUp,ArrowRight","","","","","","","","",""
"html-keyboard-response","98","681764","0.0-3.0-13.0-11.0-1.0","spark_pilot_2","7425","1","18","Male","","","","","","","null","<div style=""font-size:60px;"">+</div>","null","fixation","","","","","","","","","","","","","",""
"revaluation","99","682475","0.0-3.0-13.0-11.0-0.1","spark_pilot_2","7425","1","18","Male","","false","","","","","[702.8999999985099]","./assets/img/space/animals/rabbit.jpg","[""ArrowRight""]","practice block","space","0","{""ArrowUp,ArrowLeft"":3,""ArrowUp,ArrowRight"":36,""ArrowDown,ArrowLeft"":15,""ArrowDown,ArrowRight"":23}","true","ArrowDown,ArrowRight","","","","","","","","",""
"html-keyboard-response","100","682979","0.0-3.0-13.0-11.0-1.1","spark_pilot_2","7425","1","18","Male","","","","","","","null","<div style=""font-size:60px;"">+</div>","null","fixation","","","","","","","","","","","","","",""
"learning-instructions","101","697142","0.0-3.0-14.0-0.0","spark_pilot_2","7425","1","18","Male","","","","","","","9553.19999999553","<p> Before you start, we're going to ask you a few questions about how the game works. </p>","","instructions","","","","","","","","","","","","","",""
"comp-q","102","703733","0.0-3.0-15.0-0.0-0.0","spark_pilot_2","7425","1","18","Male","","","","","","","959.2000000029802","<p> <b> True or False? </b> </p>
            <p> There can be 50 pieces of treasure in a given animal's chest. </p>","0","comp_question","","","","false","","","","","","","","","",""
"comp-q","103","711792","0.0-3.0-15.0-0.0-1.0","spark_pilot_2","7425","1","18","Male","","","","","","","1490.2999999970198","<p> <b>Incorrect.</b> The amount of treasure in each chest can range from 0 to 40 pieces. </p>","0","comp_answer","","","","","","","","","","","","","",""
"comp-q","104","718048","0.0-3.0-15.0-0.1-0.1","spark_pilot_2","7425","1","18","Male","","","","","","","688.6000000014901","<p> <b> True or False? </b> </p>
            <p> There can be 50 pieces of treasure in a given animal's chest. </p>","1","comp_question","","","","true","","","","","","","","","",""
"comp-q","105","727665","0.0-3.0-15.0-0.1-1.1","spark_pilot_2","7425","1","18","Male","","","","","","","2912.5","<p> <b> That's right! </b> The amount of treasure in each chest can range from 0 to 40 pieces. </p>","0","comp_answer","","","","","","","","","","","","","",""
"comp-q","106","736951","0.0-3.0-15.0-0.2-0.2","spark_pilot_2","7425","1","18","Male","","","","","","","2130.2000000029802","<p> <b> True or False? </b> </p><p> In this game, all animals have the same amount of treasure in their left and right chests. </p>","1","comp_question","","","","true","","","","","","","","","",""
"comp-q","107","748049","0.0-3.0-15.0-0.2-1.2","spark_pilot_2","7425","1","18","Male","","","","","","","5839.29999999702","<p> <b> That's right! </b> Animals have different amounts of treasure in their treasure chests. </p>","0","comp_answer","","","","","","","","","","","","","",""
"comp-q","108","754773","0.0-3.0-15.0-0.3-0.3","spark_pilot_2","7425","1","18","Male","","","","","","","842.8999999985099","<p> <b> True or False? </b> </p><p> The same animal will always be there if you go up in the same place. </p>","1","comp_question","","","","false","","","","","","","","","",""
"comp-q","109","762578","0.0-3.0-15.0-0.3-1.3","spark_pilot_2","7425","1","18","Male","","","","","","","1467.8999999985099","<p> <b>Incorrect.</b> One animal lives in the upper part and one lives in the lower part of every place. </p>","0","comp_answer","","","","","","","","","","","","","",""
"comp-q","110","769584","0.0-3.0-15.0-0.4-0.4","spark_pilot_2","7425","1","18","Male","","","","","","","1174.2000000029802","<p> <b> True or False? </b> </p><p> The same animal will always be there if you go up in the same place. </p>","0","comp_question","","","","true","","","","","","","","","",""
"comp-q","111","779361","0.0-3.0-15.0-0.4-1.4","spark_pilot_2","7425","1","18","Male","","","","","","","3301.2999999970198","<p> <b> That's right! </b> One animal lives in the upper part and one lives in the lower part of every place. </p>","0","comp_answer","","","","","","","","","","","","","",""
"comp-q","112","789129","0.0-3.0-15.0-0.5-0.5","spark_pilot_2","7425","1","18","Male","","","","","","","4218.10000000149","<p> <b> True or False? </b> </p><p> If you see a different picture, it means you are in a new place. </p>","0","comp_question","","","","false","","","","","","","","","",""
"comp-q","113","801335","0.0-3.0-15.0-0.5-1.5","spark_pilot_2","7425","1","18","Male","","","","","","","1065.2999999970198","<p> <b>Incorrect.</b> Lots of different images may show the same place. For example,  you may see three different images that all remind you that you are in outer space. </p>","0","comp_answer","","","","","","","","","","","","","",""
"comp-q","114","808839","0.0-3.0-15.0-0.6-0.6","spark_pilot_2","7425","1","18","Male","","","","","","[{""event"":""fullscreenenter"",""trial"":2,""time"":21719},{""event"":""fullscreenexit"",""trial"":3,""time"":23965},{""event"":""blur"",""trial"":63,""time"":520666},{""event"":""focus"",""trial"":63,""time"":522285},{""event"":""blur"",""trial"":115,""time"":822917},{""event"":""focus"",""trial"":115,""time"":829649},{""event"":""blur"",""trial"":126,""time"":937342},{""event"":""focus"",""trial"":126,""time"":939057},{""event"":""blur"",""trial"":128,""time"":946832},{""event"":""focus"",""trial"":129,""time"":947822},{""event"":""blur"",""trial"":150,""time"":1014070},{""event"":""focus"",""trial"":150,""time"":1014618},{""event"":""blur"",""trial"":225,""time"":1256330},{""event"":""focus"",""trial"":225,""time"":1258763}]","2009.5","<p> <b> True or False? </b> </p><p> If you see a different picture, it means you are in a new place. </p>","0","comp_question","","","","false","","","","","","","","","",""
"comp-q","115","830623","0.0-3.0-15.0-0.6-1.6","spark_pilot_2","7425","1","18","Male","","","","","","","10723.10000000149","<p> <b>Incorrect.</b> Lots of different images may show the same place. For example,  you may see three different images that all remind you that you are in outer space. </p>","0","comp_answer","","","","","","","","","","","","","",""
"comp-q","116","836831","0.0-3.0-15.0-0.7-0.7","spark_pilot_2","7425","1","18","Male","","","","","","","701","<p> <b> True or False? </b> </p><p> If you see a different picture, it means you are in a new place. </p>","0","comp_question","","","","false","","","","","","","","","",""
"comp-q","117","849043","0.0-3.0-15.0-0.7-1.7","spark_pilot_2","7425","1","18","Male","","","","","","","1143.5","<p> <b>Incorrect.</b> Lots of different images may show the same place. For example,  you may see three different images that all remind you that you are in outer space. </p>","0","comp_answer","","","","","","","","","","","","","",""
"comp-q","118","855720","0.0-3.0-15.0-0.8-0.8","spark_pilot_2","7425","1","18","Male","","","","","","","1180.6999999955297","<p> <b> True or False? </b> </p><p> If you see a different picture, it means you are in a new place. </p>","1","comp_question","","","","true","","","","","","","","","",""
"comp-q","119","868481","0.0-3.0-15.0-0.8-1.8","spark_pilot_2","7425","1","18","Male","","","","","","","1468.7000000029802","<p> <b> That's right! </b> Lots of different images may show the same place. For example,  you may see three different images that all remind you that you are in outer space. </p>","0","comp_answer","","","","","","","","","","","","","",""
"learning-instructions","120","880996","0.0-3.0-16.0-0.0","spark_pilot_2","7425","1","18","Male","","","","","","","2604.0999999940395","<p> Good job. Remember to do your best because the amount of treasure you earn will be converted into bonus money. </p>
            <p> It’s time to start the real game! </p>","","instructions","","","","","","","","","","","","","",""
"learning-instructions","121","887409","0.0-4.0-0.0-0.0","spark_pilot_2","7425","1","18","Male","","","","","","","3677.89999999851","<p> This time you are searching for treasure in the <b>ocean</b>.</p>","","instructions","","","","","","","","","","","","","",""
"learning-instructions","122","912953","0.0-4.0-0.0-0.1","spark_pilot_2","7425","1","18","Male","","","","","","","8163.30000000447","<p><b>New</b> animals with <b>new</b> treasure chests live here. You need to explore to discover where the animal with the best treasure chest is.</p>
                    <p> Like before, once you figure out which animal has the chest with the most treasure, you should try to get to that animal and select that chest! </p>","","instructions","","","","","","","","","","","","","",""
"learning-instructions","123","930695","0.0-4.0-1.0-0.0","spark_pilot_2","7425","1","18","Male","","","","","","","3005.3000000044703","<p> Remember, when you see a picture of the place, use the up and down keys to <b>find an animal</b>.</p>
            <p> When you encounter an animal, you should use the left and right keys to <b>select a treasure chest</b>.</p>
            <p> Don't forget to look out for the robber! </p>","","instructions","","","","","","","","","","","","","",""
"revaluation","124","934706","0.0-4.0-2.0-0.0","spark_pilot_2","7425","1","18","Male","","true","","","","","[]","./assets/img/ocean/memory/26.jpg","[]","value training","ocean","-5","{""ArrowUp,ArrowLeft"":26,""ArrowUp,ArrowRight"":10,""ArrowDown,ArrowLeft"":5,""ArrowDown,ArrowRight"":17}","false","","false","","","original","1","0","","",""
"html-keyboard-response","125","935214","0.0-4.0-2.0-1.0","spark_pilot_2","7425","1","18","Male","","","","","","[{""event"":""fullscreenenter"",""trial"":2,""time"":21719},{""event"":""fullscreenexit"",""trial"":3,""time"":23965},{""event"":""blur"",""trial"":63,""time"":520666},{""event"":""focus"",""trial"":63,""time"":522285},{""event"":""blur"",""trial"":115,""time"":822917},{""event"":""focus"",""trial"":115,""time"":829649},{""event"":""blur"",""trial"":126,""time"":937342},{""event"":""focus"",""trial"":126,""time"":939057},{""event"":""blur"",""trial"":128,""time"":946832},{""event"":""focus"",""trial"":129,""time"":947822},{""event"":""blur"",""trial"":150,""time"":1014070},{""event"":""focus"",""trial"":150,""time"":1014618},{""event"":""blur"",""trial"":225,""time"":1256330},{""event"":""focus"",""trial"":225,""time"":1258763}]","null","<div style=""font-size:60px;"">+</div>","null","fixation","","","","","","","","","","","1","","",""
"revaluation","126","941225","0.0-4.0-2.0-0.1","spark_pilot_2","7425","1","18","Male","","true","","","","","[978.1000000014901]","./assets/img/ocean/memory/37.jpg","[""ArrowUp""]","value training","ocean","-5","{""ArrowUp,ArrowLeft"":26,""ArrowUp,ArrowRight"":10,""ArrowDown,ArrowLeft"":5,""ArrowDown,ArrowRight"":17}","false","ArrowUp","false","","","original","1","2","","",""
"html-keyboard-response","127","941728","0.0-4.0-2.0-1.1","spark_pilot_2","7425","1","18","Male","","","","","","[{""event"":""fullscreenenter"",""trial"":2,""time"":21719},{""event"":""fullscreenexit"",""trial"":3,""time"":23965},{""event"":""blur"",""trial"":63,""time"":520666},{""event"":""focus"",""trial"":63,""time"":522285},{""event"":""blur"",""trial"":115,""time"":822917},{""event"":""focus"",""trial"":115,""time"":829649},{""event"":""blur"",""trial"":126,""time"":937342},{""event"":""focus"",""trial"":126,""time"":939057},{""event"":""blur"",""trial"":128,""time"":946832},{""event"":""focus"",""trial"":129,""time"":947822},{""event"":""blur"",""trial"":150,""time"":1014070},{""event"":""focus"",""trial"":150,""time"":1014618},{""event"":""blur"",""trial"":225,""time"":1256330},{""event"":""focus"",""trial"":225,""time"":1258763}]","null","<div style=""font-size:60px;"">+</div>","null","fixation","","","","","","","","","","","3","","",""
"revaluation","128","947736","0.0-4.0-2.0-0.2","spark_pilot_2","7425","1","18","Male","","false","","","","[{""event"":""fullscreenenter"",""trial"":2,""time"":21719},{""event"":""fullscreenexit"",""trial"":3,""time"":23965},{""event"":""blur"",""trial"":63,""time"":520666},{""event"":""focus"",""trial"":63,""time"":522285},{""event"":""blur"",""trial"":115,""time"":822917},{""event"":""focus"",""trial"":115,""time"":829649},{""event"":""blur"",""trial"":126,""time"":937342},{""event"":""focus"",""trial"":126,""time"":939057},{""event"":""blur"",""trial"":128,""time"":946832},{""event"":""focus"",""trial"":129,""time"":947822},{""event"":""blur"",""trial"":150,""time"":1014070},{""event"":""focus"",""trial"":150,""time"":1014618},{""event"":""blur"",""trial"":225,""time"":1256330},{""event"":""focus"",""trial"":225,""time"":1258763}]","[256.69999999552965,295.69999999552965]","./assets/img/ocean/memory/21.jpg","[""ArrowUp"",""ArrowLeft""]","value training","ocean","26","{""ArrowUp,ArrowLeft"":26,""ArrowUp,ArrowRight"":10,""ArrowDown,ArrowLeft"":5,""ArrowDown,ArrowRight"":17}","true","ArrowUp,ArrowLeft","false","","","original","1","4","","",""
"html-keyboard-response","129","948239","0.0-4.0-2.0-1.2","spark_pilot_2","7425","1","18","Male","","","","","","","null","<div style=""font-size:60px;"">+</div>","null","fixation","","","","","","","","","","","5","","",""
"revaluation","130","954249","0.0-4.0-2.0-0.3","spark_pilot_2","7425","1","18","Male","","false","","","","","[304.5,1090.3999999985099]","./assets/img/ocean/memory/30.jpg","[""ArrowUp"",""ArrowRight""]","value training","ocean","10","{""ArrowUp,ArrowLeft"":26,""ArrowUp,ArrowRight"":10,""ArrowDown,ArrowLeft"":5,""ArrowDown,ArrowRight"":17}","false","ArrowUp,ArrowRight","false","","","original","1","6","","",""
"html-keyboard-response","131","954754","0.0-4.0-2.0-1.3","spark_pilot_2","7425","1","18","Male","","","","","","","null","<div style=""font-size:60px;"">+</div>","null","fixation","","","","","","","","","","","7","","",""
"revaluation","132","960770","0.0-4.0-2.0-0.4","spark_pilot_2","7425","1","18","Male","","false","","","","","[623.6000000014901,326.29999999701977]","./assets/img/ocean/memory/22.jpg","[""ArrowDown"",""ArrowRight""]","value training","ocean","17","{""ArrowUp,ArrowLeft"":26,""ArrowUp,ArrowRight"":10,""ArrowDown,ArrowLeft"":5,""ArrowDown,ArrowRight"":17}","false","ArrowDown,ArrowRight","false","","","original","1","8","","",""
"html-keyboard-response","133","961273","0.0-4.0-2.0-1.4","spark_pilot_2","7425","1","18","Male","","","","","","","null","<div style=""font-size:60px;"">+</div>","null","fixation","","","","","","","","","","","9","","",""
"revaluation","134","967282","0.0-4.0-2.0-0.5","spark_pilot_2","7425","1","18","Male","","false","","","","","[536.3000000044703,815.1999999955297]","./assets/img/ocean/memory/33.jpg","[""ArrowDown"",""ArrowRight""]","value training","ocean","17","{""ArrowUp,ArrowLeft"":26,""ArrowUp,ArrowRight"":10,""ArrowDown,ArrowLeft"":5,""ArrowDown,ArrowRight"":17}","false","ArrowDown,ArrowRight","false","","","original","1","10","","",""
"html-keyboard-response","135","967786","0.0-4.0-2.0-1.5","spark_pilot_2","7425","1","18","Male","","","","","","","null","<div style=""font-size:60px;"">+</div>","null","fixation","","","","","","","","","","","11","","",""
"revaluation","136","973802","0.0-4.0-2.0-0.6","spark_pilot_2","7425","1","18","Male","","false","","","","","[515.2999999970198,1888.8999999985099]","./assets/img/ocean/memory/6.jpg","[""ArrowUp"",""ArrowLeft""]","value training","ocean","26","{""ArrowUp,ArrowLeft"":26,""ArrowUp,ArrowRight"":10,""ArrowDown,ArrowLeft"":5,""ArrowDown,ArrowRight"":17}","true","ArrowUp,ArrowLeft","false","","","original","1","12","","",""
"html-keyboard-response","137","974306","0.0-4.0-2.0-1.6","spark_pilot_2","7425","1","18","Male","","","","","","","null","<div style=""font-size:60px;"">+</div>","null","fixation","","","","","","","","","","","13","","",""
"revaluation","138","980325","0.0-4.0-2.0-0.7","spark_pilot_2","7425","1","18","Male","","false","","","","","[229.5,362.80000000447035]","./assets/img/ocean/memory/32.jpg","[""ArrowDown"",""ArrowLeft""]","value training","ocean","5","{""ArrowUp,ArrowLeft"":26,""ArrowUp,ArrowRight"":10,""ArrowDown,ArrowLeft"":5,""ArrowDown,ArrowRight"":17}","false","ArrowDown,ArrowLeft","false","","","original","1","14","","",""
"html-keyboard-response","139","980827","0.0-4.0-2.0-1.7","spark_pilot_2","7425","1","18","Male","","","","","","","null","<div style=""font-size:60px;"">+</div>","null","fixation","","","","","","","","","","","15","","",""
"revaluation","140","984836","0.0-4.0-2.0-0.8","spark_pilot_2","7425","1","18","Male","","false","","","","","[1095.5]","./assets/img/ocean/catch/4.jpg","[""ArrowDown""]","value training","ocean","-10","{""ArrowUp,ArrowLeft"":26,""ArrowUp,ArrowRight"":10,""ArrowDown,ArrowLeft"":5,""ArrowDown,ArrowRight"":17}","false","ArrowDown","true","","","original","1","16","","",""
"html-keyboard-response","141","985339","0.0-4.0-2.0-1.8","spark_pilot_2","7425","1","18","Male","","","","","","","null","<div style=""font-size:60px;"">+</div>","null","fixation","","","","","","","","","","","17","","",""
"revaluation","142","991349","0.0-4.0-2.0-0.9","spark_pilot_2","7425","1","18","Male","","false","","","","","[1895.5,1341.7000000029802]","./assets/img/ocean/memory/26.jpg","[""ArrowDown"",""ArrowRight""]","value training","ocean","17","{""ArrowUp,ArrowLeft"":26,""ArrowUp,ArrowRight"":10,""ArrowDown,ArrowLeft"":5,""ArrowDown,ArrowRight"":17}","false","ArrowDown,ArrowRight","false","","","original","1","18","","",""
"html-keyboard-response","143","991852","0.0-4.0-2.0-1.9","spark_pilot_2","7425","1","18","Male","","","","","","","null","<div style=""font-size:60px;"">+</div>","null","fixation","","","","","","","","","","","19","","",""
"revaluation","144","997861","0.0-4.0-2.0-0.10","spark_pilot_2","7425","1","18","Male","","false","","","","","[1012.6000000014901,486.19999999552965]","./assets/img/ocean/memory/1.jpg","[""ArrowUp"",""ArrowRight""]","value training","ocean","10","{""ArrowUp,ArrowLeft"":26,""ArrowUp,ArrowRight"":10,""ArrowDown,ArrowLeft"":5,""ArrowDown,ArrowRight"":17}","false","ArrowUp,ArrowRight","false","","","original","1","20","","",""
"html-keyboard-response","145","998364","0.0-4.0-2.0-1.10","spark_pilot_2","7425","1","18","Male","","","","","","","null","<div style=""font-size:60px;"">+</div>","null","fixation","","","","","","","","","","","21","","",""
"revaluation","146","1002372","0.0-4.0-2.0-0.11","spark_pilot_2","7425","1","18","Male","","false","","","","","[670.2000000029802]","./assets/img/ocean/catch/0.jpg","[""ArrowUp""]","value training","ocean","-10","{""ArrowUp,ArrowLeft"":26,""ArrowUp,ArrowRight"":10,""ArrowDown,ArrowLeft"":5,""ArrowDown,ArrowRight"":17}","false","ArrowUp","true","","","original","1","22","","",""
"html-keyboard-response","147","1002874","0.0-4.0-2.0-1.11","spark_pilot_2","7425","1","18","Male","","","","","","","null","<div style=""font-size:60px;"">+</div>","null","fixation","","","","","","","","","","","23","","",""
"revaluation","148","1008886","0.0-4.0-2.0-0.12","spark_pilot_2","7425","1","18","Male","","false","","","","","[348.20000000298023,637.6000000014901]","./assets/img/ocean/memory/27.jpg","[""ArrowUp"",""ArrowRight""]","value training","ocean","10","{""ArrowUp,ArrowLeft"":26,""ArrowUp,ArrowRight"":10,""ArrowDown,ArrowLeft"":5,""ArrowDown,ArrowRight"":17}","false","ArrowUp,ArrowRight","false","","","original","1","24","","",""
"html-keyboard-response","149","1009389","0.0-4.0-2.0-1.12","spark_pilot_2","7425","1","18","Male","","","","","","[{""event"":""fullscreenenter"",""trial"":2,""time"":21719},{""event"":""fullscreenexit"",""trial"":3,""time"":23965},{""event"":""blur"",""trial"":63,""time"":520666},{""event"":""focus"",""trial"":63,""time"":522285},{""event"":""blur"",""trial"":115,""time"":822917},{""event"":""focus"",""trial"":115,""time"":829649},{""event"":""blur"",""trial"":126,""time"":937342},{""event"":""focus"",""trial"":126,""time"":939057},{""event"":""blur"",""trial"":128,""time"":946832},{""event"":""focus"",""trial"":129,""time"":947822},{""event"":""blur"",""trial"":150,""time"":1014070},{""event"":""focus"",""trial"":150,""time"":1014618},{""event"":""blur"",""trial"":225,""time"":1256330},{""event"":""focus"",""trial"":225,""time"":1258763}]","null","<div style=""font-size:60px;"">+</div>","null","fixation","","","","","","","","","","","25","","",""
"revaluation","150","1015402","0.0-4.0-2.0-0.13","spark_pilot_2","7425","1","18","Male","","false","","","","","[1177,816.3999999985099]","./assets/img/ocean/memory/17.jpg","[""ArrowUp"",""ArrowLeft""]","value training","ocean","26","{""ArrowUp,ArrowLeft"":26,""ArrowUp,ArrowRight"":10,""ArrowDown,ArrowLeft"":5,""ArrowDown,ArrowRight"":17}","true","ArrowUp,ArrowLeft","false","","","original","1","26","","",""
"html-keyboard-response","151","1015905","0.0-4.0-2.0-1.13","spark_pilot_2","7425","1","18","Male","","","","","","","null","<div style=""font-size:60px;"">+</div>","null","fixation","","","","","","","","","","","27","","",""
"revaluation","152","1021921","0.0-4.0-2.0-0.14","spark_pilot_2","7425","1","18","Male","","false","","","","","[192.69999999552965,1110.5]","./assets/img/ocean/memory/21.jpg","[""ArrowUp"",""ArrowLeft""]","value training","ocean","26","{""ArrowUp,ArrowLeft"":26,""ArrowUp,ArrowRight"":10,""ArrowDown,ArrowLeft"":5,""ArrowDown,ArrowRight"":17}","true","ArrowUp,ArrowLeft","false","","","original","1","28","","",""
"html-keyboard-response","153","1022423","0.0-4.0-2.0-1.14","spark_pilot_2","7425","1","18","Male","","","","","","","null","<div style=""font-size:60px;"">+</div>","null","fixation","","","","","","","","","","","29","","",""
"revaluation","154","1028431","0.0-4.0-2.0-0.15","spark_pilot_2","7425","1","18","Male","","false","","","","","[1107.2000000029802,1098.8999999985099]","./assets/img/ocean/memory/34.jpg","[""ArrowUp"",""ArrowRight""]","value training","ocean","10","{""ArrowUp,ArrowLeft"":26,""ArrowUp,ArrowRight"":10,""ArrowDown,ArrowLeft"":5,""ArrowDown,ArrowRight"":17}","false","ArrowUp,ArrowRight","false","","","original","1","30","","",""
"html-keyboard-response","155","1028934","0.0-4.0-2.0-1.15","spark_pilot_2","7425","1","18","Male","","","","","","","null","<div style=""font-size:60px;"">+</div>","null","fixation","","","","","","","","","","","31","","",""
"revaluation","156","1032949","0.0-4.0-2.0-0.16","spark_pilot_2","7425","1","18","Male","","false","","","","","[573.6000000014901]","./assets/img/ocean/catch/5.jpg","[""ArrowUp""]","value training","ocean","-10","{""ArrowUp,ArrowLeft"":26,""ArrowUp,ArrowRight"":10,""ArrowDown,ArrowLeft"":5,""ArrowDown,ArrowRight"":17}","false","ArrowUp","true","","","original","1","32","","",""
"html-keyboard-response","157","1033454","0.0-4.0-2.0-1.16","spark_pilot_2","7425","1","18","Male","","","","","","","null","<div style=""font-size:60px;"">+</div>","null","fixation","","","","","","","","","","","33","","",""
"revaluation","158","1037473","0.0-4.0-2.0-0.17","spark_pilot_2","7425","1","18","Male","","false","","","","","[506.30000000447035]","./assets/img/ocean/catch/6.jpg","[""ArrowUp""]","value training","ocean","-10","{""ArrowUp,ArrowLeft"":26,""ArrowUp,ArrowRight"":10,""ArrowDown,ArrowLeft"":5,""ArrowDown,ArrowRight"":17}","false","ArrowUp","true","","","original","1","34","","",""
"html-keyboard-response","159","1037976","0.0-4.0-2.0-1.17","spark_pilot_2","7425","1","18","Male","","","","","","","null","<div style=""font-size:60px;"">+</div>","null","fixation","","","","","","","","","","","35","","",""
"revaluation","160","1043984","0.0-4.0-2.0-0.18","spark_pilot_2","7425","1","18","Male","","false","","","","","[792.5999999940395,1281.3999999985099]","./assets/img/ocean/memory/17.jpg","[""ArrowUp"",""ArrowLeft""]","value training","ocean","26","{""ArrowUp,ArrowLeft"":26,""ArrowUp,ArrowRight"":10,""ArrowDown,ArrowLeft"":5,""ArrowDown,ArrowRight"":17}","true","ArrowUp,ArrowLeft","false","","","original","1","36","","",""
"html-keyboard-response","161","1044487","0.0-4.0-2.0-1.18","spark_pilot_2","7425","1","18","Male","","","","","","","null","<div style=""font-size:60px;"">+</div>","null","fixation","","","","","","","","","","","37","","",""
"revaluation","162","1050497","0.0-4.0-2.0-0.19","spark_pilot_2","7425","1","18","Male","","false","","","","","[528,760.7999999970198]","./assets/img/ocean/memory/18.jpg","[""ArrowDown"",""ArrowRight""]","value training","ocean","17","{""ArrowUp,ArrowLeft"":26,""ArrowUp,ArrowRight"":10,""ArrowDown,ArrowLeft"":5,""ArrowDown,ArrowRight"":17}","false","ArrowDown,ArrowRight","false","","","original","1","38","","",""
"html-keyboard-response","163","1051001","0.0-4.0-2.0-1.19","spark_pilot_2","7425","1","18","Male","","","","","","","null","<div style=""font-size:60px;"">+</div>","null","fixation","","","","","","","","","","","39","","",""
"revaluation","164","1057018","0.0-4.0-2.0-0.20","spark_pilot_2","7425","1","18","Male","","false","","","","","[568.6000000014901,961.2000000029802]","./assets/img/ocean/memory/24.jpg","[""ArrowUp"",""ArrowRight""]","value training","ocean","10","{""ArrowUp,ArrowLeft"":26,""ArrowUp,ArrowRight"":10,""ArrowDown,ArrowLeft"":5,""ArrowDown,ArrowRight"":17}","false","ArrowUp,ArrowRight","false","","","original","1","40","","",""
"html-keyboard-response","165","1057521","0.0-4.0-2.0-1.20","spark_pilot_2","7425","1","18","Male","","","","","","","null","<div style=""font-size:60px;"">+</div>","null","fixation","","","","","","","","","","","41","","",""
"revaluation","166","1063531","0.0-4.0-2.0-0.21","spark_pilot_2","7425","1","18","Male","","false","","","","","[574.5,580.6999999955297]","./assets/img/ocean/memory/9.jpg","[""ArrowDown"",""ArrowLeft""]","value training","ocean","5","{""ArrowUp,ArrowLeft"":26,""ArrowUp,ArrowRight"":10,""ArrowDown,ArrowLeft"":5,""ArrowDown,ArrowRight"":17}","false","ArrowDown,ArrowLeft","false","","","original","1","42","","",""
"html-keyboard-response","167","1064034","0.0-4.0-2.0-1.21","spark_pilot_2","7425","1","18","Male","","","","","","","null","<div style=""font-size:60px;"">+</div>","null","fixation","","","","","","","","","","","43","","",""
"revaluation","168","1068043","0.0-4.0-2.0-0.22","spark_pilot_2","7425","1","18","Male","","false","","","","","[1373.5]","./assets/img/ocean/catch/7.jpg","[""ArrowDown""]","value training","ocean","-10","{""ArrowUp,ArrowLeft"":26,""ArrowUp,ArrowRight"":10,""ArrowDown,ArrowLeft"":5,""ArrowDown,ArrowRight"":17}","false","ArrowDown","true","","","original","1","44","","",""
"html-keyboard-response","169","1068545","0.0-4.0-2.0-1.22","spark_pilot_2","7425","1","18","Male","","","","","","","null","<div style=""font-size:60px;"">+</div>","null","fixation","","","","","","","","","","","45","","",""
"revaluation","170","1074555","0.0-4.0-2.0-0.23","spark_pilot_2","7425","1","18","Male","","false","","","","","[378.3999999985099,478.70000000298023]","./assets/img/ocean/memory/24.jpg","[""ArrowDown"",""ArrowLeft""]","value training","ocean","5","{""ArrowUp,ArrowLeft"":26,""ArrowUp,ArrowRight"":10,""ArrowDown,ArrowLeft"":5,""ArrowDown,ArrowRight"":17}","false","ArrowDown,ArrowLeft","false","","","original","1","46","","",""
"html-keyboard-response","171","1075058","0.0-4.0-2.0-1.23","spark_pilot_2","7425","1","18","Male","","","","","","","null","<div style=""font-size:60px;"">+</div>","null","fixation","","","","","","","","","","","47","","",""
"revaluation","172","1081081","0.0-4.0-2.0-0.24","spark_pilot_2","7425","1","18","Male","","false","","","","","[1496.8000000044703,1235.3999999985099]","./assets/img/ocean/memory/25.jpg","[""ArrowUp"",""ArrowRight""]","value training","ocean","10","{""ArrowUp,ArrowLeft"":26,""ArrowUp,ArrowRight"":10,""ArrowDown,ArrowLeft"":5,""ArrowDown,ArrowRight"":17}","false","ArrowUp,ArrowRight","false","","","original","1","48","","",""
"html-keyboard-response","173","1081587","0.0-4.0-2.0-1.24","spark_pilot_2","7425","1","18","Male","","","","","","","null","<div style=""font-size:60px;"">+</div>","null","fixation","","","","","","","","","","","49","","",""
"revaluation","174","1087601","0.0-4.0-2.0-0.25","spark_pilot_2","7425","1","18","Male","","true","","","","","[489.1000000014901]","./assets/img/ocean/memory/25.jpg","[""ArrowUp""]","value training","ocean","-5","{""ArrowUp,ArrowLeft"":26,""ArrowUp,ArrowRight"":10,""ArrowDown,ArrowLeft"":5,""ArrowDown,ArrowRight"":17}","false","ArrowUp","false","","","original","1","50","","",""
"html-keyboard-response","175","1088106","0.0-4.0-2.0-1.25","spark_pilot_2","7425","1","18","Male","","","","","","","null","<div style=""font-size:60px;"">+</div>","null","fixation","","","","","","","","","","","51","","",""
"revaluation","176","1094115","0.0-4.0-2.0-0.26","spark_pilot_2","7425","1","18","Male","","false","","","","","[402.1000000014901,589.8999999985099]","./assets/img/ocean/memory/0.jpg","[""ArrowUp"",""ArrowRight""]","value training","ocean","10","{""ArrowUp,ArrowLeft"":26,""ArrowUp,ArrowRight"":10,""ArrowDown,ArrowLeft"":5,""ArrowDown,ArrowRight"":17}","false","ArrowUp,ArrowRight","false","","","original","1","52","","",""
"html-keyboard-response","177","1094617","0.0-4.0-2.0-1.26","spark_pilot_2","7425","1","18","Male","","","","","","","null","<div style=""font-size:60px;"">+</div>","null","fixation","","","","","","","","","","","53","","",""
"revaluation","178","1100626","0.0-4.0-2.0-0.27","spark_pilot_2","7425","1","18","Male","","false","","","","","[433.09999999403954,919.6999999955297]","./assets/img/ocean/memory/22.jpg","[""ArrowDown"",""ArrowLeft""]","value training","ocean","5","{""ArrowUp,ArrowLeft"":26,""ArrowUp,ArrowRight"":10,""ArrowDown,ArrowLeft"":5,""ArrowDown,ArrowRight"":17}","false","ArrowDown,ArrowLeft","false","","","original","1","54","","",""
"html-keyboard-response","179","1101130","0.0-4.0-2.0-1.27","spark_pilot_2","7425","1","18","Male","","","","","","","null","<div style=""font-size:60px;"">+</div>","null","fixation","","","","","","","","","","","55","","",""
"revaluation","180","1107148","0.0-4.0-2.0-0.28","spark_pilot_2","7425","1","18","Male","","true","","","","","[648]","./assets/img/ocean/memory/13.jpg","[""ArrowDown""]","value training","ocean","-5","{""ArrowUp,ArrowLeft"":26,""ArrowUp,ArrowRight"":10,""ArrowDown,ArrowLeft"":5,""ArrowDown,ArrowRight"":17}","false","ArrowDown","false","","","original","1","56","","",""
"html-keyboard-response","181","1107653","0.0-4.0-2.0-1.28","spark_pilot_2","7425","1","18","Male","","","","","","","null","<div style=""font-size:60px;"">+</div>","null","fixation","","","","","","","","","","","57","","",""
"revaluation","182","1113663","0.0-4.0-2.0-0.29","spark_pilot_2","7425","1","18","Male","","false","","","","","[236.70000000298023,186]","./assets/img/ocean/memory/9.jpg","[""ArrowUp"",""ArrowLeft""]","value training","ocean","26","{""ArrowUp,ArrowLeft"":26,""ArrowUp,ArrowRight"":10,""ArrowDown,ArrowLeft"":5,""ArrowDown,ArrowRight"":17}","true","ArrowUp,ArrowLeft","false","","","original","1","58","","",""
"html-keyboard-response","183","1114167","0.0-4.0-2.0-1.29","spark_pilot_2","7425","1","18","Male","","","","","","","null","<div style=""font-size:60px;"">+</div>","null","fixation","","","","","","","","","","","59","","",""
"revaluation","184","1120178","0.0-4.0-2.0-0.30","spark_pilot_2","7425","1","18","Male","","false","","","","","[404.8999999985099,424.5]","./assets/img/ocean/memory/34.jpg","[""ArrowDown"",""ArrowLeft""]","value training","ocean","5","{""ArrowUp,ArrowLeft"":26,""ArrowUp,ArrowRight"":10,""ArrowDown,ArrowLeft"":5,""ArrowDown,ArrowRight"":17}","false","ArrowDown,ArrowLeft","false","","","original","1","60","","",""
"html-keyboard-response","185","1120682","0.0-4.0-2.0-1.30","spark_pilot_2","7425","1","18","Male","","","","","","","null","<div style=""font-size:60px;"">+</div>","null","fixation","","","","","","","","","","","61","","",""
"revaluation","186","1124691","0.0-4.0-2.0-0.31","spark_pilot_2","7425","1","18","Male","","false","","","","","[200.89999999850988]","./assets/img/ocean/catch/3.jpg","[""ArrowDown""]","value training","ocean","-10","{""ArrowUp,ArrowLeft"":26,""ArrowUp,ArrowRight"":10,""ArrowDown,ArrowLeft"":5,""ArrowDown,ArrowRight"":17}","false","ArrowDown","true","","","original","1","62","","",""
"html-keyboard-response","187","1125193","0.0-4.0-2.0-1.31","spark_pilot_2","7425","1","18","Male","","","","","","","null","<div style=""font-size:60px;"">+</div>","null","fixation","","","","","","","","","","","63","","",""
"revaluation","188","1131208","0.0-4.0-2.0-0.32","spark_pilot_2","7425","1","18","Male","","false","","","","","[794.5,513.2999999970198]","./assets/img/ocean/memory/8.jpg","[""ArrowDown"",""ArrowLeft""]","value training","ocean","5","{""ArrowUp,ArrowLeft"":26,""ArrowUp,ArrowRight"":10,""ArrowDown,ArrowLeft"":5,""ArrowDown,ArrowRight"":17}","false","ArrowDown,ArrowLeft","false","","","original","1","64","","",""
"html-keyboard-response","189","1131711","0.0-4.0-2.0-1.32","spark_pilot_2","7425","1","18","Male","","","","","","","null","<div style=""font-size:60px;"">+</div>","null","fixation","","","","","","","","","","","65","","",""
"revaluation","190","1137720","0.0-4.0-2.0-0.33","spark_pilot_2","7425","1","18","Male","","false","","","","","[778,336.80000000447035]","./assets/img/ocean/memory/33.jpg","[""ArrowDown"",""ArrowRight""]","value training","ocean","17","{""ArrowUp,ArrowLeft"":26,""ArrowUp,ArrowRight"":10,""ArrowDown,ArrowLeft"":5,""ArrowDown,ArrowRight"":17}","false","ArrowDown,ArrowRight","false","","","original","1","66","","",""
"html-keyboard-response","191","1138224","0.0-4.0-2.0-1.33","spark_pilot_2","7425","1","18","Male","","","","","","","null","<div style=""font-size:60px;"">+</div>","null","fixation","","","","","","","","","","","67","","",""
"revaluation","192","1144250","0.0-4.0-2.0-0.34","spark_pilot_2","7425","1","18","Male","","false","","","","","[521,424]","./assets/img/ocean/memory/31.jpg","[""ArrowDown"",""ArrowLeft""]","value training","ocean","5","{""ArrowUp,ArrowLeft"":26,""ArrowUp,ArrowRight"":10,""ArrowDown,ArrowLeft"":5,""ArrowDown,ArrowRight"":17}","false","ArrowDown,ArrowLeft","false","","","original","1","68","","",""
"html-keyboard-response","193","1144753","0.0-4.0-2.0-1.34","spark_pilot_2","7425","1","18","Male","","","","","","","null","<div style=""font-size:60px;"">+</div>","null","fixation","","","","","","","","","","","69","","",""
"revaluation","194","1150763","0.0-4.0-2.0-0.35","spark_pilot_2","7425","1","18","Male","","false","","","","","[663.7000000029802,321.3999999985099]","./assets/img/ocean/memory/1.jpg","[""ArrowUp"",""ArrowLeft""]","value training","ocean","26","{""ArrowUp,ArrowLeft"":26,""ArrowUp,ArrowRight"":10,""ArrowDown,ArrowLeft"":5,""ArrowDown,ArrowRight"":17}","true","ArrowUp,ArrowLeft","false","","","original","1","70","","",""
"html-keyboard-response","195","1151267","0.0-4.0-2.0-1.35","spark_pilot_2","7425","1","18","Male","","","","","","","null","<div style=""font-size:60px;"">+</div>","null","fixation","","","","","","","","","","","71","","",""
"revaluation","196","1155280","0.0-4.0-2.0-0.36","spark_pilot_2","7425","1","18","Male","","false","","","","","[474.59999999403954]","./assets/img/ocean/catch/1.jpg","[""ArrowUp""]","value training","ocean","-10","{""ArrowUp,ArrowLeft"":26,""ArrowUp,ArrowRight"":10,""ArrowDown,ArrowLeft"":5,""ArrowDown,ArrowRight"":17}","false","ArrowUp","true","","","original","1","72","","",""
"html-keyboard-response","197","1155783","0.0-4.0-2.0-1.36","spark_pilot_2","7425","1","18","Male","","","","","","","null","<div style=""font-size:60px;"">+</div>","null","fixation","","","","","","","","","","","73","","",""
"revaluation","198","1161795","0.0-4.0-2.0-0.37","spark_pilot_2","7425","1","18","Male","","false","","","","","[626.7999999970198,177.20000000298023]","./assets/img/ocean/memory/32.jpg","[""ArrowUp"",""ArrowLeft""]","value training","ocean","26","{""ArrowUp,ArrowLeft"":26,""ArrowUp,ArrowRight"":10,""ArrowDown,ArrowLeft"":5,""ArrowDown,ArrowRight"":17}","true","ArrowUp,ArrowLeft","false","","","original","1","74","","",""
"html-keyboard-response","199","1162299","0.0-4.0-2.0-1.37","spark_pilot_2","7425","1","18","Male","","","","","","","null","<div style=""font-size:60px;"">+</div>","null","fixation","","","","","","","","","","","75","","",""
"revaluation","200","1168316","0.0-4.0-2.0-0.38","spark_pilot_2","7425","1","18","Male","","false","","","","","[768.1000000014901,576.5999999940395]","./assets/img/ocean/memory/27.jpg","[""ArrowUp"",""ArrowRight""]","value training","ocean","10","{""ArrowUp,ArrowLeft"":26,""ArrowUp,ArrowRight"":10,""ArrowDown,ArrowLeft"":5,""ArrowDown,ArrowRight"":17}","false","ArrowUp,ArrowRight","false","","","original","1","76","","",""
"html-keyboard-response","201","1168820","0.0-4.0-2.0-1.38","spark_pilot_2","7425","1","18","Male","","","","","","","null","<div style=""font-size:60px;"">+</div>","null","fixation","","","","","","","","","","","77","","",""
"revaluation","202","1174834","0.0-4.0-2.0-0.39","spark_pilot_2","7425","1","18","Male","","false","","","","","[536.5,200.20000000298023]","./assets/img/ocean/memory/0.jpg","[""ArrowDown"",""ArrowRight""]","value training","ocean","17","{""ArrowUp,ArrowLeft"":26,""ArrowUp,ArrowRight"":10,""ArrowDown,ArrowLeft"":5,""ArrowDown,ArrowRight"":17}","false","ArrowDown,ArrowRight","false","","","original","1","78","","",""
"html-keyboard-response","203","1175338","0.0-4.0-2.0-1.39","spark_pilot_2","7425","1","18","Male","","","","","","","null","<div style=""font-size:60px;"">+</div>","null","fixation","","","","","","","","","","","79","","",""
"revaluation","204","1181348","0.0-4.0-2.0-0.40","spark_pilot_2","7425","1","18","Male","","false","","","","","[91.80000000447035,412.8999999985099]","./assets/img/ocean/memory/11.jpg","[""ArrowUp"",""ArrowRight""]","value training","ocean","10","{""ArrowUp,ArrowLeft"":26,""ArrowUp,ArrowRight"":10,""ArrowDown,ArrowLeft"":5,""ArrowDown,ArrowRight"":17}","false","ArrowUp,ArrowRight","false","","","original","1","80","","",""
"html-keyboard-response","205","1181851","0.0-4.0-2.0-1.40","spark_pilot_2","7425","1","18","Male","","","","","","","null","<div style=""font-size:60px;"">+</div>","null","fixation","","","","","","","","","","","81","","",""
"revaluation","206","1187868","0.0-4.0-2.0-0.41","spark_pilot_2","7425","1","18","Male","","false","","","","","[672.6000000014901,1519.8999999985099]","./assets/img/ocean/memory/37.jpg","[""ArrowUp"",""ArrowLeft""]","value training","ocean","26","{""ArrowUp,ArrowLeft"":26,""ArrowUp,ArrowRight"":10,""ArrowDown,ArrowLeft"":5,""ArrowDown,ArrowRight"":17}","true","ArrowUp,ArrowLeft","false","","","original","1","82","","",""
"html-keyboard-response","207","1188372","0.0-4.0-2.0-1.41","spark_pilot_2","7425","1","18","Male","","","","","","","null","<div style=""font-size:60px;"">+</div>","null","fixation","","","","","","","","","","","83","","",""
"revaluation","208","1194387","0.0-4.0-2.0-0.42","spark_pilot_2","7425","1","18","Male","","false","","","","","[48.19999999552965,431.59999999403954]","./assets/img/ocean/memory/6.jpg","[""ArrowUp"",""ArrowRight""]","value training","ocean","10","{""ArrowUp,ArrowLeft"":26,""ArrowUp,ArrowRight"":10,""ArrowDown,ArrowLeft"":5,""ArrowDown,ArrowRight"":17}","false","ArrowUp,ArrowRight","false","","","original","1","84","","",""
"html-keyboard-response","209","1194893","0.0-4.0-2.0-1.42","spark_pilot_2","7425","1","18","Male","","","","","","","null","<div style=""font-size:60px;"">+</div>","null","fixation","","","","","","","","","","","85","","",""
"revaluation","210","1200908","0.0-4.0-2.0-0.43","spark_pilot_2","7425","1","18","Male","","false","","","","","[237.5,686.8999999985099]","./assets/img/ocean/memory/30.jpg","[""ArrowDown"",""ArrowRight""]","value training","ocean","17","{""ArrowUp,ArrowLeft"":26,""ArrowUp,ArrowRight"":10,""ArrowDown,ArrowLeft"":5,""ArrowDown,ArrowRight"":17}","false","ArrowDown,ArrowRight","false","","","original","1","86","","",""
"html-keyboard-response","211","1201411","0.0-4.0-2.0-1.43","spark_pilot_2","7425","1","18","Male","","","","","","","null","<div style=""font-size:60px;"">+</div>","null","fixation","","","","","","","","","","","87","","",""
"revaluation","212","1207422","0.0-4.0-2.0-0.44","spark_pilot_2","7425","1","18","Male","","false","","","","","[453.8999999985099,597]","./assets/img/ocean/memory/8.jpg","[""ArrowUp"",""ArrowRight""]","value training","ocean","10","{""ArrowUp,ArrowLeft"":26,""ArrowUp,ArrowRight"":10,""ArrowDown,ArrowLeft"":5,""ArrowDown,ArrowRight"":17}","false","ArrowUp,ArrowRight","false","","","original","1","88","","",""
"html-keyboard-response","213","1207926","0.0-4.0-2.0-1.44","spark_pilot_2","7425","1","18","Male","","","","","","","null","<div style=""font-size:60px;"">+</div>","null","fixation","","","","","","","","","","","89","","",""
"revaluation","214","1211939","0.0-4.0-2.0-0.45","spark_pilot_2","7425","1","18","Male","","false","","","","","[101]","./assets/img/ocean/catch/2.jpg","[""ArrowDown""]","value training","ocean","-10","{""ArrowUp,ArrowLeft"":26,""ArrowUp,ArrowRight"":10,""ArrowDown,ArrowLeft"":5,""ArrowDown,ArrowRight"":17}","false","ArrowDown","true","","","original","1","90","","",""
"html-keyboard-response","215","1212442","0.0-4.0-2.0-1.45","spark_pilot_2","7425","1","18","Male","","","","","","","null","<div style=""font-size:60px;"">+</div>","null","fixation","","","","","","","","","","","91","","",""
"revaluation","216","1218473","0.0-4.0-2.0-0.46","spark_pilot_2","7425","1","18","Male","","false","","","","","[595.1000000014901,682.2999999970198]","./assets/img/ocean/memory/18.jpg","[""ArrowDown"",""ArrowLeft""]","value training","ocean","5","{""ArrowUp,ArrowLeft"":26,""ArrowUp,ArrowRight"":10,""ArrowDown,ArrowLeft"":5,""ArrowDown,ArrowRight"":17}","false","ArrowDown,ArrowLeft","false","","","original","1","92","","",""
"html-keyboard-response","217","1218977","0.0-4.0-2.0-1.46","spark_pilot_2","7425","1","18","Male","","","","","","","null","<div style=""font-size:60px;"">+</div>","null","fixation","","","","","","","","","","","93","","",""
"revaluation","218","1224996","0.0-4.0-2.0-0.47","spark_pilot_2","7425","1","18","Male","","false","","","","","[544.2999999970198,95.19999999552965]","./assets/img/ocean/memory/13.jpg","[""ArrowUp"",""ArrowRight""]","value training","ocean","10","{""ArrowUp,ArrowLeft"":26,""ArrowUp,ArrowRight"":10,""ArrowDown,ArrowLeft"":5,""ArrowDown,ArrowRight"":17}","false","ArrowUp,ArrowRight","false","","","original","1","94","","",""
"html-keyboard-response","219","1225499","0.0-4.0-2.0-1.47","spark_pilot_2","7425","1","18","Male","","","","","","","null","<div style=""font-size:60px;"">+</div>","null","fixation","","","","","","","","","","","95","","",""
"revaluation","220","1231533","0.0-4.0-2.0-0.48","spark_pilot_2","7425","1","18","Male","","false","","","","","[127,364.70000000298023]","./assets/img/ocean/memory/11.jpg","[""ArrowUp"",""ArrowLeft""]","value training","ocean","26","{""ArrowUp,ArrowLeft"":26,""ArrowUp,ArrowRight"":10,""ArrowDown,ArrowLeft"":5,""ArrowDown,ArrowRight"":17}","true","ArrowUp,ArrowLeft","false","","","original","1","96","","",""
"html-keyboard-response","221","1232036","0.0-4.0-2.0-1.48","spark_pilot_2","7425","1","18","Male","","","","","","","null","<div style=""font-size:60px;"">+</div>","null","fixation","","","","","","","","","","","97","","",""
"revaluation","222","1238046","0.0-4.0-2.0-0.49","spark_pilot_2","7425","1","18","Male","","false","","","","","[452.1000000014901,652.3999999985099]","./assets/img/ocean/memory/31.jpg","[""ArrowUp"",""ArrowLeft""]","value training","ocean","26","{""ArrowUp,ArrowLeft"":26,""ArrowUp,ArrowRight"":10,""ArrowDown,ArrowLeft"":5,""ArrowDown,ArrowRight"":17}","true","ArrowUp,ArrowLeft","false","","","original","1","98","","",""
"html-keyboard-response","223","1238549","0.0-4.0-2.0-1.49","spark_pilot_2","7425","1","18","Male","","","","","","","null","<div style=""font-size:60px;"">+</div>","null","fixation","","","","","","","","","","","99","","",""
"learning-instructions","224","1255473","0.0-4.0-3.0-0.0","spark_pilot_2","7425","1","18","Male","","","","","","[{""event"":""fullscreenenter"",""trial"":2,""time"":21719},{""event"":""fullscreenexit"",""trial"":3,""time"":23965},{""event"":""blur"",""trial"":63,""time"":520666},{""event"":""focus"",""trial"":63,""time"":522285},{""event"":""blur"",""trial"":115,""time"":822917},{""event"":""focus"",""trial"":115,""time"":829649},{""event"":""blur"",""trial"":126,""time"":937342},{""event"":""focus"",""trial"":126,""time"":939057},{""event"":""blur"",""trial"":128,""time"":946832},{""event"":""focus"",""trial"":129,""time"":947822},{""event"":""blur"",""trial"":150,""time"":1014070},{""event"":""focus"",""trial"":150,""time"":1014618},{""event"":""blur"",""trial"":225,""time"":1256330},{""event"":""focus"",""trial"":225,""time"":1258763}]","3906.5","<p> Now, you will travel with a friend who will choose whether you go up or down first. </p>
            <p> On these turns, you will just see the animal that they found. You will still get to choose which chest to search for treasure.</p>","","instructions","","","","","","","","","","","","","",""
"revaluation","225","1259482","0.0-4.0-4.0-0.0","spark_pilot_2","7425","1","18","Male","","true","","","","","[]","./assets/img/ocean/animals/seahorse.jpg","[]","revaluation","ocean","-5","{""ArrowUp,ArrowLeft"":26,""ArrowUp,ArrowRight"":10,""ArrowDown,ArrowLeft"":5,""ArrowDown,ArrowRight"":17}","false","ArrowUp","","","","original","1","0","","",""
"html-keyboard-response","226","1259988","0.0-4.0-4.0-1.0","spark_pilot_2","7425","1","18","Male","","","","","","","null","<div style=""font-size:60px;"">+</div>","null","fixation","","","","","","","","","","","1","","",""
"revaluation","227","1263997","0.0-4.0-4.0-0.1","spark_pilot_2","7425","1","18","Male","","false","","","","","[699]","./assets/img/ocean/animals/seahorse.jpg","[""ArrowRight""]","revaluation","ocean","10","{""ArrowUp,ArrowLeft"":26,""ArrowUp,ArrowRight"":10,""ArrowDown,ArrowLeft"":5,""ArrowDown,ArrowRight"":17}","false","ArrowUp,ArrowRight","","","","original","1","2","","",""
"html-keyboard-response","228","1264499","0.0-4.0-4.0-1.1","spark_pilot_2","7425","1","18","Male","","","","","","","null","<div style=""font-size:60px;"">+</div>","null","fixation","","","","","","","","","","","3","","",""
"revaluation","229","1268507","0.0-4.0-4.0-0.2","spark_pilot_2","7425","1","18","Male","","false","","","","","[286.6000000014901]","./assets/img/ocean/animals/octopus.jpg","[""ArrowLeft""]","revaluation","ocean","5","{""ArrowUp,ArrowLeft"":26,""ArrowUp,ArrowRight"":10,""ArrowDown,ArrowLeft"":5,""ArrowDown,ArrowRight"":17}","false","ArrowDown,ArrowLeft","","","","original","1","4","","",""
"html-keyboard-response","230","1269010","0.0-4.0-4.0-1.2","spark_pilot_2","7425","1","18","Male","","","","","","","null","<div style=""font-size:60px;"">+</div>","null","fixation","","","","","","","","","","","5","","",""
"revaluation","231","1273030","0.0-4.0-4.0-0.3","spark_pilot_2","7425","1","18","Male","","false","","","","","[84.70000000298023]","./assets/img/ocean/animals/seahorse.jpg","[""ArrowRight""]","revaluation","ocean","10","{""ArrowUp,ArrowLeft"":26,""ArrowUp,ArrowRight"":10,""ArrowDown,ArrowLeft"":5,""ArrowDown,ArrowRight"":17}","false","ArrowUp,ArrowRight","","","","original","1","6","","",""
"html-keyboard-response","232","1273535","0.0-4.0-4.0-1.3","spark_pilot_2","7425","1","18","Male","","","","","","","null","<div style=""font-size:60px;"">+</div>","null","fixation","","","","","","","","","","","7","","",""
"revaluation","233","1277560","0.0-4.0-4.0-0.4","spark_pilot_2","7425","1","18","Male","","false","","","","","[488.1000000014901]","./assets/img/ocean/animals/seahorse.jpg","[""ArrowLeft""]","revaluation","ocean","26","{""ArrowUp,ArrowLeft"":26,""ArrowUp,ArrowRight"":10,""ArrowDown,ArrowLeft"":5,""ArrowDown,ArrowRight"":17}","true","ArrowUp,ArrowLeft","","","","original","1","8","","",""
"html-keyboard-response","234","1278065","0.0-4.0-4.0-1.4","spark_pilot_2","7425","1","18","Male","","","","","","","null","<div style=""font-size:60px;"">+</div>","null","fixation","","","","","","","","","","","9","","",""
"revaluation","235","1282072","0.0-4.0-4.0-0.5","spark_pilot_2","7425","1","18","Male","","false","","","","","[303.3999999985099]","./assets/img/ocean/animals/seahorse.jpg","[""ArrowRight""]","revaluation","ocean","10","{""ArrowUp,ArrowLeft"":26,""ArrowUp,ArrowRight"":10,""ArrowDown,ArrowLeft"":5,""ArrowDown,ArrowRight"":17}","false","ArrowUp,ArrowRight","","","","original","1","10","","",""
"html-keyboard-response","236","1282576","0.0-4.0-4.0-1.5","spark_pilot_2","7425","1","18","Male","","","","","","","null","<div style=""font-size:60px;"">+</div>","null","fixation","","","","","","","","","","","11","","",""
"revaluation","237","1286591","0.0-4.0-4.0-0.6","spark_pilot_2","7425","1","18","Male","","false","","","","","[176.80000000447035]","./assets/img/ocean/animals/octopus.jpg","[""ArrowLeft""]","revaluation","ocean","5","{""ArrowUp,ArrowLeft"":26,""ArrowUp,ArrowRight"":10,""ArrowDown,ArrowLeft"":5,""ArrowDown,ArrowRight"":17}","false","ArrowDown,ArrowLeft","","","","original","1","12","","",""
"html-keyboard-response","238","1287094","0.0-4.0-4.0-1.6","spark_pilot_2","7425","1","18","Male","","","","","","","null","<div style=""font-size:60px;"">+</div>","null","fixation","","","","","","","","","","","13","","",""
"revaluation","239","1291112","0.0-4.0-4.0-0.7","spark_pilot_2","7425","1","18","Male","","false","","","","","[498.8999999985099]","./assets/img/ocean/animals/seahorse.jpg","[""ArrowLeft""]","revaluation","ocean","26","{""ArrowUp,ArrowLeft"":26,""ArrowUp,ArrowRight"":10,""ArrowDown,ArrowLeft"":5,""ArrowDown,ArrowRight"":17}","true","ArrowUp,ArrowLeft","","","","original","1","14","","",""
"html-keyboard-response","240","1291615","0.0-4.0-4.0-1.7","spark_pilot_2","7425","1","18","Male","","","","","","","null","<div style=""font-size:60px;"">+</div>","null","fixation","","","","","","","","","","","15","","",""
"revaluation","241","1295631","0.0-4.0-4.0-0.8","spark_pilot_2","7425","1","18","Male","","false","","","","","[442.1000000014901]","./assets/img/ocean/animals/seahorse.jpg","[""ArrowLeft""]","revaluation","ocean","26","{""ArrowUp,ArrowLeft"":26,""ArrowUp,ArrowRight"":10,""ArrowDown,ArrowLeft"":5,""ArrowDown,ArrowRight"":17}","true","ArrowUp,ArrowLeft","","","","original","1","16","","",""
"html-keyboard-response","242","1296133","0.0-4.0-4.0-1.8","spark_pilot_2","7425","1","18","Male","","","","","","","null","<div style=""font-size:60px;"">+</div>","null","fixation","","","","","","","","","","","17","","",""
"revaluation","243","1300142","0.0-4.0-4.0-0.9","spark_pilot_2","7425","1","18","Male","","false","","","","","[602.7000000029802]","./assets/img/ocean/animals/octopus.jpg","[""ArrowRight""]","revaluation","ocean","17","{""ArrowUp,ArrowLeft"":26,""ArrowUp,ArrowRight"":10,""ArrowDown,ArrowLeft"":5,""ArrowDown,ArrowRight"":17}","true","ArrowDown,ArrowRight","","","","original","1","18","","",""
"html-keyboard-response","244","1300644","0.0-4.0-4.0-1.9","spark_pilot_2","7425","1","18","Male","","","","","","","null","<div style=""font-size:60px;"">+</div>","null","fixation","","","","","","","","","","","19","","",""
"revaluation","245","1304654","0.0-4.0-4.0-0.10","spark_pilot_2","7425","1","18","Male","","false","","","","","[234.39999999850988]","./assets/img/ocean/animals/octopus.jpg","[""ArrowRight""]","revaluation","ocean","17","{""ArrowUp,ArrowLeft"":26,""ArrowUp,ArrowRight"":10,""ArrowDown,ArrowLeft"":5,""ArrowDown,ArrowRight"":17}","true","ArrowDown,ArrowRight","","","","original","1","20","","",""
"html-keyboard-response","246","1305157","0.0-4.0-4.0-1.10","spark_pilot_2","7425","1","18","Male","","","","","","","null","<div style=""font-size:60px;"">+</div>","null","fixation","","","","","","","","","","","21","","",""
"revaluation","247","1309180","0.0-4.0-4.0-0.11","spark_pilot_2","7425","1","18","Male","","false","","","","","[237.89999999850988]","./assets/img/ocean/animals/seahorse.jpg","[""ArrowLeft""]","revaluation","ocean","26","{""ArrowUp,ArrowLeft"":26,""ArrowUp,ArrowRight"":10,""ArrowDown,ArrowLeft"":5,""ArrowDown,ArrowRight"":17}","true","ArrowUp,ArrowLeft","","","","original","1","22","","",""
"html-keyboard-response","248","1309685","0.0-4.0-4.0-1.11","spark_pilot_2","7425","1","18","Male","","","","","","","null","<div style=""font-size:60px;"">+</div>","null","fixation","","","","","","","","","","","23","","",""
"revaluation","249","1313693","0.0-4.0-4.0-0.12","spark_pilot_2","7425","1","18","Male","","false","","","","","[347.3999999985099]","./assets/img/ocean/animals/octopus.jpg","[""ArrowRight""]","revaluation","ocean","17","{""ArrowUp,ArrowLeft"":26,""ArrowUp,ArrowRight"":10,""ArrowDown,ArrowLeft"":5,""ArrowDown,ArrowRight"":17}","true","ArrowDown,ArrowRight","","","","original","1","24","","",""
"html-keyboard-response","250","1314197","0.0-4.0-4.0-1.12","spark_pilot_2","7425","1","18","Male","","","","","","","null","<div style=""font-size:60px;"">+</div>","null","fixation","","","","","","","","","","","25","","",""
"revaluation","251","1318205","0.0-4.0-4.0-0.13","spark_pilot_2","7425","1","18","Male","","false","","","","","[309.5]","./assets/img/ocean/animals/octopus.jpg","[""ArrowLeft""]","revaluation","ocean","5","{""ArrowUp,ArrowLeft"":26,""ArrowUp,ArrowRight"":10,""ArrowDown,ArrowLeft"":5,""ArrowDown,ArrowRight"":17}","false","ArrowDown,ArrowLeft","","","","original","1","26","","",""
"html-keyboard-response","252","1318709","0.0-4.0-4.0-1.13","spark_pilot_2","7425","1","18","Male","","","","","","","null","<div style=""font-size:60px;"">+</div>","null","fixation","","","","","","","","","","","27","","",""
"revaluation","253","1322716","0.0-4.0-4.0-0.14","spark_pilot_2","7425","1","18","Male","","false","","","","","[1772.8999999985099]","./assets/img/ocean/animals/octopus.jpg","[""ArrowRight""]","revaluation","ocean","17","{""ArrowUp,ArrowLeft"":26,""ArrowUp,ArrowRight"":10,""ArrowDown,ArrowLeft"":5,""ArrowDown,ArrowRight"":17}","true","ArrowDown,ArrowRight","","","","original","1","28","","",""
"html-keyboard-response","254","1323220","0.0-4.0-4.0-1.14","spark_pilot_2","7425","1","18","Male","","","","","","","null","<div style=""font-size:60px;"">+</div>","null","fixation","","","","","","","","","","","29","","",""
"revaluation","255","1327245","0.0-4.0-4.0-0.15","spark_pilot_2","7425","1","18","Male","","false","","","","","[500]","./assets/img/ocean/animals/octopus.jpg","[""ArrowLeft""]","revaluation","ocean","5","{""ArrowUp,ArrowLeft"":26,""ArrowUp,ArrowRight"":10,""ArrowDown,ArrowLeft"":5,""ArrowDown,ArrowRight"":17}","false","ArrowDown,ArrowLeft","","","","original","1","30","","",""
"html-keyboard-response","256","1327747","0.0-4.0-4.0-1.15","spark_pilot_2","7425","1","18","Male","","","","","","","null","<div style=""font-size:60px;"">+</div>","null","fixation","","","","","","","","","","","31","","",""
"revaluation","257","1331756","0.0-4.0-4.0-0.16","spark_pilot_2","7425","1","18","Male","","false","","","","","[892.2999999970198]","./assets/img/ocean/animals/seahorse.jpg","[""ArrowLeft""]","revaluation","ocean","26","{""ArrowUp,ArrowLeft"":26,""ArrowUp,ArrowRight"":10,""ArrowDown,ArrowLeft"":5,""ArrowDown,ArrowRight"":17}","true","ArrowUp,ArrowLeft","","","","original","1","32","","",""
"html-keyboard-response","258","1332260","0.0-4.0-4.0-1.16","spark_pilot_2","7425","1","18","Male","","","","","","","null","<div style=""font-size:60px;"">+</div>","null","fixation","","","","","","","","","","","33","","",""
"revaluation","259","1336280","0.0-4.0-4.0-0.17","spark_pilot_2","7425","1","18","Male","","false","","","","","[3.5]","./assets/img/ocean/animals/octopus.jpg","[""ArrowLeft""]","revaluation","ocean","5","{""ArrowUp,ArrowLeft"":26,""ArrowUp,ArrowRight"":10,""ArrowDown,ArrowLeft"":5,""ArrowDown,ArrowRight"":17}","false","ArrowDown,ArrowLeft","","","","original","1","34","","",""
"html-keyboard-response","260","1336785","0.0-4.0-4.0-1.17","spark_pilot_2","7425","1","18","Male","","","","","","","null","<div style=""font-size:60px;"">+</div>","null","fixation","","","","","","","","","","","35","","",""
"learning-instructions","261","1352891","0.0-4.0-5.0-0.0","spark_pilot_2","7425","1","18","Male","","","","","","","4478.20000000298","<p> Time to play the dot game! </p>
            <p> For one minute, click the red dots on the following screen as they appear. </p>
            <p><b> Don't look away, as you will earn bonus for clicking dots</b>. </p>","","instructions","","","","","","","","","","","","","",""
"revaluation","262","1412894","0.0-4.0-6.0-0.0","spark_pilot_2","7425","1","18","Male","","","","","","","[57,65,109,91,57,53]","","","rest","","60","","","","","0","60000","","","","","",""
"learning-instructions","263","1420755","0.0-4.0-7.0-0.0","spark_pilot_2","7425","1","18","Male","","","","","","","1623","<p> You have almost finished this part of the game! </p>
            <p> We are going to ask you to make a few more choices. </p>","","instructions","","","","","","","","","","","","","",""
"learning-instructions","264","1437421","0.0-4.0-7.0-0.1","spark_pilot_2","7425","1","18","Male","","","","","","","2688.5","<p> First, you need to decide whether to go up or down. When you see each picture, use the arrow keys to make your choice. </p>
            <p><b>You will not see which animal you found, but try to get to the one that will give you the most treasure.</b></p>","","instructions","","","","","","","","","","","","","",""
"revaluation","265","1438607","0.0-4.0-8.0-0.0","spark_pilot_2","7425","1","18","Male","","false","","","","","[1180.6000000014901]","./assets/img/ocean/test/0.jpg","[""ArrowUp""]","first stage test","ocean","0","{""ArrowUp,ArrowLeft"":26,""ArrowUp,ArrowRight"":10,""ArrowDown,ArrowLeft"":5,""ArrowDown,ArrowRight"":17}","true","ArrowUp","false","","","original","1","","","",""
"html-keyboard-response","266","1439109","0.0-4.0-8.0-1.0","spark_pilot_2","7425","1","18","Male","","","","","","","null","<div style=""font-size:60px;"">+</div>","null","fixation","","","","","","","","","","","","","",""
"revaluation","267","1440038","0.0-4.0-8.0-0.1","spark_pilot_2","7425","1","18","Male","","false","","","","","[923.2999999970198]","./assets/img/ocean/test/2.jpg","[""ArrowDown""]","first stage test","ocean","0","{""ArrowUp,ArrowLeft"":26,""ArrowUp,ArrowRight"":10,""ArrowDown,ArrowLeft"":5,""ArrowDown,ArrowRight"":17}","false","ArrowDown","false","","","original","1","","","",""
"html-keyboard-response","268","1440542","0.0-4.0-8.0-1.1","spark_pilot_2","7425","1","18","Male","","","","","","","null","<div style=""font-size:60px;"">+</div>","null","fixation","","","","","","","","","","","","","",""
"revaluation","269","1440993","0.0-4.0-8.0-0.2","spark_pilot_2","7425","1","18","Male","","false","","","","","[436.8999999985099]","./assets/img/ocean/test/1.jpg","[""ArrowUp""]","first stage test","ocean","0","{""ArrowUp,ArrowLeft"":26,""ArrowUp,ArrowRight"":10,""ArrowDown,ArrowLeft"":5,""ArrowDown,ArrowRight"":17}","true","ArrowUp","false","","","original","1","","","",""
"html-keyboard-response","270","1441497","0.0-4.0-8.0-1.2","spark_pilot_2","7425","1","18","Male","","","","","","","null","<div style=""font-size:60px;"">+</div>","null","fixation","","","","","","","","","","","","","",""
"revaluation","271","1441916","0.0-4.0-8.0-0.3","spark_pilot_2","7425","1","18","Male","","false","","","","","[403.30000000447035]","./assets/img/ocean/test/3.jpg","[""ArrowDown""]","first stage test","ocean","0","{""ArrowUp,ArrowLeft"":26,""ArrowUp,ArrowRight"":10,""ArrowDown,ArrowLeft"":5,""ArrowDown,ArrowRight"":17}","false","ArrowDown","false","","","original","1","","","",""
"html-keyboard-response","272","1442421","0.0-4.0-8.0-1.3","spark_pilot_2","7425","1","18","Male","","","","","","","null","<div style=""font-size:60px;"">+</div>","null","fixation","","","","","","","","","","","","","",""
"learning-instructions","273","1456613","0.0-4.0-9.0-0.0","spark_pilot_2","7425","1","18","Male","","","","","","","2842.1999999955297","<p> Now you will see the animals again and can search their chests for treasure. </p>
            <p> This time, you will not see how much treasure you earned, but you will earn more bonus money for making better choices. </p>","","instructions","","","","","","","","","","","","","",""
"revaluation","274","1457710","0.0-4.0-10.0-0.0","spark_pilot_2","7425","1","18","Male","","false","","","","","[1092.5]","./assets/img/ocean/animals/seahorse.jpg","[""ArrowLeft""]","second stage test","ocean","0","{""ArrowUp,ArrowLeft"":26,""ArrowUp,ArrowRight"":10,""ArrowDown,ArrowLeft"":5,""ArrowDown,ArrowRight"":17}","true","ArrowUp,ArrowLeft","","","","original","1","","","",""
"html-keyboard-response","275","1458213","0.0-4.0-10.0-1.0","spark_pilot_2","7425","1","18","Male","","","","","","","null","<div style=""font-size:60px;"">+</div>","null","fixation","","","","","","","","","","","","","",""
"revaluation","276","1458718","0.0-4.0-10.0-0.1","spark_pilot_2","7425","1","18","Male","","false","","","","","[500]","./assets/img/ocean/animals/seahorse.jpg","[""ArrowRight""]","second stage test","ocean","0","{""ArrowUp,ArrowLeft"":26,""ArrowUp,ArrowRight"":10,""ArrowDown,ArrowLeft"":5,""ArrowDown,ArrowRight"":17}","false","ArrowUp,ArrowRight","","","","original","1","","","",""
"html-keyboard-response","277","1459221","0.0-4.0-10.0-1.1","spark_pilot_2","7425","1","18","Male","","","","","","","null","<div style=""font-size:60px;"">+</div>","null","fixation","","","","","","","","","","","","","",""
"revaluation","278","1459984","0.0-4.0-10.0-0.2","spark_pilot_2","7425","1","18","Male","","false","","","","","[745.0999999940395]","./assets/img/ocean/animals/seahorse.jpg","[""ArrowLeft""]","second stage test","ocean","0","{""ArrowUp,ArrowLeft"":26,""ArrowUp,ArrowRight"":10,""ArrowDown,ArrowLeft"":5,""ArrowDown,ArrowRight"":17}","true","ArrowUp,ArrowLeft","","","","original","1","","","",""
"html-keyboard-response","279","1460486","0.0-4.0-10.0-1.2","spark_pilot_2","7425","1","18","Male","","","","","","","null","<div style=""font-size:60px;"">+</div>","null","fixation","","","","","","","","","","","","","",""
"revaluation","280","1461255","0.0-4.0-10.0-0.3","spark_pilot_2","7425","1","18","Male","","false","","","","","[761.5]","./assets/img/ocean/animals/seahorse.jpg","[""ArrowLeft""]","second stage test","ocean","0","{""ArrowUp,ArrowLeft"":26,""ArrowUp,ArrowRight"":10,""ArrowDown,ArrowLeft"":5,""ArrowDown,ArrowRight"":17}","true","ArrowUp,ArrowLeft","","","","original","1","","","",""
"html-keyboard-response","281","1461757","0.0-4.0-10.0-1.3","spark_pilot_2","7425","1","18","Male","","","","","","","null","<div style=""font-size:60px;"">+</div>","null","fixation","","","","","","","","","","","","","",""
"revaluation","282","1462030","0.0-4.0-10.0-0.4","spark_pilot_2","7425","1","18","Male","","false","","","","","[266.6000000014901]","./assets/img/ocean/animals/octopus.jpg","[""ArrowRight""]","second stage test","ocean","0","{""ArrowUp,ArrowLeft"":26,""ArrowUp,ArrowRight"":10,""ArrowDown,ArrowLeft"":5,""ArrowDown,ArrowRight"":17}","true","ArrowDown,ArrowRight","","","","original","1","","","",""
"html-keyboard-response","283","1462533","0.0-4.0-10.0-1.4","spark_pilot_2","7425","1","18","Male","","","","","","","null","<div style=""font-size:60px;"">+</div>","null","fixation","","","","","","","","","","","","","",""
"revaluation","284","1463513","0.0-4.0-10.0-0.5","spark_pilot_2","7425","1","18","Male","","false","","","","","[973.6999999955297]","./assets/img/ocean/animals/octopus.jpg","[""ArrowLeft""]","second stage test","ocean","0","{""ArrowUp,ArrowLeft"":26,""ArrowUp,ArrowRight"":10,""ArrowDown,ArrowLeft"":5,""ArrowDown,ArrowRight"":17}","false","ArrowDown,ArrowLeft","","","","original","1","","","",""
"html-keyboard-response","285","1464017","0.0-4.0-10.0-1.5","spark_pilot_2","7425","1","18","Male","","","","","","","null","<div style=""font-size:60px;"">+</div>","null","fixation","","","","","","","","","","","","","",""
"revaluation","286","1464933","0.0-4.0-10.0-0.6","spark_pilot_2","7425","1","18","Male","","false","","","","","[905.2000000029802]","./assets/img/ocean/animals/octopus.jpg","[""ArrowRight""]","second stage test","ocean","0","{""ArrowUp,ArrowLeft"":26,""ArrowUp,ArrowRight"":10,""ArrowDown,ArrowLeft"":5,""ArrowDown,ArrowRight"":17}","true","ArrowDown,ArrowRight","","","","original","1","","","",""
"html-keyboard-response","287","1465436","0.0-4.0-10.0-1.6","spark_pilot_2","7425","1","18","Male","","","","","","","null","<div style=""font-size:60px;"">+</div>","null","fixation","","","","","","","","","","","","","",""
"revaluation","288","1465929","0.0-4.0-10.0-0.7","spark_pilot_2","7425","1","18","Male","","false","","","","","[478.5]","./assets/img/ocean/animals/octopus.jpg","[""ArrowLeft""]","second stage test","ocean","0","{""ArrowUp,ArrowLeft"":26,""ArrowUp,ArrowRight"":10,""ArrowDown,ArrowLeft"":5,""ArrowDown,ArrowRight"":17}","false","ArrowDown,ArrowLeft","","","","original","1","","","",""
"html-keyboard-response","289","1466435","0.0-4.0-10.0-1.7","spark_pilot_2","7425","1","18","Male","","","","","","","null","<div style=""font-size:60px;"">+</div>","null","fixation","","","","","","","","","","","","","",""
"learning-instructions","290","1471163","0.0-4.0-0.1-0.2","spark_pilot_2","7425","1","18","Male","","","","","","","1929.7000000029802","<p> This time you are searching for treasure in the <b>canyon</b>.</p>","","instructions","","","","","","","","","","","","","",""
