"trial_type","trial_index","time_elapsed","internal_node_id","task_version","subject_id","assigned_condition","age","gender","success","timeout","failed_images","failed_audio","failed_video","browser_interaction","rt","stimulus","response","task_part","environment","score","rewardMap","correct","fullState","isCatch","numberMissed","duration","condition","order","trial_num","key_press","ground_truth","bonus"
"pavlovia","0","1128","0.0-0.0","spark_pilot_2","7321","1","12","Male","","","","","","","","","","","","","","","","","","","","","","","",""
"preload","1","33183","0.0-1.0","spark_pilot_2","7321","1","12","Male","true","false","[]","[]","[]","[{""event"":""fullscreenenter"",""trial"":2,""time"":35260}]","","","","","","","","","","","","","","","","","",""
"fullscreen","2","36258","0.0-2.0","spark_pilot_2","7321","1","12","Male","true","","","","","","","","","","","","","","","","","","","","","","",""
"audio-button-response","3","38871","0.0-3.0-0.0-0.0","spark_pilot_2","7321","1","12","Male","","","","","","","1560","./assets/audio/audiotest/turtle.mp3","2","audio_test","","","","","","","","","","","","","",""
"learning-instructions","4","47580","0.0-3.0-1.0-0.0","spark_pilot_2","7321","1","12","Male","","","","","","","1733.5","<p> Welcome! Please remember to stay in fullscreen mode and don't click away from the experiment. </p>","","instructions","","","","","","","","","","","","","",""
"learning-instructions","5","57008","0.0-3.0-1.0-0.1","spark_pilot_2","7321","1","12","Male","","","","","","","1021","<p> Today you will be playing a game to earn treasure. </p>
            <p> At the end of the experiment, you will earn a bonus based on how much treasure you find. </p>
            <img src='./assets/img/instructions/treasure.jpg' class='instructions-image'>","","instructions","","","","","","","","","","","","","",""
"learning-instructions","6","66394","0.0-3.0-1.0-0.2","spark_pilot_2","7321","1","12","Male","","","","","","","1126.6999999999534","<p> Animals have hidden treasure in treasure chests. </p>
            <p> You need to first find an animal and then choose which of their treasure chests to search. </p>
            <img src='./assets/img/space/animals/cat.jpg' class='instructions-image'>","","instructions","","","","","","","","","","","","","",""
"learning-instructions","7","80609","0.0-3.0-1.0-0.3","spark_pilot_2","7321","1","12","Male","","","","","","","1081.0999999999767","<p> In each round, you will search for treasure in a different place. In the real game, there will be two rounds. </p>
            <p> You will begin with a separate, practice round where you will search for treasure in outer space. </p>
            <img src='./assets/img/space/0.jpg' class='instructions-image'>","","instructions","","","","","","","","","","","","","",""
"learning-instructions","8","94838","0.0-3.0-1.0-0.4","spark_pilot_2","7321","1","12","Male","","","","","","","2810.9000000000233","<p> On every turn, you will see a picture of the place that you are in, but the specific image may be different each time. </p>
            <p> For example, both of these images mean you are in outer space. </p>
            <img src='./assets/img/instructions/outerspace.jpg' class='instructions-image'>","","instructions","","","","","","","","","","","","","",""
"learning-instructions","9","104669","0.0-3.0-1.0-0.5","spark_pilot_2","7321","1","12","Male","","","","","","","2011.9000000000233","<p> You need to decide which direction to travel in. </p>
            <p> You can choose between going <b>up or down</b> by using the arrow keys. </p>
            <img src='./assets/img/instructions/updown.jpg' class='instructions-image'>","","instructions","","","","","","","","","","","","","",""
"learning-instructions","10","114458","0.0-3.0-1.0-0.6","spark_pilot_2","7321","1","12","Male","","","","","","","981.1000000000931","<p> You will have <b>2 seconds</b> to make your choice. </p>
            <p> If you do not make a choice within 2 seconds, you will not find an animal or earn treasure. </p>
            <img src='./assets/img/instructions/2seconds.jpg' class='instructions-image'>","","instructions","","","","","","","","","","","","","",""
"learning-instructions","11","123317","0.0-3.0-1.0-0.7","spark_pilot_2","7321","1","12","Male","","","","","","","1828.4000000000233","<p> Let’s try practicing that now! </p>
            <p> When you see a picture of the place you are in, press the <b>up</b> key to travel up. </p>
            <img src='./assets/img/instructions/pressUp.jpg' class='instructions-image'>","","instructions","","","","","","","","","","","","","",""
"revaluation","12","127341","0.0-3.0-2.0-0.0","spark_pilot_2","7321","1","12","Male","","false","","","","","[949.5]","./assets/img/space/0.jpg","[""ArrowUp""]","first stage practice","space","0","null","null","ArrowUp","false","","","","","","","",""
"html-keyboard-response","13","127857","0.0-3.0-2.0-1.0","spark_pilot_2","7321","1","12","Male","","","","","","","null","<div style=""font-size:60px;"">+</div>","null","fixation","","","","","","","","","","","","","",""
"revaluation","14","131886","0.0-3.0-2.0-0.1","spark_pilot_2","7321","1","12","Male","","false","","","","","[598.2000000000698]","./assets/img/space/1.jpg","[""ArrowUp""]","first stage practice","space","0","null","null","ArrowUp","false","","","","","","","",""
"html-keyboard-response","15","132390","0.0-3.0-2.0-1.1","spark_pilot_2","7321","1","12","Male","","","","","","","null","<div style=""font-size:60px;"">+</div>","null","fixation","","","","","","","","","","","","","",""
"revaluation","16","136414","0.0-3.0-2.0-0.2","spark_pilot_2","7321","1","12","Male","","true","","","","","[]","./assets/img/space/2.jpg","[]","first stage practice","space","-5","null","null","","false","","","","","","","",""
"html-keyboard-response","17","136922","0.0-3.0-2.0-1.2","spark_pilot_2","7321","1","12","Male","","","","","","","null","<div style=""font-size:60px;"">+</div>","null","fixation","","","","","","","","","","","","","",""
"learning-instructions","18","142944","0.0-3.0-3.0-0.0","spark_pilot_2","7321","1","12","Male","","","","","","","1316.8000000000466","<p> Great job! Now try pressing the <b>down</b> key to travel down. </p>
            <img src='./assets/img/instructions/pressDown.jpg' class='instructions-image'>","","instructions","","","","","","","","","","","","","",""
"revaluation","19","146962","0.0-3.0-4.0-0.0","spark_pilot_2","7321","1","12","Male","","false","","","","","[790.7999999999302]","./assets/img/space/3.jpg","[""ArrowDown""]","first stage practice","space","0","null","null","ArrowDown","false","","","","","","","",""
"html-keyboard-response","20","147464","0.0-3.0-4.0-1.0","spark_pilot_2","7321","1","12","Male","","","","","","","null","<div style=""font-size:60px;"">+</div>","null","fixation","","","","","","","","","","","","","",""
"revaluation","21","151492","0.0-3.0-4.0-0.1","spark_pilot_2","7321","1","12","Male","","false","","","","","[352.0999999999767]","./assets/img/space/4.jpg","[""ArrowDown""]","first stage practice","space","0","null","null","ArrowDown","false","","","","","","","",""
"html-keyboard-response","22","152007","0.0-3.0-4.0-1.1","spark_pilot_2","7321","1","12","Male","","","","","","","null","<div style=""font-size:60px;"">+</div>","null","fixation","","","","","","","","","","","","","",""
"revaluation","23","156027","0.0-3.0-4.0-0.2","spark_pilot_2","7321","1","12","Male","","false","","","","","[377.69999999995343]","./assets/img/space/5.jpg","[""ArrowDown""]","first stage practice","space","0","null","null","ArrowDown","false","","","","","","","",""
"html-keyboard-response","24","156543","0.0-3.0-4.0-1.2","spark_pilot_2","7321","1","12","Male","","","","","","","null","<div style=""font-size:60px;"">+</div>","null","fixation","","","","","","","","","","","","","",""
"learning-instructions","25","169012","0.0-3.0-5.0-0.0","spark_pilot_2","7321","1","12","Male","","","","","","","2615.3000000000466","<p> The animals don’t move, so the animal in the upper part of a place will stay in the upper part of a place, and the animal in the lower part of a place will stay in the lower part of a place. </p>","","instructions","","","","","","","","","","","","","",""
"learning-instructions","26","179099","0.0-3.0-5.0-0.1","spark_pilot_2","7321","1","12","Male","","","","","","","952.4000000000233","<p> Each animal has two treasure chests for you to choose from. </p>
            <p> The amount of treasure in each chest can range from <b> 0 to 40 pieces.</b></p>","","instructions","","","","","","","","","","","","","",""
"learning-instructions","27","191161","0.0-3.0-5.0-0.2","spark_pilot_2","7321","1","12","Male","","","","","","","883","<p> You should decide which chest to search for treasure by using the <b>left</b> and <b>right</b> arrow keys. </p>
            <p><b> Pay attention to which animal is on the screen, as the animals have different treasure chests. </b></p>
            <img src='./assets/img/instructions/leftright.jpg' class='instructions-image'>","","instructions","","","","","","","","","","","","","",""
"learning-instructions","28","199594","0.0-3.0-5.0-0.3","spark_pilot_2","7321","1","12","Male","","","","","","","2077.20000000007","<p> Let’s try practicing that now. </p>
            <p> When you see an animal, choose which chest to search for treasure. </p>
            <img src='./assets/img/instructions/chooseChest.jpg' class='instructions-image'>","","instructions","","","","","","","","","","","","","",""
"revaluation","29","203614","0.0-3.0-6.0-0.0","spark_pilot_2","7321","1","12","Male","","false","","","","","[946.6999999999534]","./assets/img/space/animals/cat.jpg","[""ArrowLeft""]","second stage practice","space","3","{""ArrowUp,ArrowLeft"":3,""ArrowUp,ArrowRight"":36,""ArrowDown,ArrowLeft"":15,""ArrowDown,ArrowRight"":23}","false","ArrowUp,ArrowLeft","","","","","","","","",""
"html-keyboard-response","30","204118","0.0-3.0-6.0-1.0","spark_pilot_2","7321","1","12","Male","","","","","","","null","<div style=""font-size:60px;"">+</div>","null","fixation","","","","","","","","","","","","","",""
"revaluation","31","208137","0.0-3.0-6.0-0.1","spark_pilot_2","7321","1","12","Male","","false","","","","","[338.79999999993015]","./assets/img/space/animals/rabbit.jpg","[""ArrowRight""]","second stage practice","space","23","{""ArrowUp,ArrowLeft"":3,""ArrowUp,ArrowRight"":36,""ArrowDown,ArrowLeft"":15,""ArrowDown,ArrowRight"":23}","true","ArrowDown,ArrowRight","","","","","","","","",""
"html-keyboard-response","32","208641","0.0-3.0-6.0-1.1","spark_pilot_2","7321","1","12","Male","","","","","","","null","<div style=""font-size:60px;"">+</div>","null","fixation","","","","","","","","","","","","","",""
"revaluation","33","212672","0.0-3.0-6.0-0.2","spark_pilot_2","7321","1","12","Male","","false","","","","","[334.20000000006985]","./assets/img/space/animals/cat.jpg","[""ArrowRight""]","second stage practice","space","36","{""ArrowUp,ArrowLeft"":3,""ArrowUp,ArrowRight"":36,""ArrowDown,ArrowLeft"":15,""ArrowDown,ArrowRight"":23}","true","ArrowUp,ArrowRight","","","","","","","","",""
"html-keyboard-response","34","213183","0.0-3.0-6.0-1.2","spark_pilot_2","7321","1","12","Male","","","","","","","null","<div style=""font-size:60px;"">+</div>","null","fixation","","","","","","","","","","","","","",""
"revaluation","35","217192","0.0-3.0-6.0-0.3","spark_pilot_2","7321","1","12","Male","","false","","","","","[456.29999999993015]","./assets/img/space/animals/rabbit.jpg","[""ArrowLeft""]","second stage practice","space","15","{""ArrowUp,ArrowLeft"":3,""ArrowUp,ArrowRight"":36,""ArrowDown,ArrowLeft"":15,""ArrowDown,ArrowRight"":23}","false","ArrowDown,ArrowLeft","","","","","","","","",""
"html-keyboard-response","36","217695","0.0-3.0-6.0-1.3","spark_pilot_2","7321","1","12","Male","","","","","","","null","<div style=""font-size:60px;"">+</div>","null","fixation","","","","","","","","","","","","","",""
"learning-instructions","37","236781","0.0-3.0-7.0-0.0","spark_pilot_2","7321","1","12","Male","","","","","","","2274.0999999999767","<p> Great job. Now let’s try putting it together. </p>
            <p> On each turn, you will first see a picture to remind you of the place you are in, and you need to choose whether to go up or down. </p>
            <p> Then you will see an animal and choose which of its chests to search for treasure. </p>","","instructions","","","","","","","","","","","","","",""
"learning-instructions","38","246622","0.0-3.0-7.0-0.1","spark_pilot_2","7321","1","12","Male","","","","","","","1584.2000000001863","<p> When you choose whether to go up or down, try to go to the animal with the chest with the most treasure. </p>
            <p> Try practicing that now! </p>","","instructions","","","","","","","","","","","","","",""
"revaluation","39","252636","0.0-3.0-8.0-0.0","spark_pilot_2","7321","1","12","Male","","false","","","","","[570.1999999999534,620]","./assets/img/space/6.jpg","[""ArrowUp"",""ArrowRight""]","full practice","space","36","{""ArrowUp,ArrowLeft"":3,""ArrowUp,ArrowRight"":36,""ArrowDown,ArrowLeft"":15,""ArrowDown,ArrowRight"":23}","true","ArrowUp,ArrowRight","false","","","","","","","",""
"html-keyboard-response","40","253138","0.0-3.0-8.0-1.0","spark_pilot_2","7321","1","12","Male","","","","","","","null","<div style=""font-size:60px;"">+</div>","null","fixation","","","","","","","","","","","","","",""
"revaluation","41","259176","0.0-3.0-8.0-0.1","spark_pilot_2","7321","1","12","Male","","false","","","","","[341,492.60000000009313]","./assets/img/space/7.jpg","[""ArrowDown"",""ArrowRight""]","full practice","space","23","{""ArrowUp,ArrowLeft"":3,""ArrowUp,ArrowRight"":36,""ArrowDown,ArrowLeft"":15,""ArrowDown,ArrowRight"":23}","false","ArrowDown,ArrowRight","false","","","","","","","",""
"html-keyboard-response","42","259681","0.0-3.0-8.0-1.1","spark_pilot_2","7321","1","12","Male","","","","","","","null","<div style=""font-size:60px;"">+</div>","null","fixation","","","","","","","","","","","","","",""
"revaluation","43","265704","0.0-3.0-8.0-0.2","spark_pilot_2","7321","1","12","Male","","false","","","","","[167.60000000009313,501.19999999995343]","./assets/img/space/8.jpg","[""ArrowUp"",""ArrowRight""]","full practice","space","36","{""ArrowUp,ArrowLeft"":3,""ArrowUp,ArrowRight"":36,""ArrowDown,ArrowLeft"":15,""ArrowDown,ArrowRight"":23}","true","ArrowUp,ArrowRight","false","","","","","","","",""
"html-keyboard-response","44","266215","0.0-3.0-8.0-1.2","spark_pilot_2","7321","1","12","Male","","","","","","","null","<div style=""font-size:60px;"">+</div>","null","fixation","","","","","","","","","","","","","",""
"revaluation","45","272256","0.0-3.0-8.0-0.3","spark_pilot_2","7321","1","12","Male","","false","","","","","[334.9000000001397,502.89999999990687]","./assets/img/space/9.jpg","[""ArrowUp"",""ArrowRight""]","full practice","space","36","{""ArrowUp,ArrowLeft"":3,""ArrowUp,ArrowRight"":36,""ArrowDown,ArrowLeft"":15,""ArrowDown,ArrowRight"":23}","true","ArrowUp,ArrowRight","false","","","","","","","",""
"html-keyboard-response","46","272769","0.0-3.0-8.0-1.3","spark_pilot_2","7321","1","12","Male","","","","","","","null","<div style=""font-size:60px;"">+</div>","null","fixation","","","","","","","","","","","","","",""
"revaluation","47","278782","0.0-3.0-8.0-0.4","spark_pilot_2","7321","1","12","Male","","false","","","","","[528,377.30000000004657]","./assets/img/space/10.jpg","[""ArrowUp"",""ArrowRight""]","full practice","space","36","{""ArrowUp,ArrowLeft"":3,""ArrowUp,ArrowRight"":36,""ArrowDown,ArrowLeft"":15,""ArrowDown,ArrowRight"":23}","true","ArrowUp,ArrowRight","false","","","","","","","",""
"html-keyboard-response","48","279283","0.0-3.0-8.0-1.4","spark_pilot_2","7321","1","12","Male","","","","","","","null","<div style=""font-size:60px;"">+</div>","null","fixation","","","","","","","","","","","","","",""
"learning-instructions","49","291253","0.0-3.0-9.0-0.0","spark_pilot_2","7321","1","12","Male","","","","","","","1518.1999999999534","<p> One last thing: sometimes, you will see a robber. The robber can be anywhere in the picture. </p>
            <p> If you do not stop them, you will lose treasure. </p>
            <img src='./assets/img/instructions/robber.jpg' class='instructions-image'>","","instructions","","","","","","","","","","","","","",""
"learning-instructions","50","299999","0.0-3.0-9.0-0.1","spark_pilot_2","7321","1","12","Male","","","","","","","1584.2000000001863","<p> If you see the robber, you should <b>press the space bar</b> rather than using the arrow keys. </p>
            <p> Try practicing that now! </p>","","instructions","","","","","","","","","","","","","",""
"revaluation","51","304010","0.0-3.0-10.0-0.0","spark_pilot_2","7321","1","12","Male","","false","","","","","[1201.8999999999069]","./assets/img/space/catch/0.jpg","[""spaceBar""]","catch practice","space","0","{""ArrowUp,ArrowLeft"":3,""ArrowUp,ArrowRight"":36,""ArrowDown,ArrowLeft"":15,""ArrowDown,ArrowRight"":23}","true","spaceBar","true","","","","","","","",""
"html-keyboard-response","52","304517","0.0-3.0-10.0-1.0","spark_pilot_2","7321","1","12","Male","","","","","","","null","<div style=""font-size:60px;"">+</div>","null","fixation","","","","","","","","","","","","","",""
"revaluation","53","308529","0.0-3.0-10.0-0.1","spark_pilot_2","7321","1","12","Male","","false","","","","","[574.3999999999069]","./assets/img/space/catch/1.jpg","[""spaceBar""]","catch practice","space","0","{""ArrowUp,ArrowLeft"":3,""ArrowUp,ArrowRight"":36,""ArrowDown,ArrowLeft"":15,""ArrowDown,ArrowRight"":23}","true","spaceBar","true","","","","","","","",""
"html-keyboard-response","54","309044","0.0-3.0-10.0-1.1","spark_pilot_2","7321","1","12","Male","","","","","","","null","<div style=""font-size:60px;"">+</div>","null","fixation","","","","","","","","","","","","","",""
"revaluation","55","313060","0.0-3.0-10.0-0.2","spark_pilot_2","7321","1","12","Male","","false","","","","","[483.60000000009313]","./assets/img/space/catch/2.jpg","[""spaceBar""]","catch practice","space","0","{""ArrowUp,ArrowLeft"":3,""ArrowUp,ArrowRight"":36,""ArrowDown,ArrowLeft"":15,""ArrowDown,ArrowRight"":23}","true","spaceBar","true","","","","","","","",""
"html-keyboard-response","56","313576","0.0-3.0-10.0-1.2","spark_pilot_2","7321","1","12","Male","","","","","","","null","<div style=""font-size:60px;"">+</div>","null","fixation","","","","","","","","","","","","","",""
"learning-instructions","57","328507","0.0-3.0-11.0-0.0","spark_pilot_2","7321","1","12","Male","","","","","","","911","<p> After you explore a place to find treasure, it will be time to play a different game. </p>
            <p> During this game, red dots will appear on the screen and fall down slowly. </p>
            <p><b> You must click on them before they reach the bottom. </b></p>
            <img src='./assets/img/instructions/dotGame.jpg' class='instructions-image'>","","instructions","","","","","","","","","","","","","",""
"learning-instructions","58","335207","0.0-3.0-11.0-0.1","spark_pilot_2","7321","1","12","Male","","","","","","","1032.2000000001863","<p> For every dot you click, you will earn additional treasure. </p>
            <p> Let’s try practicing that now. </p>","","instructions","","","","","","","","","","","","","",""
"revaluation","59","350217","0.0-3.0-12.0-0.0","spark_pilot_2","7321","1","12","Male","","","","","","","[83,73]","","","rest practice","","20","","","","","0","15000","","","","","",""
"learning-instructions","60","357356","0.0-3.0-13.0-0.0-0.0","spark_pilot_2","7321","1","12","Male","","","","","","","1891.5","<p> Now, you will practice a shortened version of the game to get a sense of how it all fits together. </p>","","instructions","","","","","","","","","","","","","",""
"learning-instructions","61","361623","0.0-3.0-13.0-0.0-0.1","spark_pilot_2","7321","1","12","Male","","","","","","","1088.0999999998603","<p>This time you are searching for treasure in outer space.</p>","","instructions","","","","","","","","","","","","","",""
"learning-instructions","62","378112","0.0-3.0-13.0-1.0-0.0","spark_pilot_2","7321","1","12","Male","","","","","","","1736.5","<p> Remember, when you see a picture of the place, use the up and down keys to <b>find an animal</b>.</p>
            <p> When you encounter an animal, you should use the left and right keys to <b>select a treasure chest</b>.</p>
            <p> Don't forget to look out for the robber! </p>","","instructions","","","","","","","","","","","","","",""
"revaluation","63","384135","0.0-3.0-13.0-2.0-0.0","spark_pilot_2","7321","1","12","Male","","false","","","","","[1192.3000000000466,446.5]","./assets/img/space/11.jpg","[""ArrowUp"",""ArrowRight""]","practice block","space","36","{""ArrowUp,ArrowLeft"":3,""ArrowUp,ArrowRight"":36,""ArrowDown,ArrowLeft"":15,""ArrowDown,ArrowRight"":23}","true","ArrowUp,ArrowRight","false","","","","","","","",""
"html-keyboard-response","64","384642","0.0-3.0-13.0-2.0-1.0","spark_pilot_2","7321","1","12","Male","","","","","","","null","<div style=""font-size:60px;"">+</div>","null","fixation","","","","","","","","","","","","","",""
"revaluation","65","390667","0.0-3.0-13.0-2.0-0.1","spark_pilot_2","7321","1","12","Male","","false","","","","","[1109.6999999999534,453.39999999990687]","./assets/img/space/12.jpg","[""ArrowUp"",""ArrowRight""]","practice block","space","36","{""ArrowUp,ArrowLeft"":3,""ArrowUp,ArrowRight"":36,""ArrowDown,ArrowLeft"":15,""ArrowDown,ArrowRight"":23}","true","ArrowUp,ArrowRight","false","","","","","","","",""
"html-keyboard-response","66","391182","0.0-3.0-13.0-2.0-1.1","spark_pilot_2","7321","1","12","Male","","","","","","","null","<div style=""font-size:60px;"">+</div>","null","fixation","","","","","","","","","","","","","",""
"revaluation","67","397201","0.0-3.0-13.0-2.0-0.2","spark_pilot_2","7321","1","12","Male","","false","","","","","[932.1999999999534,499.79999999981374]","./assets/img/space/13.jpg","[""ArrowUp"",""ArrowRight""]","practice block","space","36","{""ArrowUp,ArrowLeft"":3,""ArrowUp,ArrowRight"":36,""ArrowDown,ArrowLeft"":15,""ArrowDown,ArrowRight"":23}","true","ArrowUp,ArrowRight","false","","","","","","","",""
"html-keyboard-response","68","397702","0.0-3.0-13.0-2.0-1.2","spark_pilot_2","7321","1","12","Male","","","","","","","null","<div style=""font-size:60px;"">+</div>","null","fixation","","","","","","","","","","","","","",""
"revaluation","69","403707","0.0-3.0-13.0-2.0-0.3","spark_pilot_2","7321","1","12","Male","","false","","","","","[802.6999999999534,501.69999999995343]","./assets/img/space/14.jpg","[""ArrowUp"",""ArrowRight""]","practice block","space","36","{""ArrowUp,ArrowLeft"":3,""ArrowUp,ArrowRight"":36,""ArrowDown,ArrowLeft"":15,""ArrowDown,ArrowRight"":23}","true","ArrowUp,ArrowRight","false","","","","","","","",""
"html-keyboard-response","70","404209","0.0-3.0-13.0-2.0-1.3","spark_pilot_2","7321","1","12","Male","","","","","","","null","<div style=""font-size:60px;"">+</div>","null","fixation","","","","","","","","","","","","","",""
"revaluation","71","410224","0.0-3.0-13.0-2.0-0.4","spark_pilot_2","7321","1","12","Male","","false","","","","","[1149,806.4000000001397]","./assets/img/space/11.jpg","[""ArrowUp"",""ArrowRight""]","practice block","space","36","{""ArrowUp,ArrowLeft"":3,""ArrowUp,ArrowRight"":36,""ArrowDown,ArrowLeft"":15,""ArrowDown,ArrowRight"":23}","true","ArrowUp,ArrowRight","false","","","","","","","",""
"html-keyboard-response","72","410731","0.0-3.0-13.0-2.0-1.4","spark_pilot_2","7321","1","12","Male","","","","","","","null","<div style=""font-size:60px;"">+</div>","null","fixation","","","","","","","","","","","","","",""
"revaluation","73","416739","0.0-3.0-13.0-2.0-0.5","spark_pilot_2","7321","1","12","Male","","false","","","","","[971.3999999999069,641.3000000000466]","./assets/img/space/12.jpg","[""ArrowUp"",""ArrowRight""]","practice block","space","36","{""ArrowUp,ArrowLeft"":3,""ArrowUp,ArrowRight"":36,""ArrowDown,ArrowLeft"":15,""ArrowDown,ArrowRight"":23}","true","ArrowUp,ArrowRight","false","","","","","","","",""
"html-keyboard-response","74","417240","0.0-3.0-13.0-2.0-1.5","spark_pilot_2","7321","1","12","Male","","","","","","","null","<div style=""font-size:60px;"">+</div>","null","fixation","","","","","","","","","","","","","",""
"revaluation","75","423249","0.0-3.0-13.0-2.0-0.6","spark_pilot_2","7321","1","12","Male","","false","","","","","[810.2000000001863,699.5]","./assets/img/space/13.jpg","[""ArrowUp"",""ArrowRight""]","practice block","space","36","{""ArrowUp,ArrowLeft"":3,""ArrowUp,ArrowRight"":36,""ArrowDown,ArrowLeft"":15,""ArrowDown,ArrowRight"":23}","true","ArrowUp,ArrowRight","false","","","","","","","",""
"html-keyboard-response","76","423751","0.0-3.0-13.0-2.0-1.6","spark_pilot_2","7321","1","12","Male","","","","","","","null","<div style=""font-size:60px;"">+</div>","null","fixation","","","","","","","","","","","","","",""
"revaluation","77","429759","0.0-3.0-13.0-2.0-0.7","spark_pilot_2","7321","1","12","Male","","false","","","","","[1172.5,464.19999999995343]","./assets/img/space/14.jpg","[""ArrowUp"",""ArrowRight""]","practice block","space","36","{""ArrowUp,ArrowLeft"":3,""ArrowUp,ArrowRight"":36,""ArrowDown,ArrowLeft"":15,""ArrowDown,ArrowRight"":23}","true","ArrowUp,ArrowRight","false","","","","","","","",""
"html-keyboard-response","78","430261","0.0-3.0-13.0-2.0-1.7","spark_pilot_2","7321","1","12","Male","","","","","","","null","<div style=""font-size:60px;"">+</div>","null","fixation","","","","","","","","","","","","","",""
"revaluation","79","434267","0.0-3.0-13.0-2.0-0.8","spark_pilot_2","7321","1","12","Male","","false","","","","","[791.1999999999534]","./assets/img/space/catch/3.jpg","[""spaceBar""]","practice block","space","0","{""ArrowUp,ArrowLeft"":3,""ArrowUp,ArrowRight"":36,""ArrowDown,ArrowLeft"":15,""ArrowDown,ArrowRight"":23}","true","spaceBar","true","","","","","","","",""
"html-keyboard-response","80","434769","0.0-3.0-13.0-2.0-1.8","spark_pilot_2","7321","1","12","Male","","","","","","","null","<div style=""font-size:60px;"">+</div>","null","fixation","","","","","","","","","","","","","",""
"learning-instructions","81","449710","0.0-3.0-13.0-3.0-0.0","spark_pilot_2","7321","1","12","Male","","","","","","","1011.1999999999534","<p> Now, you will travel with a friend who will choose whether you go up or down first. </p>
            <p> On these turns, you will just see the animal that they found. You will still get to choose which chest to search for treasure.</p>","","instructions","","","","","","","","","","","","","",""
"revaluation","82","453726","0.0-3.0-13.0-4.0-0.0","spark_pilot_2","7321","1","12","Male","","false","","","","","[867.6000000000931]","./assets/img/space/animals/cat.jpg","[""ArrowRight""]","practice block","space","36","{""ArrowUp,ArrowLeft"":3,""ArrowUp,ArrowRight"":36,""ArrowDown,ArrowLeft"":15,""ArrowDown,ArrowRight"":23}","true","ArrowUp,ArrowRight","","","","","","","","",""
"html-keyboard-response","83","454239","0.0-3.0-13.0-4.0-1.0","spark_pilot_2","7321","1","12","Male","","","","","","","null","<div style=""font-size:60px;"">+</div>","null","fixation","","","","","","","","","","","","","",""
"revaluation","84","458265","0.0-3.0-13.0-4.0-0.1","spark_pilot_2","7321","1","12","Male","","false","","","","","[374.60000000009313]","./assets/img/space/animals/rabbit.jpg","[""ArrowRight""]","practice block","space","23","{""ArrowUp,ArrowLeft"":3,""ArrowUp,ArrowRight"":36,""ArrowDown,ArrowLeft"":15,""ArrowDown,ArrowRight"":23}","true","ArrowDown,ArrowRight","","","","","","","","",""
"html-keyboard-response","85","458780","0.0-3.0-13.0-4.0-1.1","spark_pilot_2","7321","1","12","Male","","","","","","","null","<div style=""font-size:60px;"">+</div>","null","fixation","","","","","","","","","","","","","",""
"revaluation","86","462809","0.0-3.0-13.0-4.0-0.2","spark_pilot_2","7321","1","12","Male","","false","","","","","[435.60000000009313]","./assets/img/space/animals/cat.jpg","[""ArrowLeft""]","practice block","space","3","{""ArrowUp,ArrowLeft"":3,""ArrowUp,ArrowRight"":36,""ArrowDown,ArrowLeft"":15,""ArrowDown,ArrowRight"":23}","false","ArrowUp,ArrowLeft","","","","","","","","",""
"html-keyboard-response","87","463325","0.0-3.0-13.0-4.0-1.2","spark_pilot_2","7321","1","12","Male","","","","","","","null","<div style=""font-size:60px;"">+</div>","null","fixation","","","","","","","","","","","","","",""
"revaluation","88","467339","0.0-3.0-13.0-4.0-0.3","spark_pilot_2","7321","1","12","Male","","false","","","","","[775.4000000001397]","./assets/img/space/animals/rabbit.jpg","[""ArrowRight""]","practice block","space","23","{""ArrowUp,ArrowLeft"":3,""ArrowUp,ArrowRight"":36,""ArrowDown,ArrowLeft"":15,""ArrowDown,ArrowRight"":23}","true","ArrowDown,ArrowRight","","","","","","","","",""
"html-keyboard-response","89","467853","0.0-3.0-13.0-4.0-1.3","spark_pilot_2","7321","1","12","Male","","","","","","","null","<div style=""font-size:60px;"">+</div>","null","fixation","","","","","","","","","","","","","",""
"learning-instructions","90","476881","0.0-3.0-13.0-5.0-0.0","spark_pilot_2","7321","1","12","Male","","","","","","","1661.0999999998603","<p> Time to play the dot game! </p>
            <p> For 15 seconds, click the red dots on the following screen as they appear. </p>","","instructions","","","","","","","","","","","","","",""
"revaluation","91","491884","0.0-3.0-13.0-6.0-0.0","spark_pilot_2","7321","1","12","Male","","","","","","","[116]","","","rest practice","","10","","","","","0","15000","","","","","",""
"learning-instructions","92","500160","0.0-3.0-13.0-7.0-0.0","spark_pilot_2","7321","1","12","Male","","","","","","","2149.3000000000466","<p> You have almost finished this part of the game! </p>
            <p> We are going to ask you to make a few more choices. </p>","","instructions","","","","","","","","","","","","","",""
"learning-instructions","93","514749","0.0-3.0-13.0-7.0-0.1","spark_pilot_2","7321","1","12","Male","","","","","","","599.7999999998137","<p> First, you need to decide whether to go up or down. When you see each picture, use the arrow keys to make your choice. </p>
            <p><b>You will not see which animal you found, but try to get to the one that will give you the most treasure.</b></p>","","instructions","","","","","","","","","","","","","",""
"revaluation","94","515689","0.0-3.0-13.0-8.0","spark_pilot_2","7321","1","12","Male","","false","","","","","[937.8999999999069]","./assets/img/space/15.jpg","[""ArrowDown""]","practice block","space","0","{""ArrowUp,ArrowLeft"":3,""ArrowUp,ArrowRight"":36,""ArrowDown,ArrowLeft"":15,""ArrowDown,ArrowRight"":23}","false","ArrowDown","false","","","","","","","",""
"html-keyboard-response","95","516193","0.0-3.0-13.0-9.0","spark_pilot_2","7321","1","12","Male","","","","","","","null","<div style=""font-size:60px;"">+</div>","null","fixation","","","","","","","","","","","","","",""
"learning-instructions","96","528512","0.0-3.0-13.0-10.0-0.0","spark_pilot_2","7321","1","12","Male","","","","","","","942.1000000000931","<p> Now you will see the animals again and can search their chests for treasure. </p>
            <p> This time, you will not see how much treasure you earned, but you will earn more bonus money for making better choices. </p>","","instructions","","","","","","","","","","","","","",""
"revaluation","97","529271","0.0-3.0-13.0-11.0-0.0","spark_pilot_2","7321","1","12","Male","","false","","","","","[756]","./assets/img/space/animals/cat.jpg","[""ArrowRight""]","practice block","space","0","{""ArrowUp,ArrowLeft"":3,""ArrowUp,ArrowRight"":36,""ArrowDown,ArrowLeft"":15,""ArrowDown,ArrowRight"":23}","true","ArrowUp,ArrowRight","","","","","","","","",""
"html-keyboard-response","98","529782","0.0-3.0-13.0-11.0-1.0","spark_pilot_2","7321","1","12","Male","","","","","","","null","<div style=""font-size:60px;"">+</div>","null","fixation","","","","","","","","","","","","","",""
"revaluation","99","530694","0.0-3.0-13.0-11.0-0.1","spark_pilot_2","7321","1","12","Male","","false","","","","","[909.4000000001397]","./assets/img/space/animals/rabbit.jpg","[""ArrowRight""]","practice block","space","0","{""ArrowUp,ArrowLeft"":3,""ArrowUp,ArrowRight"":36,""ArrowDown,ArrowLeft"":15,""ArrowDown,ArrowRight"":23}","true","ArrowDown,ArrowRight","","","","","","","","",""
"html-keyboard-response","100","531199","0.0-3.0-13.0-11.0-1.1","spark_pilot_2","7321","1","12","Male","","","","","","","null","<div style=""font-size:60px;"">+</div>","null","fixation","","","","","","","","","","","","","",""
"learning-instructions","101","538174","0.0-3.0-14.0-0.0","spark_pilot_2","7321","1","12","Male","","","","","","","2394.3000000000466","<p> Before you start, we're going to ask you a few questions about how the game works. </p>","","instructions","","","","","","","","","","","","","",""
"comp-q","102","544837","0.0-3.0-15.0-0.0-0.0","spark_pilot_2","7321","1","12","Male","","","","","","","1094.9000000001397","<p> <b> True or False? </b> </p>
            <p> There can be 50 pieces of treasure in a given animal's chest. </p>","1","comp_question","","","","true","","","","","","","","","",""
"comp-q","103","553101","0.0-3.0-15.0-0.0-1.0","spark_pilot_2","7321","1","12","Male","","","","","","","1600.8000000000466","<p> <b> That's right! </b> The amount of treasure in each chest can range from 0 to 40 pieces. </p>","0","comp_answer","","","","","","","","","","","","","",""
"comp-q","104","561168","0.0-3.0-15.0-0.1-0.1","spark_pilot_2","7321","1","12","Male","","","","","","","958.3999999999069","<p> <b> True or False? </b> </p><p> In this game, all animals have the same amount of treasure in their left and right chests. </p>","1","comp_question","","","","true","","","","","","","","","",""
"comp-q","105","567048","0.0-3.0-15.0-0.1-1.1","spark_pilot_2","7321","1","12","Male","","","","","","","658.5999999998603","<p> <b> That's right! </b> Animals have different amounts of treasure in their treasure chests. </p>","0","comp_answer","","","","","","","","","","","","","",""
"comp-q","106","573806","0.0-3.0-15.0-0.2-0.2","spark_pilot_2","7321","1","12","Male","","","","","","","906.1999999999534","<p> <b> True or False? </b> </p><p> The same animal will always be there if you go up in the same place. </p>","0","comp_question","","","","true","","","","","","","","","",""
"comp-q","107","581355","0.0-3.0-15.0-0.2-1.2","spark_pilot_2","7321","1","12","Male","","","","","","","1105.8999999999069","<p> <b> That's right! </b> One animal lives in the upper part and one lives in the lower part of every place. </p>","0","comp_answer","","","","","","","","","","","","","",""
"comp-q","108","587317","0.0-3.0-15.0-0.3-0.3","spark_pilot_2","7321","1","12","Male","","","","","","","448.4000000001397","<p> <b> True or False? </b> </p><p> If you see a different picture, it means you are in a new place. </p>","1","comp_question","","","","true","","","","","","","","","",""
"comp-q","109","599654","0.0-3.0-15.0-0.3-1.3","spark_pilot_2","7321","1","12","Male","","","","","","","1113.9000000001397","<p> <b> That's right! </b> Lots of different images may show the same place. For example,  you may see three different images that all remind you that you are in outer space. </p>","0","comp_answer","","","","","","","","","","","","","",""
"learning-instructions","110","610769","0.0-3.0-16.0-0.0","spark_pilot_2","7321","1","12","Male","","","","","","","1269.8999999999069","<p> Good job. Remember to do your best because the amount of treasure you earn will be converted into bonus money. </p>
            <p> It’s time to start the real game! </p>","","instructions","","","","","","","","","","","","","",""
"learning-instructions","111","614046","0.0-4.0-0.0-0.0","spark_pilot_2","7321","1","12","Male","","","","","","","576","<p> This time you are searching for treasure in the <b>ocean</b>.</p>","","instructions","","","","","","","","","","","","","",""
"learning-instructions","112","632453","0.0-4.0-0.0-0.1","spark_pilot_2","7321","1","12","Male","","","","","","","643.8999999999069","<p><b>New</b> animals with <b>new</b> treasure chests live here. You need to explore to discover where the animal with the best treasure chest is.</p>
                    <p> Like before, once you figure out which animal has the chest with the most treasure, you should try to get to that animal and select that chest! </p>","","instructions","","","","","","","","","","","","","",""
"learning-instructions","113","648512","0.0-4.0-1.0-0.0","spark_pilot_2","7321","1","12","Male","","","","","","","1332.8000000000466","<p> Remember, when you see a picture of the place, use the up and down keys to <b>find an animal</b>.</p>
            <p> When you encounter an animal, you should use the left and right keys to <b>select a treasure chest</b>.</p>
            <p> Don't forget to look out for the robber! </p>","","instructions","","","","","","","","","","","","","",""
"revaluation","114","654539","0.0-4.0-2.0-0.0","spark_pilot_2","7321","1","12","Male","","false","","","","","[1116.3999999999069,604.1000000000931]","./assets/img/ocean/memory/31.jpg","[""ArrowUp"",""ArrowRight""]","value training","ocean","10","{""ArrowUp,ArrowLeft"":26,""ArrowUp,ArrowRight"":10,""ArrowDown,ArrowLeft"":5,""ArrowDown,ArrowRight"":17}","false","ArrowUp,ArrowRight","false","","","original","1","0","","",""
"html-keyboard-response","115","655060","0.0-4.0-2.0-1.0","spark_pilot_2","7321","1","12","Male","","","","","","","null","<div style=""font-size:60px;"">+</div>","null","fixation","","","","","","","","","","","1","","",""
"revaluation","116","661071","0.0-4.0-2.0-0.1","spark_pilot_2","7321","1","12","Male","","false","","","","","[322.60000000009313,544.3000000000466]","./assets/img/ocean/memory/36.jpg","[""ArrowDown"",""ArrowLeft""]","value training","ocean","5","{""ArrowUp,ArrowLeft"":26,""ArrowUp,ArrowRight"":10,""ArrowDown,ArrowLeft"":5,""ArrowDown,ArrowRight"":17}","false","ArrowDown,ArrowLeft","false","","","original","1","2","","",""
"html-keyboard-response","117","661576","0.0-4.0-2.0-1.1","spark_pilot_2","7321","1","12","Male","","","","","","","null","<div style=""font-size:60px;"">+</div>","null","fixation","","","","","","","","","","","3","","",""
"revaluation","118","667621","0.0-4.0-2.0-0.2","spark_pilot_2","7321","1","12","Male","","false","","","","","[402,543]","./assets/img/ocean/memory/8.jpg","[""ArrowUp"",""ArrowLeft""]","value training","ocean","26","{""ArrowUp,ArrowLeft"":26,""ArrowUp,ArrowRight"":10,""ArrowDown,ArrowLeft"":5,""ArrowDown,ArrowRight"":17}","true","ArrowUp,ArrowLeft","false","","","original","1","4","","",""
"html-keyboard-response","119","668125","0.0-4.0-2.0-1.2","spark_pilot_2","7321","1","12","Male","","","","","","","null","<div style=""font-size:60px;"">+</div>","null","fixation","","","","","","","","","","","5","","",""
"revaluation","120","674150","0.0-4.0-2.0-0.3","spark_pilot_2","7321","1","12","Male","","false","","","","","[738.2000000001863,328.9000000001397]","./assets/img/ocean/memory/11.jpg","[""ArrowDown"",""ArrowRight""]","value training","ocean","17","{""ArrowUp,ArrowLeft"":26,""ArrowUp,ArrowRight"":10,""ArrowDown,ArrowLeft"":5,""ArrowDown,ArrowRight"":17}","false","ArrowDown,ArrowRight","false","","","original","1","6","","",""
"html-keyboard-response","121","674666","0.0-4.0-2.0-1.3","spark_pilot_2","7321","1","12","Male","","","","","","","null","<div style=""font-size:60px;"">+</div>","null","fixation","","","","","","","","","","","7","","",""
"revaluation","122","678675","0.0-4.0-2.0-0.4","spark_pilot_2","7321","1","12","Male","","false","","","","","[417.30000000004657]","./assets/img/ocean/catch/6.jpg","[""ArrowUp""]","value training","ocean","-10","{""ArrowUp,ArrowLeft"":26,""ArrowUp,ArrowRight"":10,""ArrowDown,ArrowLeft"":5,""ArrowDown,ArrowRight"":17}","false","ArrowUp","true","","","original","1","8","","",""
"html-keyboard-response","123","679177","0.0-4.0-2.0-1.4","spark_pilot_2","7321","1","12","Male","","","","","","","null","<div style=""font-size:60px;"">+</div>","null","fixation","","","","","","","","","","","9","","",""
"revaluation","124","685186","0.0-4.0-2.0-0.5","spark_pilot_2","7321","1","12","Male","","false","","","","","[663.9000000001397,930.0999999998603]","./assets/img/ocean/memory/0.jpg","[""ArrowUp"",""ArrowLeft""]","value training","ocean","26","{""ArrowUp,ArrowLeft"":26,""ArrowUp,ArrowRight"":10,""ArrowDown,ArrowLeft"":5,""ArrowDown,ArrowRight"":17}","true","ArrowUp,ArrowLeft","false","","","original","1","10","","",""
"html-keyboard-response","125","685687","0.0-4.0-2.0-1.5","spark_pilot_2","7321","1","12","Male","","","","","","","null","<div style=""font-size:60px;"">+</div>","null","fixation","","","","","","","","","","","11","","",""
"revaluation","126","691694","0.0-4.0-2.0-0.6","spark_pilot_2","7321","1","12","Male","","false","","","","","[634.1999999999534,487.39999999990687]","./assets/img/ocean/memory/10.jpg","[""ArrowUp"",""ArrowLeft""]","value training","ocean","26","{""ArrowUp,ArrowLeft"":26,""ArrowUp,ArrowRight"":10,""ArrowDown,ArrowLeft"":5,""ArrowDown,ArrowRight"":17}","true","ArrowUp,ArrowLeft","false","","","original","1","12","","",""
"html-keyboard-response","127","692197","0.0-4.0-2.0-1.6","spark_pilot_2","7321","1","12","Male","","","","","","","null","<div style=""font-size:60px;"">+</div>","null","fixation","","","","","","","","","","","13","","",""
"revaluation","128","698211","0.0-4.0-2.0-0.7","spark_pilot_2","7321","1","12","Male","","false","","","","","[513.4000000001397,469.80000000004657]","./assets/img/ocean/memory/28.jpg","[""ArrowUp"",""ArrowLeft""]","value training","ocean","26","{""ArrowUp,ArrowLeft"":26,""ArrowUp,ArrowRight"":10,""ArrowDown,ArrowLeft"":5,""ArrowDown,ArrowRight"":17}","true","ArrowUp,ArrowLeft","false","","","original","1","14","","",""
"html-keyboard-response","129","698713","0.0-4.0-2.0-1.7","spark_pilot_2","7321","1","12","Male","","","","","","","null","<div style=""font-size:60px;"">+</div>","null","fixation","","","","","","","","","","","15","","",""
"revaluation","130","704721","0.0-4.0-2.0-0.8","spark_pilot_2","7321","1","12","Male","","false","","","","","[644.5999999998603,524.1999999999534]","./assets/img/ocean/memory/13.jpg","[""ArrowUp"",""ArrowLeft""]","value training","ocean","26","{""ArrowUp,ArrowLeft"":26,""ArrowUp,ArrowRight"":10,""ArrowDown,ArrowLeft"":5,""ArrowDown,ArrowRight"":17}","true","ArrowUp,ArrowLeft","false","","","original","1","16","","",""
"html-keyboard-response","131","705223","0.0-4.0-2.0-1.8","spark_pilot_2","7321","1","12","Male","","","","","","","null","<div style=""font-size:60px;"">+</div>","null","fixation","","","","","","","","","","","17","","",""
"revaluation","132","709229","0.0-4.0-2.0-0.9","spark_pilot_2","7321","1","12","Male","","false","","","","","[747.8000000000466]","./assets/img/ocean/catch/7.jpg","[""spaceBar""]","value training","ocean","0","{""ArrowUp,ArrowLeft"":26,""ArrowUp,ArrowRight"":10,""ArrowDown,ArrowLeft"":5,""ArrowDown,ArrowRight"":17}","true","spaceBar","true","","","original","1","18","","",""
"html-keyboard-response","133","709731","0.0-4.0-2.0-1.9","spark_pilot_2","7321","1","12","Male","","","","","","","null","<div style=""font-size:60px;"">+</div>","null","fixation","","","","","","","","","","","19","","",""
"revaluation","134","713738","0.0-4.0-2.0-0.10","spark_pilot_2","7321","1","12","Male","","false","","","","","[976.6999999999534]","./assets/img/ocean/catch/3.jpg","[""spaceBar""]","value training","ocean","0","{""ArrowUp,ArrowLeft"":26,""ArrowUp,ArrowRight"":10,""ArrowDown,ArrowLeft"":5,""ArrowDown,ArrowRight"":17}","true","spaceBar","true","","","original","1","20","","",""
"html-keyboard-response","135","714241","0.0-4.0-2.0-1.10","spark_pilot_2","7321","1","12","Male","","","","","","","null","<div style=""font-size:60px;"">+</div>","null","fixation","","","","","","","","","","","21","","",""
"revaluation","136","720249","0.0-4.0-2.0-0.11","spark_pilot_2","7321","1","12","Male","","false","","","","","[813,521.0999999998603]","./assets/img/ocean/memory/12.jpg","[""ArrowUp"",""ArrowLeft""]","value training","ocean","26","{""ArrowUp,ArrowLeft"":26,""ArrowUp,ArrowRight"":10,""ArrowDown,ArrowLeft"":5,""ArrowDown,ArrowRight"":17}","true","ArrowUp,ArrowLeft","false","","","original","1","22","","",""
"html-keyboard-response","137","720752","0.0-4.0-2.0-1.11","spark_pilot_2","7321","1","12","Male","","","","","","","null","<div style=""font-size:60px;"">+</div>","null","fixation","","","","","","","","","","","23","","",""
"revaluation","138","724760","0.0-4.0-2.0-0.12","spark_pilot_2","7321","1","12","Male","","false","","","","","[692.1999999999534]","./assets/img/ocean/catch/1.jpg","[""ArrowUp""]","value training","ocean","-10","{""ArrowUp,ArrowLeft"":26,""ArrowUp,ArrowRight"":10,""ArrowDown,ArrowLeft"":5,""ArrowDown,ArrowRight"":17}","false","ArrowUp","true","","","original","1","24","","",""
"html-keyboard-response","139","725261","0.0-4.0-2.0-1.12","spark_pilot_2","7321","1","12","Male","","","","","","","null","<div style=""font-size:60px;"">+</div>","null","fixation","","","","","","","","","","","25","","",""
"revaluation","140","731267","0.0-4.0-2.0-0.13","spark_pilot_2","7321","1","12","Male","","false","","","","","[558.9000000001397,486.19999999995343]","./assets/img/ocean/memory/4.jpg","[""ArrowUp"",""ArrowLeft""]","value training","ocean","26","{""ArrowUp,ArrowLeft"":26,""ArrowUp,ArrowRight"":10,""ArrowDown,ArrowLeft"":5,""ArrowDown,ArrowRight"":17}","true","ArrowUp,ArrowLeft","false","","","original","1","26","","",""
"html-keyboard-response","141","731769","0.0-4.0-2.0-1.13","spark_pilot_2","7321","1","12","Male","","","","","","","null","<div style=""font-size:60px;"">+</div>","null","fixation","","","","","","","","","","","27","","",""
"revaluation","142","737776","0.0-4.0-2.0-0.14","spark_pilot_2","7321","1","12","Male","","false","","","","","[933.1000000000931,342.5]","./assets/img/ocean/memory/11.jpg","[""ArrowUp"",""ArrowLeft""]","value training","ocean","26","{""ArrowUp,ArrowLeft"":26,""ArrowUp,ArrowRight"":10,""ArrowDown,ArrowLeft"":5,""ArrowDown,ArrowRight"":17}","true","ArrowUp,ArrowLeft","false","","","original","1","28","","",""
"html-keyboard-response","143","738277","0.0-4.0-2.0-1.14","spark_pilot_2","7321","1","12","Male","","","","","","","null","<div style=""font-size:60px;"">+</div>","null","fixation","","","","","","","","","","","29","","",""
"revaluation","144","744283","0.0-4.0-2.0-0.15","spark_pilot_2","7321","1","12","Male","","false","","","","","[706.6999999999534,289.30000000004657]","./assets/img/ocean/memory/28.jpg","[""ArrowUp"",""ArrowLeft""]","value training","ocean","26","{""ArrowUp,ArrowLeft"":26,""ArrowUp,ArrowRight"":10,""ArrowDown,ArrowLeft"":5,""ArrowDown,ArrowRight"":17}","true","ArrowUp,ArrowLeft","false","","","original","1","30","","",""
"html-keyboard-response","145","744785","0.0-4.0-2.0-1.15","spark_pilot_2","7321","1","12","Male","","","","","","","null","<div style=""font-size:60px;"">+</div>","null","fixation","","","","","","","","","","","31","","",""
"revaluation","146","750793","0.0-4.0-2.0-0.16","spark_pilot_2","7321","1","12","Male","","false","","","","","[575.2999999998137,408.19999999995343]","./assets/img/ocean/memory/32.jpg","[""ArrowUp"",""ArrowLeft""]","value training","ocean","26","{""ArrowUp,ArrowLeft"":26,""ArrowUp,ArrowRight"":10,""ArrowDown,ArrowLeft"":5,""ArrowDown,ArrowRight"":17}","true","ArrowUp,ArrowLeft","false","","","original","1","32","","",""
"html-keyboard-response","147","751295","0.0-4.0-2.0-1.16","spark_pilot_2","7321","1","12","Male","","","","","","","null","<div style=""font-size:60px;"">+</div>","null","fixation","","","","","","","","","","","33","","",""
"revaluation","148","757304","0.0-4.0-2.0-0.17","spark_pilot_2","7321","1","12","Male","","false","","","","","[721,484.80000000004657]","./assets/img/ocean/memory/10.jpg","[""ArrowUp"",""ArrowLeft""]","value training","ocean","26","{""ArrowUp,ArrowLeft"":26,""ArrowUp,ArrowRight"":10,""ArrowDown,ArrowLeft"":5,""ArrowDown,ArrowRight"":17}","true","ArrowUp,ArrowLeft","false","","","original","1","34","","",""
"html-keyboard-response","149","757805","0.0-4.0-2.0-1.17","spark_pilot_2","7321","1","12","Male","","","","","","","null","<div style=""font-size:60px;"">+</div>","null","fixation","","","","","","","","","","","35","","",""
"revaluation","150","763824","0.0-4.0-2.0-0.18","spark_pilot_2","7321","1","12","Male","","false","","","","","[749.1000000000931,518.8999999999069]","./assets/img/ocean/memory/36.jpg","[""ArrowUp"",""ArrowLeft""]","value training","ocean","26","{""ArrowUp,ArrowLeft"":26,""ArrowUp,ArrowRight"":10,""ArrowDown,ArrowLeft"":5,""ArrowDown,ArrowRight"":17}","true","ArrowUp,ArrowLeft","false","","","original","1","36","","",""
"html-keyboard-response","151","764326","0.0-4.0-2.0-1.18","spark_pilot_2","7321","1","12","Male","","","","","","","null","<div style=""font-size:60px;"">+</div>","null","fixation","","","","","","","","","","","37","","",""
"revaluation","152","770332","0.0-4.0-2.0-0.19","spark_pilot_2","7321","1","12","Male","","false","","","","","[808.1999999999534,657.9000000001397]","./assets/img/ocean/memory/31.jpg","[""ArrowUp"",""ArrowLeft""]","value training","ocean","26","{""ArrowUp,ArrowLeft"":26,""ArrowUp,ArrowRight"":10,""ArrowDown,ArrowLeft"":5,""ArrowDown,ArrowRight"":17}","true","ArrowUp,ArrowLeft","false","","","original","1","38","","",""
"html-keyboard-response","153","770833","0.0-4.0-2.0-1.19","spark_pilot_2","7321","1","12","Male","","","","","","","null","<div style=""font-size:60px;"">+</div>","null","fixation","","","","","","","","","","","39","","",""
"revaluation","154","776838","0.0-4.0-2.0-0.20","spark_pilot_2","7321","1","12","Male","","false","","","","","[670.5999999998603,424.89999999990687]","./assets/img/ocean/memory/23.jpg","[""ArrowUp"",""ArrowLeft""]","value training","ocean","26","{""ArrowUp,ArrowLeft"":26,""ArrowUp,ArrowRight"":10,""ArrowDown,ArrowLeft"":5,""ArrowDown,ArrowRight"":17}","true","ArrowUp,ArrowLeft","false","","","original","1","40","","",""
"html-keyboard-response","155","777340","0.0-4.0-2.0-1.20","spark_pilot_2","7321","1","12","Male","","","","","","","null","<div style=""font-size:60px;"">+</div>","null","fixation","","","","","","","","","","","41","","",""
"revaluation","156","781343","0.0-4.0-2.0-0.21","spark_pilot_2","7321","1","12","Male","","false","","","","","[634.0999999998603]","./assets/img/ocean/catch/2.jpg","[""spaceBar""]","value training","ocean","0","{""ArrowUp,ArrowLeft"":26,""ArrowUp,ArrowRight"":10,""ArrowDown,ArrowLeft"":5,""ArrowDown,ArrowRight"":17}","true","spaceBar","true","","","original","1","42","","",""
"html-keyboard-response","157","781845","0.0-4.0-2.0-1.21","spark_pilot_2","7321","1","12","Male","","","","","","","null","<div style=""font-size:60px;"">+</div>","null","fixation","","","","","","","","","","","43","","",""
"revaluation","158","785852","0.0-4.0-2.0-0.22","spark_pilot_2","7321","1","12","Male","","false","","","","","[1005]","./assets/img/ocean/catch/0.jpg","[""spaceBar""]","value training","ocean","0","{""ArrowUp,ArrowLeft"":26,""ArrowUp,ArrowRight"":10,""ArrowDown,ArrowLeft"":5,""ArrowDown,ArrowRight"":17}","true","spaceBar","true","","","original","1","44","","",""
"html-keyboard-response","159","786354","0.0-4.0-2.0-1.22","spark_pilot_2","7321","1","12","Male","","","","","","","null","<div style=""font-size:60px;"">+</div>","null","fixation","","","","","","","","","","","45","","",""
"revaluation","160","792363","0.0-4.0-2.0-0.23","spark_pilot_2","7321","1","12","Male","","false","","","","","[631.2999999998137,523.2000000001863]","./assets/img/ocean/memory/8.jpg","[""ArrowUp"",""ArrowLeft""]","value training","ocean","26","{""ArrowUp,ArrowLeft"":26,""ArrowUp,ArrowRight"":10,""ArrowDown,ArrowLeft"":5,""ArrowDown,ArrowRight"":17}","true","ArrowUp,ArrowLeft","false","","","original","1","46","","",""
"html-keyboard-response","161","792866","0.0-4.0-2.0-1.23","spark_pilot_2","7321","1","12","Male","","","","","","","null","<div style=""font-size:60px;"">+</div>","null","fixation","","","","","","","","","","","47","","",""
"revaluation","162","798871","0.0-4.0-2.0-0.24","spark_pilot_2","7321","1","12","Male","","false","","","","","[938.5999999998603,545]","./assets/img/ocean/memory/9.jpg","[""ArrowUp"",""ArrowLeft""]","value training","ocean","26","{""ArrowUp,ArrowLeft"":26,""ArrowUp,ArrowRight"":10,""ArrowDown,ArrowLeft"":5,""ArrowDown,ArrowRight"":17}","true","ArrowUp,ArrowLeft","false","","","original","1","48","","",""
"html-keyboard-response","163","799372","0.0-4.0-2.0-1.24","spark_pilot_2","7321","1","12","Male","","","","","","","null","<div style=""font-size:60px;"">+</div>","null","fixation","","","","","","","","","","","49","","",""
"revaluation","164","805379","0.0-4.0-2.0-0.25","spark_pilot_2","7321","1","12","Male","","false","","","","","[749.3000000000466,481.80000000004657]","./assets/img/ocean/memory/29.jpg","[""ArrowUp"",""ArrowLeft""]","value training","ocean","26","{""ArrowUp,ArrowLeft"":26,""ArrowUp,ArrowRight"":10,""ArrowDown,ArrowLeft"":5,""ArrowDown,ArrowRight"":17}","true","ArrowUp,ArrowLeft","false","","","original","1","50","","",""
"html-keyboard-response","165","805881","0.0-4.0-2.0-1.25","spark_pilot_2","7321","1","12","Male","","","","","","","null","<div style=""font-size:60px;"">+</div>","null","fixation","","","","","","","","","","","51","","",""
"revaluation","166","811885","0.0-4.0-2.0-0.26","spark_pilot_2","7321","1","12","Male","","false","","","","","[507.5,439.9000000001397]","./assets/img/ocean/memory/17.jpg","[""ArrowUp"",""ArrowLeft""]","value training","ocean","26","{""ArrowUp,ArrowLeft"":26,""ArrowUp,ArrowRight"":10,""ArrowDown,ArrowLeft"":5,""ArrowDown,ArrowRight"":17}","true","ArrowUp,ArrowLeft","false","","","original","1","52","","",""
"html-keyboard-response","167","812387","0.0-4.0-2.0-1.26","spark_pilot_2","7321","1","12","Male","","","","","","","null","<div style=""font-size:60px;"">+</div>","null","fixation","","","","","","","","","","","53","","",""
"revaluation","168","818393","0.0-4.0-2.0-0.27","spark_pilot_2","7321","1","12","Male","","false","","","","","[858.3999999999069,382.39999999990687]","./assets/img/ocean/memory/15.jpg","[""ArrowUp"",""ArrowLeft""]","value training","ocean","26","{""ArrowUp,ArrowLeft"":26,""ArrowUp,ArrowRight"":10,""ArrowDown,ArrowLeft"":5,""ArrowDown,ArrowRight"":17}","true","ArrowUp,ArrowLeft","false","","","original","1","54","","",""
"html-keyboard-response","169","818895","0.0-4.0-2.0-1.27","spark_pilot_2","7321","1","12","Male","","","","","","","null","<div style=""font-size:60px;"">+</div>","null","fixation","","","","","","","","","","","55","","",""
"revaluation","170","824903","0.0-4.0-2.0-0.28","spark_pilot_2","7321","1","12","Male","","false","","","","","[1023.6999999999534,496.39999999990687]","./assets/img/ocean/memory/30.jpg","[""ArrowUp"",""ArrowLeft""]","value training","ocean","26","{""ArrowUp,ArrowLeft"":26,""ArrowUp,ArrowRight"":10,""ArrowDown,ArrowLeft"":5,""ArrowDown,ArrowRight"":17}","true","ArrowUp,ArrowLeft","false","","","original","1","56","","",""
"html-keyboard-response","171","825404","0.0-4.0-2.0-1.28","spark_pilot_2","7321","1","12","Male","","","","","","","null","<div style=""font-size:60px;"">+</div>","null","fixation","","","","","","","","","","","57","","",""
"revaluation","172","831416","0.0-4.0-2.0-0.29","spark_pilot_2","7321","1","12","Male","","false","","","","","[550.0999999998603,637.0999999998603]","./assets/img/ocean/memory/38.jpg","[""ArrowUp"",""ArrowLeft""]","value training","ocean","26","{""ArrowUp,ArrowLeft"":26,""ArrowUp,ArrowRight"":10,""ArrowDown,ArrowLeft"":5,""ArrowDown,ArrowRight"":17}","true","ArrowUp,ArrowLeft","false","","","original","1","58","","",""
"html-keyboard-response","173","831917","0.0-4.0-2.0-1.29","spark_pilot_2","7321","1","12","Male","","","","","","","null","<div style=""font-size:60px;"">+</div>","null","fixation","","","","","","","","","","","59","","",""
"revaluation","174","837922","0.0-4.0-2.0-0.30","spark_pilot_2","7321","1","12","Male","","false","","","","","[637.2999999998137,445.30000000004657]","./assets/img/ocean/memory/6.jpg","[""ArrowUp"",""ArrowLeft""]","value training","ocean","26","{""ArrowUp,ArrowLeft"":26,""ArrowUp,ArrowRight"":10,""ArrowDown,ArrowLeft"":5,""ArrowDown,ArrowRight"":17}","true","ArrowUp,ArrowLeft","false","","","original","1","60","","",""
"html-keyboard-response","175","838423","0.0-4.0-2.0-1.30","spark_pilot_2","7321","1","12","Male","","","","","","","null","<div style=""font-size:60px;"">+</div>","null","fixation","","","","","","","","","","","61","","",""
"revaluation","176","844432","0.0-4.0-2.0-0.31","spark_pilot_2","7321","1","12","Male","","false","","","","","[755.3999999999069,458.69999999995343]","./assets/img/ocean/memory/13.jpg","[""ArrowUp"",""ArrowLeft""]","value training","ocean","26","{""ArrowUp,ArrowLeft"":26,""ArrowUp,ArrowRight"":10,""ArrowDown,ArrowLeft"":5,""ArrowDown,ArrowRight"":17}","true","ArrowUp,ArrowLeft","false","","","original","1","62","","",""
"html-keyboard-response","177","844933","0.0-4.0-2.0-1.31","spark_pilot_2","7321","1","12","Male","","","","","","","null","<div style=""font-size:60px;"">+</div>","null","fixation","","","","","","","","","","","63","","",""
"revaluation","178","850939","0.0-4.0-2.0-0.32","spark_pilot_2","7321","1","12","Male","","false","","","","","[602.4000000001397,457.30000000004657]","./assets/img/ocean/memory/38.jpg","[""ArrowUp"",""ArrowLeft""]","value training","ocean","26","{""ArrowUp,ArrowLeft"":26,""ArrowUp,ArrowRight"":10,""ArrowDown,ArrowLeft"":5,""ArrowDown,ArrowRight"":17}","true","ArrowUp,ArrowLeft","false","","","original","1","64","","",""
"html-keyboard-response","179","851441","0.0-4.0-2.0-1.32","spark_pilot_2","7321","1","12","Male","","","","","","","null","<div style=""font-size:60px;"">+</div>","null","fixation","","","","","","","","","","","65","","",""
"revaluation","180","857445","0.0-4.0-2.0-0.33","spark_pilot_2","7321","1","12","Male","","false","","","","","[687.6000000000931,473]","./assets/img/ocean/memory/1.jpg","[""ArrowUp"",""ArrowLeft""]","value training","ocean","26","{""ArrowUp,ArrowLeft"":26,""ArrowUp,ArrowRight"":10,""ArrowDown,ArrowLeft"":5,""ArrowDown,ArrowRight"":17}","true","ArrowUp,ArrowLeft","false","","","original","1","66","","",""
"html-keyboard-response","181","857947","0.0-4.0-2.0-1.33","spark_pilot_2","7321","1","12","Male","","","","","","","null","<div style=""font-size:60px;"">+</div>","null","fixation","","","","","","","","","","","67","","",""
"revaluation","182","863952","0.0-4.0-2.0-0.34","spark_pilot_2","7321","1","12","Male","","false","","","","","[497.10000000009313,297.39999999990687]","./assets/img/ocean/memory/6.jpg","[""ArrowUp"",""ArrowLeft""]","value training","ocean","26","{""ArrowUp,ArrowLeft"":26,""ArrowUp,ArrowRight"":10,""ArrowDown,ArrowLeft"":5,""ArrowDown,ArrowRight"":17}","true","ArrowUp,ArrowLeft","false","","","original","1","68","","",""
"html-keyboard-response","183","864453","0.0-4.0-2.0-1.34","spark_pilot_2","7321","1","12","Male","","","","","","","null","<div style=""font-size:60px;"">+</div>","null","fixation","","","","","","","","","","","69","","",""
"revaluation","184","870463","0.0-4.0-2.0-0.35","spark_pilot_2","7321","1","12","Male","","false","","","","","[927.3000000000466,440.0999999998603]","./assets/img/ocean/memory/12.jpg","[""ArrowUp"",""ArrowLeft""]","value training","ocean","26","{""ArrowUp,ArrowLeft"":26,""ArrowUp,ArrowRight"":10,""ArrowDown,ArrowLeft"":5,""ArrowDown,ArrowRight"":17}","true","ArrowUp,ArrowLeft","false","","","original","1","70","","",""
"html-keyboard-response","185","870965","0.0-4.0-2.0-1.35","spark_pilot_2","7321","1","12","Male","","","","","","","null","<div style=""font-size:60px;"">+</div>","null","fixation","","","","","","","","","","","71","","",""
"revaluation","186","876971","0.0-4.0-2.0-0.36","spark_pilot_2","7321","1","12","Male","","false","","","","","[976.3000000000466,395.80000000004657]","./assets/img/ocean/memory/9.jpg","[""ArrowUp"",""ArrowLeft""]","value training","ocean","26","{""ArrowUp,ArrowLeft"":26,""ArrowUp,ArrowRight"":10,""ArrowDown,ArrowLeft"":5,""ArrowDown,ArrowRight"":17}","true","ArrowUp,ArrowLeft","false","","","original","1","72","","",""
"html-keyboard-response","187","877473","0.0-4.0-2.0-1.36","spark_pilot_2","7321","1","12","Male","","","","","","","null","<div style=""font-size:60px;"">+</div>","null","fixation","","","","","","","","","","","73","","",""
"revaluation","188","883483","0.0-4.0-2.0-0.37","spark_pilot_2","7321","1","12","Male","","false","","","","","[638.4000000001397,391.10000000009313]","./assets/img/ocean/memory/30.jpg","[""ArrowUp"",""ArrowLeft""]","value training","ocean","26","{""ArrowUp,ArrowLeft"":26,""ArrowUp,ArrowRight"":10,""ArrowDown,ArrowLeft"":5,""ArrowDown,ArrowRight"":17}","true","ArrowUp,ArrowLeft","false","","","original","1","74","","",""
"html-keyboard-response","189","883985","0.0-4.0-2.0-1.37","spark_pilot_2","7321","1","12","Male","","","","","","","null","<div style=""font-size:60px;"">+</div>","null","fixation","","","","","","","","","","","75","","",""
"revaluation","190","889993","0.0-4.0-2.0-0.38","spark_pilot_2","7321","1","12","Male","","false","","","","","[601.6999999999534,662.4000000001397]","./assets/img/ocean/memory/17.jpg","[""ArrowUp"",""ArrowLeft""]","value training","ocean","26","{""ArrowUp,ArrowLeft"":26,""ArrowUp,ArrowRight"":10,""ArrowDown,ArrowLeft"":5,""ArrowDown,ArrowRight"":17}","true","ArrowUp,ArrowLeft","false","","","original","1","76","","",""
"html-keyboard-response","191","890496","0.0-4.0-2.0-1.38","spark_pilot_2","7321","1","12","Male","","","","","","","null","<div style=""font-size:60px;"">+</div>","null","fixation","","","","","","","","","","","77","","",""
"revaluation","192","896500","0.0-4.0-2.0-0.39","spark_pilot_2","7321","1","12","Male","","false","","","","","[798,407.5]","./assets/img/ocean/memory/15.jpg","[""ArrowUp"",""ArrowLeft""]","value training","ocean","26","{""ArrowUp,ArrowLeft"":26,""ArrowUp,ArrowRight"":10,""ArrowDown,ArrowLeft"":5,""ArrowDown,ArrowRight"":17}","true","ArrowUp,ArrowLeft","false","","","original","1","78","","",""
"html-keyboard-response","193","897002","0.0-4.0-2.0-1.39","spark_pilot_2","7321","1","12","Male","","","","","","","null","<div style=""font-size:60px;"">+</div>","null","fixation","","","","","","","","","","","79","","",""
"revaluation","194","903008","0.0-4.0-2.0-0.40","spark_pilot_2","7321","1","12","Male","","false","","","","","[586.3999999999069,387.80000000004657]","./assets/img/ocean/memory/29.jpg","[""ArrowUp"",""ArrowLeft""]","value training","ocean","26","{""ArrowUp,ArrowLeft"":26,""ArrowUp,ArrowRight"":10,""ArrowDown,ArrowLeft"":5,""ArrowDown,ArrowRight"":17}","true","ArrowUp,ArrowLeft","false","","","original","1","80","","",""
"html-keyboard-response","195","903514","0.0-4.0-2.0-1.40","spark_pilot_2","7321","1","12","Male","","","","","","","null","<div style=""font-size:60px;"">+</div>","null","fixation","","","","","","","","","","","81","","",""
"revaluation","196","909524","0.0-4.0-2.0-0.41","spark_pilot_2","7321","1","12","Male","","false","","","","","[593.2999999998137,639.8000000000466]","./assets/img/ocean/memory/4.jpg","[""ArrowUp"",""ArrowLeft""]","value training","ocean","26","{""ArrowUp,ArrowLeft"":26,""ArrowUp,ArrowRight"":10,""ArrowDown,ArrowLeft"":5,""ArrowDown,ArrowRight"":17}","true","ArrowUp,ArrowLeft","false","","","original","1","82","","",""
"html-keyboard-response","197","910026","0.0-4.0-2.0-1.41","spark_pilot_2","7321","1","12","Male","","","","","","","null","<div style=""font-size:60px;"">+</div>","null","fixation","","","","","","","","","","","83","","",""
"revaluation","198","916046","0.0-4.0-2.0-0.42","spark_pilot_2","7321","1","12","Male","","false","","","","","[487.39999999990687,356.80000000004657]","./assets/img/ocean/memory/22.jpg","[""ArrowUp"",""ArrowLeft""]","value training","ocean","26","{""ArrowUp,ArrowLeft"":26,""ArrowUp,ArrowRight"":10,""ArrowDown,ArrowLeft"":5,""ArrowDown,ArrowRight"":17}","true","ArrowUp,ArrowLeft","false","","","original","1","84","","",""
"html-keyboard-response","199","916548","0.0-4.0-2.0-1.42","spark_pilot_2","7321","1","12","Male","","","","","","","null","<div style=""font-size:60px;"">+</div>","null","fixation","","","","","","","","","","","85","","",""
"revaluation","200","920553","0.0-4.0-2.0-0.43","spark_pilot_2","7321","1","12","Male","","false","","","","","[759.8000000000466]","./assets/img/ocean/catch/4.jpg","[""spaceBar""]","value training","ocean","0","{""ArrowUp,ArrowLeft"":26,""ArrowUp,ArrowRight"":10,""ArrowDown,ArrowLeft"":5,""ArrowDown,ArrowRight"":17}","true","spaceBar","true","","","original","1","86","","",""
"html-keyboard-response","201","921055","0.0-4.0-2.0-1.43","spark_pilot_2","7321","1","12","Male","","","","","","","null","<div style=""font-size:60px;"">+</div>","null","fixation","","","","","","","","","","","87","","",""
"revaluation","202","927063","0.0-4.0-2.0-0.44","spark_pilot_2","7321","1","12","Male","","false","","","","","[550.8000000000466,538.4000000001397]","./assets/img/ocean/memory/23.jpg","[""ArrowUp"",""ArrowLeft""]","value training","ocean","26","{""ArrowUp,ArrowLeft"":26,""ArrowUp,ArrowRight"":10,""ArrowDown,ArrowLeft"":5,""ArrowDown,ArrowRight"":17}","true","ArrowUp,ArrowLeft","false","","","original","1","88","","",""
"html-keyboard-response","203","927565","0.0-4.0-2.0-1.44","spark_pilot_2","7321","1","12","Male","","","","","","","null","<div style=""font-size:60px;"">+</div>","null","fixation","","","","","","","","","","","89","","",""
"revaluation","204","933582","0.0-4.0-2.0-0.45","spark_pilot_2","7321","1","12","Male","","false","","","","","[945.3999999999069,699.3000000000466]","./assets/img/ocean/memory/32.jpg","[""ArrowUp"",""ArrowLeft""]","value training","ocean","26","{""ArrowUp,ArrowLeft"":26,""ArrowUp,ArrowRight"":10,""ArrowDown,ArrowLeft"":5,""ArrowDown,ArrowRight"":17}","true","ArrowUp,ArrowLeft","false","","","original","1","90","","",""
"html-keyboard-response","205","934085","0.0-4.0-2.0-1.45","spark_pilot_2","7321","1","12","Male","","","","","","","null","<div style=""font-size:60px;"">+</div>","null","fixation","","","","","","","","","","","91","","",""
"revaluation","206","940093","0.0-4.0-2.0-0.46","spark_pilot_2","7321","1","12","Male","","false","","","","","[1213,403.80000000004657]","./assets/img/ocean/memory/0.jpg","[""ArrowUp"",""ArrowLeft""]","value training","ocean","26","{""ArrowUp,ArrowLeft"":26,""ArrowUp,ArrowRight"":10,""ArrowDown,ArrowLeft"":5,""ArrowDown,ArrowRight"":17}","true","ArrowUp,ArrowLeft","false","","","original","1","92","","",""
"html-keyboard-response","207","940595","0.0-4.0-2.0-1.46","spark_pilot_2","7321","1","12","Male","","","","","","","null","<div style=""font-size:60px;"">+</div>","null","fixation","","","","","","","","","","","93","","",""
"revaluation","208","946604","0.0-4.0-2.0-0.47","spark_pilot_2","7321","1","12","Male","","false","","","","","[696.8000000000466,661.1999999999534]","./assets/img/ocean/memory/1.jpg","[""ArrowUp"",""ArrowLeft""]","value training","ocean","26","{""ArrowUp,ArrowLeft"":26,""ArrowUp,ArrowRight"":10,""ArrowDown,ArrowLeft"":5,""ArrowDown,ArrowRight"":17}","true","ArrowUp,ArrowLeft","false","","","original","1","94","","",""
"html-keyboard-response","209","947105","0.0-4.0-2.0-1.47","spark_pilot_2","7321","1","12","Male","","","","","","","null","<div style=""font-size:60px;"">+</div>","null","fixation","","","","","","","","","","","95","","",""
"revaluation","210","951109","0.0-4.0-2.0-0.48","spark_pilot_2","7321","1","12","Male","","false","","","","","[810.5999999998603]","./assets/img/ocean/catch/5.jpg","[""spaceBar""]","value training","ocean","0","{""ArrowUp,ArrowLeft"":26,""ArrowUp,ArrowRight"":10,""ArrowDown,ArrowLeft"":5,""ArrowDown,ArrowRight"":17}","true","spaceBar","true","","","original","1","96","","",""
"html-keyboard-response","211","951612","0.0-4.0-2.0-1.48","spark_pilot_2","7321","1","12","Male","","","","","","","null","<div style=""font-size:60px;"">+</div>","null","fixation","","","","","","","","","","","97","","",""
"revaluation","212","957619","0.0-4.0-2.0-0.49","spark_pilot_2","7321","1","12","Male","","false","","","","","[1360.8000000000466,646.3000000000466]","./assets/img/ocean/memory/22.jpg","[""ArrowUp"",""ArrowLeft""]","value training","ocean","26","{""ArrowUp,ArrowLeft"":26,""ArrowUp,ArrowRight"":10,""ArrowDown,ArrowLeft"":5,""ArrowDown,ArrowRight"":17}","true","ArrowUp,ArrowLeft","false","","","original","1","98","","",""
"html-keyboard-response","213","958121","0.0-4.0-2.0-1.49","spark_pilot_2","7321","1","12","Male","","","","","","","null","<div style=""font-size:60px;"">+</div>","null","fixation","","","","","","","","","","","99","","",""
"learning-instructions","214","974027","0.0-4.0-3.0-0.0","spark_pilot_2","7321","1","12","Male","","","","","","","1981.4000000001397","<p> Now, you will travel with a friend who will choose whether you go up or down first. </p>
            <p> On these turns, you will just see the animal that they found. You will still get to choose which chest to search for treasure.</p>","","instructions","","","","","","","","","","","","","",""
"revaluation","215","978036","0.0-4.0-4.0-0.0","spark_pilot_2","7321","1","12","Male","","false","","","","","[1511.8000000000466]","./assets/img/ocean/animals/octopus.jpg","[""ArrowLeft""]","revaluation","ocean","5","{""ArrowUp,ArrowLeft"":26,""ArrowUp,ArrowRight"":10,""ArrowDown,ArrowLeft"":5,""ArrowDown,ArrowRight"":17}","false","ArrowDown,ArrowLeft","","","","original","1","0","","",""
"html-keyboard-response","216","978543","0.0-4.0-4.0-1.0","spark_pilot_2","7321","1","12","Male","","","","","","","null","<div style=""font-size:60px;"">+</div>","null","fixation","","","","","","","","","","","1","","",""
"revaluation","217","982553","0.0-4.0-4.0-0.1","spark_pilot_2","7321","1","12","Male","","false","","","","","[679.1999999999534]","./assets/img/ocean/animals/seahorse.jpg","[""ArrowLeft""]","revaluation","ocean","26","{""ArrowUp,ArrowLeft"":26,""ArrowUp,ArrowRight"":10,""ArrowDown,ArrowLeft"":5,""ArrowDown,ArrowRight"":17}","true","ArrowUp,ArrowLeft","","","","original","1","2","","",""
"html-keyboard-response","218","983066","0.0-4.0-4.0-1.1","spark_pilot_2","7321","1","12","Male","","","","","","","null","<div style=""font-size:60px;"">+</div>","null","fixation","","","","","","","","","","","3","","",""
"revaluation","219","987083","0.0-4.0-4.0-0.2","spark_pilot_2","7321","1","12","Male","","false","","","","","[696.3000000000466]","./assets/img/ocean/animals/seahorse.jpg","[""ArrowLeft""]","revaluation","ocean","26","{""ArrowUp,ArrowLeft"":26,""ArrowUp,ArrowRight"":10,""ArrowDown,ArrowLeft"":5,""ArrowDown,ArrowRight"":17}","true","ArrowUp,ArrowLeft","","","","original","1","4","","",""
"html-keyboard-response","220","987599","0.0-4.0-4.0-1.2","spark_pilot_2","7321","1","12","Male","","","","","","","null","<div style=""font-size:60px;"">+</div>","null","fixation","","","","","","","","","","","5","","",""
"revaluation","221","991615","0.0-4.0-4.0-0.3","spark_pilot_2","7321","1","12","Male","","false","","","","","[739.8999999999069]","./assets/img/ocean/animals/seahorse.jpg","[""ArrowLeft""]","revaluation","ocean","26","{""ArrowUp,ArrowLeft"":26,""ArrowUp,ArrowRight"":10,""ArrowDown,ArrowLeft"":5,""ArrowDown,ArrowRight"":17}","true","ArrowUp,ArrowLeft","","","","original","1","6","","",""
"html-keyboard-response","222","992133","0.0-4.0-4.0-1.3","spark_pilot_2","7321","1","12","Male","","","","","","","null","<div style=""font-size:60px;"">+</div>","null","fixation","","","","","","","","","","","7","","",""
"revaluation","223","996143","0.0-4.0-4.0-0.4","spark_pilot_2","7321","1","12","Male","","false","","","","","[694.6999999999534]","./assets/img/ocean/animals/seahorse.jpg","[""ArrowLeft""]","revaluation","ocean","26","{""ArrowUp,ArrowLeft"":26,""ArrowUp,ArrowRight"":10,""ArrowDown,ArrowLeft"":5,""ArrowDown,ArrowRight"":17}","true","ArrowUp,ArrowLeft","","","","original","1","8","","",""
"html-keyboard-response","224","996647","0.0-4.0-4.0-1.4","spark_pilot_2","7321","1","12","Male","","","","","","","null","<div style=""font-size:60px;"">+</div>","null","fixation","","","","","","","","","","","9","","",""
"revaluation","225","1000665","0.0-4.0-4.0-0.5","spark_pilot_2","7321","1","12","Male","","false","","","","","[467.30000000004657]","./assets/img/ocean/animals/octopus.jpg","[""ArrowRight""]","revaluation","ocean","17","{""ArrowUp,ArrowLeft"":26,""ArrowUp,ArrowRight"":10,""ArrowDown,ArrowLeft"":5,""ArrowDown,ArrowRight"":17}","true","ArrowDown,ArrowRight","","","","original","1","10","","",""
"html-keyboard-response","226","1001172","0.0-4.0-4.0-1.5","spark_pilot_2","7321","1","12","Male","","","","","","","null","<div style=""font-size:60px;"">+</div>","null","fixation","","","","","","","","","","","11","","",""
"revaluation","227","1005176","0.0-4.0-4.0-0.6","spark_pilot_2","7321","1","12","Male","","false","","","","","[443.10000000009313]","./assets/img/ocean/animals/seahorse.jpg","[""ArrowLeft""]","revaluation","ocean","26","{""ArrowUp,ArrowLeft"":26,""ArrowUp,ArrowRight"":10,""ArrowDown,ArrowLeft"":5,""ArrowDown,ArrowRight"":17}","true","ArrowUp,ArrowLeft","","","","original","1","12","","",""
"html-keyboard-response","228","1005678","0.0-4.0-4.0-1.6","spark_pilot_2","7321","1","12","Male","","","","","","","null","<div style=""font-size:60px;"">+</div>","null","fixation","","","","","","","","","","","13","","",""
"revaluation","229","1009681","0.0-4.0-4.0-0.7","spark_pilot_2","7321","1","12","Male","","false","","","","","[858.3000000000466]","./assets/img/ocean/animals/octopus.jpg","[""ArrowRight""]","revaluation","ocean","17","{""ArrowUp,ArrowLeft"":26,""ArrowUp,ArrowRight"":10,""ArrowDown,ArrowLeft"":5,""ArrowDown,ArrowRight"":17}","true","ArrowDown,ArrowRight","","","","original","1","14","","",""
"html-keyboard-response","230","1010183","0.0-4.0-4.0-1.7","spark_pilot_2","7321","1","12","Male","","","","","","","null","<div style=""font-size:60px;"">+</div>","null","fixation","","","","","","","","","","","15","","",""
"revaluation","231","1014189","0.0-4.0-4.0-0.8","spark_pilot_2","7321","1","12","Male","","false","","","","","[839.1000000000931]","./assets/img/ocean/animals/octopus.jpg","[""ArrowRight""]","revaluation","ocean","17","{""ArrowUp,ArrowLeft"":26,""ArrowUp,ArrowRight"":10,""ArrowDown,ArrowLeft"":5,""ArrowDown,ArrowRight"":17}","true","ArrowDown,ArrowRight","","","","original","1","16","","",""
"html-keyboard-response","232","1014691","0.0-4.0-4.0-1.8","spark_pilot_2","7321","1","12","Male","","","","","","","null","<div style=""font-size:60px;"">+</div>","null","fixation","","","","","","","","","","","17","","",""
"revaluation","233","1018698","0.0-4.0-4.0-0.9","spark_pilot_2","7321","1","12","Male","","false","","","","","[758.6000000000931]","./assets/img/ocean/animals/octopus.jpg","[""ArrowRight""]","revaluation","ocean","17","{""ArrowUp,ArrowLeft"":26,""ArrowUp,ArrowRight"":10,""ArrowDown,ArrowLeft"":5,""ArrowDown,ArrowRight"":17}","true","ArrowDown,ArrowRight","","","","original","1","18","","",""
"html-keyboard-response","234","1019200","0.0-4.0-4.0-1.9","spark_pilot_2","7321","1","12","Male","","","","","","","null","<div style=""font-size:60px;"">+</div>","null","fixation","","","","","","","","","","","19","","",""
"revaluation","235","1023210","0.0-4.0-4.0-0.10","spark_pilot_2","7321","1","12","Male","","false","","","","","[1021.2999999998137]","./assets/img/ocean/animals/octopus.jpg","[""ArrowRight""]","revaluation","ocean","17","{""ArrowUp,ArrowLeft"":26,""ArrowUp,ArrowRight"":10,""ArrowDown,ArrowLeft"":5,""ArrowDown,ArrowRight"":17}","true","ArrowDown,ArrowRight","","","","original","1","20","","",""
"html-keyboard-response","236","1023712","0.0-4.0-4.0-1.10","spark_pilot_2","7321","1","12","Male","","","","","","","null","<div style=""font-size:60px;"">+</div>","null","fixation","","","","","","","","","","","21","","",""
"revaluation","237","1027719","0.0-4.0-4.0-0.11","spark_pilot_2","7321","1","12","Male","","false","","","","","[549.6000000000931]","./assets/img/ocean/animals/octopus.jpg","[""ArrowRight""]","revaluation","ocean","17","{""ArrowUp,ArrowLeft"":26,""ArrowUp,ArrowRight"":10,""ArrowDown,ArrowLeft"":5,""ArrowDown,ArrowRight"":17}","true","ArrowDown,ArrowRight","","","","original","1","22","","",""
"html-keyboard-response","238","1028220","0.0-4.0-4.0-1.11","spark_pilot_2","7321","1","12","Male","","","","","","","null","<div style=""font-size:60px;"">+</div>","null","fixation","","","","","","","","","","","23","","",""
"revaluation","239","1032226","0.0-4.0-4.0-0.12","spark_pilot_2","7321","1","12","Male","","false","","","","","[731.8000000000466]","./assets/img/ocean/animals/seahorse.jpg","[""ArrowLeft""]","revaluation","ocean","26","{""ArrowUp,ArrowLeft"":26,""ArrowUp,ArrowRight"":10,""ArrowDown,ArrowLeft"":5,""ArrowDown,ArrowRight"":17}","true","ArrowUp,ArrowLeft","","","","original","1","24","","",""
"html-keyboard-response","240","1032728","0.0-4.0-4.0-1.12","spark_pilot_2","7321","1","12","Male","","","","","","","null","<div style=""font-size:60px;"">+</div>","null","fixation","","","","","","","","","","","25","","",""
"revaluation","241","1036734","0.0-4.0-4.0-0.13","spark_pilot_2","7321","1","12","Male","","false","","","","","[732]","./assets/img/ocean/animals/seahorse.jpg","[""ArrowLeft""]","revaluation","ocean","26","{""ArrowUp,ArrowLeft"":26,""ArrowUp,ArrowRight"":10,""ArrowDown,ArrowLeft"":5,""ArrowDown,ArrowRight"":17}","true","ArrowUp,ArrowLeft","","","","original","1","26","","",""
"html-keyboard-response","242","1037236","0.0-4.0-4.0-1.13","spark_pilot_2","7321","1","12","Male","","","","","","","null","<div style=""font-size:60px;"">+</div>","null","fixation","","","","","","","","","","","27","","",""
"revaluation","243","1041240","0.0-4.0-4.0-0.14","spark_pilot_2","7321","1","12","Male","","false","","","","","[607.1999999999534]","./assets/img/ocean/animals/seahorse.jpg","[""ArrowLeft""]","revaluation","ocean","26","{""ArrowUp,ArrowLeft"":26,""ArrowUp,ArrowRight"":10,""ArrowDown,ArrowLeft"":5,""ArrowDown,ArrowRight"":17}","true","ArrowUp,ArrowLeft","","","","original","1","28","","",""
"html-keyboard-response","244","1041742","0.0-4.0-4.0-1.14","spark_pilot_2","7321","1","12","Male","","","","","","","null","<div style=""font-size:60px;"">+</div>","null","fixation","","","","","","","","","","","29","","",""
"revaluation","245","1045746","0.0-4.0-4.0-0.15","spark_pilot_2","7321","1","12","Male","","false","","","","","[601.1999999999534]","./assets/img/ocean/animals/seahorse.jpg","[""ArrowLeft""]","revaluation","ocean","26","{""ArrowUp,ArrowLeft"":26,""ArrowUp,ArrowRight"":10,""ArrowDown,ArrowLeft"":5,""ArrowDown,ArrowRight"":17}","true","ArrowUp,ArrowLeft","","","","original","1","30","","",""
"html-keyboard-response","246","1046247","0.0-4.0-4.0-1.15","spark_pilot_2","7321","1","12","Male","","","","","","","null","<div style=""font-size:60px;"">+</div>","null","fixation","","","","","","","","","","","31","","",""
"revaluation","247","1050255","0.0-4.0-4.0-0.16","spark_pilot_2","7321","1","12","Male","","false","","","","","[353.60000000009313]","./assets/img/ocean/animals/octopus.jpg","[""ArrowRight""]","revaluation","ocean","17","{""ArrowUp,ArrowLeft"":26,""ArrowUp,ArrowRight"":10,""ArrowDown,ArrowLeft"":5,""ArrowDown,ArrowRight"":17}","true","ArrowDown,ArrowRight","","","","original","1","32","","",""
"html-keyboard-response","248","1050757","0.0-4.0-4.0-1.16","spark_pilot_2","7321","1","12","Male","","","","","","","null","<div style=""font-size:60px;"">+</div>","null","fixation","","","","","","","","","","","33","","",""
"revaluation","249","1054764","0.0-4.0-4.0-0.17","spark_pilot_2","7321","1","12","Male","","false","","","","","[519.3999999999069]","./assets/img/ocean/animals/octopus.jpg","[""ArrowRight""]","revaluation","ocean","17","{""ArrowUp,ArrowLeft"":26,""ArrowUp,ArrowRight"":10,""ArrowDown,ArrowLeft"":5,""ArrowDown,ArrowRight"":17}","true","ArrowDown,ArrowRight","","","","original","1","34","","",""
"html-keyboard-response","250","1055266","0.0-4.0-4.0-1.17","spark_pilot_2","7321","1","12","Male","","","","","","","null","<div style=""font-size:60px;"">+</div>","null","fixation","","","","","","","","","","","35","","",""
"learning-instructions","251","1069167","0.0-4.0-5.0-0.0","spark_pilot_2","7321","1","12","Male","","","","","","","1071.8999999999069","<p> Time to play the dot game! </p>
            <p> For one minute, click the red dots on the following screen as they appear. </p>
            <p><b> Don't look away, as you will earn bonus for clicking dots</b>. </p>","","instructions","","","","","","","","","","","","","",""
"revaluation","252","1129169","0.0-4.0-6.0-0.0","spark_pilot_2","7321","1","12","Male","","","","","","","[85,93,72,69,87,77]","","","rest","","60","","","","","0","60000","","","","","",""
"learning-instructions","253","1137782","0.0-4.0-7.0-0.0","spark_pilot_2","7321","1","12","Male","","","","","","","1466.3999999999069","<p> You have almost finished this part of the game! </p>
            <p> We are going to ask you to make a few more choices. </p>","","instructions","","","","","","","","","","","","","",""
"learning-instructions","254","1152645","0.0-4.0-7.0-0.1","spark_pilot_2","7321","1","12","Male","","","","","","","898.9000000003725","<p> First, you need to decide whether to go up or down. When you see each picture, use the arrow keys to make your choice. </p>
            <p><b>You will not see which animal you found, but try to get to the one that will give you the most treasure.</b></p>","","instructions","","","","","","","","","","","","","",""
"revaluation","255","1153832","0.0-4.0-8.0-0.0","spark_pilot_2","7321","1","12","Male","","false","","","","","[1186.2999999998137]","./assets/img/ocean/test/0.jpg","[""ArrowUp""]","first stage test","ocean","0","{""ArrowUp,ArrowLeft"":26,""ArrowUp,ArrowRight"":10,""ArrowDown,ArrowLeft"":5,""ArrowDown,ArrowRight"":17}","true","ArrowUp","false","","","original","1","","","",""
"html-keyboard-response","256","1154348","0.0-4.0-8.0-1.0","spark_pilot_2","7321","1","12","Male","","","","","","","null","<div style=""font-size:60px;"">+</div>","null","fixation","","","","","","","","","","","","","",""
"revaluation","257","1155597","0.0-4.0-8.0-0.1","spark_pilot_2","7321","1","12","Male","","false","","","","","[1245.1999999997206]","./assets/img/ocean/test/3.jpg","[""ArrowUp""]","first stage test","ocean","0","{""ArrowUp,ArrowLeft"":26,""ArrowUp,ArrowRight"":10,""ArrowDown,ArrowLeft"":5,""ArrowDown,ArrowRight"":17}","true","ArrowUp","false","","","original","1","","","",""
"html-keyboard-response","258","1156112","0.0-4.0-8.0-1.1","spark_pilot_2","7321","1","12","Male","","","","","","","null","<div style=""font-size:60px;"">+</div>","null","fixation","","","","","","","","","","","","","",""
"revaluation","259","1157138","0.0-4.0-8.0-0.2","spark_pilot_2","7321","1","12","Male","","false","","","","","[1022.8999999999069]","./assets/img/ocean/test/1.jpg","[""ArrowUp""]","first stage test","ocean","0","{""ArrowUp,ArrowLeft"":26,""ArrowUp,ArrowRight"":10,""ArrowDown,ArrowLeft"":5,""ArrowDown,ArrowRight"":17}","true","ArrowUp","false","","","original","1","","","",""
"html-keyboard-response","260","1157653","0.0-4.0-8.0-1.2","spark_pilot_2","7321","1","12","Male","","","","","","","null","<div style=""font-size:60px;"">+</div>","null","fixation","","","","","","","","","","","","","",""
"revaluation","261","1158723","0.0-4.0-8.0-0.3","spark_pilot_2","7321","1","12","Male","","false","","","","","[1065.8999999999069]","./assets/img/ocean/test/2.jpg","[""ArrowUp""]","first stage test","ocean","0","{""ArrowUp,ArrowLeft"":26,""ArrowUp,ArrowRight"":10,""ArrowDown,ArrowLeft"":5,""ArrowDown,ArrowRight"":17}","true","ArrowUp","false","","","original","1","","","",""
"html-keyboard-response","262","1159237","0.0-4.0-8.0-1.3","spark_pilot_2","7321","1","12","Male","","","","","","","null","<div style=""font-size:60px;"">+</div>","null","fixation","","","","","","","","","","","","","",""
"learning-instructions","263","1172316","0.0-4.0-9.0-0.0","spark_pilot_2","7321","1","12","Male","","","","","","","1731.6999999997206","<p> Now you will see the animals again and can search their chests for treasure. </p>
            <p> This time, you will not see how much treasure you earned, but you will earn more bonus money for making better choices. </p>","","instructions","","","","","","","","","","","","","",""
"revaluation","264","1173080","0.0-4.0-10.0-0.0","spark_pilot_2","7321","1","12","Male","","false","","","","","[761.5]","./assets/img/ocean/animals/seahorse.jpg","[""ArrowLeft""]","second stage test","ocean","0","{""ArrowUp,ArrowLeft"":26,""ArrowUp,ArrowRight"":10,""ArrowDown,ArrowLeft"":5,""ArrowDown,ArrowRight"":17}","true","ArrowUp,ArrowLeft","","","","original","1","","","",""
"html-keyboard-response","265","1173596","0.0-4.0-10.0-1.0","spark_pilot_2","7321","1","12","Male","","","","","","","null","<div style=""font-size:60px;"">+</div>","null","fixation","","","","","","","","","","","","","",""
"revaluation","266","1174328","0.0-4.0-10.0-0.1","spark_pilot_2","7321","1","12","Male","","false","","","","","[731.4000000003725]","./assets/img/ocean/animals/seahorse.jpg","[""ArrowLeft""]","second stage test","ocean","0","{""ArrowUp,ArrowLeft"":26,""ArrowUp,ArrowRight"":10,""ArrowDown,ArrowLeft"":5,""ArrowDown,ArrowRight"":17}","true","ArrowUp,ArrowLeft","","","","original","1","","","",""
"html-keyboard-response","267","1174837","0.0-4.0-10.0-1.1","spark_pilot_2","7321","1","12","Male","","","","","","","null","<div style=""font-size:60px;"">+</div>","null","fixation","","","","","","","","","","","","","",""
"revaluation","268","1175357","0.0-4.0-10.0-0.2","spark_pilot_2","7321","1","12","Male","","false","","","","","[517.7000000001863]","./assets/img/ocean/animals/seahorse.jpg","[""ArrowLeft""]","second stage test","ocean","0","{""ArrowUp,ArrowLeft"":26,""ArrowUp,ArrowRight"":10,""ArrowDown,ArrowLeft"":5,""ArrowDown,ArrowRight"":17}","true","ArrowUp,ArrowLeft","","","","original","1","","","",""
"html-keyboard-response","269","1175872","0.0-4.0-10.0-1.2","spark_pilot_2","7321","1","12","Male","","","","","","","null","<div style=""font-size:60px;"">+</div>","null","fixation","","","","","","","","","","","","","",""
"revaluation","270","1176368","0.0-4.0-10.0-0.3","spark_pilot_2","7321","1","12","Male","","false","","","","","[492.5]","./assets/img/ocean/animals/seahorse.jpg","[""ArrowLeft""]","second stage test","ocean","0","{""ArrowUp,ArrowLeft"":26,""ArrowUp,ArrowRight"":10,""ArrowDown,ArrowLeft"":5,""ArrowDown,ArrowRight"":17}","true","ArrowUp,ArrowLeft","","","","original","1","","","",""
"html-keyboard-response","271","1176871","0.0-4.0-10.0-1.3","spark_pilot_2","7321","1","12","Male","","","","","","","null","<div style=""font-size:60px;"">+</div>","null","fixation","","","","","","","","","","","","","",""
"revaluation","272","1177577","0.0-4.0-10.0-0.4","spark_pilot_2","7321","1","12","Male","","false","","","","","[702.7000000001863]","./assets/img/ocean/animals/octopus.jpg","[""ArrowRight""]","second stage test","ocean","0","{""ArrowUp,ArrowLeft"":26,""ArrowUp,ArrowRight"":10,""ArrowDown,ArrowLeft"":5,""ArrowDown,ArrowRight"":17}","true","ArrowDown,ArrowRight","","","","original","1","","","",""
"html-keyboard-response","273","1178092","0.0-4.0-10.0-1.4","spark_pilot_2","7321","1","12","Male","","","","","","","null","<div style=""font-size:60px;"">+</div>","null","fixation","","","","","","","","","","","","","",""
"revaluation","274","1178608","0.0-4.0-10.0-0.5","spark_pilot_2","7321","1","12","Male","","false","","","","","[511.6999999997206]","./assets/img/ocean/animals/octopus.jpg","[""ArrowRight""]","second stage test","ocean","0","{""ArrowUp,ArrowLeft"":26,""ArrowUp,ArrowRight"":10,""ArrowDown,ArrowLeft"":5,""ArrowDown,ArrowRight"":17}","true","ArrowDown,ArrowRight","","","","original","1","","","",""
"html-keyboard-response","275","1179114","0.0-4.0-10.0-1.5","spark_pilot_2","7321","1","12","Male","","","","","","","null","<div style=""font-size:60px;"">+</div>","null","fixation","","","","","","","","","","","","","",""
"revaluation","276","1179513","0.0-4.0-10.0-0.6","spark_pilot_2","7321","1","12","Male","","false","","","","","[395.39999999990687]","./assets/img/ocean/animals/octopus.jpg","[""ArrowRight""]","second stage test","ocean","0","{""ArrowUp,ArrowLeft"":26,""ArrowUp,ArrowRight"":10,""ArrowDown,ArrowLeft"":5,""ArrowDown,ArrowRight"":17}","true","ArrowDown,ArrowRight","","","","original","1","","","",""
"html-keyboard-response","277","1180027","0.0-4.0-10.0-1.6","spark_pilot_2","7321","1","12","Male","","","","","","","null","<div style=""font-size:60px;"">+</div>","null","fixation","","","","","","","","","","","","","",""
"revaluation","278","1180394","0.0-4.0-10.0-0.7","spark_pilot_2","7321","1","12","Male","","false","","","","","[365.5]","./assets/img/ocean/animals/octopus.jpg","[""ArrowRight""]","second stage test","ocean","0","{""ArrowUp,ArrowLeft"":26,""ArrowUp,ArrowRight"":10,""ArrowDown,ArrowLeft"":5,""ArrowDown,ArrowRight"":17}","true","ArrowDown,ArrowRight","","","","original","1","","","",""
"html-keyboard-response","279","1180896","0.0-4.0-10.0-1.7","spark_pilot_2","7321","1","12","Male","","","","","","","null","<div style=""font-size:60px;"">+</div>","null","fixation","","","","","","","","","","","","","",""
"learning-instructions","280","1185555","0.0-4.0-0.1-0.2","spark_pilot_2","7321","1","12","Male","","","","","","","1889.8999999999069","<p> This time you are searching for treasure in the <b>canyon</b>.</p>","","instructions","","","","","","","","","","","","","",""
"learning-instructions","281","1203849","0.0-4.0-0.1-0.3","spark_pilot_2","7321","1","12","Male","","","","","","","1043.8999999999069","<p><b>New</b> animals with <b>new</b> treasure chests live here. You need to explore to discover where the animal with the best treasure chest is.</p>
                    <p> Like before, once you figure out which animal has the chest with the most treasure, you should try to get to that animal and select that chest! </p>","","instructions","","","","","","","","","","","","","",""
"learning-instructions","282","1225878","0.0-4.0-1.1-0.1","spark_pilot_2","7321","1","12","Male","","","","","","","7291.5","<p> Remember, when you see a picture of the place, use the up and down keys to <b>find an animal</b>.</p>
            <p> When you encounter an animal, you should use the left and right keys to <b>select a treasure chest</b>.</p>
            <p> Don't forget to look out for the robber! </p>","","instructions","","","","","","","","","","","","","",""
"revaluation","283","1231893","0.0-4.0-2.1-0.50","spark_pilot_2","7321","1","12","Male","","false","","","","","[921,488]","./assets/img/canyon/memory/29.jpg","[""ArrowUp"",""ArrowRight""]","value training","canyon","10","{""ArrowUp,ArrowLeft"":23,""ArrowUp,ArrowRight"":10,""ArrowDown,ArrowLeft"":8,""ArrowDown,ArrowRight"":30}","false","ArrowUp,ArrowRight","false","","","revaluation","2","0","","",""
"html-keyboard-response","284","1232406","0.0-4.0-2.1-1.50","spark_pilot_2","7321","1","12","Male","","","","","","","null","<div style=""font-size:60px;"">+</div>","null","fixation","","","","","","","","","","","1","","",""
"revaluation","285","1238443","0.0-4.0-2.1-0.51","spark_pilot_2","7321","1","12","Male","","false","","","","","[702.3999999999069,1015.8999999999069]","./assets/img/canyon/memory/6.jpg","[""ArrowDown"",""ArrowLeft""]","value training","canyon","8","{""ArrowUp,ArrowLeft"":23,""ArrowUp,ArrowRight"":10,""ArrowDown,ArrowLeft"":8,""ArrowDown,ArrowRight"":30}","false","ArrowDown,ArrowLeft","false","","","revaluation","2","2","","",""
"html-keyboard-response","286","1238959","0.0-4.0-2.1-1.51","spark_pilot_2","7321","1","12","Male","","","","","","","null","<div style=""font-size:60px;"">+</div>","null","fixation","","","","","","","","","","","3","","",""
"revaluation","287","1242974","0.0-4.0-2.1-0.52","spark_pilot_2","7321","1","12","Male","","false","","","","","[1278.6999999997206]","./assets/img/canyon/catch/3.jpg","[""spaceBar""]","value training","canyon","0","{""ArrowUp,ArrowLeft"":23,""ArrowUp,ArrowRight"":10,""ArrowDown,ArrowLeft"":8,""ArrowDown,ArrowRight"":30}","true","spaceBar","true","","","revaluation","2","4","","",""
"html-keyboard-response","288","1243484","0.0-4.0-2.1-1.52","spark_pilot_2","7321","1","12","Male","","","","","","","null","<div style=""font-size:60px;"">+</div>","null","fixation","","","","","","","","","","","5","","",""
"revaluation","289","1247499","0.0-4.0-2.1-0.53","spark_pilot_2","7321","1","12","Male","","false","","","","","[698.2000000001863]","./assets/img/canyon/catch/2.jpg","[""ArrowUp""]","value training","canyon","-10","{""ArrowUp,ArrowLeft"":23,""ArrowUp,ArrowRight"":10,""ArrowDown,ArrowLeft"":8,""ArrowDown,ArrowRight"":30}","false","ArrowUp","true","","","revaluation","2","6","","",""
"html-keyboard-response","290","1248001","0.0-4.0-2.1-1.53","spark_pilot_2","7321","1","12","Male","","","","","","","null","<div style=""font-size:60px;"">+</div>","null","fixation","","","","","","","","","","","7","","",""
"revaluation","291","1254005","0.0-4.0-2.1-0.54","spark_pilot_2","7321","1","12","Male","","false","","","","","[936.5,572.2999999998137]","./assets/img/canyon/memory/12.jpg","[""ArrowUp"",""ArrowLeft""]","value training","canyon","23","{""ArrowUp,ArrowLeft"":23,""ArrowUp,ArrowRight"":10,""ArrowDown,ArrowLeft"":8,""ArrowDown,ArrowRight"":30}","false","ArrowUp,ArrowLeft","false","","","revaluation","2","8","","",""
"html-keyboard-response","292","1254506","0.0-4.0-2.1-1.54","spark_pilot_2","7321","1","12","Male","","","","","","","null","<div style=""font-size:60px;"">+</div>","null","fixation","","","","","","","","","","","9","","",""
"revaluation","293","1260512","0.0-4.0-2.1-0.55","spark_pilot_2","7321","1","12","Male","","false","","","","","[783.0999999996275,306.10000000009313]","./assets/img/canyon/memory/11.jpg","[""ArrowDown"",""ArrowRight""]","value training","canyon","30","{""ArrowUp,ArrowLeft"":23,""ArrowUp,ArrowRight"":10,""ArrowDown,ArrowLeft"":8,""ArrowDown,ArrowRight"":30}","true","ArrowDown,ArrowRight","false","","","revaluation","2","10","","",""
"html-keyboard-response","294","1261014","0.0-4.0-2.1-1.55","spark_pilot_2","7321","1","12","Male","","","","","","","null","<div style=""font-size:60px;"">+</div>","null","fixation","","","","","","","","","","","11","","",""
"revaluation","295","1265021","0.0-4.0-2.1-0.56","spark_pilot_2","7321","1","12","Male","","false","","","","","[636.5]","./assets/img/canyon/catch/5.jpg","[""spaceBar""]","value training","canyon","0","{""ArrowUp,ArrowLeft"":23,""ArrowUp,ArrowRight"":10,""ArrowDown,ArrowLeft"":8,""ArrowDown,ArrowRight"":30}","true","spaceBar","true","","","revaluation","2","12","","",""
"html-keyboard-response","296","1265522","0.0-4.0-2.1-1.56","spark_pilot_2","7321","1","12","Male","","","","","","","null","<div style=""font-size:60px;"">+</div>","null","fixation","","","","","","","","","","","13","","",""
"revaluation","297","1271526","0.0-4.0-2.1-0.57","spark_pilot_2","7321","1","12","Male","","false","","","","","[544.3000000002794,342.1999999997206]","./assets/img/canyon/memory/31.jpg","[""ArrowDown"",""ArrowRight""]","value training","canyon","30","{""ArrowUp,ArrowLeft"":23,""ArrowUp,ArrowRight"":10,""ArrowDown,ArrowLeft"":8,""ArrowDown,ArrowRight"":30}","true","ArrowDown,ArrowRight","false","","","revaluation","2","14","","",""
"html-keyboard-response","298","1272029","0.0-4.0-2.1-1.57","spark_pilot_2","7321","1","12","Male","","","","","","","null","<div style=""font-size:60px;"">+</div>","null","fixation","","","","","","","","","","","15","","",""
"revaluation","299","1276037","0.0-4.0-2.1-0.58","spark_pilot_2","7321","1","12","Male","","false","","","","","[579.5]","./assets/img/canyon/catch/6.jpg","[""spaceBar""]","value training","canyon","0","{""ArrowUp,ArrowLeft"":23,""ArrowUp,ArrowRight"":10,""ArrowDown,ArrowLeft"":8,""ArrowDown,ArrowRight"":30}","true","spaceBar","true","","","revaluation","2","16","","",""
"html-keyboard-response","300","1276539","0.0-4.0-2.1-1.58","spark_pilot_2","7321","1","12","Male","","","","","","","null","<div style=""font-size:60px;"">+</div>","null","fixation","","","","","","","","","","","17","","",""
"revaluation","301","1282545","0.0-4.0-2.1-0.59","spark_pilot_2","7321","1","12","Male","","false","","","","","[621.6999999997206,446.70000000018626]","./assets/img/canyon/memory/13.jpg","[""ArrowDown"",""ArrowRight""]","value training","canyon","30","{""ArrowUp,ArrowLeft"":23,""ArrowUp,ArrowRight"":10,""ArrowDown,ArrowLeft"":8,""ArrowDown,ArrowRight"":30}","true","ArrowDown,ArrowRight","false","","","revaluation","2","18","","",""
"html-keyboard-response","302","1283048","0.0-4.0-2.1-1.59","spark_pilot_2","7321","1","12","Male","","","","","","","null","<div style=""font-size:60px;"">+</div>","null","fixation","","","","","","","","","","","19","","",""
"revaluation","303","1289054","0.0-4.0-2.1-0.60","spark_pilot_2","7321","1","12","Male","","false","","","","","[801.1000000000931,504.70000000018626]","./assets/img/canyon/memory/30.jpg","[""ArrowDown"",""ArrowRight""]","value training","canyon","30","{""ArrowUp,ArrowLeft"":23,""ArrowUp,ArrowRight"":10,""ArrowDown,ArrowLeft"":8,""ArrowDown,ArrowRight"":30}","true","ArrowDown,ArrowRight","false","","","revaluation","2","20","","",""
"html-keyboard-response","304","1289556","0.0-4.0-2.1-1.60","spark_pilot_2","7321","1","12","Male","","","","","","","null","<div style=""font-size:60px;"">+</div>","null","fixation","","","","","","","","","","","21","","",""
"revaluation","305","1295562","0.0-4.0-2.1-0.61","spark_pilot_2","7321","1","12","Male","","false","","","","","[627.7999999998137,454.10000000009313]","./assets/img/canyon/memory/22.jpg","[""ArrowDown"",""ArrowRight""]","value training","canyon","30","{""ArrowUp,ArrowLeft"":23,""ArrowUp,ArrowRight"":10,""ArrowDown,ArrowLeft"":8,""ArrowDown,ArrowRight"":30}","true","ArrowDown,ArrowRight","false","","","revaluation","2","22","","",""
"html-keyboard-response","306","1296064","0.0-4.0-2.1-1.61","spark_pilot_2","7321","1","12","Male","","","","","","","null","<div style=""font-size:60px;"">+</div>","null","fixation","","","","","","","","","","","23","","",""
"revaluation","307","1302071","0.0-4.0-2.1-0.62","spark_pilot_2","7321","1","12","Male","","false","","","","","[496.79999999981374,348.39999999990687]","./assets/img/canyon/memory/1.jpg","[""ArrowDown"",""ArrowRight""]","value training","canyon","30","{""ArrowUp,ArrowLeft"":23,""ArrowUp,ArrowRight"":10,""ArrowDown,ArrowLeft"":8,""ArrowDown,ArrowRight"":30}","true","ArrowDown,ArrowRight","false","","","revaluation","2","24","","",""
"html-keyboard-response","308","1302573","0.0-4.0-2.1-1.62","spark_pilot_2","7321","1","12","Male","","","","","","","null","<div style=""font-size:60px;"">+</div>","null","fixation","","","","","","","","","","","25","","",""
