"trial_type","trial_index","time_elapsed","internal_node_id","task_version","subject_id","assigned_condition","age","gender","browser_interaction","success","timeout","failed_images","failed_audio","failed_video","rt","stimulus","response","task_part","environment","score","rewardMap","correct","fullState","isCatch","numberMissed","duration","condition","order","trial_num","key_press","ground_truth","bonus"
"pavlovia","0","1133","0.0-0.0","spark_pilot_2","7533","4","12","Female","[{""event"":""blur"",""trial"":1,""time"":3827},{""event"":""focus"",""trial"":1,""time"":4156},{""event"":""fullscreenenter"",""trial"":2,""time"":18455}]","","","","","","","","","","","","","","","","","","","","","","",""
"preload","1","13816","0.0-1.0","spark_pilot_2","7533","4","12","Female","[{""event"":""blur"",""trial"":1,""time"":3827},{""event"":""focus"",""trial"":1,""time"":4156},{""event"":""fullscreenenter"",""trial"":2,""time"":18455}]","true","false","[]","[]","[]","","","","","","","","","","","","","","","","","",""
"fullscreen","2","19448","0.0-2.0","spark_pilot_2","7533","4","12","Female","","true","","","","","","","","","","","","","","","","","","","","","",""
"audio-button-response","3","21207","0.0-3.0-0.0-0.0","spark_pilot_2","7533","4","12","Female","","","","","","","1280","./assets/audio/audiotest/turtle.mp3","2","audio_test","","","","","","","","","","","","","",""
"learning-instructions","4","31295","0.0-3.0-1.0-0.0","spark_pilot_2","7533","4","12","Female","","","","","","","3089.3000000000466","<p> Welcome! Please remember to stay in fullscreen mode and don't click away from the experiment. </p>","","instructions","","","","","","","","","","","","","",""
"learning-instructions","5","42358","0.0-3.0-1.0-0.1","spark_pilot_2","7533","4","12","Female","","","","","","","2652.20000000007","<p> Today you will be playing a game to earn treasure. </p>
            <p> At the end of the experiment, you will earn a bonus based on how much treasure you find. </p>
            <img src='./assets/img/instructions/treasure.jpg' class='instructions-image'>","","instructions","","","","","","","","","","","","","",""
"learning-instructions","6","51284","0.0-3.0-1.0-0.2","spark_pilot_2","7533","4","12","Female","","","","","","","658.5","<p> Animals have hidden treasure in treasure chests. </p>
            <p> You need to first find an animal and then choose which of their treasure chests to search. </p>
            <img src='./assets/img/space/animals/cat.jpg' class='instructions-image'>","","instructions","","","","","","","","","","","","","",""
"learning-instructions","7","66691","0.0-3.0-1.0-0.3","spark_pilot_2","7533","4","12","Female","","","","","","","2244.9000000000233","<p> In each round, you will search for treasure in a different place. In the real game, there will be two rounds. </p>
            <p> You will begin with a separate, practice round where you will search for treasure in outer space. </p>
            <img src='./assets/img/space/0.jpg' class='instructions-image'>","","instructions","","","","","","","","","","","","","",""
"learning-instructions","8","79668","0.0-3.0-1.0-0.4","spark_pilot_2","7533","4","12","Female","","","","","","","1542.3000000000466","<p> On every turn, you will see a picture of the place that you are in, but the specific image may be different each time. </p>
            <p> For example, both of these images mean you are in outer space. </p>
            <img src='./assets/img/instructions/outerspace.jpg' class='instructions-image'>","","instructions","","","","","","","","","","","","","",""
"learning-instructions","9","89558","0.0-3.0-1.0-0.5","spark_pilot_2","7533","4","12","Female","","","","","","","2062.0999999999767","<p> You need to decide which direction to travel in. </p>
            <p> You can choose between going <b>up or down</b> by using the arrow keys. </p>
            <img src='./assets/img/instructions/updown.jpg' class='instructions-image'>","","instructions","","","","","","","","","","","","","",""
"learning-instructions","10","99793","0.0-3.0-1.0-0.6","spark_pilot_2","7533","4","12","Female","","","","","","","1418.2000000000698","<p> You will have <b>2 seconds</b> to make your choice. </p>
            <p> If you do not make a choice within 2 seconds, you will not find an animal or earn treasure. </p>
            <img src='./assets/img/instructions/2seconds.jpg' class='instructions-image'>","","instructions","","","","","","","","","","","","","",""
"learning-instructions","11","107820","0.0-3.0-1.0-0.7","spark_pilot_2","7533","4","12","Female","","","","","","","974","<p> Let’s try practicing that now! </p>
            <p> When you see a picture of the place you are in, press the <b>up</b> key to travel up. </p>
            <img src='./assets/img/instructions/pressUp.jpg' class='instructions-image'>","","instructions","","","","","","","","","","","","","",""
"revaluation","12","111854","0.0-3.0-2.0-0.0","spark_pilot_2","7533","4","12","Female","","","false","","","","[961.2000000000698]","./assets/img/space/0.jpg","[""ArrowUp""]","first stage practice","space","0","null","null","ArrowUp","false","","","","","","","",""
"html-keyboard-response","13","112369","0.0-3.0-2.0-1.0","spark_pilot_2","7533","4","12","Female","","","","","","","null","<div style=""font-size:60px;"">+</div>","null","fixation","","","","","","","","","","","","","",""
"revaluation","14","116390","0.0-3.0-2.0-0.1","spark_pilot_2","7533","4","12","Female","","","false","","","","[915.3000000000466]","./assets/img/space/1.jpg","[""ArrowUp""]","first stage practice","space","0","null","null","ArrowUp","false","","","","","","","",""
"html-keyboard-response","15","116899","0.0-3.0-2.0-1.1","spark_pilot_2","7533","4","12","Female","","","","","","","null","<div style=""font-size:60px;"">+</div>","null","fixation","","","","","","","","","","","","","",""
"revaluation","16","120926","0.0-3.0-2.0-0.2","spark_pilot_2","7533","4","12","Female","","","false","","","","[879.6999999999534]","./assets/img/space/2.jpg","[""ArrowUp""]","first stage practice","space","0","null","null","ArrowUp","false","","","","","","","",""
"html-keyboard-response","17","121439","0.0-3.0-2.0-1.2","spark_pilot_2","7533","4","12","Female","","","","","","","null","<div style=""font-size:60px;"">+</div>","null","fixation","","","","","","","","","","","","","",""
"learning-instructions","18","127651","0.0-3.0-3.0-0.0","spark_pilot_2","7533","4","12","Female","","","","","","","1504.4000000000233","<p> Great job! Now try pressing the <b>down</b> key to travel down. </p>
            <img src='./assets/img/instructions/pressDown.jpg' class='instructions-image'>","","instructions","","","","","","","","","","","","","",""
"revaluation","19","131677","0.0-3.0-4.0-0.0","spark_pilot_2","7533","4","12","Female","","","false","","","","[963.7999999999302]","./assets/img/space/3.jpg","[""ArrowDown""]","first stage practice","space","0","null","null","ArrowDown","false","","","","","","","",""
"html-keyboard-response","20","132190","0.0-3.0-4.0-1.0","spark_pilot_2","7533","4","12","Female","","","","","","","null","<div style=""font-size:60px;"">+</div>","null","fixation","","","","","","","","","","","","","",""
"revaluation","21","136211","0.0-3.0-4.0-0.1","spark_pilot_2","7533","4","12","Female","","","false","","","","[291.0999999999767]","./assets/img/space/4.jpg","[""ArrowDown""]","first stage practice","space","0","null","null","ArrowDown","false","","","","","","","",""
"html-keyboard-response","22","136719","0.0-3.0-4.0-1.1","spark_pilot_2","7533","4","12","Female","","","","","","","null","<div style=""font-size:60px;"">+</div>","null","fixation","","","","","","","","","","","","","",""
"revaluation","23","140747","0.0-3.0-4.0-0.2","spark_pilot_2","7533","4","12","Female","","","false","","","","[782.9000000000233]","./assets/img/space/5.jpg","[""ArrowDown""]","first stage practice","space","0","null","null","ArrowDown","false","","","","","","","",""
"html-keyboard-response","24","141250","0.0-3.0-4.0-1.2","spark_pilot_2","7533","4","12","Female","","","","","","","null","<div style=""font-size:60px;"">+</div>","null","fixation","","","","","","","","","","","","","",""
"learning-instructions","25","152392","0.0-3.0-5.0-0.0","spark_pilot_2","7533","4","12","Female","","","","","","","1266.4000000000233","<p> The animals don’t move, so the animal in the upper part of a place will stay in the upper part of a place, and the animal in the lower part of a place will stay in the lower part of a place. </p>","","instructions","","","","","","","","","","","","","",""
"learning-instructions","26","162685","0.0-3.0-5.0-0.1","spark_pilot_2","7533","4","12","Female","","","","","","","1149.1999999999534","<p> Each animal has two treasure chests for you to choose from. </p>
            <p> The amount of treasure in each chest can range from <b> 0 to 40 pieces.</b></p>","","instructions","","","","","","","","","","","","","",""
"learning-instructions","27","174889","0.0-3.0-5.0-0.2","spark_pilot_2","7533","4","12","Female","","","","","","","1002.6999999999534","<p> You should decide which chest to search for treasure by using the <b>left</b> and <b>right</b> arrow keys. </p>
            <p><b> Pay attention to which animal is on the screen, as the animals have different treasure chests. </b></p>
            <img src='./assets/img/instructions/leftright.jpg' class='instructions-image'>","","instructions","","","","","","","","","","","","","",""
"learning-instructions","28","183767","0.0-3.0-5.0-0.3","spark_pilot_2","7533","4","12","Female","","","","","","","2511","<p> Let’s try practicing that now. </p>
            <p> When you see an animal, choose which chest to search for treasure. </p>
            <img src='./assets/img/instructions/chooseChest.jpg' class='instructions-image'>","","instructions","","","","","","","","","","","","","",""
"revaluation","29","187789","0.0-3.0-6.0-0.0","spark_pilot_2","7533","4","12","Female","","","false","","","","[1763.8000000000466]","./assets/img/space/animals/rabbit.jpg","[""ArrowRight""]","second stage practice","space","23","{""ArrowUp,ArrowLeft"":3,""ArrowUp,ArrowRight"":36,""ArrowDown,ArrowLeft"":15,""ArrowDown,ArrowRight"":23}","true","ArrowDown,ArrowRight","","","","","","","","",""
"html-keyboard-response","30","188292","0.0-3.0-6.0-1.0","spark_pilot_2","7533","4","12","Female","","","","","","","null","<div style=""font-size:60px;"">+</div>","null","fixation","","","","","","","","","","","","","",""
"revaluation","31","192309","0.0-3.0-6.0-0.1","spark_pilot_2","7533","4","12","Female","","","false","","","","[1343.4000000000233]","./assets/img/space/animals/cat.jpg","[""ArrowLeft""]","second stage practice","space","3","{""ArrowUp,ArrowLeft"":3,""ArrowUp,ArrowRight"":36,""ArrowDown,ArrowLeft"":15,""ArrowDown,ArrowRight"":23}","false","ArrowUp,ArrowLeft","","","","","","","","",""
"html-keyboard-response","32","192812","0.0-3.0-6.0-1.1","spark_pilot_2","7533","4","12","Female","","","","","","","null","<div style=""font-size:60px;"">+</div>","null","fixation","","","","","","","","","","","","","",""
"revaluation","33","196825","0.0-3.0-6.0-0.2","spark_pilot_2","7533","4","12","Female","","","false","","","","[351.19999999995343]","./assets/img/space/animals/rabbit.jpg","[""ArrowRight""]","second stage practice","space","23","{""ArrowUp,ArrowLeft"":3,""ArrowUp,ArrowRight"":36,""ArrowDown,ArrowLeft"":15,""ArrowDown,ArrowRight"":23}","true","ArrowDown,ArrowRight","","","","","","","","",""
"html-keyboard-response","34","197340","0.0-3.0-6.0-1.2","spark_pilot_2","7533","4","12","Female","","","","","","","null","<div style=""font-size:60px;"">+</div>","null","fixation","","","","","","","","","","","","","",""
"revaluation","35","201365","0.0-3.0-6.0-0.3","spark_pilot_2","7533","4","12","Female","","","false","","","","[854.5999999999767]","./assets/img/space/animals/cat.jpg","[""ArrowRight""]","second stage practice","space","36","{""ArrowUp,ArrowLeft"":3,""ArrowUp,ArrowRight"":36,""ArrowDown,ArrowLeft"":15,""ArrowDown,ArrowRight"":23}","true","ArrowUp,ArrowRight","","","","","","","","",""
"html-keyboard-response","36","201881","0.0-3.0-6.0-1.3","spark_pilot_2","7533","4","12","Female","","","","","","","null","<div style=""font-size:60px;"">+</div>","null","fixation","","","","","","","","","","","","","",""
"learning-instructions","37","220015","0.0-3.0-7.0-0.0","spark_pilot_2","7533","4","12","Female","","","","","","","1309.5","<p> Great job. Now let’s try putting it together. </p>
            <p> On each turn, you will first see a picture to remind you of the place you are in, and you need to choose whether to go up or down. </p>
            <p> Then you will see an animal and choose which of its chests to search for treasure. </p>","","instructions","","","","","","","","","","","","","",""
"learning-instructions","38","229319","0.0-3.0-7.0-0.1","spark_pilot_2","7533","4","12","Female","","","","","","","1034.0999999999767","<p> When you choose whether to go up or down, try to go to the animal with the chest with the most treasure. </p>
            <p> Try practicing that now! </p>","","instructions","","","","","","","","","","","","","",""
"revaluation","39","235353","0.0-3.0-8.0-0.0","spark_pilot_2","7533","4","12","Female","","","false","","","","[1252.6999999999534,620.5]","./assets/img/space/6.jpg","[""ArrowUp"",""ArrowRight""]","full practice","space","36","{""ArrowUp,ArrowLeft"":3,""ArrowUp,ArrowRight"":36,""ArrowDown,ArrowLeft"":15,""ArrowDown,ArrowRight"":23}","true","ArrowUp,ArrowRight","false","","","","","","","",""
"html-keyboard-response","40","235868","0.0-3.0-8.0-1.0","spark_pilot_2","7533","4","12","Female","","","","","","","null","<div style=""font-size:60px;"">+</div>","null","fixation","","","","","","","","","","","","","",""
"revaluation","41","241897","0.0-3.0-8.0-0.1","spark_pilot_2","7533","4","12","Female","","","false","","","","[908.5,999.3000000000466]","./assets/img/space/7.jpg","[""ArrowDown"",""ArrowLeft""]","full practice","space","15","{""ArrowUp,ArrowLeft"":3,""ArrowUp,ArrowRight"":36,""ArrowDown,ArrowLeft"":15,""ArrowDown,ArrowRight"":23}","false","ArrowDown,ArrowLeft","false","","","","","","","",""
"html-keyboard-response","42","242402","0.0-3.0-8.0-1.1","spark_pilot_2","7533","4","12","Female","","","","","","","null","<div style=""font-size:60px;"">+</div>","null","fixation","","","","","","","","","","","","","",""
"revaluation","43","248432","0.0-3.0-8.0-0.2","spark_pilot_2","7533","4","12","Female","","","false","","","","[1326.8000000000466,581.5]","./assets/img/space/8.jpg","[""ArrowUp"",""ArrowRight""]","full practice","space","36","{""ArrowUp,ArrowLeft"":3,""ArrowUp,ArrowRight"":36,""ArrowDown,ArrowLeft"":15,""ArrowDown,ArrowRight"":23}","true","ArrowUp,ArrowRight","false","","","","","","","",""
"html-keyboard-response","44","248944","0.0-3.0-8.0-1.2","spark_pilot_2","7533","4","12","Female","","","","","","","null","<div style=""font-size:60px;"">+</div>","null","fixation","","","","","","","","","","","","","",""
"revaluation","45","254982","0.0-3.0-8.0-0.3","spark_pilot_2","7533","4","12","Female","","","false","","","","[1160.8000000000466,675.5999999999767]","./assets/img/space/9.jpg","[""ArrowUp"",""ArrowRight""]","full practice","space","36","{""ArrowUp,ArrowLeft"":3,""ArrowUp,ArrowRight"":36,""ArrowDown,ArrowLeft"":15,""ArrowDown,ArrowRight"":23}","true","ArrowUp,ArrowRight","false","","","","","","","",""
"html-keyboard-response","46","255491","0.0-3.0-8.0-1.3","spark_pilot_2","7533","4","12","Female","","","","","","","null","<div style=""font-size:60px;"">+</div>","null","fixation","","","","","","","","","","","","","",""
"revaluation","47","261504","0.0-3.0-8.0-0.4","spark_pilot_2","7533","4","12","Female","","","false","","","","[865.4000000000233,514.0999999999767]","./assets/img/space/10.jpg","[""ArrowDown"",""ArrowRight""]","full practice","space","23","{""ArrowUp,ArrowLeft"":3,""ArrowUp,ArrowRight"":36,""ArrowDown,ArrowLeft"":15,""ArrowDown,ArrowRight"":23}","false","ArrowDown,ArrowRight","false","","","","","","","",""
"html-keyboard-response","48","262018","0.0-3.0-8.0-1.4","spark_pilot_2","7533","4","12","Female","","","","","","","null","<div style=""font-size:60px;"">+</div>","null","fixation","","","","","","","","","","","","","",""
"learning-instructions","49","273890","0.0-3.0-9.0-0.0","spark_pilot_2","7533","4","12","Female","","","","","","","1560.0999999999767","<p> One last thing: sometimes, you will see a robber. The robber can be anywhere in the picture. </p>
            <p> If you do not stop them, you will lose treasure. </p>
            <img src='./assets/img/instructions/robber.jpg' class='instructions-image'>","","instructions","","","","","","","","","","","","","",""
"learning-instructions","50","283007","0.0-3.0-9.0-0.1","spark_pilot_2","7533","4","12","Female","","","","","","","1938.0999999999767","<p> If you see the robber, you should <b>press the space bar</b> rather than using the arrow keys. </p>
            <p> Try practicing that now! </p>","","instructions","","","","","","","","","","","","","",""
"revaluation","51","287031","0.0-3.0-10.0-0.0","spark_pilot_2","7533","4","12","Female","","","true","","","","[]","./assets/img/space/catch/0.jpg","[]","catch practice","space","-5","{""ArrowUp,ArrowLeft"":3,""ArrowUp,ArrowRight"":36,""ArrowDown,ArrowLeft"":15,""ArrowDown,ArrowRight"":23}","false","","true","","","","","","","",""
"html-keyboard-response","52","287545","0.0-3.0-10.0-1.0","spark_pilot_2","7533","4","12","Female","","","","","","","null","<div style=""font-size:60px;"">+</div>","null","fixation","","","","","","","","","","","","","",""
"revaluation","53","291570","0.0-3.0-10.0-0.1","spark_pilot_2","7533","4","12","Female","","","false","","","","[595]","./assets/img/space/catch/1.jpg","[""spaceBar""]","catch practice","space","0","{""ArrowUp,ArrowLeft"":3,""ArrowUp,ArrowRight"":36,""ArrowDown,ArrowLeft"":15,""ArrowDown,ArrowRight"":23}","true","spaceBar","true","","","","","","","",""
"html-keyboard-response","54","292082","0.0-3.0-10.0-1.1","spark_pilot_2","7533","4","12","Female","","","","","","","null","<div style=""font-size:60px;"">+</div>","null","fixation","","","","","","","","","","","","","",""
"revaluation","55","296099","0.0-3.0-10.0-0.2","spark_pilot_2","7533","4","12","Female","","","false","","","","[424.80000000004657]","./assets/img/space/catch/2.jpg","[""spaceBar""]","catch practice","space","0","{""ArrowUp,ArrowLeft"":3,""ArrowUp,ArrowRight"":36,""ArrowDown,ArrowLeft"":15,""ArrowDown,ArrowRight"":23}","true","spaceBar","true","","","","","","","",""
"html-keyboard-response","56","296611","0.0-3.0-10.0-1.2","spark_pilot_2","7533","4","12","Female","","","","","","","null","<div style=""font-size:60px;"">+</div>","null","fixation","","","","","","","","","","","","","",""
"learning-instructions","57","311148","0.0-3.0-11.0-0.0","spark_pilot_2","7533","4","12","Female","","","","","","","938","<p> After you explore a place to find treasure, it will be time to play a different game. </p>
            <p> During this game, red dots will appear on the screen and fall down slowly. </p>
            <p><b> You must click on them before they reach the bottom. </b></p>
            <img src='./assets/img/instructions/dotGame.jpg' class='instructions-image'>","","instructions","","","","","","","","","","","","","",""
"learning-instructions","58","317585","0.0-3.0-11.0-0.1","spark_pilot_2","7533","4","12","Female","","","","","","","675.8000000000466","<p> For every dot you click, you will earn additional treasure. </p>
            <p> Let’s try practicing that now. </p>","","instructions","","","","","","","","","","","","","",""
"revaluation","59","332596","0.0-3.0-12.0-0.0","spark_pilot_2","7533","4","12","Female","","","","","","","[88]","","","rest practice","","10","","","","","0","15000","","","","","",""
"learning-instructions","60","339075","0.0-3.0-13.0-0.0-0.0","spark_pilot_2","7533","4","12","Female","","","","","","","1226.6999999999534","<p> Now, you will practice a shortened version of the game to get a sense of how it all fits together. </p>","","instructions","","","","","","","","","","","","","",""
"learning-instructions","61","342913","0.0-3.0-13.0-0.0-0.1","spark_pilot_2","7533","4","12","Female","","","","","","","644.5999999999767","<p>This time you are searching for treasure in outer space.</p>","","instructions","","","","","","","","","","","","","",""
"learning-instructions","62","359310","0.0-3.0-13.0-1.0-0.0","spark_pilot_2","7533","4","12","Female","","","","","","","1620.5","<p> Remember, when you see a picture of the place, use the up and down keys to <b>find an animal</b>.</p>
            <p> When you encounter an animal, you should use the left and right keys to <b>select a treasure chest</b>.</p>
            <p> Don't forget to look out for the robber! </p>","","instructions","","","","","","","","","","","","","",""
"revaluation","63","365340","0.0-3.0-13.0-2.0-0.0","spark_pilot_2","7533","4","12","Female","","","false","","","","[952.7000000000698,476.60000000009313]","./assets/img/space/11.jpg","[""ArrowUp"",""ArrowRight""]","practice block","space","36","{""ArrowUp,ArrowLeft"":3,""ArrowUp,ArrowRight"":36,""ArrowDown,ArrowLeft"":15,""ArrowDown,ArrowRight"":23}","true","ArrowUp,ArrowRight","false","","","","","","","",""
"html-keyboard-response","64","365850","0.0-3.0-13.0-2.0-1.0","spark_pilot_2","7533","4","12","Female","","","","","","","null","<div style=""font-size:60px;"">+</div>","null","fixation","","","","","","","","","","","","","",""
"revaluation","65","371881","0.0-3.0-13.0-2.0-0.1","spark_pilot_2","7533","4","12","Female","","","false","","","","[1061.6999999999534,1010.5999999999767]","./assets/img/space/12.jpg","[""ArrowDown"",""ArrowRight""]","practice block","space","23","{""ArrowUp,ArrowLeft"":3,""ArrowUp,ArrowRight"":36,""ArrowDown,ArrowLeft"":15,""ArrowDown,ArrowRight"":23}","false","ArrowDown,ArrowRight","false","","","","","","","",""
"html-keyboard-response","66","372392","0.0-3.0-13.0-2.0-1.1","spark_pilot_2","7533","4","12","Female","","","","","","","null","<div style=""font-size:60px;"">+</div>","null","fixation","","","","","","","","","","","","","",""
"revaluation","67","378422","0.0-3.0-13.0-2.0-0.2","spark_pilot_2","7533","4","12","Female","","","false","","","","[841.2000000000698,387.4000000000233]","./assets/img/space/13.jpg","[""ArrowUp"",""ArrowRight""]","practice block","space","36","{""ArrowUp,ArrowLeft"":3,""ArrowUp,ArrowRight"":36,""ArrowDown,ArrowLeft"":15,""ArrowDown,ArrowRight"":23}","true","ArrowUp,ArrowRight","false","","","","","","","",""
"html-keyboard-response","68","378928","0.0-3.0-13.0-2.0-1.2","spark_pilot_2","7533","4","12","Female","","","","","","","null","<div style=""font-size:60px;"">+</div>","null","fixation","","","","","","","","","","","","","",""
"revaluation","69","384953","0.0-3.0-13.0-2.0-0.3","spark_pilot_2","7533","4","12","Female","","","false","","","","[886.9000000000233,629.2999999999302]","./assets/img/space/14.jpg","[""ArrowUp"",""ArrowRight""]","practice block","space","36","{""ArrowUp,ArrowLeft"":3,""ArrowUp,ArrowRight"":36,""ArrowDown,ArrowLeft"":15,""ArrowDown,ArrowRight"":23}","true","ArrowUp,ArrowRight","false","","","","","","","",""
"html-keyboard-response","70","385467","0.0-3.0-13.0-2.0-1.3","spark_pilot_2","7533","4","12","Female","","","","","","","null","<div style=""font-size:60px;"">+</div>","null","fixation","","","","","","","","","","","","","",""
"revaluation","71","391488","0.0-3.0-13.0-2.0-0.4","spark_pilot_2","7533","4","12","Female","","","false","","","","[823.9000000000233,924.5]","./assets/img/space/11.jpg","[""ArrowUp"",""ArrowRight""]","practice block","space","36","{""ArrowUp,ArrowLeft"":3,""ArrowUp,ArrowRight"":36,""ArrowDown,ArrowLeft"":15,""ArrowDown,ArrowRight"":23}","true","ArrowUp,ArrowRight","false","","","","","","","",""
"html-keyboard-response","72","391989","0.0-3.0-13.0-2.0-1.4","spark_pilot_2","7533","4","12","Female","","","","","","","null","<div style=""font-size:60px;"">+</div>","null","fixation","","","","","","","","","","","","","",""
"revaluation","73","396002","0.0-3.0-13.0-2.0-0.5","spark_pilot_2","7533","4","12","Female","","","true","","","","[]","./assets/img/space/12.jpg","[]","practice block","space","-5","{""ArrowUp,ArrowLeft"":3,""ArrowUp,ArrowRight"":36,""ArrowDown,ArrowLeft"":15,""ArrowDown,ArrowRight"":23}","false","","false","","","","","","","",""
"html-keyboard-response","74","396503","0.0-3.0-13.0-2.0-1.5","spark_pilot_2","7533","4","12","Female","","","","","","","null","<div style=""font-size:60px;"">+</div>","null","fixation","","","","","","","","","","","","","",""
"revaluation","75","402509","0.0-3.0-13.0-2.0-0.6","spark_pilot_2","7533","4","12","Female","","","false","","","","[581.1999999999534,883.4000000000233]","./assets/img/space/13.jpg","[""ArrowUp"",""ArrowRight""]","practice block","space","36","{""ArrowUp,ArrowLeft"":3,""ArrowUp,ArrowRight"":36,""ArrowDown,ArrowLeft"":15,""ArrowDown,ArrowRight"":23}","true","ArrowUp,ArrowRight","false","","","","","","","",""
"html-keyboard-response","76","403012","0.0-3.0-13.0-2.0-1.6","spark_pilot_2","7533","4","12","Female","","","","","","","null","<div style=""font-size:60px;"">+</div>","null","fixation","","","","","","","","","","","","","",""
"revaluation","77","409018","0.0-3.0-13.0-2.0-0.7","spark_pilot_2","7533","4","12","Female","","","false","","","","[900,564.8000000000466]","./assets/img/space/14.jpg","[""ArrowDown"",""ArrowRight""]","practice block","space","23","{""ArrowUp,ArrowLeft"":3,""ArrowUp,ArrowRight"":36,""ArrowDown,ArrowLeft"":15,""ArrowDown,ArrowRight"":23}","false","ArrowDown,ArrowRight","false","","","","","","","",""
"html-keyboard-response","78","409520","0.0-3.0-13.0-2.0-1.7","spark_pilot_2","7533","4","12","Female","","","","","","","null","<div style=""font-size:60px;"">+</div>","null","fixation","","","","","","","","","","","","","",""
"revaluation","79","413525","0.0-3.0-13.0-2.0-0.8","spark_pilot_2","7533","4","12","Female","","","false","","","","[966.6999999999534]","./assets/img/space/catch/3.jpg","[""spaceBar""]","practice block","space","0","{""ArrowUp,ArrowLeft"":3,""ArrowUp,ArrowRight"":36,""ArrowDown,ArrowLeft"":15,""ArrowDown,ArrowRight"":23}","true","spaceBar","true","","","","","","","",""
"html-keyboard-response","80","414028","0.0-3.0-13.0-2.0-1.8","spark_pilot_2","7533","4","12","Female","","","","","","","null","<div style=""font-size:60px;"">+</div>","null","fixation","","","","","","","","","","","","","",""
"learning-instructions","81","430566","0.0-3.0-13.0-3.0-0.0","spark_pilot_2","7533","4","12","Female","","","","","","","3125.3000000000466","<p> Now, you will travel with a friend who will choose whether you go up or down first. </p>
            <p> On these turns, you will just see the animal that they found. You will still get to choose which chest to search for treasure.</p>","","instructions","","","","","","","","","","","","","",""
"revaluation","82","434591","0.0-3.0-13.0-4.0-0.0","spark_pilot_2","7533","4","12","Female","","","false","","","","[1132.9000000000233]","./assets/img/space/animals/rabbit.jpg","[""ArrowRight""]","practice block","space","23","{""ArrowUp,ArrowLeft"":3,""ArrowUp,ArrowRight"":36,""ArrowDown,ArrowLeft"":15,""ArrowDown,ArrowRight"":23}","true","ArrowDown,ArrowRight","","","","","","","","",""
"html-keyboard-response","83","435097","0.0-3.0-13.0-4.0-1.0","spark_pilot_2","7533","4","12","Female","","","","","","","null","<div style=""font-size:60px;"">+</div>","null","fixation","","","","","","","","","","","","","",""
"revaluation","84","439104","0.0-3.0-13.0-4.0-0.1","spark_pilot_2","7533","4","12","Female","","","false","","","","[421.4000000000233]","./assets/img/space/animals/cat.jpg","[""ArrowRight""]","practice block","space","36","{""ArrowUp,ArrowLeft"":3,""ArrowUp,ArrowRight"":36,""ArrowDown,ArrowLeft"":15,""ArrowDown,ArrowRight"":23}","true","ArrowUp,ArrowRight","","","","","","","","",""
"html-keyboard-response","85","439617","0.0-3.0-13.0-4.0-1.1","spark_pilot_2","7533","4","12","Female","","","","","","","null","<div style=""font-size:60px;"">+</div>","null","fixation","","","","","","","","","","","","","",""
"revaluation","86","443640","0.0-3.0-13.0-4.0-0.2","spark_pilot_2","7533","4","12","Female","","","false","","","","[646.1999999999534]","./assets/img/space/animals/rabbit.jpg","[""ArrowLeft""]","practice block","space","15","{""ArrowUp,ArrowLeft"":3,""ArrowUp,ArrowRight"":36,""ArrowDown,ArrowLeft"":15,""ArrowDown,ArrowRight"":23}","false","ArrowDown,ArrowLeft","","","","","","","","",""
"html-keyboard-response","87","444156","0.0-3.0-13.0-4.0-1.2","spark_pilot_2","7533","4","12","Female","","","","","","","null","<div style=""font-size:60px;"">+</div>","null","fixation","","","","","","","","","","","","","",""
"revaluation","88","448174","0.0-3.0-13.0-4.0-0.3","spark_pilot_2","7533","4","12","Female","","","false","","","","[421.5]","./assets/img/space/animals/cat.jpg","[""ArrowLeft""]","practice block","space","3","{""ArrowUp,ArrowLeft"":3,""ArrowUp,ArrowRight"":36,""ArrowDown,ArrowLeft"":15,""ArrowDown,ArrowRight"":23}","false","ArrowUp,ArrowLeft","","","","","","","","",""
"html-keyboard-response","89","448689","0.0-3.0-13.0-4.0-1.3","spark_pilot_2","7533","4","12","Female","","","","","","","null","<div style=""font-size:60px;"">+</div>","null","fixation","","","","","","","","","","","","","",""
"learning-instructions","90","456782","0.0-3.0-13.0-5.0-0.0","spark_pilot_2","7533","4","12","Female","","","","","","","710.2999999999302","<p> Time to play the dot game! </p>
            <p> For 15 seconds, click the red dots on the following screen as they appear. </p>","","instructions","","","","","","","","","","","","","",""
"revaluation","91","471795","0.0-3.0-13.0-6.0-0.0","spark_pilot_2","7533","4","12","Female","","","","","","","[140]","","","rest practice","","10","","","","","0","15000","","","","","",""
"learning-instructions","92","479086","0.0-3.0-13.0-7.0-0.0","spark_pilot_2","7533","4","12","Female","","","","","","","1165.2000000000698","<p> You have almost finished this part of the game! </p>
            <p> We are going to ask you to make a few more choices. </p>","","instructions","","","","","","","","","","","","","",""
"learning-instructions","93","494115","0.0-3.0-13.0-7.0-0.1","spark_pilot_2","7533","4","12","Female","","","","","","","1003","<p> First, you need to decide whether to go up or down. When you see each picture, use the arrow keys to make your choice. </p>
            <p><b>You will not see which animal you found, but try to get to the one that will give you the most treasure.</b></p>","","instructions","","","","","","","","","","","","","",""
"revaluation","94","494806","0.0-3.0-13.0-8.0","spark_pilot_2","7533","4","12","Female","","","false","","","","[687.5999999999767]","./assets/img/space/15.jpg","[""ArrowUp""]","practice block","space","0","{""ArrowUp,ArrowLeft"":3,""ArrowUp,ArrowRight"":36,""ArrowDown,ArrowLeft"":15,""ArrowDown,ArrowRight"":23}","true","ArrowUp","false","","","","","","","",""
"html-keyboard-response","95","495314","0.0-3.0-13.0-9.0","spark_pilot_2","7533","4","12","Female","","","","","","","null","<div style=""font-size:60px;"">+</div>","null","fixation","","","","","","","","","","","","","",""
"learning-instructions","96","507492","0.0-3.0-13.0-10.0-0.0","spark_pilot_2","7533","4","12","Female","","","","","","","780.5999999999767","<p> Now you will see the animals again and can search their chests for treasure. </p>
            <p> This time, you will not see how much treasure you earned, but you will earn more bonus money for making better choices. </p>","","instructions","","","","","","","","","","","","","",""
"revaluation","97","508408","0.0-3.0-13.0-11.0-0.0","spark_pilot_2","7533","4","12","Female","","","false","","","","[912.9000000000233]","./assets/img/space/animals/cat.jpg","[""ArrowRight""]","practice block","space","0","{""ArrowUp,ArrowLeft"":3,""ArrowUp,ArrowRight"":36,""ArrowDown,ArrowLeft"":15,""ArrowDown,ArrowRight"":23}","true","ArrowUp,ArrowRight","","","","","","","","",""
"html-keyboard-response","98","508912","0.0-3.0-13.0-11.0-1.0","spark_pilot_2","7533","4","12","Female","","","","","","","null","<div style=""font-size:60px;"">+</div>","null","fixation","","","","","","","","","","","","","",""
"revaluation","99","509945","0.0-3.0-13.0-11.0-0.1","spark_pilot_2","7533","4","12","Female","","","false","","","","[1029.6999999999534]","./assets/img/space/animals/rabbit.jpg","[""ArrowRight""]","practice block","space","0","{""ArrowUp,ArrowLeft"":3,""ArrowUp,ArrowRight"":36,""ArrowDown,ArrowLeft"":15,""ArrowDown,ArrowRight"":23}","true","ArrowDown,ArrowRight","","","","","","","","",""
"html-keyboard-response","100","510453","0.0-3.0-13.0-11.0-1.1","spark_pilot_2","7533","4","12","Female","","","","","","","null","<div style=""font-size:60px;"">+</div>","null","fixation","","","","","","","","","","","","","",""
"learning-instructions","101","515642","0.0-3.0-14.0-0.0","spark_pilot_2","7533","4","12","Female","","","","","","","599.8999999999069","<p> Before you start, we're going to ask you a few questions about how the game works. </p>","","instructions","","","","","","","","","","","","","",""
"comp-q","102","522519","0.0-3.0-15.0-0.0-0.0","spark_pilot_2","7533","4","12","Female","","","","","","","1285.3000000000466","<p> <b> True or False? </b> </p>
            <p> There can be 50 pieces of treasure in a given animal's chest. </p>","0","comp_question","","","","false","","","","","","","","","",""
"comp-q","103","531053","0.0-3.0-15.0-0.0-1.0","spark_pilot_2","7533","4","12","Female","","","","","","","2011.1000000000931","<p> <b>Incorrect.</b> The amount of treasure in each chest can range from 0 to 40 pieces. </p>","0","comp_answer","","","","","","","","","","","","","",""
"comp-q","104","537551","0.0-3.0-15.0-0.1-0.1","spark_pilot_2","7533","4","12","Female","","","","","","","939.1999999999534","<p> <b> True or False? </b> </p>
            <p> There can be 50 pieces of treasure in a given animal's chest. </p>","1","comp_question","","","","true","","","","","","","","","",""
"comp-q","105","544932","0.0-3.0-15.0-0.1-1.1","spark_pilot_2","7533","4","12","Female","","","","","","","720.2999999998137","<p> <b> That's right! </b> The amount of treasure in each chest can range from 0 to 40 pieces. </p>","0","comp_answer","","","","","","","","","","","","","",""
"comp-q","106","554617","0.0-3.0-15.0-0.2-0.2","spark_pilot_2","7533","4","12","Female","","","","","","","2564.6999999999534","<p> <b> True or False? </b> </p><p> In this game, all animals have the same amount of treasure in their left and right chests. </p>","1","comp_question","","","","true","","","","","","","","","",""
"comp-q","107","561001","0.0-3.0-15.0-0.2-1.2","spark_pilot_2","7533","4","12","Female","","","","","","","1149","<p> <b> That's right! </b> Animals have different amounts of treasure in their treasure chests. </p>","0","comp_answer","","","","","","","","","","","","","",""
"comp-q","108","567546","0.0-3.0-15.0-0.3-0.3","spark_pilot_2","7533","4","12","Female","","","","","","","704.3999999999069","<p> <b> True or False? </b> </p><p> The same animal will always be there if you go up in the same place. </p>","0","comp_question","","","","true","","","","","","","","","",""
"comp-q","109","576582","0.0-3.0-15.0-0.3-1.3","spark_pilot_2","7533","4","12","Female","","","","","","","2579.600000000093","<p> <b> That's right! </b> One animal lives in the upper part and one lives in the lower part of every place. </p>","0","comp_answer","","","","","","","","","","","","","",""
"comp-q","110","582854","0.0-3.0-15.0-0.4-0.4","spark_pilot_2","7533","4","12","Female","","","","","","","742.1999999999534","<p> <b> True or False? </b> </p><p> If you see a different picture, it means you are in a new place. </p>","0","comp_question","","","","false","","","","","","","","","",""
"comp-q","111","595659","0.0-3.0-15.0-0.4-1.4","spark_pilot_2","7533","4","12","Female","","","","","","","1697.5","<p> <b>Incorrect.</b> Lots of different images may show the same place. For example,  you may see three different images that all remind you that you are in outer space. </p>","0","comp_answer","","","","","","","","","","","","","",""
"comp-q","112","601937","0.0-3.0-15.0-0.5-0.5","spark_pilot_2","7533","4","12","Female","","","","","","","775.1999999999534","<p> <b> True or False? </b> </p><p> If you see a different picture, it means you are in a new place. </p>","1","comp_question","","","","true","","","","","","","","","",""
"comp-q","113","614023","0.0-3.0-15.0-0.5-1.5","spark_pilot_2","7533","4","12","Female","","","","","","","851.7999999998137","<p> <b> That's right! </b> Lots of different images may show the same place. For example,  you may see three different images that all remind you that you are in outer space. </p>","0","comp_answer","","","","","","","","","","","","","",""
"learning-instructions","114","625884","0.0-3.0-16.0-0.0","spark_pilot_2","7533","4","12","Female","","","","","","","1892.7999999998137","<p> Good job. Remember to do your best because the amount of treasure you earn will be converted into bonus money. </p>
            <p> It’s time to start the real game! </p>","","instructions","","","","","","","","","","","","","",""
"learning-instructions","115","629294","0.0-4.0-0.0-0.0","spark_pilot_2","7533","4","12","Female","","","","","","","703","<p> This time you are searching for treasure in the <b>ocean</b>.</p>","","instructions","","","","","","","","","","","","","",""
"learning-instructions","116","647309","0.0-4.0-0.0-0.1","spark_pilot_2","7533","4","12","Female","","","","","","","707.8000000000466","<p><b>New</b> animals with <b>new</b> treasure chests live here. You need to explore to discover where the animal with the best treasure chest is.</p>
                    <p> Like before, once you figure out which animal has the chest with the most treasure, you should try to get to that animal and select that chest! </p>","","instructions","","","","","","","","","","","","","",""
"learning-instructions","117","662850","0.0-4.0-1.0-0.0","spark_pilot_2","7533","4","12","Female","","","","","","","819.0999999998603","<p> Remember, when you see a picture of the place, use the up and down keys to <b>find an animal</b>.</p>
            <p> When you encounter an animal, you should use the left and right keys to <b>select a treasure chest</b>.</p>
            <p> Don't forget to look out for the robber! </p>","","instructions","","","","","","","","","","","","","",""
"revaluation","118","668886","0.0-4.0-2.0-0.0","spark_pilot_2","7533","4","12","Female","","","false","","","","[1335,1125]","./assets/img/ocean/memory/10.jpg","[""ArrowUp"",""ArrowLeft""]","value training","ocean","26","{""ArrowUp,ArrowLeft"":26,""ArrowUp,ArrowRight"":10,""ArrowDown,ArrowLeft"":5,""ArrowDown,ArrowRight"":17}","true","ArrowUp,ArrowLeft","false","","","revaluation","1","0","","",""
"html-keyboard-response","119","669399","0.0-4.0-2.0-1.0","spark_pilot_2","7533","4","12","Female","","","","","","","null","<div style=""font-size:60px;"">+</div>","null","fixation","","","","","","","","","","","1","","",""
"revaluation","120","673416","0.0-4.0-2.0-0.1","spark_pilot_2","7533","4","12","Female","","","false","","","","[1353.3000000000466]","./assets/img/ocean/catch/2.jpg","[""spaceBar""]","value training","ocean","0","{""ArrowUp,ArrowLeft"":26,""ArrowUp,ArrowRight"":10,""ArrowDown,ArrowLeft"":5,""ArrowDown,ArrowRight"":17}","true","spaceBar","true","","","revaluation","1","2","","",""
"html-keyboard-response","121","673929","0.0-4.0-2.0-1.1","spark_pilot_2","7533","4","12","Female","","","","","","","null","<div style=""font-size:60px;"">+</div>","null","fixation","","","","","","","","","","","3","","",""
"revaluation","122","679971","0.0-4.0-2.0-0.2","spark_pilot_2","7533","4","12","Female","","","false","","","","[782.5,626.5]","./assets/img/ocean/memory/37.jpg","[""ArrowDown"",""ArrowLeft""]","value training","ocean","5","{""ArrowUp,ArrowLeft"":26,""ArrowUp,ArrowRight"":10,""ArrowDown,ArrowLeft"":5,""ArrowDown,ArrowRight"":17}","false","ArrowDown,ArrowLeft","false","","","revaluation","1","4","","",""
"html-keyboard-response","123","680486","0.0-4.0-2.0-1.2","spark_pilot_2","7533","4","12","Female","","","","","","","null","<div style=""font-size:60px;"">+</div>","null","fixation","","","","","","","","","","","5","","",""
"revaluation","124","684507","0.0-4.0-2.0-0.3","spark_pilot_2","7533","4","12","Female","","","false","","","","[900.5]","./assets/img/ocean/catch/5.jpg","[""ArrowUp""]","value training","ocean","-10","{""ArrowUp,ArrowLeft"":26,""ArrowUp,ArrowRight"":10,""ArrowDown,ArrowLeft"":5,""ArrowDown,ArrowRight"":17}","false","ArrowUp","true","","","revaluation","1","6","","",""
"html-keyboard-response","125","685024","0.0-4.0-2.0-1.3","spark_pilot_2","7533","4","12","Female","","","","","","","null","<div style=""font-size:60px;"">+</div>","null","fixation","","","","","","","","","","","7","","",""
"revaluation","126","691049","0.0-4.0-2.0-0.4","spark_pilot_2","7533","4","12","Female","","","false","","","","[868.5,612.6999999999534]","./assets/img/ocean/memory/6.jpg","[""ArrowUp"",""ArrowRight""]","value training","ocean","10","{""ArrowUp,ArrowLeft"":26,""ArrowUp,ArrowRight"":10,""ArrowDown,ArrowLeft"":5,""ArrowDown,ArrowRight"":17}","false","ArrowUp,ArrowRight","false","","","revaluation","1","8","","",""
"html-keyboard-response","127","691562","0.0-4.0-2.0-1.4","spark_pilot_2","7533","4","12","Female","","","","","","","null","<div style=""font-size:60px;"">+</div>","null","fixation","","","","","","","","","","","9","","",""
"revaluation","128","697568","0.0-4.0-2.0-0.5","spark_pilot_2","7533","4","12","Female","","","false","","","","[795.8000000000466,1342.2000000001863]","./assets/img/ocean/memory/5.jpg","[""ArrowDown"",""ArrowLeft""]","value training","ocean","5","{""ArrowUp,ArrowLeft"":26,""ArrowUp,ArrowRight"":10,""ArrowDown,ArrowLeft"":5,""ArrowDown,ArrowRight"":17}","false","ArrowDown,ArrowLeft","false","","","revaluation","1","10","","",""
"html-keyboard-response","129","698077","0.0-4.0-2.0-1.5","spark_pilot_2","7533","4","12","Female","","","","","","","null","<div style=""font-size:60px;"">+</div>","null","fixation","","","","","","","","","","","11","","",""
"revaluation","130","702092","0.0-4.0-2.0-0.6","spark_pilot_2","7533","4","12","Female","","","false","","","","[674.1000000000931]","./assets/img/ocean/catch/7.jpg","[""spaceBar""]","value training","ocean","0","{""ArrowUp,ArrowLeft"":26,""ArrowUp,ArrowRight"":10,""ArrowDown,ArrowLeft"":5,""ArrowDown,ArrowRight"":17}","true","spaceBar","true","","","revaluation","1","12","","",""
"html-keyboard-response","131","702594","0.0-4.0-2.0-1.6","spark_pilot_2","7533","4","12","Female","","","","","","","null","<div style=""font-size:60px;"">+</div>","null","fixation","","","","","","","","","","","13","","",""
"revaluation","132","708599","0.0-4.0-2.0-0.7","spark_pilot_2","7533","4","12","Female","","","false","","","","[326.5,650.8999999999069]","./assets/img/ocean/memory/13.jpg","[""ArrowUp"",""ArrowRight""]","value training","ocean","10","{""ArrowUp,ArrowLeft"":26,""ArrowUp,ArrowRight"":10,""ArrowDown,ArrowLeft"":5,""ArrowDown,ArrowRight"":17}","false","ArrowUp,ArrowRight","false","","","revaluation","1","14","","",""
"html-keyboard-response","133","709116","0.0-4.0-2.0-1.7","spark_pilot_2","7533","4","12","Female","","","","","","","null","<div style=""font-size:60px;"">+</div>","null","fixation","","","","","","","","","","","15","","",""
"revaluation","134","713121","0.0-4.0-2.0-0.8","spark_pilot_2","7533","4","12","Female","","","false","","","","[734.8000000000466]","./assets/img/ocean/catch/3.jpg","[""spaceBar""]","value training","ocean","0","{""ArrowUp,ArrowLeft"":26,""ArrowUp,ArrowRight"":10,""ArrowDown,ArrowLeft"":5,""ArrowDown,ArrowRight"":17}","true","spaceBar","true","","","revaluation","1","16","","",""
"html-keyboard-response","135","713623","0.0-4.0-2.0-1.8","spark_pilot_2","7533","4","12","Female","","","","","","","null","<div style=""font-size:60px;"">+</div>","null","fixation","","","","","","","","","","","17","","",""
"revaluation","136","719628","0.0-4.0-2.0-0.9","spark_pilot_2","7533","4","12","Female","","","false","","","","[670.8000000000466,537.7999999998137]","./assets/img/ocean/memory/4.jpg","[""ArrowDown"",""ArrowRight""]","value training","ocean","17","{""ArrowUp,ArrowLeft"":26,""ArrowUp,ArrowRight"":10,""ArrowDown,ArrowLeft"":5,""ArrowDown,ArrowRight"":17}","false","ArrowDown,ArrowRight","false","","","revaluation","1","18","","",""
"html-keyboard-response","137","720131","0.0-4.0-2.0-1.9","spark_pilot_2","7533","4","12","Female","","","","","","","null","<div style=""font-size:60px;"">+</div>","null","fixation","","","","","","","","","","","19","","",""
"revaluation","138","726137","0.0-4.0-2.0-0.10","spark_pilot_2","7533","4","12","Female","","","false","","","","[944.3000000000466,1432.8000000000466]","./assets/img/ocean/memory/3.jpg","[""ArrowUp"",""ArrowLeft""]","value training","ocean","26","{""ArrowUp,ArrowLeft"":26,""ArrowUp,ArrowRight"":10,""ArrowDown,ArrowLeft"":5,""ArrowDown,ArrowRight"":17}","true","ArrowUp,ArrowLeft","false","","","revaluation","1","20","","",""
"html-keyboard-response","139","726639","0.0-4.0-2.0-1.10","spark_pilot_2","7533","4","12","Female","","","","","","","null","<div style=""font-size:60px;"">+</div>","null","fixation","","","","","","","","","","","21","","",""
"revaluation","140","732646","0.0-4.0-2.0-0.11","spark_pilot_2","7533","4","12","Female","","","false","","","","[912.3000000000466,345.9000000001397]","./assets/img/ocean/memory/27.jpg","[""ArrowUp"",""ArrowLeft""]","value training","ocean","26","{""ArrowUp,ArrowLeft"":26,""ArrowUp,ArrowRight"":10,""ArrowDown,ArrowLeft"":5,""ArrowDown,ArrowRight"":17}","true","ArrowUp,ArrowLeft","false","","","revaluation","1","22","","",""
"html-keyboard-response","141","733148","0.0-4.0-2.0-1.11","spark_pilot_2","7533","4","12","Female","","","","","","","null","<div style=""font-size:60px;"">+</div>","null","fixation","","","","","","","","","","","23","","",""
"revaluation","142","739154","0.0-4.0-2.0-0.12","spark_pilot_2","7533","4","12","Female","","","false","","","","[977.9000000001397,454.0999999998603]","./assets/img/ocean/memory/33.jpg","[""ArrowUp"",""ArrowLeft""]","value training","ocean","26","{""ArrowUp,ArrowLeft"":26,""ArrowUp,ArrowRight"":10,""ArrowDown,ArrowLeft"":5,""ArrowDown,ArrowRight"":17}","true","ArrowUp,ArrowLeft","false","","","revaluation","1","24","","",""
"html-keyboard-response","143","739656","0.0-4.0-2.0-1.12","spark_pilot_2","7533","4","12","Female","","","","","","","null","<div style=""font-size:60px;"">+</div>","null","fixation","","","","","","","","","","","25","","",""
"revaluation","144","745662","0.0-4.0-2.0-0.13","spark_pilot_2","7533","4","12","Female","","","false","","","","[911.9000000001397,409.30000000004657]","./assets/img/ocean/memory/10.jpg","[""ArrowUp"",""ArrowLeft""]","value training","ocean","26","{""ArrowUp,ArrowLeft"":26,""ArrowUp,ArrowRight"":10,""ArrowDown,ArrowLeft"":5,""ArrowDown,ArrowRight"":17}","true","ArrowUp,ArrowLeft","false","","","revaluation","1","26","","",""
"html-keyboard-response","145","746164","0.0-4.0-2.0-1.13","spark_pilot_2","7533","4","12","Female","","","","","","","null","<div style=""font-size:60px;"">+</div>","null","fixation","","","","","","","","","","","27","","",""
"revaluation","146","752172","0.0-4.0-2.0-0.14","spark_pilot_2","7533","4","12","Female","","","false","","","","[1341.6999999999534,494.89999999990687]","./assets/img/ocean/memory/15.jpg","[""ArrowUp"",""ArrowLeft""]","value training","ocean","26","{""ArrowUp,ArrowLeft"":26,""ArrowUp,ArrowRight"":10,""ArrowDown,ArrowLeft"":5,""ArrowDown,ArrowRight"":17}","true","ArrowUp,ArrowLeft","false","","","revaluation","1","28","","",""
"html-keyboard-response","147","752674","0.0-4.0-2.0-1.14","spark_pilot_2","7533","4","12","Female","","","","","","","null","<div style=""font-size:60px;"">+</div>","null","fixation","","","","","","","","","","","29","","",""
"revaluation","148","758681","0.0-4.0-2.0-0.15","spark_pilot_2","7533","4","12","Female","","","false","","","","[1309.3999999999069,399.39999999990687]","./assets/img/ocean/memory/9.jpg","[""ArrowUp"",""ArrowLeft""]","value training","ocean","26","{""ArrowUp,ArrowLeft"":26,""ArrowUp,ArrowRight"":10,""ArrowDown,ArrowLeft"":5,""ArrowDown,ArrowRight"":17}","true","ArrowUp,ArrowLeft","false","","","revaluation","1","30","","",""
"html-keyboard-response","149","759183","0.0-4.0-2.0-1.15","spark_pilot_2","7533","4","12","Female","","","","","","","null","<div style=""font-size:60px;"">+</div>","null","fixation","","","","","","","","","","","31","","",""
"revaluation","150","765190","0.0-4.0-2.0-0.16","spark_pilot_2","7533","4","12","Female","","","false","","","","[978.3000000000466,571.4000000001397]","./assets/img/ocean/memory/2.jpg","[""ArrowUp"",""ArrowLeft""]","value training","ocean","26","{""ArrowUp,ArrowLeft"":26,""ArrowUp,ArrowRight"":10,""ArrowDown,ArrowLeft"":5,""ArrowDown,ArrowRight"":17}","true","ArrowUp,ArrowLeft","false","","","revaluation","1","32","","",""
"html-keyboard-response","151","765692","0.0-4.0-2.0-1.16","spark_pilot_2","7533","4","12","Female","","","","","","","null","<div style=""font-size:60px;"">+</div>","null","fixation","","","","","","","","","","","33","","",""
"revaluation","152","769699","0.0-4.0-2.0-0.17","spark_pilot_2","7533","4","12","Female","","","false","","","","[869.5999999998603]","./assets/img/ocean/catch/6.jpg","[""spaceBar""]","value training","ocean","0","{""ArrowUp,ArrowLeft"":26,""ArrowUp,ArrowRight"":10,""ArrowDown,ArrowLeft"":5,""ArrowDown,ArrowRight"":17}","true","spaceBar","true","","","revaluation","1","34","","",""
"html-keyboard-response","153","770200","0.0-4.0-2.0-1.17","spark_pilot_2","7533","4","12","Female","","","","","","","null","<div style=""font-size:60px;"">+</div>","null","fixation","","","","","","","","","","","35","","",""
"revaluation","154","776206","0.0-4.0-2.0-0.18","spark_pilot_2","7533","4","12","Female","","","false","","","","[736.9000000001397,393.39999999990687]","./assets/img/ocean/memory/9.jpg","[""ArrowDown"",""ArrowRight""]","value training","ocean","17","{""ArrowUp,ArrowLeft"":26,""ArrowUp,ArrowRight"":10,""ArrowDown,ArrowLeft"":5,""ArrowDown,ArrowRight"":17}","false","ArrowDown,ArrowRight","false","","","revaluation","1","36","","",""
"html-keyboard-response","155","776708","0.0-4.0-2.0-1.18","spark_pilot_2","7533","4","12","Female","","","","","","","null","<div style=""font-size:60px;"">+</div>","null","fixation","","","","","","","","","","","37","","",""
"revaluation","156","782725","0.0-4.0-2.0-0.19","spark_pilot_2","7533","4","12","Female","","","false","","","","[830.6000000000931,347.4000000001397]","./assets/img/ocean/memory/22.jpg","[""ArrowUp"",""ArrowLeft""]","value training","ocean","26","{""ArrowUp,ArrowLeft"":26,""ArrowUp,ArrowRight"":10,""ArrowDown,ArrowLeft"":5,""ArrowDown,ArrowRight"":17}","true","ArrowUp,ArrowLeft","false","","","revaluation","1","38","","",""
"html-keyboard-response","157","783226","0.0-4.0-2.0-1.19","spark_pilot_2","7533","4","12","Female","","","","","","","null","<div style=""font-size:60px;"">+</div>","null","fixation","","","","","","","","","","","39","","",""
"revaluation","158","789232","0.0-4.0-2.0-0.20","spark_pilot_2","7533","4","12","Female","","","false","","","","[750.0999999998603,627.1000000000931]","./assets/img/ocean/memory/4.jpg","[""ArrowDown"",""ArrowRight""]","value training","ocean","17","{""ArrowUp,ArrowLeft"":26,""ArrowUp,ArrowRight"":10,""ArrowDown,ArrowLeft"":5,""ArrowDown,ArrowRight"":17}","false","ArrowDown,ArrowRight","false","","","revaluation","1","40","","",""
"html-keyboard-response","159","789734","0.0-4.0-2.0-1.20","spark_pilot_2","7533","4","12","Female","","","","","","","null","<div style=""font-size:60px;"">+</div>","null","fixation","","","","","","","","","","","41","","",""
"revaluation","160","795740","0.0-4.0-2.0-0.21","spark_pilot_2","7533","4","12","Female","","","false","","","","[738.6999999999534,409.5999999998603]","./assets/img/ocean/memory/27.jpg","[""ArrowUp"",""ArrowLeft""]","value training","ocean","26","{""ArrowUp,ArrowLeft"":26,""ArrowUp,ArrowRight"":10,""ArrowDown,ArrowLeft"":5,""ArrowDown,ArrowRight"":17}","true","ArrowUp,ArrowLeft","false","","","revaluation","1","42","","",""
"html-keyboard-response","161","796241","0.0-4.0-2.0-1.21","spark_pilot_2","7533","4","12","Female","","","","","","","null","<div style=""font-size:60px;"">+</div>","null","fixation","","","","","","","","","","","43","","",""
"revaluation","162","802248","0.0-4.0-2.0-0.22","spark_pilot_2","7533","4","12","Female","","","false","","","","[927.5,621.3000000000466]","./assets/img/ocean/memory/7.jpg","[""ArrowDown"",""ArrowRight""]","value training","ocean","17","{""ArrowUp,ArrowLeft"":26,""ArrowUp,ArrowRight"":10,""ArrowDown,ArrowLeft"":5,""ArrowDown,ArrowRight"":17}","false","ArrowDown,ArrowRight","false","","","revaluation","1","44","","",""
"html-keyboard-response","163","802750","0.0-4.0-2.0-1.22","spark_pilot_2","7533","4","12","Female","","","","","","","null","<div style=""font-size:60px;"">+</div>","null","fixation","","","","","","","","","","","45","","",""
"revaluation","164","808759","0.0-4.0-2.0-0.23","spark_pilot_2","7533","4","12","Female","","","false","","","","[891.2000000001863,829.8999999999069]","./assets/img/ocean/memory/3.jpg","[""ArrowUp"",""ArrowRight""]","value training","ocean","10","{""ArrowUp,ArrowLeft"":26,""ArrowUp,ArrowRight"":10,""ArrowDown,ArrowLeft"":5,""ArrowDown,ArrowRight"":17}","false","ArrowUp,ArrowRight","false","","","revaluation","1","46","","",""
"html-keyboard-response","165","809270","0.0-4.0-2.0-1.23","spark_pilot_2","7533","4","12","Female","","","","","","","null","<div style=""font-size:60px;"">+</div>","null","fixation","","","","","","","","","","","47","","",""
"revaluation","166","815276","0.0-4.0-2.0-0.24","spark_pilot_2","7533","4","12","Female","","","false","","","","[823.0999999998603,329]","./assets/img/ocean/memory/1.jpg","[""ArrowUp"",""ArrowLeft""]","value training","ocean","26","{""ArrowUp,ArrowLeft"":26,""ArrowUp,ArrowRight"":10,""ArrowDown,ArrowLeft"":5,""ArrowDown,ArrowRight"":17}","true","ArrowUp,ArrowLeft","false","","","revaluation","1","48","","",""
"html-keyboard-response","167","815778","0.0-4.0-2.0-1.24","spark_pilot_2","7533","4","12","Female","","","","","","","null","<div style=""font-size:60px;"">+</div>","null","fixation","","","","","","","","","","","49","","",""
"revaluation","168","821785","0.0-4.0-2.0-0.25","spark_pilot_2","7533","4","12","Female","","","false","","","","[778.1000000000931,514.1999999999534]","./assets/img/ocean/memory/2.jpg","[""ArrowDown"",""ArrowLeft""]","value training","ocean","5","{""ArrowUp,ArrowLeft"":26,""ArrowUp,ArrowRight"":10,""ArrowDown,ArrowLeft"":5,""ArrowDown,ArrowRight"":17}","false","ArrowDown,ArrowLeft","false","","","revaluation","1","50","","",""
"html-keyboard-response","169","822287","0.0-4.0-2.0-1.25","spark_pilot_2","7533","4","12","Female","","","","","","","null","<div style=""font-size:60px;"">+</div>","null","fixation","","","","","","","","","","","51","","",""
"revaluation","170","828293","0.0-4.0-2.0-0.26","spark_pilot_2","7533","4","12","Female","","","false","","","","[539.8999999999069,409.80000000004657]","./assets/img/ocean/memory/1.jpg","[""ArrowUp"",""ArrowLeft""]","value training","ocean","26","{""ArrowUp,ArrowLeft"":26,""ArrowUp,ArrowRight"":10,""ArrowDown,ArrowLeft"":5,""ArrowDown,ArrowRight"":17}","true","ArrowUp,ArrowLeft","false","","","revaluation","1","52","","",""
"html-keyboard-response","171","828794","0.0-4.0-2.0-1.26","spark_pilot_2","7533","4","12","Female","","","","","","","null","<div style=""font-size:60px;"">+</div>","null","fixation","","","","","","","","","","","53","","",""
"revaluation","172","832800","0.0-4.0-2.0-0.27","spark_pilot_2","7533","4","12","Female","","","false","","","","[879.8000000000466]","./assets/img/ocean/catch/1.jpg","[""spaceBar""]","value training","ocean","0","{""ArrowUp,ArrowLeft"":26,""ArrowUp,ArrowRight"":10,""ArrowDown,ArrowLeft"":5,""ArrowDown,ArrowRight"":17}","true","spaceBar","true","","","revaluation","1","54","","",""
"html-keyboard-response","173","833301","0.0-4.0-2.0-1.27","spark_pilot_2","7533","4","12","Female","","","","","","","null","<div style=""font-size:60px;"">+</div>","null","fixation","","","","","","","","","","","55","","",""
"revaluation","174","839307","0.0-4.0-2.0-0.28","spark_pilot_2","7533","4","12","Female","","","false","","","","[1092.9000000001397,770.5]","./assets/img/ocean/memory/36.jpg","[""ArrowDown"",""ArrowRight""]","value training","ocean","17","{""ArrowUp,ArrowLeft"":26,""ArrowUp,ArrowRight"":10,""ArrowDown,ArrowLeft"":5,""ArrowDown,ArrowRight"":17}","false","ArrowDown,ArrowRight","false","","","revaluation","1","56","","",""
"html-keyboard-response","175","839809","0.0-4.0-2.0-1.28","spark_pilot_2","7533","4","12","Female","","","","","","","null","<div style=""font-size:60px;"">+</div>","null","fixation","","","","","","","","","","","57","","",""
"revaluation","176","845817","0.0-4.0-2.0-0.29","spark_pilot_2","7533","4","12","Female","","","false","","","","[970.0999999998603,467.89999999990687]","./assets/img/ocean/memory/32.jpg","[""ArrowUp"",""ArrowLeft""]","value training","ocean","26","{""ArrowUp,ArrowLeft"":26,""ArrowUp,ArrowRight"":10,""ArrowDown,ArrowLeft"":5,""ArrowDown,ArrowRight"":17}","true","ArrowUp,ArrowLeft","false","","","revaluation","1","58","","",""
"html-keyboard-response","177","846319","0.0-4.0-2.0-1.29","spark_pilot_2","7533","4","12","Female","","","","","","","null","<div style=""font-size:60px;"">+</div>","null","fixation","","","","","","","","","","","59","","",""
"revaluation","178","852326","0.0-4.0-2.0-0.30","spark_pilot_2","7533","4","12","Female","","","false","","","","[964.5,425.69999999995343]","./assets/img/ocean/memory/33.jpg","[""ArrowUp"",""ArrowLeft""]","value training","ocean","26","{""ArrowUp,ArrowLeft"":26,""ArrowUp,ArrowRight"":10,""ArrowDown,ArrowLeft"":5,""ArrowDown,ArrowRight"":17}","true","ArrowUp,ArrowLeft","false","","","revaluation","1","60","","",""
"html-keyboard-response","179","852827","0.0-4.0-2.0-1.30","spark_pilot_2","7533","4","12","Female","","","","","","","null","<div style=""font-size:60px;"">+</div>","null","fixation","","","","","","","","","","","61","","",""
"revaluation","180","858834","0.0-4.0-2.0-0.31","spark_pilot_2","7533","4","12","Female","","","false","","","","[1139.8000000000466,484.30000000004657]","./assets/img/ocean/memory/41.jpg","[""ArrowDown"",""ArrowRight""]","value training","ocean","17","{""ArrowUp,ArrowLeft"":26,""ArrowUp,ArrowRight"":10,""ArrowDown,ArrowLeft"":5,""ArrowDown,ArrowRight"":17}","false","ArrowDown,ArrowRight","false","","","revaluation","1","62","","",""
"html-keyboard-response","181","859336","0.0-4.0-2.0-1.31","spark_pilot_2","7533","4","12","Female","","","","","","","null","<div style=""font-size:60px;"">+</div>","null","fixation","","","","","","","","","","","63","","",""
"revaluation","182","865341","0.0-4.0-2.0-0.32","spark_pilot_2","7533","4","12","Female","","","false","","","","[920.8999999999069,525.8000000000466]","./assets/img/ocean/memory/24.jpg","[""ArrowUp"",""ArrowLeft""]","value training","ocean","26","{""ArrowUp,ArrowLeft"":26,""ArrowUp,ArrowRight"":10,""ArrowDown,ArrowLeft"":5,""ArrowDown,ArrowRight"":17}","true","ArrowUp,ArrowLeft","false","","","revaluation","1","64","","",""
"html-keyboard-response","183","865844","0.0-4.0-2.0-1.32","spark_pilot_2","7533","4","12","Female","","","","","","","null","<div style=""font-size:60px;"">+</div>","null","fixation","","","","","","","","","","","65","","",""
"revaluation","184","871851","0.0-4.0-2.0-0.33","spark_pilot_2","7533","4","12","Female","","","false","","","","[649.5,374]","./assets/img/ocean/memory/22.jpg","[""ArrowDown"",""ArrowLeft""]","value training","ocean","5","{""ArrowUp,ArrowLeft"":26,""ArrowUp,ArrowRight"":10,""ArrowDown,ArrowLeft"":5,""ArrowDown,ArrowRight"":17}","false","ArrowDown,ArrowLeft","false","","","revaluation","1","66","","",""
"html-keyboard-response","185","872352","0.0-4.0-2.0-1.33","spark_pilot_2","7533","4","12","Female","","","","","","","null","<div style=""font-size:60px;"">+</div>","null","fixation","","","","","","","","","","","67","","",""
"revaluation","186","878359","0.0-4.0-2.0-0.34","spark_pilot_2","7533","4","12","Female","","","false","","","","[802.1999999999534,440.80000000004657]","./assets/img/ocean/memory/36.jpg","[""ArrowUp"",""ArrowLeft""]","value training","ocean","26","{""ArrowUp,ArrowLeft"":26,""ArrowUp,ArrowRight"":10,""ArrowDown,ArrowLeft"":5,""ArrowDown,ArrowRight"":17}","true","ArrowUp,ArrowLeft","false","","","revaluation","1","68","","",""
"html-keyboard-response","187","878865","0.0-4.0-2.0-1.34","spark_pilot_2","7533","4","12","Female","","","","","","","null","<div style=""font-size:60px;"">+</div>","null","fixation","","","","","","","","","","","69","","",""
"revaluation","188","884871","0.0-4.0-2.0-0.35","spark_pilot_2","7533","4","12","Female","","","false","","","","[704.1999999999534,382.39999999990687]","./assets/img/ocean/memory/13.jpg","[""ArrowUp"",""ArrowRight""]","value training","ocean","10","{""ArrowUp,ArrowLeft"":26,""ArrowUp,ArrowRight"":10,""ArrowDown,ArrowLeft"":5,""ArrowDown,ArrowRight"":17}","false","ArrowUp,ArrowRight","false","","","revaluation","1","70","","",""
"html-keyboard-response","189","885374","0.0-4.0-2.0-1.35","spark_pilot_2","7533","4","12","Female","","","","","","","null","<div style=""font-size:60px;"">+</div>","null","fixation","","","","","","","","","","","71","","",""
"revaluation","190","891380","0.0-4.0-2.0-0.36","spark_pilot_2","7533","4","12","Female","","","false","","","","[911.8000000000466,653.7000000001863]","./assets/img/ocean/memory/29.jpg","[""ArrowDown"",""ArrowRight""]","value training","ocean","17","{""ArrowUp,ArrowLeft"":26,""ArrowUp,ArrowRight"":10,""ArrowDown,ArrowLeft"":5,""ArrowDown,ArrowRight"":17}","false","ArrowDown,ArrowRight","false","","","revaluation","1","72","","",""
"html-keyboard-response","191","891896","0.0-4.0-2.0-1.36","spark_pilot_2","7533","4","12","Female","","","","","","","null","<div style=""font-size:60px;"">+</div>","null","fixation","","","","","","","","","","","73","","",""
"revaluation","192","897903","0.0-4.0-2.0-0.37","spark_pilot_2","7533","4","12","Female","","","false","","","","[1022.3999999999069,633.9000000001397]","./assets/img/ocean/memory/5.jpg","[""ArrowUp"",""ArrowLeft""]","value training","ocean","26","{""ArrowUp,ArrowLeft"":26,""ArrowUp,ArrowRight"":10,""ArrowDown,ArrowLeft"":5,""ArrowDown,ArrowRight"":17}","true","ArrowUp,ArrowLeft","false","","","revaluation","1","74","","",""
"html-keyboard-response","193","898404","0.0-4.0-2.0-1.37","spark_pilot_2","7533","4","12","Female","","","","","","","null","<div style=""font-size:60px;"">+</div>","null","fixation","","","","","","","","","","","75","","",""
"revaluation","194","904409","0.0-4.0-2.0-0.38","spark_pilot_2","7533","4","12","Female","","","false","","","","[617,333.9000000001397]","./assets/img/ocean/memory/29.jpg","[""ArrowDown"",""ArrowRight""]","value training","ocean","17","{""ArrowUp,ArrowLeft"":26,""ArrowUp,ArrowRight"":10,""ArrowDown,ArrowLeft"":5,""ArrowDown,ArrowRight"":17}","false","ArrowDown,ArrowRight","false","","","revaluation","1","76","","",""
"html-keyboard-response","195","904910","0.0-4.0-2.0-1.38","spark_pilot_2","7533","4","12","Female","","","","","","","null","<div style=""font-size:60px;"">+</div>","null","fixation","","","","","","","","","","","77","","",""
"revaluation","196","910917","0.0-4.0-2.0-0.39","spark_pilot_2","7533","4","12","Female","","","false","","","","[654.3000000000466,590.6999999999534]","./assets/img/ocean/memory/0.jpg","[""ArrowUp"",""ArrowRight""]","value training","ocean","10","{""ArrowUp,ArrowLeft"":26,""ArrowUp,ArrowRight"":10,""ArrowDown,ArrowLeft"":5,""ArrowDown,ArrowRight"":17}","false","ArrowUp,ArrowRight","false","","","revaluation","1","78","","",""
"html-keyboard-response","197","911419","0.0-4.0-2.0-1.39","spark_pilot_2","7533","4","12","Female","","","","","","","null","<div style=""font-size:60px;"">+</div>","null","fixation","","","","","","","","","","","79","","",""
"revaluation","198","917427","0.0-4.0-2.0-0.40","spark_pilot_2","7533","4","12","Female","","","false","","","","[595.0999999998603,302.70000000018626]","./assets/img/ocean/memory/37.jpg","[""ArrowUp"",""ArrowLeft""]","value training","ocean","26","{""ArrowUp,ArrowLeft"":26,""ArrowUp,ArrowRight"":10,""ArrowDown,ArrowLeft"":5,""ArrowDown,ArrowRight"":17}","true","ArrowUp,ArrowLeft","false","","","revaluation","1","80","","",""
"html-keyboard-response","199","917928","0.0-4.0-2.0-1.40","spark_pilot_2","7533","4","12","Female","","","","","","","null","<div style=""font-size:60px;"">+</div>","null","fixation","","","","","","","","","","","81","","",""
"revaluation","200","923950","0.0-4.0-2.0-0.41","spark_pilot_2","7533","4","12","Female","","","false","","","","[373.5,390.5]","./assets/img/ocean/memory/0.jpg","[""ArrowDown"",""ArrowRight""]","value training","ocean","17","{""ArrowUp,ArrowLeft"":26,""ArrowUp,ArrowRight"":10,""ArrowDown,ArrowLeft"":5,""ArrowDown,ArrowRight"":17}","false","ArrowDown,ArrowRight","false","","","revaluation","1","82","","",""
"html-keyboard-response","201","924452","0.0-4.0-2.0-1.41","spark_pilot_2","7533","4","12","Female","","","","","","","null","<div style=""font-size:60px;"">+</div>","null","fixation","","","","","","","","","","","83","","",""
"revaluation","202","930460","0.0-4.0-2.0-0.42","spark_pilot_2","7533","4","12","Female","","","false","","","","[946.5,622.5]","./assets/img/ocean/memory/7.jpg","[""ArrowUp"",""ArrowRight""]","value training","ocean","10","{""ArrowUp,ArrowLeft"":26,""ArrowUp,ArrowRight"":10,""ArrowDown,ArrowLeft"":5,""ArrowDown,ArrowRight"":17}","false","ArrowUp,ArrowRight","false","","","revaluation","1","84","","",""
"html-keyboard-response","203","930962","0.0-4.0-2.0-1.42","spark_pilot_2","7533","4","12","Female","","","","","","","null","<div style=""font-size:60px;"">+</div>","null","fixation","","","","","","","","","","","85","","",""
"revaluation","204","936969","0.0-4.0-2.0-0.43","spark_pilot_2","7533","4","12","Female","","","false","","","","[352.69999999995343,370.39999999990687]","./assets/img/ocean/memory/24.jpg","[""ArrowUp"",""ArrowLeft""]","value training","ocean","26","{""ArrowUp,ArrowLeft"":26,""ArrowUp,ArrowRight"":10,""ArrowDown,ArrowLeft"":5,""ArrowDown,ArrowRight"":17}","true","ArrowUp,ArrowLeft","false","","","revaluation","1","86","","",""
"html-keyboard-response","205","937471","0.0-4.0-2.0-1.43","spark_pilot_2","7533","4","12","Female","","","","","","","null","<div style=""font-size:60px;"">+</div>","null","fixation","","","","","","","","","","","87","","",""
"revaluation","206","943478","0.0-4.0-2.0-0.44","spark_pilot_2","7533","4","12","Female","","","false","","","","[1140.5999999998603,734.1999999999534]","./assets/img/ocean/memory/41.jpg","[""ArrowDown"",""ArrowRight""]","value training","ocean","17","{""ArrowUp,ArrowLeft"":26,""ArrowUp,ArrowRight"":10,""ArrowDown,ArrowLeft"":5,""ArrowDown,ArrowRight"":17}","false","ArrowDown,ArrowRight","false","","","revaluation","1","88","","",""
"html-keyboard-response","207","943979","0.0-4.0-2.0-1.44","spark_pilot_2","7533","4","12","Female","","","","","","","null","<div style=""font-size:60px;"">+</div>","null","fixation","","","","","","","","","","","89","","",""
"revaluation","208","949987","0.0-4.0-2.0-0.45","spark_pilot_2","7533","4","12","Female","","","false","","","","[379.10000000009313,811]","./assets/img/ocean/memory/6.jpg","[""ArrowUp"",""ArrowLeft""]","value training","ocean","26","{""ArrowUp,ArrowLeft"":26,""ArrowUp,ArrowRight"":10,""ArrowDown,ArrowLeft"":5,""ArrowDown,ArrowRight"":17}","true","ArrowUp,ArrowLeft","false","","","revaluation","1","90","","",""
"html-keyboard-response","209","950489","0.0-4.0-2.0-1.45","spark_pilot_2","7533","4","12","Female","","","","","","","null","<div style=""font-size:60px;"">+</div>","null","fixation","","","","","","","","","","","91","","",""
"revaluation","210","954495","0.0-4.0-2.0-0.46","spark_pilot_2","7533","4","12","Female","","","false","","","","[795.5]","./assets/img/ocean/catch/0.jpg","[""spaceBar""]","value training","ocean","0","{""ArrowUp,ArrowLeft"":26,""ArrowUp,ArrowRight"":10,""ArrowDown,ArrowLeft"":5,""ArrowDown,ArrowRight"":17}","true","spaceBar","true","","","revaluation","1","92","","",""
"html-keyboard-response","211","954996","0.0-4.0-2.0-1.46","spark_pilot_2","7533","4","12","Female","","","","","","","null","<div style=""font-size:60px;"">+</div>","null","fixation","","","","","","","","","","","93","","",""
"revaluation","212","961015","0.0-4.0-2.0-0.47","spark_pilot_2","7533","4","12","Female","","","false","","","","[715.8000000000466,481.0999999998603]","./assets/img/ocean/memory/32.jpg","[""ArrowDown"",""ArrowLeft""]","value training","ocean","5","{""ArrowUp,ArrowLeft"":26,""ArrowUp,ArrowRight"":10,""ArrowDown,ArrowLeft"":5,""ArrowDown,ArrowRight"":17}","false","ArrowDown,ArrowLeft","false","","","revaluation","1","94","","",""
"html-keyboard-response","213","961516","0.0-4.0-2.0-1.47","spark_pilot_2","7533","4","12","Female","","","","","","","null","<div style=""font-size:60px;"">+</div>","null","fixation","","","","","","","","","","","95","","",""
"revaluation","214","965522","0.0-4.0-2.0-0.48","spark_pilot_2","7533","4","12","Female","","","false","","","","[884.5]","./assets/img/ocean/catch/4.jpg","[""spaceBar""]","value training","ocean","0","{""ArrowUp,ArrowLeft"":26,""ArrowUp,ArrowRight"":10,""ArrowDown,ArrowLeft"":5,""ArrowDown,ArrowRight"":17}","true","spaceBar","true","","","revaluation","1","96","","",""
"html-keyboard-response","215","966024","0.0-4.0-2.0-1.48","spark_pilot_2","7533","4","12","Female","","","","","","","null","<div style=""font-size:60px;"">+</div>","null","fixation","","","","","","","","","","","97","","",""
"revaluation","216","972030","0.0-4.0-2.0-0.49","spark_pilot_2","7533","4","12","Female","","","false","","","","[768.8000000000466,653]","./assets/img/ocean/memory/15.jpg","[""ArrowUp"",""ArrowRight""]","value training","ocean","10","{""ArrowUp,ArrowLeft"":26,""ArrowUp,ArrowRight"":10,""ArrowDown,ArrowLeft"":5,""ArrowDown,ArrowRight"":17}","false","ArrowUp,ArrowRight","false","","","revaluation","1","98","","",""
"html-keyboard-response","217","972532","0.0-4.0-2.0-1.49","spark_pilot_2","7533","4","12","Female","","","","","","","null","<div style=""font-size:60px;"">+</div>","null","fixation","","","","","","","","","","","99","","",""
"learning-instructions","218","998650","0.0-4.0-3.0-0.0","spark_pilot_2","7533","4","12","Female","","","","","","","12719.699999999953","<p> Now, you will travel with a friend who will choose whether you go up or down first. </p>
            <p> On these turns, you will just see the animal that they found. You will still get to choose which chest to search for treasure.</p>","","instructions","","","","","","","","","","","","","",""
"revaluation","219","1002671","0.0-4.0-4.0-0.0","spark_pilot_2","7533","4","12","Female","","","false","","","","[1261.6000000000931]","./assets/img/ocean/animals/octopus.jpg","[""ArrowLeft""]","revaluation","ocean","2","{""ArrowUp,ArrowLeft"":2,""ArrowUp,ArrowRight"":11,""ArrowDown,ArrowLeft"":8,""ArrowDown,ArrowRight"":27}","false","ArrowUp,ArrowLeft","","","","revaluation","1","0","","",""
"html-keyboard-response","220","1003183","0.0-4.0-4.0-1.0","spark_pilot_2","7533","4","12","Female","","","","","","","null","<div style=""font-size:60px;"">+</div>","null","fixation","","","","","","","","","","","1","","",""
"revaluation","221","1007211","0.0-4.0-4.0-0.1","spark_pilot_2","7533","4","12","Female","","","false","","","","[555]","./assets/img/ocean/animals/seahorse.jpg","[""ArrowRight""]","revaluation","ocean","27","{""ArrowUp,ArrowLeft"":2,""ArrowUp,ArrowRight"":11,""ArrowDown,ArrowLeft"":8,""ArrowDown,ArrowRight"":27}","true","ArrowDown,ArrowRight","","","","revaluation","1","2","","",""
"html-keyboard-response","222","1007726","0.0-4.0-4.0-1.1","spark_pilot_2","7533","4","12","Female","","","","","","","null","<div style=""font-size:60px;"">+</div>","null","fixation","","","","","","","","","","","3","","",""
"revaluation","223","1011749","0.0-4.0-4.0-0.2","spark_pilot_2","7533","4","12","Female","","","false","","","","[588]","./assets/img/ocean/animals/octopus.jpg","[""ArrowRight""]","revaluation","ocean","11","{""ArrowUp,ArrowLeft"":2,""ArrowUp,ArrowRight"":11,""ArrowDown,ArrowLeft"":8,""ArrowDown,ArrowRight"":27}","true","ArrowUp,ArrowRight","","","","revaluation","1","4","","",""
"html-keyboard-response","224","1012265","0.0-4.0-4.0-1.2","spark_pilot_2","7533","4","12","Female","","","","","","","null","<div style=""font-size:60px;"">+</div>","null","fixation","","","","","","","","","","","5","","",""
"revaluation","225","1016288","0.0-4.0-4.0-0.3","spark_pilot_2","7533","4","12","Female","","","false","","","","[624.3000000000466]","./assets/img/ocean/animals/seahorse.jpg","[""ArrowLeft""]","revaluation","ocean","8","{""ArrowUp,ArrowLeft"":2,""ArrowUp,ArrowRight"":11,""ArrowDown,ArrowLeft"":8,""ArrowDown,ArrowRight"":27}","false","ArrowDown,ArrowLeft","","","","revaluation","1","6","","",""
"html-keyboard-response","226","1016790","0.0-4.0-4.0-1.3","spark_pilot_2","7533","4","12","Female","","","","","","","null","<div style=""font-size:60px;"">+</div>","null","fixation","","","","","","","","","","","7","","",""
"revaluation","227","1020796","0.0-4.0-4.0-0.4","spark_pilot_2","7533","4","12","Female","","","false","","","","[688.3999999999069]","./assets/img/ocean/animals/seahorse.jpg","[""ArrowRight""]","revaluation","ocean","27","{""ArrowUp,ArrowLeft"":2,""ArrowUp,ArrowRight"":11,""ArrowDown,ArrowLeft"":8,""ArrowDown,ArrowRight"":27}","true","ArrowDown,ArrowRight","","","","revaluation","1","8","","",""
"html-keyboard-response","228","1021297","0.0-4.0-4.0-1.4","spark_pilot_2","7533","4","12","Female","","","","","","","null","<div style=""font-size:60px;"">+</div>","null","fixation","","","","","","","","","","","9","","",""
"revaluation","229","1025302","0.0-4.0-4.0-0.5","spark_pilot_2","7533","4","12","Female","","","false","","","","[724.1000000000931]","./assets/img/ocean/animals/octopus.jpg","[""ArrowRight""]","revaluation","ocean","11","{""ArrowUp,ArrowLeft"":2,""ArrowUp,ArrowRight"":11,""ArrowDown,ArrowLeft"":8,""ArrowDown,ArrowRight"":27}","true","ArrowUp,ArrowRight","","","","revaluation","1","10","","",""
"html-keyboard-response","230","1025805","0.0-4.0-4.0-1.5","spark_pilot_2","7533","4","12","Female","","","","","","","null","<div style=""font-size:60px;"">+</div>","null","fixation","","","","","","","","","","","11","","",""
"revaluation","231","1029811","0.0-4.0-4.0-0.6","spark_pilot_2","7533","4","12","Female","","","false","","","","[669.3999999999069]","./assets/img/ocean/animals/octopus.jpg","[""ArrowLeft""]","revaluation","ocean","2","{""ArrowUp,ArrowLeft"":2,""ArrowUp,ArrowRight"":11,""ArrowDown,ArrowLeft"":8,""ArrowDown,ArrowRight"":27}","false","ArrowUp,ArrowLeft","","","","revaluation","1","12","","",""
"html-keyboard-response","232","1030312","0.0-4.0-4.0-1.6","spark_pilot_2","7533","4","12","Female","","","","","","","null","<div style=""font-size:60px;"">+</div>","null","fixation","","","","","","","","","","","13","","",""
"revaluation","233","1034317","0.0-4.0-4.0-0.7","spark_pilot_2","7533","4","12","Female","","","false","","","","[790.3000000000466]","./assets/img/ocean/animals/seahorse.jpg","[""ArrowRight""]","revaluation","ocean","27","{""ArrowUp,ArrowLeft"":2,""ArrowUp,ArrowRight"":11,""ArrowDown,ArrowLeft"":8,""ArrowDown,ArrowRight"":27}","true","ArrowDown,ArrowRight","","","","revaluation","1","14","","",""
"html-keyboard-response","234","1034818","0.0-4.0-4.0-1.7","spark_pilot_2","7533","4","12","Female","","","","","","","null","<div style=""font-size:60px;"">+</div>","null","fixation","","","","","","","","","","","15","","",""
"revaluation","235","1038823","0.0-4.0-4.0-0.8","spark_pilot_2","7533","4","12","Female","","","false","","","","[652.8000000000466]","./assets/img/ocean/animals/seahorse.jpg","[""ArrowRight""]","revaluation","ocean","27","{""ArrowUp,ArrowLeft"":2,""ArrowUp,ArrowRight"":11,""ArrowDown,ArrowLeft"":8,""ArrowDown,ArrowRight"":27}","true","ArrowDown,ArrowRight","","","","revaluation","1","16","","",""
"html-keyboard-response","236","1039326","0.0-4.0-4.0-1.8","spark_pilot_2","7533","4","12","Female","","","","","","","null","<div style=""font-size:60px;"">+</div>","null","fixation","","","","","","","","","","","17","","",""
"revaluation","237","1043331","0.0-4.0-4.0-0.9","spark_pilot_2","7533","4","12","Female","","","false","","","","[527.0999999998603]","./assets/img/ocean/animals/seahorse.jpg","[""ArrowRight""]","revaluation","ocean","27","{""ArrowUp,ArrowLeft"":2,""ArrowUp,ArrowRight"":11,""ArrowDown,ArrowLeft"":8,""ArrowDown,ArrowRight"":27}","true","ArrowDown,ArrowRight","","","","revaluation","1","18","","",""
"html-keyboard-response","238","1043833","0.0-4.0-4.0-1.9","spark_pilot_2","7533","4","12","Female","","","","","","","null","<div style=""font-size:60px;"">+</div>","null","fixation","","","","","","","","","","","19","","",""
"revaluation","239","1047838","0.0-4.0-4.0-0.10","spark_pilot_2","7533","4","12","Female","","","false","","","","[1014.1999999999534]","./assets/img/ocean/animals/octopus.jpg","[""ArrowRight""]","revaluation","ocean","11","{""ArrowUp,ArrowLeft"":2,""ArrowUp,ArrowRight"":11,""ArrowDown,ArrowLeft"":8,""ArrowDown,ArrowRight"":27}","true","ArrowUp,ArrowRight","","","","revaluation","1","20","","",""
"html-keyboard-response","240","1048347","0.0-4.0-4.0-1.10","spark_pilot_2","7533","4","12","Female","","","","","","","null","<div style=""font-size:60px;"">+</div>","null","fixation","","","","","","","","","","","21","","",""
"revaluation","241","1052351","0.0-4.0-4.0-0.11","spark_pilot_2","7533","4","12","Female","","","false","","","","[619.3000000002794]","./assets/img/ocean/animals/octopus.jpg","[""ArrowRight""]","revaluation","ocean","11","{""ArrowUp,ArrowLeft"":2,""ArrowUp,ArrowRight"":11,""ArrowDown,ArrowLeft"":8,""ArrowDown,ArrowRight"":27}","true","ArrowUp,ArrowRight","","","","revaluation","1","22","","",""
"html-keyboard-response","242","1052853","0.0-4.0-4.0-1.11","spark_pilot_2","7533","4","12","Female","","","","","","","null","<div style=""font-size:60px;"">+</div>","null","fixation","","","","","","","","","","","23","","",""
"revaluation","243","1056859","0.0-4.0-4.0-0.12","spark_pilot_2","7533","4","12","Female","","","false","","","","[639.8999999999069]","./assets/img/ocean/animals/seahorse.jpg","[""ArrowRight""]","revaluation","ocean","27","{""ArrowUp,ArrowLeft"":2,""ArrowUp,ArrowRight"":11,""ArrowDown,ArrowLeft"":8,""ArrowDown,ArrowRight"":27}","true","ArrowDown,ArrowRight","","","","revaluation","1","24","","",""
"html-keyboard-response","244","1057361","0.0-4.0-4.0-1.12","spark_pilot_2","7533","4","12","Female","","","","","","","null","<div style=""font-size:60px;"">+</div>","null","fixation","","","","","","","","","","","25","","",""
"revaluation","245","1061366","0.0-4.0-4.0-0.13","spark_pilot_2","7533","4","12","Female","","","false","","","","[632.6000000000931]","./assets/img/ocean/animals/seahorse.jpg","[""ArrowRight""]","revaluation","ocean","27","{""ArrowUp,ArrowLeft"":2,""ArrowUp,ArrowRight"":11,""ArrowDown,ArrowLeft"":8,""ArrowDown,ArrowRight"":27}","true","ArrowDown,ArrowRight","","","","revaluation","1","26","","",""
"html-keyboard-response","246","1061868","0.0-4.0-4.0-1.13","spark_pilot_2","7533","4","12","Female","","","","","","","null","<div style=""font-size:60px;"">+</div>","null","fixation","","","","","","","","","","","27","","",""
"revaluation","247","1065873","0.0-4.0-4.0-0.14","spark_pilot_2","7533","4","12","Female","","","false","","","","[810.2999999998137]","./assets/img/ocean/animals/octopus.jpg","[""ArrowRight""]","revaluation","ocean","11","{""ArrowUp,ArrowLeft"":2,""ArrowUp,ArrowRight"":11,""ArrowDown,ArrowLeft"":8,""ArrowDown,ArrowRight"":27}","true","ArrowUp,ArrowRight","","","","revaluation","1","28","","",""
"html-keyboard-response","248","1066374","0.0-4.0-4.0-1.14","spark_pilot_2","7533","4","12","Female","","","","","","","null","<div style=""font-size:60px;"">+</div>","null","fixation","","","","","","","","","","","29","","",""
"revaluation","249","1070381","0.0-4.0-4.0-0.15","spark_pilot_2","7533","4","12","Female","","","false","","","","[680.8999999999069]","./assets/img/ocean/animals/octopus.jpg","[""ArrowRight""]","revaluation","ocean","11","{""ArrowUp,ArrowLeft"":2,""ArrowUp,ArrowRight"":11,""ArrowDown,ArrowLeft"":8,""ArrowDown,ArrowRight"":27}","true","ArrowUp,ArrowRight","","","","revaluation","1","30","","",""
"html-keyboard-response","250","1070884","0.0-4.0-4.0-1.15","spark_pilot_2","7533","4","12","Female","","","","","","","null","<div style=""font-size:60px;"">+</div>","null","fixation","","","","","","","","","","","31","","",""
"revaluation","251","1074890","0.0-4.0-4.0-0.16","spark_pilot_2","7533","4","12","Female","","","false","","","","[1069.5]","./assets/img/ocean/animals/seahorse.jpg","[""ArrowRight""]","revaluation","ocean","27","{""ArrowUp,ArrowLeft"":2,""ArrowUp,ArrowRight"":11,""ArrowDown,ArrowLeft"":8,""ArrowDown,ArrowRight"":27}","true","ArrowDown,ArrowRight","","","","revaluation","1","32","","",""
"html-keyboard-response","252","1075392","0.0-4.0-4.0-1.16","spark_pilot_2","7533","4","12","Female","","","","","","","null","<div style=""font-size:60px;"">+</div>","null","fixation","","","","","","","","","","","33","","",""
"revaluation","253","1079397","0.0-4.0-4.0-0.17","spark_pilot_2","7533","4","12","Female","","","false","","","","[568.1000000000931]","./assets/img/ocean/animals/octopus.jpg","[""ArrowRight""]","revaluation","ocean","11","{""ArrowUp,ArrowLeft"":2,""ArrowUp,ArrowRight"":11,""ArrowDown,ArrowLeft"":8,""ArrowDown,ArrowRight"":27}","true","ArrowUp,ArrowRight","","","","revaluation","1","34","","",""
"html-keyboard-response","254","1079904","0.0-4.0-4.0-1.17","spark_pilot_2","7533","4","12","Female","","","","","","","null","<div style=""font-size:60px;"">+</div>","null","fixation","","","","","","","","","","","35","","",""
"learning-instructions","255","1092799","0.0-4.0-5.0-0.0","spark_pilot_2","7533","4","12","Female","","","","","","","959.2999999998137","<p> Time to play the dot game! </p>
            <p> For one minute, click the red dots on the following screen as they appear. </p>
            <p><b> Don't look away, as you will earn bonus for clicking dots</b>. </p>","","instructions","","","","","","","","","","","","","",""
"revaluation","256","1152802","0.0-4.0-6.0-0.0","spark_pilot_2","7533","4","12","Female","","","","","","","[63,93,77,95,85,75]","","","rest","","60","","","","","0","60000","","","","","",""
"learning-instructions","257","1160426","0.0-4.0-7.0-0.0","spark_pilot_2","7533","4","12","Female","","","","","","","998.2999999998137","<p> You have almost finished this part of the game! </p>
            <p> We are going to ask you to make a few more choices. </p>","","instructions","","","","","","","","","","","","","",""
"learning-instructions","258","1175048","0.0-4.0-7.0-0.1","spark_pilot_2","7533","4","12","Female","","","","","","","660.1000000000931","<p> First, you need to decide whether to go up or down. When you see each picture, use the arrow keys to make your choice. </p>
            <p><b>You will not see which animal you found, but try to get to the one that will give you the most treasure.</b></p>","","instructions","","","","","","","","","","","","","",""
"revaluation","259","1175812","0.0-4.0-8.0-0.0","spark_pilot_2","7533","4","12","Female","","","false","","","","[761.3000000002794]","./assets/img/ocean/test/3.jpg","[""ArrowUp""]","first stage test","ocean","0","{""ArrowUp,ArrowLeft"":2,""ArrowUp,ArrowRight"":11,""ArrowDown,ArrowLeft"":8,""ArrowDown,ArrowRight"":27}","false","ArrowUp","false","","","revaluation","1","","","",""
"html-keyboard-response","260","1176316","0.0-4.0-8.0-1.0","spark_pilot_2","7533","4","12","Female","","","","","","","null","<div style=""font-size:60px;"">+</div>","null","fixation","","","","","","","","","","","","","",""
"revaluation","261","1177305","0.0-4.0-8.0-0.1","spark_pilot_2","7533","4","12","Female","","","false","","","","[986.2000000001863]","./assets/img/ocean/test/2.jpg","[""ArrowDown""]","first stage test","ocean","0","{""ArrowUp,ArrowLeft"":2,""ArrowUp,ArrowRight"":11,""ArrowDown,ArrowLeft"":8,""ArrowDown,ArrowRight"":27}","true","ArrowDown","false","","","revaluation","1","","","",""
"html-keyboard-response","262","1177811","0.0-4.0-8.0-1.1","spark_pilot_2","7533","4","12","Female","","","","","","","null","<div style=""font-size:60px;"">+</div>","null","fixation","","","","","","","","","","","","","",""
"revaluation","263","1178330","0.0-4.0-8.0-0.2","spark_pilot_2","7533","4","12","Female","","","false","","","","[515.5]","./assets/img/ocean/test/0.jpg","[""ArrowUp""]","first stage test","ocean","0","{""ArrowUp,ArrowLeft"":2,""ArrowUp,ArrowRight"":11,""ArrowDown,ArrowLeft"":8,""ArrowDown,ArrowRight"":27}","false","ArrowUp","false","","","revaluation","1","","","",""
"html-keyboard-response","264","1178837","0.0-4.0-8.0-1.2","spark_pilot_2","7533","4","12","Female","","","","","","","null","<div style=""font-size:60px;"">+</div>","null","fixation","","","","","","","","","","","","","",""
"revaluation","265","1180243","0.0-4.0-8.0-0.3","spark_pilot_2","7533","4","12","Female","","","false","","","","[1403]","./assets/img/ocean/test/1.jpg","[""ArrowDown""]","first stage test","ocean","0","{""ArrowUp,ArrowLeft"":2,""ArrowUp,ArrowRight"":11,""ArrowDown,ArrowLeft"":8,""ArrowDown,ArrowRight"":27}","true","ArrowDown","false","","","revaluation","1","","","",""
"html-keyboard-response","266","1180748","0.0-4.0-8.0-1.3","spark_pilot_2","7533","4","12","Female","","","","","","","null","<div style=""font-size:60px;"">+</div>","null","fixation","","","","","","","","","","","","","",""
"learning-instructions","267","1192899","0.0-4.0-9.0-0.0","spark_pilot_2","7533","4","12","Female","","","","","","","809.7999999998137","<p> Now you will see the animals again and can search their chests for treasure. </p>
            <p> This time, you will not see how much treasure you earned, but you will earn more bonus money for making better choices. </p>","","instructions","","","","","","","","","","","","","",""
"revaluation","268","1193760","0.0-4.0-10.0-0.0","spark_pilot_2","7533","4","12","Female","","","false","","","","[859.2999999998137]","./assets/img/ocean/animals/octopus.jpg","[""ArrowRight""]","second stage test","ocean","0","{""ArrowUp,ArrowLeft"":2,""ArrowUp,ArrowRight"":11,""ArrowDown,ArrowLeft"":8,""ArrowDown,ArrowRight"":27}","true","ArrowUp,ArrowRight","","","","revaluation","1","","","",""
"html-keyboard-response","269","1194273","0.0-4.0-10.0-1.0","spark_pilot_2","7533","4","12","Female","","","","","","","null","<div style=""font-size:60px;"">+</div>","null","fixation","","","","","","","","","","","","","",""
"revaluation","270","1195494","0.0-4.0-10.0-0.1","spark_pilot_2","7533","4","12","Female","","","false","","","","[1218.6000000000931]","./assets/img/ocean/animals/octopus.jpg","[""ArrowLeft""]","second stage test","ocean","0","{""ArrowUp,ArrowLeft"":2,""ArrowUp,ArrowRight"":11,""ArrowDown,ArrowLeft"":8,""ArrowDown,ArrowRight"":27}","false","ArrowUp,ArrowLeft","","","","revaluation","1","","","",""
"html-keyboard-response","271","1196002","0.0-4.0-10.0-1.1","spark_pilot_2","7533","4","12","Female","","","","","","","null","<div style=""font-size:60px;"">+</div>","null","fixation","","","","","","","","","","","","","",""
"revaluation","272","1196719","0.0-4.0-10.0-0.2","spark_pilot_2","7533","4","12","Female","","","false","","","","[714.2000000001863]","./assets/img/ocean/animals/octopus.jpg","[""ArrowRight""]","second stage test","ocean","0","{""ArrowUp,ArrowLeft"":2,""ArrowUp,ArrowRight"":11,""ArrowDown,ArrowLeft"":8,""ArrowDown,ArrowRight"":27}","true","ArrowUp,ArrowRight","","","","revaluation","1","","","",""
"html-keyboard-response","273","1197234","0.0-4.0-10.0-1.2","spark_pilot_2","7533","4","12","Female","","","","","","","null","<div style=""font-size:60px;"">+</div>","null","fixation","","","","","","","","","","","","","",""
"revaluation","274","1197824","0.0-4.0-10.0-0.3","spark_pilot_2","7533","4","12","Female","","","false","","","","[587.5]","./assets/img/ocean/animals/octopus.jpg","[""ArrowRight""]","second stage test","ocean","0","{""ArrowUp,ArrowLeft"":2,""ArrowUp,ArrowRight"":11,""ArrowDown,ArrowLeft"":8,""ArrowDown,ArrowRight"":27}","true","ArrowUp,ArrowRight","","","","revaluation","1","","","",""
"html-keyboard-response","275","1198327","0.0-4.0-10.0-1.3","spark_pilot_2","7533","4","12","Female","","","","","","","null","<div style=""font-size:60px;"">+</div>","null","fixation","","","","","","","","","","","","","",""
"revaluation","276","1199025","0.0-4.0-10.0-0.4","spark_pilot_2","7533","4","12","Female","","","false","","","","[694.8000000002794]","./assets/img/ocean/animals/seahorse.jpg","[""ArrowLeft""]","second stage test","ocean","0","{""ArrowUp,ArrowLeft"":2,""ArrowUp,ArrowRight"":11,""ArrowDown,ArrowLeft"":8,""ArrowDown,ArrowRight"":27}","false","ArrowDown,ArrowLeft","","","","revaluation","1","","","",""
"html-keyboard-response","277","1199533","0.0-4.0-10.0-1.4","spark_pilot_2","7533","4","12","Female","","","","","","","null","<div style=""font-size:60px;"">+</div>","null","fixation","","","","","","","","","","","","","",""
"revaluation","278","1199861","0.0-4.0-10.0-0.5","spark_pilot_2","7533","4","12","Female","","","false","","","","[324.60000000009313]","./assets/img/ocean/animals/seahorse.jpg","[""ArrowRight""]","second stage test","ocean","0","{""ArrowUp,ArrowLeft"":2,""ArrowUp,ArrowRight"":11,""ArrowDown,ArrowLeft"":8,""ArrowDown,ArrowRight"":27}","true","ArrowDown,ArrowRight","","","","revaluation","1","","","",""
"html-keyboard-response","279","1200375","0.0-4.0-10.0-1.5","spark_pilot_2","7533","4","12","Female","","","","","","","null","<div style=""font-size:60px;"">+</div>","null","fixation","","","","","","","","","","","","","",""
"revaluation","280","1200660","0.0-4.0-10.0-0.6","spark_pilot_2","7533","4","12","Female","","","false","","","","[282.20000000018626]","./assets/img/ocean/animals/seahorse.jpg","[""ArrowLeft""]","second stage test","ocean","0","{""ArrowUp,ArrowLeft"":2,""ArrowUp,ArrowRight"":11,""ArrowDown,ArrowLeft"":8,""ArrowDown,ArrowRight"":27}","false","ArrowDown,ArrowLeft","","","","revaluation","1","","","",""
"html-keyboard-response","281","1201171","0.0-4.0-10.0-1.6","spark_pilot_2","7533","4","12","Female","","","","","","","null","<div style=""font-size:60px;"">+</div>","null","fixation","","","","","","","","","","","","","",""
"revaluation","282","1201481","0.0-4.0-10.0-0.7","spark_pilot_2","7533","4","12","Female","","","false","","","","[307.10000000009313]","./assets/img/ocean/animals/seahorse.jpg","[""ArrowRight""]","second stage test","ocean","0","{""ArrowUp,ArrowLeft"":2,""ArrowUp,ArrowRight"":11,""ArrowDown,ArrowLeft"":8,""ArrowDown,ArrowRight"":27}","true","ArrowDown,ArrowRight","","","","revaluation","1","","","",""
"html-keyboard-response","283","1201994","0.0-4.0-10.0-1.7","spark_pilot_2","7533","4","12","Female","","","","","","","null","<div style=""font-size:60px;"">+</div>","null","fixation","","","","","","","","","","","","","",""
"learning-instructions","284","1206133","0.0-4.0-0.1-0.2","spark_pilot_2","7533","4","12","Female","","","","","","","1363.5","<p> This time you are searching for treasure in the <b>canyon</b>.</p>","","instructions","","","","","","","","","","","","","",""
"learning-instructions","285","1224137","0.0-4.0-0.1-0.3","spark_pilot_2","7533","4","12","Female","","","","","","","748.3000000002794","<p><b>New</b> animals with <b>new</b> treasure chests live here. You need to explore to discover where the animal with the best treasure chest is.</p>
                    <p> Like before, once you figure out which animal has the chest with the most treasure, you should try to get to that animal and select that chest! </p>","","instructions","","","","","","","","","","","","","",""
"learning-instructions","286","1242117","0.0-4.0-1.1-0.1","spark_pilot_2","7533","4","12","Female","","","","","","","3248.0999999996275","<p> Remember, when you see a picture of the place, use the up and down keys to <b>find an animal</b>.</p>
            <p> When you encounter an animal, you should use the left and right keys to <b>select a treasure chest</b>.</p>
            <p> Don't forget to look out for the robber! </p>","","instructions","","","","","","","","","","","","","",""
"revaluation","287","1246127","0.0-4.0-2.1-0.50","spark_pilot_2","7533","4","12","Female","","","false","","","","[512.1999999997206]","./assets/img/canyon/catch/2.jpg","[""ArrowUp""]","value training","canyon","-10","{""ArrowUp,ArrowLeft"":23,""ArrowUp,ArrowRight"":10,""ArrowDown,ArrowLeft"":8,""ArrowDown,ArrowRight"":30}","false","ArrowUp","true","","","original","2","0","","",""
"html-keyboard-response","288","1246642","0.0-4.0-2.1-1.50","spark_pilot_2","7533","4","12","Female","","","","","","","null","<div style=""font-size:60px;"">+</div>","null","fixation","","","","","","","","","","","1","","",""
"revaluation","289","1250653","0.0-4.0-2.1-0.51","spark_pilot_2","7533","4","12","Female","","","false","","","","[1070.6000000000931]","./assets/img/canyon/catch/5.jpg","[""spaceBar""]","value training","canyon","0","{""ArrowUp,ArrowLeft"":23,""ArrowUp,ArrowRight"":10,""ArrowDown,ArrowLeft"":8,""ArrowDown,ArrowRight"":30}","true","spaceBar","true","","","original","2","2","","",""
"html-keyboard-response","290","1251168","0.0-4.0-2.1-1.51","spark_pilot_2","7533","4","12","Female","","","","","","","null","<div style=""font-size:60px;"">+</div>","null","fixation","","","","","","","","","","","3","","",""
"revaluation","291","1257193","0.0-4.0-2.1-0.52","spark_pilot_2","7533","4","12","Female","","","false","","","","[471.70000000018626,658.2999999998137]","./assets/img/canyon/memory/13.jpg","[""ArrowUp"",""ArrowRight""]","value training","canyon","10","{""ArrowUp,ArrowLeft"":23,""ArrowUp,ArrowRight"":10,""ArrowDown,ArrowLeft"":8,""ArrowDown,ArrowRight"":30}","false","ArrowUp,ArrowRight","false","","","original","2","4","","",""
"html-keyboard-response","292","1257708","0.0-4.0-2.1-1.52","spark_pilot_2","7533","4","12","Female","","","","","","","null","<div style=""font-size:60px;"">+</div>","null","fixation","","","","","","","","","","","5","","",""
"revaluation","293","1263735","0.0-4.0-2.1-0.53","spark_pilot_2","7533","4","12","Female","","","false","","","","[451.79999999981374,407.39999999990687]","./assets/img/canyon/memory/6.jpg","[""ArrowUp"",""ArrowLeft""]","value training","canyon","23","{""ArrowUp,ArrowLeft"":23,""ArrowUp,ArrowRight"":10,""ArrowDown,ArrowLeft"":8,""ArrowDown,ArrowRight"":30}","false","ArrowUp,ArrowLeft","false","","","original","2","6","","",""
"html-keyboard-response","294","1264248","0.0-4.0-2.1-1.53","spark_pilot_2","7533","4","12","Female","","","","","","","null","<div style=""font-size:60px;"">+</div>","null","fixation","","","","","","","","","","","7","","",""
"revaluation","295","1268259","0.0-4.0-2.1-0.54","spark_pilot_2","7533","4","12","Female","","","false","","","","[451.39999999990687]","./assets/img/canyon/catch/6.jpg","[""spaceBar""]","value training","canyon","0","{""ArrowUp,ArrowLeft"":23,""ArrowUp,ArrowRight"":10,""ArrowDown,ArrowLeft"":8,""ArrowDown,ArrowRight"":30}","true","spaceBar","true","","","original","2","8","","",""
"html-keyboard-response","296","1268774","0.0-4.0-2.1-1.54","spark_pilot_2","7533","4","12","Female","","","","","","","null","<div style=""font-size:60px;"">+</div>","null","fixation","","","","","","","","","","","9","","",""
"revaluation","297","1274792","0.0-4.0-2.1-0.55","spark_pilot_2","7533","4","12","Female","","","false","","","","[501.20000000018626,711.5]","./assets/img/canyon/memory/41.jpg","[""ArrowDown"",""ArrowLeft""]","value training","canyon","8","{""ArrowUp,ArrowLeft"":23,""ArrowUp,ArrowRight"":10,""ArrowDown,ArrowLeft"":8,""ArrowDown,ArrowRight"":30}","false","ArrowDown,ArrowLeft","false","","","original","2","10","","",""
"html-keyboard-response","298","1275294","0.0-4.0-2.1-1.55","spark_pilot_2","7533","4","12","Female","","","","","","","null","<div style=""font-size:60px;"">+</div>","null","fixation","","","","","","","","","","","11","","",""
"revaluation","299","1281301","0.0-4.0-2.1-0.56","spark_pilot_2","7533","4","12","Female","","","false","","","","[492.3000000002794,411.70000000018626]","./assets/img/canyon/memory/4.jpg","[""ArrowDown"",""ArrowRight""]","value training","canyon","30","{""ArrowUp,ArrowLeft"":23,""ArrowUp,ArrowRight"":10,""ArrowDown,ArrowLeft"":8,""ArrowDown,ArrowRight"":30}","true","ArrowDown,ArrowRight","false","","","original","2","12","","",""
"html-keyboard-response","300","1281804","0.0-4.0-2.1-1.56","spark_pilot_2","7533","4","12","Female","","","","","","","null","<div style=""font-size:60px;"">+</div>","null","fixation","","","","","","","","","","","13","","",""
"revaluation","301","1287811","0.0-4.0-2.1-0.57","spark_pilot_2","7533","4","12","Female","","","false","","","","[774,362]","./assets/img/canyon/memory/15.jpg","[""ArrowDown"",""ArrowRight""]","value training","canyon","30","{""ArrowUp,ArrowLeft"":23,""ArrowUp,ArrowRight"":10,""ArrowDown,ArrowLeft"":8,""ArrowDown,ArrowRight"":30}","true","ArrowDown,ArrowRight","false","","","original","2","14","","",""
"html-keyboard-response","302","1288312","0.0-4.0-2.1-1.57","spark_pilot_2","7533","4","12","Female","","","","","","","null","<div style=""font-size:60px;"">+</div>","null","fixation","","","","","","","","","","","15","","",""
"revaluation","303","1292318","0.0-4.0-2.1-0.58","spark_pilot_2","7533","4","12","Female","","","false","","","","[795.7000000001863]","./assets/img/canyon/catch/1.jpg","[""spaceBar""]","value training","canyon","0","{""ArrowUp,ArrowLeft"":23,""ArrowUp,ArrowRight"":10,""ArrowDown,ArrowLeft"":8,""ArrowDown,ArrowRight"":30}","true","spaceBar","true","","","original","2","16","","",""
"html-keyboard-response","304","1292820","0.0-4.0-2.1-1.58","spark_pilot_2","7533","4","12","Female","","","","","","","null","<div style=""font-size:60px;"">+</div>","null","fixation","","","","","","","","","","","17","","",""
"revaluation","305","1298827","0.0-4.0-2.1-0.59","spark_pilot_2","7533","4","12","Female","","","false","","","","[803.3000000002794,464.60000000009313]","./assets/img/canyon/memory/6.jpg","[""ArrowDown"",""ArrowRight""]","value training","canyon","30","{""ArrowUp,ArrowLeft"":23,""ArrowUp,ArrowRight"":10,""ArrowDown,ArrowLeft"":8,""ArrowDown,ArrowRight"":30}","true","ArrowDown,ArrowRight","false","","","original","2","18","","",""
