"trial_type","trial_index","time_elapsed","internal_node_id","task_version","subject_id","assigned_condition","age","gender","success","timeout","failed_images","failed_audio","failed_video","browser_interaction","value","rt","stimulus","response","task_part","environment","score","rewardMap","correct","fullState","isCatch","numberMissed","duration","condition","order","trial_num","key_press","ground_truth","bonus"
"pavlovia","0","1360","0.0-0.0","spark_pilot_2","7289","4","10","Female","","","","","","","","","","","","","","","","","","","","","","","","",""
"preload","1","10253","0.0-1.0","spark_pilot_2","7289","4","10","Female","true","false","[]","[]","[]","[{""event"":""fullscreenenter"",""trial"":2,""time"":12067}]","","","","","","","","","","","","","","","","","","",""
"fullscreen","2","12996","0.0-2.0","spark_pilot_2","7289","4","10","Female","true","","","","","","","","","","","","","","","","","","","","","","","",""
"call-function","3","15506","0.0-3.0","spark_pilot_2","7289","4","10","Female","","","","","","","","","","","","","","","","","","","","","","","","",""
"audio-button-response","4","17370","0.0-4.0-0.0-0.0","spark_pilot_2","7289","4","10","Female","","","","","","","","1814","./assets/audio/audiotest/turtle.mp3","2","audio_test","","","","","","","","","","","","","",""
"learning-instructions","5","26042","0.0-4.0-1.0-0.0","spark_pilot_2","7289","4","10","Female","","","","","","","","1715","<p> Welcome! Please remember to stay in fullscreen mode and don't click away from the experiment. </p>","","instructions","","","","","","","","","","","","","",""
"learning-instructions","6","36008","0.0-4.0-1.0-0.1","spark_pilot_2","7289","4","10","Female","","","","","","","","1577.0000000000073","<p> Today you will be playing a game to earn treasure. </p>
            <p> At the end of the experiment, you will earn a bonus based on how much treasure you find. </p>
            <img src='./assets/img/instructions/treasure.jpg' class='instructions-image'>","","instructions","","","","","","","","","","","","","",""
"learning-instructions","7","46200","0.0-4.0-1.0-0.2","spark_pilot_2","7289","4","10","Female","","","","","","","","1954.0000000000073","<p> Animals have hidden treasure in treasure chests. </p>
            <p> You need to first find an animal and then choose which of their treasure chests to search. </p>
            <img src='./assets/img/space/animals/cat.jpg' class='instructions-image'>","","instructions","","","","","","","","","","","","","",""
"learning-instructions","8","60976","0.0-4.0-1.0-0.3","spark_pilot_2","7289","4","10","Female","","","","","","","","1650","<p> In each round, you will search for treasure in a different place. In the real game, there will be two rounds. </p>
            <p> You will begin with a separate, practice round where you will search for treasure in outer space. </p>
            <img src='./assets/img/space/0.jpg' class='instructions-image'>","","instructions","","","","","","","","","","","","","",""
"learning-instructions","9","74135","0.0-4.0-1.0-0.4","spark_pilot_2","7289","4","10","Female","","","","","","","","1763.9999999999854","<p> On every turn, you will see a picture of the place that you are in, but the specific image may be different each time. </p>
            <p> For example, both of these images mean you are in outer space. </p>
            <img src='./assets/img/instructions/outerspace.jpg' class='instructions-image'>","","instructions","","","","","","","","","","","","","",""
"learning-instructions","10","84239","0.0-4.0-1.0-0.5","spark_pilot_2","7289","4","10","Female","","","","","","","","2295","<p> You need to decide which direction to travel in. </p>
            <p> You can choose between going <b>up or down</b> by using the arrow keys. </p>
            <img src='./assets/img/instructions/updown.jpg' class='instructions-image'>","","instructions","","","","","","","","","","","","","",""
"learning-instructions","11","95231","0.0-4.0-1.0-0.6","spark_pilot_2","7289","4","10","Female","","","","","","","","2205.0000000000146","<p> You will have <b>2 seconds</b> to make your choice. </p>
            <p> If you do not make a choice within 2 seconds, you will not find an animal or earn treasure. </p>
            <img src='./assets/img/instructions/2seconds.jpg' class='instructions-image'>","","instructions","","","","","","","","","","","","","",""
"learning-instructions","12","103870","0.0-4.0-1.0-0.7","spark_pilot_2","7289","4","10","Female","","","","","","","","1621.0000000000146","<p> Let’s try practicing that now! </p>
            <p> When you see a picture of the place you are in, press the <b>up</b> key to travel up. </p>
            <img src='./assets/img/instructions/pressUp.jpg' class='instructions-image'>","","instructions","","","","","","","","","","","","","",""
"revaluation","13","107884","0.0-4.0-2.0-0.0","spark_pilot_2","7289","4","10","Female","","false","","","","","","[195]","./assets/img/space/0.jpg","[""ArrowUp""]","first stage practice","space","0","null","null","ArrowUp","false","","","","","","","",""
"html-keyboard-response","14","108385","0.0-4.0-2.0-1.0","spark_pilot_2","7289","4","10","Female","","","","","","","","null","<div style=""font-size:60px;"">+</div>","null","fixation","","","","","","","","","","","","","",""
"revaluation","15","112389","0.0-4.0-2.0-0.1","spark_pilot_2","7289","4","10","Female","","false","","","","","","[1402]","./assets/img/space/1.jpg","[""ArrowUp""]","first stage practice","space","0","null","null","ArrowUp","false","","","","","","","",""
"html-keyboard-response","16","112889","0.0-4.0-2.0-1.1","spark_pilot_2","7289","4","10","Female","","","","","","","","null","<div style=""font-size:60px;"">+</div>","null","fixation","","","","","","","","","","","","","",""
"revaluation","17","116893","0.0-4.0-2.0-0.2","spark_pilot_2","7289","4","10","Female","","false","","","","","","[482]","./assets/img/space/2.jpg","[""ArrowUp""]","first stage practice","space","0","null","null","ArrowUp","false","","","","","","","",""
"html-keyboard-response","18","117394","0.0-4.0-2.0-1.2","spark_pilot_2","7289","4","10","Female","","","","","","","","null","<div style=""font-size:60px;"">+</div>","null","fixation","","","","","","","","","","","","","",""
"learning-instructions","19","126262","0.0-4.0-3.0-0.0","spark_pilot_2","7289","4","10","Female","","","","","","","","4182.999999999985","<p> Great job! Now try pressing the <b>down</b> key to travel down. </p>
            <img src='./assets/img/instructions/pressDown.jpg' class='instructions-image'>","","instructions","","","","","","","","","","","","","",""
"revaluation","20","130266","0.0-4.0-4.0-0.0","spark_pilot_2","7289","4","10","Female","","false","","","","","","[594]","./assets/img/space/3.jpg","[""ArrowDown""]","first stage practice","space","0","null","null","ArrowDown","false","","","","","","","",""
"html-keyboard-response","21","130768","0.0-4.0-4.0-1.0","spark_pilot_2","7289","4","10","Female","","","","","","","","null","<div style=""font-size:60px;"">+</div>","null","fixation","","","","","","","","","","","","","",""
"revaluation","22","134772","0.0-4.0-4.0-0.1","spark_pilot_2","7289","4","10","Female","","true","","","","","","[]","./assets/img/space/4.jpg","[]","first stage practice","space","-5","null","null","","false","","","","","","","",""
"html-keyboard-response","23","135273","0.0-4.0-4.0-1.1","spark_pilot_2","7289","4","10","Female","","","","","","","","null","<div style=""font-size:60px;"">+</div>","null","fixation","","","","","","","","","","","","","",""
"revaluation","24","139276","0.0-4.0-4.0-0.2","spark_pilot_2","7289","4","10","Female","","false","","","","","","[583]","./assets/img/space/5.jpg","[""ArrowDown""]","first stage practice","space","0","null","null","ArrowDown","false","","","","","","","",""
"html-keyboard-response","25","139777","0.0-4.0-4.0-1.2","spark_pilot_2","7289","4","10","Female","","","","","","","","null","<div style=""font-size:60px;"">+</div>","null","fixation","","","","","","","","","","","","","",""
"learning-instructions","26","153621","0.0-4.0-5.0-0.0","spark_pilot_2","7289","4","10","Female","","","","","","","","4016","<p> The animals don’t move, so the animal in the upper part of a place will stay in the upper part of a place, and the animal in the lower part of a place will stay in the lower part of a place. </p>","","instructions","","","","","","","","","","","","","",""
"learning-instructions","27","163500","0.0-4.0-5.0-0.1","spark_pilot_2","7289","4","10","Female","","","","","","","","771","<p> Each animal has two treasure chests for you to choose from. </p>
            <p> The amount of treasure in each chest can range from <b> 0 to 40 pieces.</b></p>","","instructions","","","","","","","","","","","","","",""
"learning-instructions","28","175260","0.0-4.0-5.0-0.2","spark_pilot_2","7289","4","10","Female","","","","","","","","595.9999999999709","<p> You should decide which chest to search for treasure by using the <b>left</b> and <b>right</b> arrow keys. </p>
            <p><b> Pay attention to which animal is on the screen, as the animals have different treasure chests. </b></p>
            <img src='./assets/img/instructions/leftright.jpg' class='instructions-image'>","","instructions","","","","","","","","","","","","","",""
"learning-instructions","29","182316","0.0-4.0-5.0-0.3","spark_pilot_2","7289","4","10","Female","","","","","","","","709","<p> Let’s try practicing that now. </p>
            <p> When you see an animal, choose which chest to search for treasure. </p>
            <img src='./assets/img/instructions/chooseChest.jpg' class='instructions-image'>","","instructions","","","","","","","","","","","","","",""
"revaluation","30","186321","0.0-4.0-6.0-0.0","spark_pilot_2","7289","4","10","Female","","false","","","","","","[729]","./assets/img/space/animals/rabbit.jpg","[""ArrowLeft""]","second stage practice","space","15","{""ArrowUp,ArrowLeft"":3,""ArrowUp,ArrowRight"":36,""ArrowDown,ArrowLeft"":15,""ArrowDown,ArrowRight"":23}","false","ArrowDown,ArrowLeft","","","","","","","","",""
"html-keyboard-response","31","186822","0.0-4.0-6.0-1.0","spark_pilot_2","7289","4","10","Female","","","","","","","","null","<div style=""font-size:60px;"">+</div>","null","fixation","","","","","","","","","","","","","",""
"revaluation","32","190826","0.0-4.0-6.0-0.1","spark_pilot_2","7289","4","10","Female","","false","","","","","","[1022]","./assets/img/space/animals/cat.jpg","[""ArrowLeft""]","second stage practice","space","3","{""ArrowUp,ArrowLeft"":3,""ArrowUp,ArrowRight"":36,""ArrowDown,ArrowLeft"":15,""ArrowDown,ArrowRight"":23}","false","ArrowUp,ArrowLeft","","","","","","","","",""
"html-keyboard-response","33","191327","0.0-4.0-6.0-1.1","spark_pilot_2","7289","4","10","Female","","","","","","","","null","<div style=""font-size:60px;"">+</div>","null","fixation","","","","","","","","","","","","","",""
"revaluation","34","195331","0.0-4.0-6.0-0.2","spark_pilot_2","7289","4","10","Female","","false","","","","","","[327]","./assets/img/space/animals/rabbit.jpg","[""ArrowRight""]","second stage practice","space","23","{""ArrowUp,ArrowLeft"":3,""ArrowUp,ArrowRight"":36,""ArrowDown,ArrowLeft"":15,""ArrowDown,ArrowRight"":23}","true","ArrowDown,ArrowRight","","","","","","","","",""
"html-keyboard-response","35","195833","0.0-4.0-6.0-1.2","spark_pilot_2","7289","4","10","Female","","","","","","","","null","<div style=""font-size:60px;"">+</div>","null","fixation","","","","","","","","","","","","","",""
"revaluation","36","199837","0.0-4.0-6.0-0.3","spark_pilot_2","7289","4","10","Female","","false","","","","","","[516]","./assets/img/space/animals/cat.jpg","[""ArrowRight""]","second stage practice","space","36","{""ArrowUp,ArrowLeft"":3,""ArrowUp,ArrowRight"":36,""ArrowDown,ArrowLeft"":15,""ArrowDown,ArrowRight"":23}","true","ArrowUp,ArrowRight","","","","","","","","",""
"html-keyboard-response","37","200338","0.0-4.0-6.0-1.3","spark_pilot_2","7289","4","10","Female","","","","","","","","null","<div style=""font-size:60px;"">+</div>","null","fixation","","","","","","","","","","","","","",""
"learning-instructions","38","219636","0.0-4.0-7.0-0.0","spark_pilot_2","7289","4","10","Female","","","","","","","","2503","<p> Great job. Now let’s try putting it together. </p>
            <p> On each turn, you will first see a picture to remind you of the place you are in, and you need to choose whether to go up or down. </p>
            <p> Then you will see an animal and choose which of its chests to search for treasure. </p>","","instructions","","","","","","","","","","","","","",""
"learning-instructions","39","228354","0.0-4.0-7.0-0.1","spark_pilot_2","7289","4","10","Female","","","","","","","","480","<p> When you choose whether to go up or down, try to go to the animal with the chest with the most treasure. </p>
            <p> Try practicing that now! </p>","","instructions","","","","","","","","","","","","","",""
"revaluation","40","234359","0.0-4.0-8.0-0.0","spark_pilot_2","7289","4","10","Female","","false","","","","","","[440,494]","./assets/img/space/6.jpg","[""ArrowUp"",""ArrowLeft""]","full practice","space","3","{""ArrowUp,ArrowLeft"":3,""ArrowUp,ArrowRight"":36,""ArrowDown,ArrowLeft"":15,""ArrowDown,ArrowRight"":23}","false","ArrowUp,ArrowLeft","false","","","","","","","",""
"html-keyboard-response","41","234860","0.0-4.0-8.0-1.0","spark_pilot_2","7289","4","10","Female","","","","","","","","null","<div style=""font-size:60px;"">+</div>","null","fixation","","","","","","","","","","","","","",""
"revaluation","42","240865","0.0-4.0-8.0-0.1","spark_pilot_2","7289","4","10","Female","","false","","","","","","[1178,542]","./assets/img/space/7.jpg","[""ArrowDown"",""ArrowRight""]","full practice","space","23","{""ArrowUp,ArrowLeft"":3,""ArrowUp,ArrowRight"":36,""ArrowDown,ArrowLeft"":15,""ArrowDown,ArrowRight"":23}","false","ArrowDown,ArrowRight","false","","","","","","","",""
"html-keyboard-response","43","241367","0.0-4.0-8.0-1.1","spark_pilot_2","7289","4","10","Female","","","","","","","","null","<div style=""font-size:60px;"">+</div>","null","fixation","","","","","","","","","","","","","",""
"revaluation","44","247371","0.0-4.0-8.0-0.2","spark_pilot_2","7289","4","10","Female","","false","","","","","","[491,395]","./assets/img/space/8.jpg","[""ArrowDown"",""ArrowRight""]","full practice","space","23","{""ArrowUp,ArrowLeft"":3,""ArrowUp,ArrowRight"":36,""ArrowDown,ArrowLeft"":15,""ArrowDown,ArrowRight"":23}","false","ArrowDown,ArrowRight","false","","","","","","","",""
"html-keyboard-response","45","247873","0.0-4.0-8.0-1.2","spark_pilot_2","7289","4","10","Female","","","","","","","","null","<div style=""font-size:60px;"">+</div>","null","fixation","","","","","","","","","","","","","",""
"revaluation","46","253878","0.0-4.0-8.0-0.3","spark_pilot_2","7289","4","10","Female","","false","","","","","","[616.0000000000291,444]","./assets/img/space/9.jpg","[""ArrowDown"",""ArrowRight""]","full practice","space","23","{""ArrowUp,ArrowLeft"":3,""ArrowUp,ArrowRight"":36,""ArrowDown,ArrowLeft"":15,""ArrowDown,ArrowRight"":23}","false","ArrowDown,ArrowRight","false","","","","","","","",""
"html-keyboard-response","47","254379","0.0-4.0-8.0-1.3","spark_pilot_2","7289","4","10","Female","","","","","","","","null","<div style=""font-size:60px;"">+</div>","null","fixation","","","","","","","","","","","","","",""
"revaluation","48","260383","0.0-4.0-8.0-0.4","spark_pilot_2","7289","4","10","Female","","false","","","","","","[409.0000000000582,374.0000000000291]","./assets/img/space/10.jpg","[""ArrowDown"",""ArrowRight""]","full practice","space","23","{""ArrowUp,ArrowLeft"":3,""ArrowUp,ArrowRight"":36,""ArrowDown,ArrowLeft"":15,""ArrowDown,ArrowRight"":23}","false","ArrowDown,ArrowRight","false","","","","","","","",""
"html-keyboard-response","49","260885","0.0-4.0-8.0-1.4","spark_pilot_2","7289","4","10","Female","","","","","","","","null","<div style=""font-size:60px;"">+</div>","null","fixation","","","","","","","","","","","","","",""
"learning-instructions","50","273921","0.0-4.0-9.0-0.0","spark_pilot_2","7289","4","10","Female","","","","","","","","1024","<p> One last thing: sometimes, you will see a robber. The robber can be anywhere in the picture. </p>
            <p> If you do not stop them, you will lose treasure. </p>
            <img src='./assets/img/instructions/robber.jpg' class='instructions-image'>","","instructions","","","","","","","","","","","","","",""
"learning-instructions","51","281864","0.0-4.0-9.0-0.1","spark_pilot_2","7289","4","10","Female","","","","","","","","793","<p> If you see the robber, you should <b>press the space bar</b> rather than using the arrow keys. </p>
            <p> Try practicing that now! </p>","","instructions","","","","","","","","","","","","","",""
"revaluation","52","285867","0.0-4.0-10.0-0.0","spark_pilot_2","7289","4","10","Female","","false","","","","","","[928]","./assets/img/space/catch/0.jpg","[""spaceBar""]","catch practice","space","0","{""ArrowUp,ArrowLeft"":3,""ArrowUp,ArrowRight"":36,""ArrowDown,ArrowLeft"":15,""ArrowDown,ArrowRight"":23}","true","spaceBar","true","","","","","","","",""
"html-keyboard-response","53","286368","0.0-4.0-10.0-1.0","spark_pilot_2","7289","4","10","Female","","","","","","","","null","<div style=""font-size:60px;"">+</div>","null","fixation","","","","","","","","","","","","","",""
"revaluation","54","290374","0.0-4.0-10.0-0.1","spark_pilot_2","7289","4","10","Female","","false","","","","","","[805]","./assets/img/space/catch/1.jpg","[""spaceBar""]","catch practice","space","0","{""ArrowUp,ArrowLeft"":3,""ArrowUp,ArrowRight"":36,""ArrowDown,ArrowLeft"":15,""ArrowDown,ArrowRight"":23}","true","spaceBar","true","","","","","","","",""
"html-keyboard-response","55","290876","0.0-4.0-10.0-1.1","spark_pilot_2","7289","4","10","Female","","","","","","","","null","<div style=""font-size:60px;"">+</div>","null","fixation","","","","","","","","","","","","","",""
"revaluation","56","294880","0.0-4.0-10.0-0.2","spark_pilot_2","7289","4","10","Female","","false","","","","","","[422]","./assets/img/space/catch/2.jpg","[""spaceBar""]","catch practice","space","0","{""ArrowUp,ArrowLeft"":3,""ArrowUp,ArrowRight"":36,""ArrowDown,ArrowLeft"":15,""ArrowDown,ArrowRight"":23}","true","spaceBar","true","","","","","","","",""
"html-keyboard-response","57","295381","0.0-4.0-10.0-1.2","spark_pilot_2","7289","4","10","Female","","","","","","","","null","<div style=""font-size:60px;"">+</div>","null","fixation","","","","","","","","","","","","","",""
"learning-instructions","58","311328","0.0-4.0-11.0-0.0","spark_pilot_2","7289","4","10","Female","","","","","","","","2380","<p> After you explore a place to find treasure, it will be time to play a different game. </p>
            <p> During this game, red dots will appear on the screen and fall down slowly. </p>
            <p><b> You must click on them before they reach the bottom. </b></p>
            <img src='./assets/img/instructions/dotGame.jpg' class='instructions-image'>","","instructions","","","","","","","","","","","","","",""
"learning-instructions","59","318279","0.0-4.0-11.0-0.1","spark_pilot_2","7289","4","10","Female","","","","","","","","1292","<p> For every dot you click, you will earn additional treasure. </p>
            <p> Let’s try practicing that now. </p>","","instructions","","","","","","","","","","","","","",""
"revaluation","60","333282","0.0-4.0-12.0-0.0","spark_pilot_2","7289","4","10","Female","","","","","","","","[137]","","","rest practice","","10","","","","","0","15000","","","","","",""
"learning-instructions","61","340999","0.0-4.0-13.0-0.0-0.0","spark_pilot_2","7289","4","10","Female","","","","","","","","2493","<p> Now, you will practice a shortened version of the game to get a sense of how it all fits together. </p>","","instructions","","","","","","","","","","","","","",""
"learning-instructions","62","346102","0.0-4.0-13.0-0.0-0.1","spark_pilot_2","7289","4","10","Female","","","","","","","","1927","<p>This time you are searching for treasure in outer space.</p>","","instructions","","","","","","","","","","","","","",""
"learning-instructions","63","363262","0.0-4.0-13.0-1.0-0.0","spark_pilot_2","7289","4","10","Female","","","","","","","","2413","<p> Remember, when you see a picture of the place, use the up and down keys to <b>find an animal</b>.</p>
            <p> When you encounter an animal, you should use the left and right keys to <b>select a treasure chest</b>.</p>
            <p> Don't forget to look out for the robber! </p>","","instructions","","","","","","","","","","","","","",""
"revaluation","64","369266","0.0-4.0-13.0-2.0-0.0","spark_pilot_2","7289","4","10","Female","","false","","","","","","[994.0000000000582,1063]","./assets/img/space/11.jpg","[""ArrowUp"",""ArrowRight""]","practice block","space","36","{""ArrowUp,ArrowLeft"":3,""ArrowUp,ArrowRight"":36,""ArrowDown,ArrowLeft"":15,""ArrowDown,ArrowRight"":23}","true","ArrowUp,ArrowRight","false","","","","","","","",""
"html-keyboard-response","65","369767","0.0-4.0-13.0-2.0-1.0","spark_pilot_2","7289","4","10","Female","","","","","","","","null","<div style=""font-size:60px;"">+</div>","null","fixation","","","","","","","","","","","","","",""
"revaluation","66","375771","0.0-4.0-13.0-2.0-0.1","spark_pilot_2","7289","4","10","Female","","false","","","","","","[877.9999999999418,452]","./assets/img/space/12.jpg","[""ArrowUp"",""ArrowRight""]","practice block","space","36","{""ArrowUp,ArrowLeft"":3,""ArrowUp,ArrowRight"":36,""ArrowDown,ArrowLeft"":15,""ArrowDown,ArrowRight"":23}","true","ArrowUp,ArrowRight","false","","","","","","","",""
"html-keyboard-response","67","376273","0.0-4.0-13.0-2.0-1.1","spark_pilot_2","7289","4","10","Female","","","","","","","","null","<div style=""font-size:60px;"">+</div>","null","fixation","","","","","","","","","","","","","",""
"revaluation","68","382277","0.0-4.0-13.0-2.0-0.2","spark_pilot_2","7289","4","10","Female","","false","","","","","","[837,486]","./assets/img/space/13.jpg","[""ArrowUp"",""ArrowRight""]","practice block","space","36","{""ArrowUp,ArrowLeft"":3,""ArrowUp,ArrowRight"":36,""ArrowDown,ArrowLeft"":15,""ArrowDown,ArrowRight"":23}","true","ArrowUp,ArrowRight","false","","","","","","","",""
"html-keyboard-response","69","382779","0.0-4.0-13.0-2.0-1.2","spark_pilot_2","7289","4","10","Female","","","","","","","","null","<div style=""font-size:60px;"">+</div>","null","fixation","","","","","","","","","","","","","",""
"revaluation","70","388783","0.0-4.0-13.0-2.0-0.3","spark_pilot_2","7289","4","10","Female","","false","","","","","","[750.9999999999418,535.0000000000582]","./assets/img/space/14.jpg","[""ArrowUp"",""ArrowRight""]","practice block","space","36","{""ArrowUp,ArrowLeft"":3,""ArrowUp,ArrowRight"":36,""ArrowDown,ArrowLeft"":15,""ArrowDown,ArrowRight"":23}","true","ArrowUp,ArrowRight","false","","","","","","","",""
"html-keyboard-response","71","389284","0.0-4.0-13.0-2.0-1.3","spark_pilot_2","7289","4","10","Female","","","","","","","","null","<div style=""font-size:60px;"">+</div>","null","fixation","","","","","","","","","","","","","",""
"revaluation","72","395288","0.0-4.0-13.0-2.0-0.4","spark_pilot_2","7289","4","10","Female","","false","","","","","","[695,346]","./assets/img/space/11.jpg","[""ArrowUp"",""ArrowRight""]","practice block","space","36","{""ArrowUp,ArrowLeft"":3,""ArrowUp,ArrowRight"":36,""ArrowDown,ArrowLeft"":15,""ArrowDown,ArrowRight"":23}","true","ArrowUp,ArrowRight","false","","","","","","","",""
"html-keyboard-response","73","395790","0.0-4.0-13.0-2.0-1.4","spark_pilot_2","7289","4","10","Female","","","","","","","","null","<div style=""font-size:60px;"">+</div>","null","fixation","","","","","","","","","","","","","",""
"revaluation","74","401794","0.0-4.0-13.0-2.0-0.5","spark_pilot_2","7289","4","10","Female","","false","","","","","","[610,348]","./assets/img/space/12.jpg","[""ArrowUp"",""ArrowRight""]","practice block","space","36","{""ArrowUp,ArrowLeft"":3,""ArrowUp,ArrowRight"":36,""ArrowDown,ArrowLeft"":15,""ArrowDown,ArrowRight"":23}","true","ArrowUp,ArrowRight","false","","","","","","","",""
"html-keyboard-response","75","402296","0.0-4.0-13.0-2.0-1.5","spark_pilot_2","7289","4","10","Female","","","","","","","","null","<div style=""font-size:60px;"">+</div>","null","fixation","","","","","","","","","","","","","",""
"revaluation","76","408301","0.0-4.0-13.0-2.0-0.6","spark_pilot_2","7289","4","10","Female","","false","","","","","","[433,457.0000000000582]","./assets/img/space/13.jpg","[""ArrowUp"",""ArrowRight""]","practice block","space","36","{""ArrowUp,ArrowLeft"":3,""ArrowUp,ArrowRight"":36,""ArrowDown,ArrowLeft"":15,""ArrowDown,ArrowRight"":23}","true","ArrowUp,ArrowRight","false","","","","","","","",""
"html-keyboard-response","77","408802","0.0-4.0-13.0-2.0-1.6","spark_pilot_2","7289","4","10","Female","","","","","","","","null","<div style=""font-size:60px;"">+</div>","null","fixation","","","","","","","","","","","","","",""
"revaluation","78","414806","0.0-4.0-13.0-2.0-0.7","spark_pilot_2","7289","4","10","Female","","false","","","","","","[618,387.9999999999418]","./assets/img/space/14.jpg","[""ArrowUp"",""ArrowRight""]","practice block","space","36","{""ArrowUp,ArrowLeft"":3,""ArrowUp,ArrowRight"":36,""ArrowDown,ArrowLeft"":15,""ArrowDown,ArrowRight"":23}","true","ArrowUp,ArrowRight","false","","","","","","","",""
"html-keyboard-response","79","415307","0.0-4.0-13.0-2.0-1.7","spark_pilot_2","7289","4","10","Female","","","","","","","","null","<div style=""font-size:60px;"">+</div>","null","fixation","","","","","","","","","","","","","",""
"revaluation","80","419311","0.0-4.0-13.0-2.0-0.8","spark_pilot_2","7289","4","10","Female","","false","","","","","","[741]","./assets/img/space/catch/3.jpg","[""spaceBar""]","practice block","space","0","{""ArrowUp,ArrowLeft"":3,""ArrowUp,ArrowRight"":36,""ArrowDown,ArrowLeft"":15,""ArrowDown,ArrowRight"":23}","true","spaceBar","true","","","","","","","",""
"html-keyboard-response","81","419813","0.0-4.0-13.0-2.0-1.8","spark_pilot_2","7289","4","10","Female","","","","","","","","null","<div style=""font-size:60px;"">+</div>","null","fixation","","","","","","","","","","","","","",""
"learning-instructions","82","436339","0.0-4.0-13.0-3.0-0.0","spark_pilot_2","7289","4","10","Female","","","","","","","","3630","<p> Now, you will travel with a friend who will choose whether you go up or down first. </p>
            <p> On these turns, you will just see the animal that they found. You will still get to choose which chest to search for treasure.</p>","","instructions","","","","","","","","","","","","","",""
"revaluation","83","440342","0.0-4.0-13.0-4.0-0.0","spark_pilot_2","7289","4","10","Female","","false","","","","","","[1534.0000000000582]","./assets/img/space/animals/cat.jpg","[""ArrowRight""]","practice block","space","36","{""ArrowUp,ArrowLeft"":3,""ArrowUp,ArrowRight"":36,""ArrowDown,ArrowLeft"":15,""ArrowDown,ArrowRight"":23}","true","ArrowUp,ArrowRight","","","","","","","","",""
"html-keyboard-response","84","440844","0.0-4.0-13.0-4.0-1.0","spark_pilot_2","7289","4","10","Female","","","","","","","","null","<div style=""font-size:60px;"">+</div>","null","fixation","","","","","","","","","","","","","",""
"revaluation","85","444846","0.0-4.0-13.0-4.0-0.1","spark_pilot_2","7289","4","10","Female","","false","","","","","","[660]","./assets/img/space/animals/rabbit.jpg","[""ArrowRight""]","practice block","space","23","{""ArrowUp,ArrowLeft"":3,""ArrowUp,ArrowRight"":36,""ArrowDown,ArrowLeft"":15,""ArrowDown,ArrowRight"":23}","true","ArrowDown,ArrowRight","","","","","","","","",""
"html-keyboard-response","86","445348","0.0-4.0-13.0-4.0-1.1","spark_pilot_2","7289","4","10","Female","","","","","","","","null","<div style=""font-size:60px;"">+</div>","null","fixation","","","","","","","","","","","","","",""
"revaluation","87","449351","0.0-4.0-13.0-4.0-0.2","spark_pilot_2","7289","4","10","Female","","false","","","","","","[476]","./assets/img/space/animals/cat.jpg","[""ArrowRight""]","practice block","space","36","{""ArrowUp,ArrowLeft"":3,""ArrowUp,ArrowRight"":36,""ArrowDown,ArrowLeft"":15,""ArrowDown,ArrowRight"":23}","true","ArrowUp,ArrowRight","","","","","","","","",""
"html-keyboard-response","88","449852","0.0-4.0-13.0-4.0-1.2","spark_pilot_2","7289","4","10","Female","","","","","","","","null","<div style=""font-size:60px;"">+</div>","null","fixation","","","","","","","","","","","","","",""
"revaluation","89","453856","0.0-4.0-13.0-4.0-0.3","spark_pilot_2","7289","4","10","Female","","false","","","","","","[472]","./assets/img/space/animals/rabbit.jpg","[""ArrowRight""]","practice block","space","23","{""ArrowUp,ArrowLeft"":3,""ArrowUp,ArrowRight"":36,""ArrowDown,ArrowLeft"":15,""ArrowDown,ArrowRight"":23}","true","ArrowDown,ArrowRight","","","","","","","","",""
"html-keyboard-response","90","454358","0.0-4.0-13.0-4.0-1.3","spark_pilot_2","7289","4","10","Female","","","","","","","","null","<div style=""font-size:60px;"">+</div>","null","fixation","","","","","","","","","","","","","",""
"learning-instructions","91","465946","0.0-4.0-13.0-5.0-0.0","spark_pilot_2","7289","4","10","Female","","","","","","","","2666","<p> Time to play the dot game! </p>
            <p> For 15 seconds, click the red dots on the following screen as they appear. </p>","","instructions","","","","","","","","","","","","","",""
"revaluation","92","480948","0.0-4.0-13.0-6.0-0.0","spark_pilot_2","7289","4","10","Female","","","","","","","","[67,79]","","","rest practice","","20","","","","","0","15000","","","","","",""
"learning-instructions","93","488650","0.0-4.0-13.0-7.0-0.0","spark_pilot_2","7289","4","10","Female","","","","","","","","1593","<p> You have almost finished this part of the game! </p>
            <p> We are going to ask you to make a few more choices. </p>","","instructions","","","","","","","","","","","","","",""
"learning-instructions","94","503657","0.0-4.0-13.0-7.0-0.1","spark_pilot_2","7289","4","10","Female","","","","","","","","1020","<p> First, you need to decide whether to go up or down. When you see each picture, use the arrow keys to make your choice. </p>
            <p><b>You will not see which animal you found, but try to get to the one that will give you the most treasure.</b></p>","","instructions","","","","","","","","","","","","","",""
"revaluation","95","504849","0.0-4.0-13.0-8.0","spark_pilot_2","7289","4","10","Female","","false","","","","","","[1190]","./assets/img/space/15.jpg","[""ArrowUp""]","practice block","space","0","{""ArrowUp,ArrowLeft"":3,""ArrowUp,ArrowRight"":36,""ArrowDown,ArrowLeft"":15,""ArrowDown,ArrowRight"":23}","true","ArrowUp","false","","","","","","","",""
"html-keyboard-response","96","505350","0.0-4.0-13.0-9.0","spark_pilot_2","7289","4","10","Female","","","","","","","","null","<div style=""font-size:60px;"">+</div>","null","fixation","","","","","","","","","","","","","",""
"learning-instructions","97","518496","0.0-4.0-13.0-10.0-0.0","spark_pilot_2","7289","4","10","Female","","","","","","","","1795.0000000001164","<p> Now you will see the animals again and can search their chests for treasure. </p>
            <p> This time, you will not see how much treasure you earned, but you will earn more bonus money for making better choices. </p>","","instructions","","","","","","","","","","","","","",""
"revaluation","98","519578","0.0-4.0-13.0-11.0-0.0","spark_pilot_2","7289","4","10","Female","","false","","","","","","[1081.0000000000582]","./assets/img/space/animals/cat.jpg","[""ArrowRight""]","practice block","space","0","{""ArrowUp,ArrowLeft"":3,""ArrowUp,ArrowRight"":36,""ArrowDown,ArrowLeft"":15,""ArrowDown,ArrowRight"":23}","true","ArrowUp,ArrowRight","","","","","","","","",""
"html-keyboard-response","99","520080","0.0-4.0-13.0-11.0-1.0","spark_pilot_2","7289","4","10","Female","","","","","","","","null","<div style=""font-size:60px;"">+</div>","null","fixation","","","","","","","","","","","","","",""
"revaluation","100","520853","0.0-4.0-13.0-11.0-0.1","spark_pilot_2","7289","4","10","Female","","false","","","","","","[771.0000000001164]","./assets/img/space/animals/rabbit.jpg","[""ArrowRight""]","practice block","space","0","{""ArrowUp,ArrowLeft"":3,""ArrowUp,ArrowRight"":36,""ArrowDown,ArrowLeft"":15,""ArrowDown,ArrowRight"":23}","true","ArrowDown,ArrowRight","","","","","","","","",""
"html-keyboard-response","101","521355","0.0-4.0-13.0-11.0-1.1","spark_pilot_2","7289","4","10","Female","","","","","","","","null","<div style=""font-size:60px;"">+</div>","null","fixation","","","","","","","","","","","","","",""
"learning-instructions","102","527248","0.0-4.0-14.0-0.0","spark_pilot_2","7289","4","10","Female","","","","","","","","1328","<p> Before you start, we're going to ask you a few questions about how the game works. </p>","","instructions","","","","","","","","","","","","","",""
"comp-q","103","534496","0.0-4.0-15.0-0.0-0.0","spark_pilot_2","7289","4","10","Female","","","","","","","","1678.9999999998836","<p> <b> True or False? </b> </p>
            <p> There can be 50 pieces of treasure in a given animal's chest. </p>","1","comp_question","","","","true","","","","","","","","","",""
"comp-q","104","543048","0.0-4.0-15.0-0.0-1.0","spark_pilot_2","7289","4","10","Female","","","","","","","","1069","<p> <b> That's right! </b> The amount of treasure in each chest can range from 0 to 40 pieces. </p>","0","comp_answer","","","","","","","","","","","","","",""
"comp-q","105","555503","0.0-4.0-15.0-0.1-0.1","spark_pilot_2","7289","4","10","Female","","","","","","","","5357","<p> <b> True or False? </b> </p><p> In this game, all animals have the same amount of treasure in their left and right chests. </p>","1","comp_question","","","","true","","","","","","","","","",""
"comp-q","106","563079","0.0-4.0-15.0-0.1-1.1","spark_pilot_2","7289","4","10","Female","","","","","","","","2358.9999999998836","<p> <b> That's right! </b> Animals have different amounts of treasure in their treasure chests. </p>","0","comp_answer","","","","","","","","","","","","","",""
"comp-q","107","570736","0.0-4.0-15.0-0.2-0.2","spark_pilot_2","7289","4","10","Female","","","","","","","","1828","<p> <b> True or False? </b> </p><p> The same animal will always be there if you go up in the same place. </p>","0","comp_question","","","","true","","","","","","","","","",""
"comp-q","108","579142","0.0-4.0-15.0-0.2-1.2","spark_pilot_2","7289","4","10","Female","","","","","","","","1031.0000000001164","<p> <b> That's right! </b> One animal lives in the upper part and one lives in the lower part of every place. </p>","0","comp_answer","","","","","","","","","","","","","",""
"comp-q","109","595590","0.0-4.0-15.0-0.3-0.3","spark_pilot_2","7289","4","10","Female","","","","","","","","10940","<p> <b> True or False? </b> </p><p> If you see a different picture, it means you are in a new place. </p>","1","comp_question","","","","true","","","","","","","","","",""
"comp-q","110","608357","0.0-4.0-15.0-0.3-1.3","spark_pilot_2","7289","4","10","Female","","","","","","","","1562","<p> <b> That's right! </b> Lots of different images may show the same place. For example,  you may see three different images that all remind you that you are in outer space. </p>","0","comp_answer","","","","","","","","","","","","","",""
"learning-instructions","111","620958","0.0-4.0-16.0-0.0","spark_pilot_2","7289","4","10","Female","","","","","","","","2767.0000000001164","<p> Good job. Remember to do your best because the amount of treasure you earn will be converted into bonus money. </p>
            <p> It’s time to start the real game! </p>","","instructions","","","","","","","","","","","","","",""
"learning-instructions","112","625309","0.0-5.0-0.0-0.0","spark_pilot_2","7289","4","10","Female","","","","","","","","1659.0000000001164","<p> This time you are searching for treasure in the <b>ocean</b>.</p>","","instructions","","","","","","","","","","","","","",""
"learning-instructions","113","644396","0.0-5.0-0.0-0.1","spark_pilot_2","7289","4","10","Female","","","","","","","","1817","<p><b>New</b> animals with <b>new</b> treasure chests live here. You need to explore to discover where the animal with the best treasure chest is.</p>
                    <p> Like before, once you figure out which animal has the chest with the most treasure, you should try to get to that animal and select that chest! </p>","","instructions","","","","","","","","","","","","","",""
"learning-instructions","114","660508","0.0-5.0-1.0-0.0","spark_pilot_2","7289","4","10","Female","","","","","","","","1381","<p> Remember, when you see a picture of the place, use the up and down keys to <b>find an animal</b>.</p>
            <p> When you encounter an animal, you should use the left and right keys to <b>select a treasure chest</b>.</p>
            <p> Don't forget to look out for the robber! </p>","","instructions","","","","","","","","","","","","","",""
"revaluation","115","666511","0.0-5.0-2.0-0.0","spark_pilot_2","7289","4","10","Female","","false","","","","","","[1191,1005]","./assets/img/ocean/memory/22.jpg","[""ArrowUp"",""ArrowRight""]","value training","ocean","10","{""ArrowUp,ArrowLeft"":26,""ArrowUp,ArrowRight"":10,""ArrowDown,ArrowLeft"":5,""ArrowDown,ArrowRight"":17}","false","ArrowUp,ArrowRight","false","","","revaluation","1","0","","",""
"html-keyboard-response","116","667012","0.0-5.0-2.0-1.0","spark_pilot_2","7289","4","10","Female","","","","","","","","null","<div style=""font-size:60px;"">+</div>","null","fixation","","","","","","","","","","","1","","",""
"revaluation","117","673017","0.0-5.0-2.0-0.1","spark_pilot_2","7289","4","10","Female","","false","","","","","","[1061,529]","./assets/img/ocean/memory/39.jpg","[""ArrowUp"",""ArrowLeft""]","value training","ocean","26","{""ArrowUp,ArrowLeft"":26,""ArrowUp,ArrowRight"":10,""ArrowDown,ArrowLeft"":5,""ArrowDown,ArrowRight"":17}","true","ArrowUp,ArrowLeft","false","","","revaluation","1","2","","",""
"html-keyboard-response","118","673519","0.0-5.0-2.0-1.1","spark_pilot_2","7289","4","10","Female","","","","","","","","null","<div style=""font-size:60px;"">+</div>","null","fixation","","","","","","","","","","","3","","",""
"revaluation","119","679522","0.0-5.0-2.0-0.2","spark_pilot_2","7289","4","10","Female","","false","","","","","","[525,489.0000000001164]","./assets/img/ocean/memory/2.jpg","[""ArrowDown"",""ArrowLeft""]","value training","ocean","5","{""ArrowUp,ArrowLeft"":26,""ArrowUp,ArrowRight"":10,""ArrowDown,ArrowLeft"":5,""ArrowDown,ArrowRight"":17}","false","ArrowDown,ArrowLeft","false","","","revaluation","1","4","","",""
"html-keyboard-response","120","680023","0.0-5.0-2.0-1.2","spark_pilot_2","7289","4","10","Female","","","","","","","","null","<div style=""font-size:60px;"">+</div>","null","fixation","","","","","","","","","","","5","","",""
"revaluation","121","686028","0.0-5.0-2.0-0.3","spark_pilot_2","7289","4","10","Female","","false","","","","","","[350,343]","./assets/img/ocean/memory/9.jpg","[""ArrowDown"",""ArrowRight""]","value training","ocean","17","{""ArrowUp,ArrowLeft"":26,""ArrowUp,ArrowRight"":10,""ArrowDown,ArrowLeft"":5,""ArrowDown,ArrowRight"":17}","false","ArrowDown,ArrowRight","false","","","revaluation","1","6","","",""
"html-keyboard-response","122","686530","0.0-5.0-2.0-1.3","spark_pilot_2","7289","4","10","Female","","","","","","","","null","<div style=""font-size:60px;"">+</div>","null","fixation","","","","","","","","","","","7","","",""
"revaluation","123","692534","0.0-5.0-2.0-0.4","spark_pilot_2","7289","4","10","Female","","false","","","","","","[338,332]","./assets/img/ocean/memory/38.jpg","[""ArrowUp"",""ArrowLeft""]","value training","ocean","26","{""ArrowUp,ArrowLeft"":26,""ArrowUp,ArrowRight"":10,""ArrowDown,ArrowLeft"":5,""ArrowDown,ArrowRight"":17}","true","ArrowUp,ArrowLeft","false","","","revaluation","1","8","","",""
"html-keyboard-response","124","693036","0.0-5.0-2.0-1.4","spark_pilot_2","7289","4","10","Female","","","","","","","","null","<div style=""font-size:60px;"">+</div>","null","fixation","","","","","","","","","","","9","","",""
"revaluation","125","699041","0.0-5.0-2.0-0.5","spark_pilot_2","7289","4","10","Female","","false","","","","","","[672,350.0000000001164]","./assets/img/ocean/memory/15.jpg","[""ArrowUp"",""ArrowLeft""]","value training","ocean","26","{""ArrowUp,ArrowLeft"":26,""ArrowUp,ArrowRight"":10,""ArrowDown,ArrowLeft"":5,""ArrowDown,ArrowRight"":17}","true","ArrowUp,ArrowLeft","false","","","revaluation","1","10","","",""
"html-keyboard-response","126","699542","0.0-5.0-2.0-1.5","spark_pilot_2","7289","4","10","Female","","","","","","","","null","<div style=""font-size:60px;"">+</div>","null","fixation","","","","","","","","","","","11","","",""
"revaluation","127","705546","0.0-5.0-2.0-0.6","spark_pilot_2","7289","4","10","Female","","false","","","","","","[600,324]","./assets/img/ocean/memory/36.jpg","[""ArrowUp"",""ArrowLeft""]","value training","ocean","26","{""ArrowUp,ArrowLeft"":26,""ArrowUp,ArrowRight"":10,""ArrowDown,ArrowLeft"":5,""ArrowDown,ArrowRight"":17}","true","ArrowUp,ArrowLeft","false","","","revaluation","1","12","","",""
"html-keyboard-response","128","706047","0.0-5.0-2.0-1.6","spark_pilot_2","7289","4","10","Female","","","","","","","","null","<div style=""font-size:60px;"">+</div>","null","fixation","","","","","","","","","","","13","","",""
"revaluation","129","712052","0.0-5.0-2.0-0.7","spark_pilot_2","7289","4","10","Female","","false","","","","","","[410,374]","./assets/img/ocean/memory/37.jpg","[""ArrowUp"",""ArrowLeft""]","value training","ocean","26","{""ArrowUp,ArrowLeft"":26,""ArrowUp,ArrowRight"":10,""ArrowDown,ArrowLeft"":5,""ArrowDown,ArrowRight"":17}","true","ArrowUp,ArrowLeft","false","","","revaluation","1","14","","",""
"html-keyboard-response","130","712553","0.0-5.0-2.0-1.7","spark_pilot_2","7289","4","10","Female","","","","","","","","null","<div style=""font-size:60px;"">+</div>","null","fixation","","","","","","","","","","","15","","",""
"revaluation","131","718557","0.0-5.0-2.0-0.8","spark_pilot_2","7289","4","10","Female","","false","","","","","","[608,361.9999999998836]","./assets/img/ocean/memory/10.jpg","[""ArrowUp"",""ArrowLeft""]","value training","ocean","26","{""ArrowUp,ArrowLeft"":26,""ArrowUp,ArrowRight"":10,""ArrowDown,ArrowLeft"":5,""ArrowDown,ArrowRight"":17}","true","ArrowUp,ArrowLeft","false","","","revaluation","1","16","","",""
"html-keyboard-response","132","719058","0.0-5.0-2.0-1.8","spark_pilot_2","7289","4","10","Female","","","","","","","","null","<div style=""font-size:60px;"">+</div>","null","fixation","","","","","","","","","","","17","","",""
"revaluation","133","725063","0.0-5.0-2.0-0.9","spark_pilot_2","7289","4","10","Female","","false","","","","","","[869,562.9999999998836]","./assets/img/ocean/memory/17.jpg","[""ArrowUp"",""ArrowLeft""]","value training","ocean","26","{""ArrowUp,ArrowLeft"":26,""ArrowUp,ArrowRight"":10,""ArrowDown,ArrowLeft"":5,""ArrowDown,ArrowRight"":17}","true","ArrowUp,ArrowLeft","false","","","revaluation","1","18","","",""
"html-keyboard-response","134","725565","0.0-5.0-2.0-1.9","spark_pilot_2","7289","4","10","Female","","","","","","","","null","<div style=""font-size:60px;"">+</div>","null","fixation","","","","","","","","","","","19","","",""
"revaluation","135","729568","0.0-5.0-2.0-0.10","spark_pilot_2","7289","4","10","Female","","false","","","","","","[663]","./assets/img/ocean/catch/4.jpg","[""spaceBar""]","value training","ocean","0","{""ArrowUp,ArrowLeft"":26,""ArrowUp,ArrowRight"":10,""ArrowDown,ArrowLeft"":5,""ArrowDown,ArrowRight"":17}","true","spaceBar","true","","","revaluation","1","20","","",""
"html-keyboard-response","136","730070","0.0-5.0-2.0-1.10","spark_pilot_2","7289","4","10","Female","","","","","","","","null","<div style=""font-size:60px;"">+</div>","null","fixation","","","","","","","","","","","21","","",""
"revaluation","137","736075","0.0-5.0-2.0-0.11","spark_pilot_2","7289","4","10","Female","","false","","","","","","[596,455]","./assets/img/ocean/memory/39.jpg","[""ArrowUp"",""ArrowLeft""]","value training","ocean","26","{""ArrowUp,ArrowLeft"":26,""ArrowUp,ArrowRight"":10,""ArrowDown,ArrowLeft"":5,""ArrowDown,ArrowRight"":17}","true","ArrowUp,ArrowLeft","false","","","revaluation","1","22","","",""
"html-keyboard-response","138","736576","0.0-5.0-2.0-1.11","spark_pilot_2","7289","4","10","Female","","","","","","","","null","<div style=""font-size:60px;"">+</div>","null","fixation","","","","","","","","","","","23","","",""
"revaluation","139","740579","0.0-5.0-2.0-0.12","spark_pilot_2","7289","4","10","Female","","false","","","","","","[480]","./assets/img/ocean/catch/6.jpg","[""ArrowUp""]","value training","ocean","-10","{""ArrowUp,ArrowLeft"":26,""ArrowUp,ArrowRight"":10,""ArrowDown,ArrowLeft"":5,""ArrowDown,ArrowRight"":17}","false","ArrowUp","true","","","revaluation","1","24","","",""
"html-keyboard-response","140","741081","0.0-5.0-2.0-1.12","spark_pilot_2","7289","4","10","Female","","","","","","","","null","<div style=""font-size:60px;"">+</div>","null","fixation","","","","","","","","","","","25","","",""
"revaluation","141","747086","0.0-5.0-2.0-0.13","spark_pilot_2","7289","4","10","Female","","false","","","","","","[1105,482.9999999998836]","./assets/img/ocean/memory/33.jpg","[""ArrowUp"",""ArrowLeft""]","value training","ocean","26","{""ArrowUp,ArrowLeft"":26,""ArrowUp,ArrowRight"":10,""ArrowDown,ArrowLeft"":5,""ArrowDown,ArrowRight"":17}","true","ArrowUp,ArrowLeft","false","","","revaluation","1","26","","",""
"html-keyboard-response","142","747587","0.0-5.0-2.0-1.13","spark_pilot_2","7289","4","10","Female","","","","","","","","null","<div style=""font-size:60px;"">+</div>","null","fixation","","","","","","","","","","","27","","",""
"revaluation","143","753591","0.0-5.0-2.0-0.14","spark_pilot_2","7289","4","10","Female","","false","","","","","","[628.9999999998836,352.9999999998836]","./assets/img/ocean/memory/27.jpg","[""ArrowUp"",""ArrowLeft""]","value training","ocean","26","{""ArrowUp,ArrowLeft"":26,""ArrowUp,ArrowRight"":10,""ArrowDown,ArrowLeft"":5,""ArrowDown,ArrowRight"":17}","true","ArrowUp,ArrowLeft","false","","","revaluation","1","28","","",""
"html-keyboard-response","144","754093","0.0-5.0-2.0-1.14","spark_pilot_2","7289","4","10","Female","","","","","","","","null","<div style=""font-size:60px;"">+</div>","null","fixation","","","","","","","","","","","29","","",""
"revaluation","145","760097","0.0-5.0-2.0-0.15","spark_pilot_2","7289","4","10","Female","","false","","","","","","[528,447]","./assets/img/ocean/memory/41.jpg","[""ArrowUp"",""ArrowLeft""]","value training","ocean","26","{""ArrowUp,ArrowLeft"":26,""ArrowUp,ArrowRight"":10,""ArrowDown,ArrowLeft"":5,""ArrowDown,ArrowRight"":17}","true","ArrowUp,ArrowLeft","false","","","revaluation","1","30","","",""
"html-keyboard-response","146","760598","0.0-5.0-2.0-1.15","spark_pilot_2","7289","4","10","Female","","","","","","","","null","<div style=""font-size:60px;"">+</div>","null","fixation","","","","","","","","","","","31","","",""
"revaluation","147","766602","0.0-5.0-2.0-0.16","spark_pilot_2","7289","4","10","Female","","false","","","","","","[878.0000000001164,511]","./assets/img/ocean/memory/40.jpg","[""ArrowUp"",""ArrowLeft""]","value training","ocean","26","{""ArrowUp,ArrowLeft"":26,""ArrowUp,ArrowRight"":10,""ArrowDown,ArrowLeft"":5,""ArrowDown,ArrowRight"":17}","true","ArrowUp,ArrowLeft","false","","","revaluation","1","32","","",""
"html-keyboard-response","148","767104","0.0-5.0-2.0-1.16","spark_pilot_2","7289","4","10","Female","","","","","","","","null","<div style=""font-size:60px;"">+</div>","null","fixation","","","","","","","","","","","33","","",""
"revaluation","149","773107","0.0-5.0-2.0-0.17","spark_pilot_2","7289","4","10","Female","","false","","","","","","[687,381]","./assets/img/ocean/memory/17.jpg","[""ArrowUp"",""ArrowLeft""]","value training","ocean","26","{""ArrowUp,ArrowLeft"":26,""ArrowUp,ArrowRight"":10,""ArrowDown,ArrowLeft"":5,""ArrowDown,ArrowRight"":17}","true","ArrowUp,ArrowLeft","false","","","revaluation","1","34","","",""
"html-keyboard-response","150","773609","0.0-5.0-2.0-1.17","spark_pilot_2","7289","4","10","Female","","","","","","","","null","<div style=""font-size:60px;"">+</div>","null","fixation","","","","","","","","","","","35","","",""
"revaluation","151","779614","0.0-5.0-2.0-0.18","spark_pilot_2","7289","4","10","Female","","false","","","","","","[796,338.9999999998836]","./assets/img/ocean/memory/32.jpg","[""ArrowUp"",""ArrowLeft""]","value training","ocean","26","{""ArrowUp,ArrowLeft"":26,""ArrowUp,ArrowRight"":10,""ArrowDown,ArrowLeft"":5,""ArrowDown,ArrowRight"":17}","true","ArrowUp,ArrowLeft","false","","","revaluation","1","36","","",""
"html-keyboard-response","152","780116","0.0-5.0-2.0-1.18","spark_pilot_2","7289","4","10","Female","","","","","","","","null","<div style=""font-size:60px;"">+</div>","null","fixation","","","","","","","","","","","37","","",""
"revaluation","153","786120","0.0-5.0-2.0-0.19","spark_pilot_2","7289","4","10","Female","","false","","","","","","[590,328]","./assets/img/ocean/memory/9.jpg","[""ArrowUp"",""ArrowLeft""]","value training","ocean","26","{""ArrowUp,ArrowLeft"":26,""ArrowUp,ArrowRight"":10,""ArrowDown,ArrowLeft"":5,""ArrowDown,ArrowRight"":17}","true","ArrowUp,ArrowLeft","false","","","revaluation","1","38","","",""
"html-keyboard-response","154","786622","0.0-5.0-2.0-1.19","spark_pilot_2","7289","4","10","Female","","","","","","","","null","<div style=""font-size:60px;"">+</div>","null","fixation","","","","","","","","","","","39","","",""
"revaluation","155","790626","0.0-5.0-2.0-0.20","spark_pilot_2","7289","4","10","Female","","false","","","","","","[367]","./assets/img/ocean/catch/7.jpg","[""ArrowUp""]","value training","ocean","-10","{""ArrowUp,ArrowLeft"":26,""ArrowUp,ArrowRight"":10,""ArrowDown,ArrowLeft"":5,""ArrowDown,ArrowRight"":17}","false","ArrowUp","true","","","revaluation","1","40","","",""
"html-keyboard-response","156","791128","0.0-5.0-2.0-1.20","spark_pilot_2","7289","4","10","Female","","","","","","","","null","<div style=""font-size:60px;"">+</div>","null","fixation","","","","","","","","","","","41","","",""
"revaluation","157","797132","0.0-5.0-2.0-0.21","spark_pilot_2","7289","4","10","Female","","false","","","","","","[648,340.9999999998836]","./assets/img/ocean/memory/10.jpg","[""ArrowUp"",""ArrowLeft""]","value training","ocean","26","{""ArrowUp,ArrowLeft"":26,""ArrowUp,ArrowRight"":10,""ArrowDown,ArrowLeft"":5,""ArrowDown,ArrowRight"":17}","true","ArrowUp,ArrowLeft","false","","","revaluation","1","42","","",""
"html-keyboard-response","158","797634","0.0-5.0-2.0-1.21","spark_pilot_2","7289","4","10","Female","","","","","","","","null","<div style=""font-size:60px;"">+</div>","null","fixation","","","","","","","","","","","43","","",""
"revaluation","159","803639","0.0-5.0-2.0-0.22","spark_pilot_2","7289","4","10","Female","","false","","","","","","[469.9999999998836,375]","./assets/img/ocean/memory/27.jpg","[""ArrowUp"",""ArrowLeft""]","value training","ocean","26","{""ArrowUp,ArrowLeft"":26,""ArrowUp,ArrowRight"":10,""ArrowDown,ArrowLeft"":5,""ArrowDown,ArrowRight"":17}","true","ArrowUp,ArrowLeft","false","","","revaluation","1","44","","",""
"html-keyboard-response","160","804140","0.0-5.0-2.0-1.22","spark_pilot_2","7289","4","10","Female","","","","","","","","null","<div style=""font-size:60px;"">+</div>","null","fixation","","","","","","","","","","","45","","",""
"revaluation","161","808143","0.0-5.0-2.0-0.23","spark_pilot_2","7289","4","10","Female","","false","","","","","","[504]","./assets/img/ocean/catch/5.jpg","[""ArrowUp""]","value training","ocean","-10","{""ArrowUp,ArrowLeft"":26,""ArrowUp,ArrowRight"":10,""ArrowDown,ArrowLeft"":5,""ArrowDown,ArrowRight"":17}","false","ArrowUp","true","","","revaluation","1","46","","",""
"html-keyboard-response","162","808645","0.0-5.0-2.0-1.23","spark_pilot_2","7289","4","10","Female","","","","","","","","null","<div style=""font-size:60px;"">+</div>","null","fixation","","","","","","","","","","","47","","",""
"revaluation","163","814649","0.0-5.0-2.0-0.24","spark_pilot_2","7289","4","10","Female","","false","","","","","","[350,359]","./assets/img/ocean/memory/36.jpg","[""ArrowUp"",""ArrowLeft""]","value training","ocean","26","{""ArrowUp,ArrowLeft"":26,""ArrowUp,ArrowRight"":10,""ArrowDown,ArrowLeft"":5,""ArrowDown,ArrowRight"":17}","true","ArrowUp,ArrowLeft","false","","","revaluation","1","48","","",""
"html-keyboard-response","164","815151","0.0-5.0-2.0-1.24","spark_pilot_2","7289","4","10","Female","","","","","","","","null","<div style=""font-size:60px;"">+</div>","null","fixation","","","","","","","","","","","49","","",""
"revaluation","165","821154","0.0-5.0-2.0-0.25","spark_pilot_2","7289","4","10","Female","","false","","","","","","[773,468]","./assets/img/ocean/memory/35.jpg","[""ArrowUp"",""ArrowLeft""]","value training","ocean","26","{""ArrowUp,ArrowLeft"":26,""ArrowUp,ArrowRight"":10,""ArrowDown,ArrowLeft"":5,""ArrowDown,ArrowRight"":17}","true","ArrowUp,ArrowLeft","false","","","revaluation","1","50","","",""
"html-keyboard-response","166","821655","0.0-5.0-2.0-1.25","spark_pilot_2","7289","4","10","Female","","","","","","","","null","<div style=""font-size:60px;"">+</div>","null","fixation","","","","","","","","","","","51","","",""
"revaluation","167","827660","0.0-5.0-2.0-0.26","spark_pilot_2","7289","4","10","Female","","false","","","","","","[539,368]","./assets/img/ocean/memory/32.jpg","[""ArrowUp"",""ArrowLeft""]","value training","ocean","26","{""ArrowUp,ArrowLeft"":26,""ArrowUp,ArrowRight"":10,""ArrowDown,ArrowLeft"":5,""ArrowDown,ArrowRight"":17}","true","ArrowUp,ArrowLeft","false","","","revaluation","1","52","","",""
"html-keyboard-response","168","828162","0.0-5.0-2.0-1.26","spark_pilot_2","7289","4","10","Female","","","","","","","","null","<div style=""font-size:60px;"">+</div>","null","fixation","","","","","","","","","","","53","","",""
"revaluation","169","834166","0.0-5.0-2.0-0.27","spark_pilot_2","7289","4","10","Female","","false","","","","","","[647,296]","./assets/img/ocean/memory/35.jpg","[""ArrowUp"",""ArrowLeft""]","value training","ocean","26","{""ArrowUp,ArrowLeft"":26,""ArrowUp,ArrowRight"":10,""ArrowDown,ArrowLeft"":5,""ArrowDown,ArrowRight"":17}","true","ArrowUp,ArrowLeft","false","","","revaluation","1","54","","",""
"html-keyboard-response","170","834668","0.0-5.0-2.0-1.27","spark_pilot_2","7289","4","10","Female","","","","","","","","null","<div style=""font-size:60px;"">+</div>","null","fixation","","","","","","","","","","","55","","",""
"revaluation","171","840673","0.0-5.0-2.0-0.28","spark_pilot_2","7289","4","10","Female","","false","","","","","","[576,420]","./assets/img/ocean/memory/11.jpg","[""ArrowUp"",""ArrowLeft""]","value training","ocean","26","{""ArrowUp,ArrowLeft"":26,""ArrowUp,ArrowRight"":10,""ArrowDown,ArrowLeft"":5,""ArrowDown,ArrowRight"":17}","true","ArrowUp,ArrowLeft","false","","","revaluation","1","56","","",""
"html-keyboard-response","172","841174","0.0-5.0-2.0-1.28","spark_pilot_2","7289","4","10","Female","","","","","","","","null","<div style=""font-size:60px;"">+</div>","null","fixation","","","","","","","","","","","57","","",""
"revaluation","173","845177","0.0-5.0-2.0-0.29","spark_pilot_2","7289","4","10","Female","","false","","","","","","[624]","./assets/img/ocean/catch/2.jpg","[""spaceBar""]","value training","ocean","0","{""ArrowUp,ArrowLeft"":26,""ArrowUp,ArrowRight"":10,""ArrowDown,ArrowLeft"":5,""ArrowDown,ArrowRight"":17}","true","spaceBar","true","","","revaluation","1","58","","",""
"html-keyboard-response","174","845679","0.0-5.0-2.0-1.29","spark_pilot_2","7289","4","10","Female","","","","","","","","null","<div style=""font-size:60px;"">+</div>","null","fixation","","","","","","","","","","","59","","",""
"revaluation","175","851683","0.0-5.0-2.0-0.30","spark_pilot_2","7289","4","10","Female","","false","","","","","","[621,465]","./assets/img/ocean/memory/38.jpg","[""ArrowUp"",""ArrowLeft""]","value training","ocean","26","{""ArrowUp,ArrowLeft"":26,""ArrowUp,ArrowRight"":10,""ArrowDown,ArrowLeft"":5,""ArrowDown,ArrowRight"":17}","true","ArrowUp,ArrowLeft","false","","","revaluation","1","60","","",""
"html-keyboard-response","176","852185","0.0-5.0-2.0-1.30","spark_pilot_2","7289","4","10","Female","","","","","","","","null","<div style=""font-size:60px;"">+</div>","null","fixation","","","","","","","","","","","61","","",""
"revaluation","177","858190","0.0-5.0-2.0-0.31","spark_pilot_2","7289","4","10","Female","","false","","","","","","[562.9999999998836,407.0000000001164]","./assets/img/ocean/memory/40.jpg","[""ArrowUp"",""ArrowLeft""]","value training","ocean","26","{""ArrowUp,ArrowLeft"":26,""ArrowUp,ArrowRight"":10,""ArrowDown,ArrowLeft"":5,""ArrowDown,ArrowRight"":17}","true","ArrowUp,ArrowLeft","false","","","revaluation","1","62","","",""
"html-keyboard-response","178","858691","0.0-5.0-2.0-1.31","spark_pilot_2","7289","4","10","Female","","","","","","","","null","<div style=""font-size:60px;"">+</div>","null","fixation","","","","","","","","","","","63","","",""
"revaluation","179","864696","0.0-5.0-2.0-0.32","spark_pilot_2","7289","4","10","Female","","false","","","","","","[462,411]","./assets/img/ocean/memory/34.jpg","[""ArrowUp"",""ArrowLeft""]","value training","ocean","26","{""ArrowUp,ArrowLeft"":26,""ArrowUp,ArrowRight"":10,""ArrowDown,ArrowLeft"":5,""ArrowDown,ArrowRight"":17}","true","ArrowUp,ArrowLeft","false","","","revaluation","1","64","","",""
"html-keyboard-response","180","865198","0.0-5.0-2.0-1.32","spark_pilot_2","7289","4","10","Female","","","","","","","","null","<div style=""font-size:60px;"">+</div>","null","fixation","","","","","","","","","","","65","","",""
"revaluation","181","871201","0.0-5.0-2.0-0.33","spark_pilot_2","7289","4","10","Female","","false","","","","","","[585,474.9999999998836]","./assets/img/ocean/memory/6.jpg","[""ArrowUp"",""ArrowLeft""]","value training","ocean","26","{""ArrowUp,ArrowLeft"":26,""ArrowUp,ArrowRight"":10,""ArrowDown,ArrowLeft"":5,""ArrowDown,ArrowRight"":17}","true","ArrowUp,ArrowLeft","false","","","revaluation","1","66","","",""
"html-keyboard-response","182","871703","0.0-5.0-2.0-1.33","spark_pilot_2","7289","4","10","Female","","","","","","","","null","<div style=""font-size:60px;"">+</div>","null","fixation","","","","","","","","","","","67","","",""
"revaluation","183","875706","0.0-5.0-2.0-0.34","spark_pilot_2","7289","4","10","Female","","false","","","","","","[561]","./assets/img/ocean/catch/0.jpg","[""spaceBar""]","value training","ocean","0","{""ArrowUp,ArrowLeft"":26,""ArrowUp,ArrowRight"":10,""ArrowDown,ArrowLeft"":5,""ArrowDown,ArrowRight"":17}","true","spaceBar","true","","","revaluation","1","68","","",""
"html-keyboard-response","184","876208","0.0-5.0-2.0-1.34","spark_pilot_2","7289","4","10","Female","","","","","","","","null","<div style=""font-size:60px;"">+</div>","null","fixation","","","","","","","","","","","69","","",""
"revaluation","185","882213","0.0-5.0-2.0-0.35","spark_pilot_2","7289","4","10","Female","","false","","","","","","[509.9999999998836,338]","./assets/img/ocean/memory/31.jpg","[""ArrowUp"",""ArrowLeft""]","value training","ocean","26","{""ArrowUp,ArrowLeft"":26,""ArrowUp,ArrowRight"":10,""ArrowDown,ArrowLeft"":5,""ArrowDown,ArrowRight"":17}","true","ArrowUp,ArrowLeft","false","","","revaluation","1","70","","",""
"html-keyboard-response","186","882714","0.0-5.0-2.0-1.35","spark_pilot_2","7289","4","10","Female","","","","","","","","null","<div style=""font-size:60px;"">+</div>","null","fixation","","","","","","","","","","","71","","",""
"revaluation","187","888718","0.0-5.0-2.0-0.36","spark_pilot_2","7289","4","10","Female","","false","","","","","","[754,1212]","./assets/img/ocean/memory/11.jpg","[""ArrowUp"",""ArrowLeft""]","value training","ocean","26","{""ArrowUp,ArrowLeft"":26,""ArrowUp,ArrowRight"":10,""ArrowDown,ArrowLeft"":5,""ArrowDown,ArrowRight"":17}","true","ArrowUp,ArrowLeft","false","","","revaluation","1","72","","",""
"html-keyboard-response","188","889220","0.0-5.0-2.0-1.36","spark_pilot_2","7289","4","10","Female","","","","","","","","null","<div style=""font-size:60px;"">+</div>","null","fixation","","","","","","","","","","","73","","",""
"revaluation","189","895224","0.0-5.0-2.0-0.37","spark_pilot_2","7289","4","10","Female","","false","","","","","","[458,557]","./assets/img/ocean/memory/31.jpg","[""ArrowUp"",""ArrowLeft""]","value training","ocean","26","{""ArrowUp,ArrowLeft"":26,""ArrowUp,ArrowRight"":10,""ArrowDown,ArrowLeft"":5,""ArrowDown,ArrowRight"":17}","true","ArrowUp,ArrowLeft","false","","","revaluation","1","74","","",""
"html-keyboard-response","190","895725","0.0-5.0-2.0-1.37","spark_pilot_2","7289","4","10","Female","","","","","","","","null","<div style=""font-size:60px;"">+</div>","null","fixation","","","","","","","","","","","75","","",""
"revaluation","191","901730","0.0-5.0-2.0-0.38","spark_pilot_2","7289","4","10","Female","","false","","","","","","[463,351]","./assets/img/ocean/memory/37.jpg","[""ArrowUp"",""ArrowLeft""]","value training","ocean","26","{""ArrowUp,ArrowLeft"":26,""ArrowUp,ArrowRight"":10,""ArrowDown,ArrowLeft"":5,""ArrowDown,ArrowRight"":17}","true","ArrowUp,ArrowLeft","false","","","revaluation","1","76","","",""
"html-keyboard-response","192","902231","0.0-5.0-2.0-1.38","spark_pilot_2","7289","4","10","Female","","","","","","","","null","<div style=""font-size:60px;"">+</div>","null","fixation","","","","","","","","","","","77","","",""
"revaluation","193","906234","0.0-5.0-2.0-0.39","spark_pilot_2","7289","4","10","Female","","false","","","","","","[645.9999999998836]","./assets/img/ocean/catch/1.jpg","[""spaceBar""]","value training","ocean","0","{""ArrowUp,ArrowLeft"":26,""ArrowUp,ArrowRight"":10,""ArrowDown,ArrowLeft"":5,""ArrowDown,ArrowRight"":17}","true","spaceBar","true","","","revaluation","1","78","","",""
"html-keyboard-response","194","906736","0.0-5.0-2.0-1.39","spark_pilot_2","7289","4","10","Female","","","","","","","","null","<div style=""font-size:60px;"">+</div>","null","fixation","","","","","","","","","","","79","","",""
"revaluation","195","912741","0.0-5.0-2.0-0.40","spark_pilot_2","7289","4","10","Female","","false","","","","","","[506,454]","./assets/img/ocean/memory/41.jpg","[""ArrowUp"",""ArrowLeft""]","value training","ocean","26","{""ArrowUp,ArrowLeft"":26,""ArrowUp,ArrowRight"":10,""ArrowDown,ArrowLeft"":5,""ArrowDown,ArrowRight"":17}","true","ArrowUp,ArrowLeft","false","","","revaluation","1","80","","",""
"html-keyboard-response","196","913243","0.0-5.0-2.0-1.40","spark_pilot_2","7289","4","10","Female","","","","","","","","null","<div style=""font-size:60px;"">+</div>","null","fixation","","","","","","","","","","","81","","",""
"revaluation","197","919246","0.0-5.0-2.0-0.41","spark_pilot_2","7289","4","10","Female","","false","","","","","","[509,324.0000000001164]","./assets/img/ocean/memory/6.jpg","[""ArrowUp"",""ArrowLeft""]","value training","ocean","26","{""ArrowUp,ArrowLeft"":26,""ArrowUp,ArrowRight"":10,""ArrowDown,ArrowLeft"":5,""ArrowDown,ArrowRight"":17}","true","ArrowUp,ArrowLeft","false","","","revaluation","1","82","","",""
"html-keyboard-response","198","919748","0.0-5.0-2.0-1.41","spark_pilot_2","7289","4","10","Female","","","","","","","","null","<div style=""font-size:60px;"">+</div>","null","fixation","","","","","","","","","","","83","","",""
"revaluation","199","925752","0.0-5.0-2.0-0.42","spark_pilot_2","7289","4","10","Female","","false","","","","","","[544,313]","./assets/img/ocean/memory/34.jpg","[""ArrowUp"",""ArrowLeft""]","value training","ocean","26","{""ArrowUp,ArrowLeft"":26,""ArrowUp,ArrowRight"":10,""ArrowDown,ArrowLeft"":5,""ArrowDown,ArrowRight"":17}","true","ArrowUp,ArrowLeft","false","","","revaluation","1","84","","",""
"html-keyboard-response","200","926254","0.0-5.0-2.0-1.42","spark_pilot_2","7289","4","10","Female","","","","","","","","null","<div style=""font-size:60px;"">+</div>","null","fixation","","","","","","","","","","","85","","",""
"revaluation","201","932258","0.0-5.0-2.0-0.43","spark_pilot_2","7289","4","10","Female","","false","","","","","","[428,406.9999999998836]","./assets/img/ocean/memory/25.jpg","[""ArrowUp"",""ArrowLeft""]","value training","ocean","26","{""ArrowUp,ArrowLeft"":26,""ArrowUp,ArrowRight"":10,""ArrowDown,ArrowLeft"":5,""ArrowDown,ArrowRight"":17}","true","ArrowUp,ArrowLeft","false","","","revaluation","1","86","","",""
"html-keyboard-response","202","932759","0.0-5.0-2.0-1.43","spark_pilot_2","7289","4","10","Female","","","","","","","","null","<div style=""font-size:60px;"">+</div>","null","fixation","","","","","","","","","","","87","","",""
"revaluation","203","936763","0.0-5.0-2.0-0.44","spark_pilot_2","7289","4","10","Female","","false","","","","","","[312.0000000001164]","./assets/img/ocean/catch/3.jpg","[""ArrowUp""]","value training","ocean","-10","{""ArrowUp,ArrowLeft"":26,""ArrowUp,ArrowRight"":10,""ArrowDown,ArrowLeft"":5,""ArrowDown,ArrowRight"":17}","false","ArrowUp","true","","","revaluation","1","88","","",""
"html-keyboard-response","204","937264","0.0-5.0-2.0-1.44","spark_pilot_2","7289","4","10","Female","","","","","","","","null","<div style=""font-size:60px;"">+</div>","null","fixation","","","","","","","","","","","89","","",""
"revaluation","205","943268","0.0-5.0-2.0-0.45","spark_pilot_2","7289","4","10","Female","","false","","","","","","[757,526]","./assets/img/ocean/memory/2.jpg","[""ArrowUp"",""ArrowLeft""]","value training","ocean","26","{""ArrowUp,ArrowLeft"":26,""ArrowUp,ArrowRight"":10,""ArrowDown,ArrowLeft"":5,""ArrowDown,ArrowRight"":17}","true","ArrowUp,ArrowLeft","false","","","revaluation","1","90","","",""
"html-keyboard-response","206","943770","0.0-5.0-2.0-1.45","spark_pilot_2","7289","4","10","Female","","","","","","","","null","<div style=""font-size:60px;"">+</div>","null","fixation","","","","","","","","","","","91","","",""
"revaluation","207","949774","0.0-5.0-2.0-0.46","spark_pilot_2","7289","4","10","Female","","false","","","","","","[686.0000000001164,531]","./assets/img/ocean/memory/22.jpg","[""ArrowUp"",""ArrowLeft""]","value training","ocean","26","{""ArrowUp,ArrowLeft"":26,""ArrowUp,ArrowRight"":10,""ArrowDown,ArrowLeft"":5,""ArrowDown,ArrowRight"":17}","true","ArrowUp,ArrowLeft","false","","","revaluation","1","92","","",""
"html-keyboard-response","208","950274","0.0-5.0-2.0-1.46","spark_pilot_2","7289","4","10","Female","","","","","","","","null","<div style=""font-size:60px;"">+</div>","null","fixation","","","","","","","","","","","93","","",""
"revaluation","209","956279","0.0-5.0-2.0-0.47","spark_pilot_2","7289","4","10","Female","","false","","","","","","[1096,460]","./assets/img/ocean/memory/15.jpg","[""ArrowUp"",""ArrowLeft""]","value training","ocean","26","{""ArrowUp,ArrowLeft"":26,""ArrowUp,ArrowRight"":10,""ArrowDown,ArrowLeft"":5,""ArrowDown,ArrowRight"":17}","true","ArrowUp,ArrowLeft","false","","","revaluation","1","94","","",""
"html-keyboard-response","210","956781","0.0-5.0-2.0-1.47","spark_pilot_2","7289","4","10","Female","","","","","","","","null","<div style=""font-size:60px;"">+</div>","null","fixation","","","","","","","","","","","95","","",""
"revaluation","211","962785","0.0-5.0-2.0-0.48","spark_pilot_2","7289","4","10","Female","","false","","","","","","[485,674.0000000001164]","./assets/img/ocean/memory/25.jpg","[""ArrowUp"",""ArrowLeft""]","value training","ocean","26","{""ArrowUp,ArrowLeft"":26,""ArrowUp,ArrowRight"":10,""ArrowDown,ArrowLeft"":5,""ArrowDown,ArrowRight"":17}","true","ArrowUp,ArrowLeft","false","","","revaluation","1","96","","",""
"html-keyboard-response","212","963285","0.0-5.0-2.0-1.48","spark_pilot_2","7289","4","10","Female","","","","","","","","null","<div style=""font-size:60px;"">+</div>","null","fixation","","","","","","","","","","","97","","",""
"revaluation","213","969289","0.0-5.0-2.0-0.49","spark_pilot_2","7289","4","10","Female","","false","","","","","","[565,620]","./assets/img/ocean/memory/33.jpg","[""ArrowUp"",""ArrowLeft""]","value training","ocean","26","{""ArrowUp,ArrowLeft"":26,""ArrowUp,ArrowRight"":10,""ArrowDown,ArrowLeft"":5,""ArrowDown,ArrowRight"":17}","true","ArrowUp,ArrowLeft","false","","","revaluation","1","98","","",""
"html-keyboard-response","214","969791","0.0-5.0-2.0-1.49","spark_pilot_2","7289","4","10","Female","","","","","","","","null","<div style=""font-size:60px;"">+</div>","null","fixation","","","","","","","","","","","99","","",""
"learning-instructions","215","985552","0.0-5.0-3.0-0.0","spark_pilot_2","7289","4","10","Female","","","","","","","","2880","<p> Now, you will travel with a friend who will choose whether you go up or down first. </p>
            <p> On these turns, you will just see the animal that they found. You will still get to choose which chest to search for treasure.</p>","","instructions","","","","","","","","","","","","","",""
"revaluation","216","989555","0.0-5.0-4.0-0.0","spark_pilot_2","7289","4","10","Female","","true","","","","","","[]","./assets/img/ocean/animals/seahorse.jpg","[]","revaluation","ocean","-5","{""ArrowUp,ArrowLeft"":2,""ArrowUp,ArrowRight"":11,""ArrowDown,ArrowLeft"":8,""ArrowDown,ArrowRight"":27}","false","ArrowDown","","","","revaluation","1","0","","",""
"html-keyboard-response","217","990058","0.0-5.0-4.0-1.0","spark_pilot_2","7289","4","10","Female","","","","","","","","null","<div style=""font-size:60px;"">+</div>","null","fixation","","","","","","","","","","","1","","",""
"revaluation","218","994061","0.0-5.0-4.0-0.1","spark_pilot_2","7289","4","10","Female","","false","","","","","","[508]","./assets/img/ocean/animals/seahorse.jpg","[""ArrowLeft""]","revaluation","ocean","8","{""ArrowUp,ArrowLeft"":2,""ArrowUp,ArrowRight"":11,""ArrowDown,ArrowLeft"":8,""ArrowDown,ArrowRight"":27}","false","ArrowDown,ArrowLeft","","","","revaluation","1","2","","",""
"html-keyboard-response","219","994563","0.0-5.0-4.0-1.1","spark_pilot_2","7289","4","10","Female","","","","","","","","null","<div style=""font-size:60px;"">+</div>","null","fixation","","","","","","","","","","","3","","",""
"revaluation","220","998566","0.0-5.0-4.0-0.2","spark_pilot_2","7289","4","10","Female","","false","","","","","","[276]","./assets/img/ocean/animals/seahorse.jpg","[""ArrowRight""]","revaluation","ocean","27","{""ArrowUp,ArrowLeft"":2,""ArrowUp,ArrowRight"":11,""ArrowDown,ArrowLeft"":8,""ArrowDown,ArrowRight"":27}","true","ArrowDown,ArrowRight","","","","revaluation","1","4","","",""
"html-keyboard-response","221","999068","0.0-5.0-4.0-1.2","spark_pilot_2","7289","4","10","Female","","","","","","","","null","<div style=""font-size:60px;"">+</div>","null","fixation","","","","","","","","","","","5","","",""
"revaluation","222","1003071","0.0-5.0-4.0-0.3","spark_pilot_2","7289","4","10","Female","","false","","","","","","[122]","./assets/img/ocean/animals/octopus.jpg","[""ArrowRight""]","revaluation","ocean","11","{""ArrowUp,ArrowLeft"":2,""ArrowUp,ArrowRight"":11,""ArrowDown,ArrowLeft"":8,""ArrowDown,ArrowRight"":27}","true","ArrowUp,ArrowRight","","","","revaluation","1","6","","",""
"html-keyboard-response","223","1003573","0.0-5.0-4.0-1.3","spark_pilot_2","7289","4","10","Female","","","","","","","","null","<div style=""font-size:60px;"">+</div>","null","fixation","","","","","","","","","","","7","","",""
"revaluation","224","1007576","0.0-5.0-4.0-0.4","spark_pilot_2","7289","4","10","Female","","false","","","","","","[957]","./assets/img/ocean/animals/octopus.jpg","[""ArrowLeft""]","revaluation","ocean","2","{""ArrowUp,ArrowLeft"":2,""ArrowUp,ArrowRight"":11,""ArrowDown,ArrowLeft"":8,""ArrowDown,ArrowRight"":27}","false","ArrowUp,ArrowLeft","","","","revaluation","1","8","","",""
"html-keyboard-response","225","1008077","0.0-5.0-4.0-1.4","spark_pilot_2","7289","4","10","Female","","","","","","","","null","<div style=""font-size:60px;"">+</div>","null","fixation","","","","","","","","","","","9","","",""
"revaluation","226","1012080","0.0-5.0-4.0-0.5","spark_pilot_2","7289","4","10","Female","","false","","","","","","[1343.0000000001164]","./assets/img/ocean/animals/octopus.jpg","[""ArrowRight""]","revaluation","ocean","11","{""ArrowUp,ArrowLeft"":2,""ArrowUp,ArrowRight"":11,""ArrowDown,ArrowLeft"":8,""ArrowDown,ArrowRight"":27}","true","ArrowUp,ArrowRight","","","","revaluation","1","10","","",""
"html-keyboard-response","227","1012582","0.0-5.0-4.0-1.5","spark_pilot_2","7289","4","10","Female","","","","","","","","null","<div style=""font-size:60px;"">+</div>","null","fixation","","","","","","","","","","","11","","",""
"revaluation","228","1016585","0.0-5.0-4.0-0.6","spark_pilot_2","7289","4","10","Female","","false","","","","","","[1502]","./assets/img/ocean/animals/octopus.jpg","[""ArrowRight""]","revaluation","ocean","11","{""ArrowUp,ArrowLeft"":2,""ArrowUp,ArrowRight"":11,""ArrowDown,ArrowLeft"":8,""ArrowDown,ArrowRight"":27}","true","ArrowUp,ArrowRight","","","","revaluation","1","12","","",""
"html-keyboard-response","229","1017086","0.0-5.0-4.0-1.6","spark_pilot_2","7289","4","10","Female","","","","","","","","null","<div style=""font-size:60px;"">+</div>","null","fixation","","","","","","","","","","","13","","",""
"revaluation","230","1021089","0.0-5.0-4.0-0.7","spark_pilot_2","7289","4","10","Female","","false","","","","","","[508]","./assets/img/ocean/animals/octopus.jpg","[""ArrowRight""]","revaluation","ocean","11","{""ArrowUp,ArrowLeft"":2,""ArrowUp,ArrowRight"":11,""ArrowDown,ArrowLeft"":8,""ArrowDown,ArrowRight"":27}","true","ArrowUp,ArrowRight","","","","revaluation","1","14","","",""
"html-keyboard-response","231","1021590","0.0-5.0-4.0-1.7","spark_pilot_2","7289","4","10","Female","","","","","","","","null","<div style=""font-size:60px;"">+</div>","null","fixation","","","","","","","","","","","15","","",""
"revaluation","232","1025594","0.0-5.0-4.0-0.8","spark_pilot_2","7289","4","10","Female","","false","","","","","","[549]","./assets/img/ocean/animals/octopus.jpg","[""ArrowRight""]","revaluation","ocean","11","{""ArrowUp,ArrowLeft"":2,""ArrowUp,ArrowRight"":11,""ArrowDown,ArrowLeft"":8,""ArrowDown,ArrowRight"":27}","true","ArrowUp,ArrowRight","","","","revaluation","1","16","","",""
"html-keyboard-response","233","1026095","0.0-5.0-4.0-1.8","spark_pilot_2","7289","4","10","Female","","","","","","","","null","<div style=""font-size:60px;"">+</div>","null","fixation","","","","","","","","","","","17","","",""
"revaluation","234","1030098","0.0-5.0-4.0-0.9","spark_pilot_2","7289","4","10","Female","","false","","","","","","[467.9999999998836]","./assets/img/ocean/animals/seahorse.jpg","[""ArrowRight""]","revaluation","ocean","27","{""ArrowUp,ArrowLeft"":2,""ArrowUp,ArrowRight"":11,""ArrowDown,ArrowLeft"":8,""ArrowDown,ArrowRight"":27}","true","ArrowDown,ArrowRight","","","","revaluation","1","18","","",""
"html-keyboard-response","235","1030599","0.0-5.0-4.0-1.9","spark_pilot_2","7289","4","10","Female","","","","","","","","null","<div style=""font-size:60px;"">+</div>","null","fixation","","","","","","","","","","","19","","",""
"revaluation","236","1034602","0.0-5.0-4.0-0.10","spark_pilot_2","7289","4","10","Female","","false","","","","","","[464.9999999998836]","./assets/img/ocean/animals/octopus.jpg","[""ArrowRight""]","revaluation","ocean","11","{""ArrowUp,ArrowLeft"":2,""ArrowUp,ArrowRight"":11,""ArrowDown,ArrowLeft"":8,""ArrowDown,ArrowRight"":27}","true","ArrowUp,ArrowRight","","","","revaluation","1","20","","",""
"html-keyboard-response","237","1035104","0.0-5.0-4.0-1.10","spark_pilot_2","7289","4","10","Female","","","","","","","","null","<div style=""font-size:60px;"">+</div>","null","fixation","","","","","","","","","","","21","","",""
"revaluation","238","1039107","0.0-5.0-4.0-0.11","spark_pilot_2","7289","4","10","Female","","false","","","","","","[399.9999999998836]","./assets/img/ocean/animals/seahorse.jpg","[""ArrowRight""]","revaluation","ocean","27","{""ArrowUp,ArrowLeft"":2,""ArrowUp,ArrowRight"":11,""ArrowDown,ArrowLeft"":8,""ArrowDown,ArrowRight"":27}","true","ArrowDown,ArrowRight","","","","revaluation","1","22","","",""
"html-keyboard-response","239","1039609","0.0-5.0-4.0-1.11","spark_pilot_2","7289","4","10","Female","","","","","","","","null","<div style=""font-size:60px;"">+</div>","null","fixation","","","","","","","","","","","23","","",""
"revaluation","240","1043612","0.0-5.0-4.0-0.12","spark_pilot_2","7289","4","10","Female","","false","","","","","","[545.0000000001164]","./assets/img/ocean/animals/seahorse.jpg","[""ArrowRight""]","revaluation","ocean","27","{""ArrowUp,ArrowLeft"":2,""ArrowUp,ArrowRight"":11,""ArrowDown,ArrowLeft"":8,""ArrowDown,ArrowRight"":27}","true","ArrowDown,ArrowRight","","","","revaluation","1","24","","",""
"html-keyboard-response","241","1044113","0.0-5.0-4.0-1.12","spark_pilot_2","7289","4","10","Female","","","","","","","","null","<div style=""font-size:60px;"">+</div>","null","fixation","","","","","","","","","","","25","","",""
"revaluation","242","1048117","0.0-5.0-4.0-0.13","spark_pilot_2","7289","4","10","Female","","false","","","","","","[300]","./assets/img/ocean/animals/octopus.jpg","[""ArrowRight""]","revaluation","ocean","11","{""ArrowUp,ArrowLeft"":2,""ArrowUp,ArrowRight"":11,""ArrowDown,ArrowLeft"":8,""ArrowDown,ArrowRight"":27}","true","ArrowUp,ArrowRight","","","","revaluation","1","26","","",""
"html-keyboard-response","243","1048618","0.0-5.0-4.0-1.13","spark_pilot_2","7289","4","10","Female","","","","","","","","null","<div style=""font-size:60px;"">+</div>","null","fixation","","","","","","","","","","","27","","",""
"revaluation","244","1052621","0.0-5.0-4.0-0.14","spark_pilot_2","7289","4","10","Female","","false","","","","","","[371.00000000023283]","./assets/img/ocean/animals/seahorse.jpg","[""ArrowRight""]","revaluation","ocean","27","{""ArrowUp,ArrowLeft"":2,""ArrowUp,ArrowRight"":11,""ArrowDown,ArrowLeft"":8,""ArrowDown,ArrowRight"":27}","true","ArrowDown,ArrowRight","","","","revaluation","1","28","","",""
"html-keyboard-response","245","1053122","0.0-5.0-4.0-1.14","spark_pilot_2","7289","4","10","Female","","","","","","","","null","<div style=""font-size:60px;"">+</div>","null","fixation","","","","","","","","","","","29","","",""
"revaluation","246","1057126","0.0-5.0-4.0-0.15","spark_pilot_2","7289","4","10","Female","","false","","","","","","[335.99999999976717]","./assets/img/ocean/animals/seahorse.jpg","[""ArrowRight""]","revaluation","ocean","27","{""ArrowUp,ArrowLeft"":2,""ArrowUp,ArrowRight"":11,""ArrowDown,ArrowLeft"":8,""ArrowDown,ArrowRight"":27}","true","ArrowDown,ArrowRight","","","","revaluation","1","30","","",""
"html-keyboard-response","247","1057627","0.0-5.0-4.0-1.15","spark_pilot_2","7289","4","10","Female","","","","","","","","null","<div style=""font-size:60px;"">+</div>","null","fixation","","","","","","","","","","","31","","",""
"revaluation","248","1061630","0.0-5.0-4.0-0.16","spark_pilot_2","7289","4","10","Female","","false","","","","","","[301]","./assets/img/ocean/animals/seahorse.jpg","[""ArrowRight""]","revaluation","ocean","27","{""ArrowUp,ArrowLeft"":2,""ArrowUp,ArrowRight"":11,""ArrowDown,ArrowLeft"":8,""ArrowDown,ArrowRight"":27}","true","ArrowDown,ArrowRight","","","","revaluation","1","32","","",""
"html-keyboard-response","249","1062131","0.0-5.0-4.0-1.16","spark_pilot_2","7289","4","10","Female","","","","","","","","null","<div style=""font-size:60px;"">+</div>","null","fixation","","","","","","","","","","","33","","",""
"revaluation","250","1066134","0.0-5.0-4.0-0.17","spark_pilot_2","7289","4","10","Female","","false","","","","","","[492]","./assets/img/ocean/animals/octopus.jpg","[""ArrowRight""]","revaluation","ocean","11","{""ArrowUp,ArrowLeft"":2,""ArrowUp,ArrowRight"":11,""ArrowDown,ArrowLeft"":8,""ArrowDown,ArrowRight"":27}","true","ArrowUp,ArrowRight","","","","revaluation","1","34","","",""
"html-keyboard-response","251","1066636","0.0-5.0-4.0-1.17","spark_pilot_2","7289","4","10","Female","","","","","","","","null","<div style=""font-size:60px;"">+</div>","null","fixation","","","","","","","","","","","35","","",""
"learning-instructions","252","1081685","0.0-5.0-5.0-0.0","spark_pilot_2","7289","4","10","Female","","","","","","","","3753","<p> Time to play the dot game! </p>
            <p> For one minute, click the red dots on the following screen as they appear. </p>
            <p><b> Don't look away, as you will earn bonus for clicking dots</b>. </p>","","instructions","","","","","","","","","","","","","",""
"revaluation","253","1141685","0.0-5.0-6.0-0.0","spark_pilot_2","7289","4","10","Female","","","","","","","","[84,88,56,135,67,69]","","","rest","","60","","","","","0","60000","","","","","",""
"learning-instructions","254","1149379","0.0-5.0-7.0-0.0","spark_pilot_2","7289","4","10","Female","","","","","","","","1594.9999999997672","<p> You have almost finished this part of the game! </p>
            <p> We are going to ask you to make a few more choices. </p>","","instructions","","","","","","","","","","","","","",""
"learning-instructions","255","1165962","0.0-5.0-7.0-0.1","spark_pilot_2","7289","4","10","Female","","","","","","","","2611.999999999767","<p> First, you need to decide whether to go up or down. When you see each picture, use the arrow keys to make your choice. </p>
            <p><b>You will not see which animal you found, but try to get to the one that will give you the most treasure.</b></p>","","instructions","","","","","","","","","","","","","",""
"revaluation","256","1167666","0.0-5.0-8.0-0.0","spark_pilot_2","7289","4","10","Female","","false","","","","","","[1704]","./assets/img/ocean/test/1.jpg","[""ArrowDown""]","first stage test","ocean","0","{""ArrowUp,ArrowLeft"":2,""ArrowUp,ArrowRight"":11,""ArrowDown,ArrowLeft"":8,""ArrowDown,ArrowRight"":27}","true","ArrowDown","false","","","revaluation","1","","","",""
"html-keyboard-response","257","1168168","0.0-5.0-8.0-1.0","spark_pilot_2","7289","4","10","Female","","","","","","","","null","<div style=""font-size:60px;"">+</div>","null","fixation","","","","","","","","","","","","","",""
"revaluation","258","1169151","0.0-5.0-8.0-0.1","spark_pilot_2","7289","4","10","Female","","false","","","","","","[982]","./assets/img/ocean/test/3.jpg","[""ArrowDown""]","first stage test","ocean","0","{""ArrowUp,ArrowLeft"":2,""ArrowUp,ArrowRight"":11,""ArrowDown,ArrowLeft"":8,""ArrowDown,ArrowRight"":27}","true","ArrowDown","false","","","revaluation","1","","","",""
"html-keyboard-response","259","1169653","0.0-5.0-8.0-1.1","spark_pilot_2","7289","4","10","Female","","","","","","","","null","<div style=""font-size:60px;"">+</div>","null","fixation","","","","","","","","","","","","","",""
"revaluation","260","1170502","0.0-5.0-8.0-0.2","spark_pilot_2","7289","4","10","Female","","false","","","","","","[847]","./assets/img/ocean/test/0.jpg","[""ArrowUp""]","first stage test","ocean","0","{""ArrowUp,ArrowLeft"":2,""ArrowUp,ArrowRight"":11,""ArrowDown,ArrowLeft"":8,""ArrowDown,ArrowRight"":27}","false","ArrowUp","false","","","revaluation","1","","","",""
"html-keyboard-response","261","1171004","0.0-5.0-8.0-1.2","spark_pilot_2","7289","4","10","Female","","","","","","","","null","<div style=""font-size:60px;"">+</div>","null","fixation","","","","","","","","","","","","","",""
"revaluation","262","1171792","0.0-5.0-8.0-0.3","spark_pilot_2","7289","4","10","Female","","false","","","","","","[786.9999999997672]","./assets/img/ocean/test/2.jpg","[""ArrowUp""]","first stage test","ocean","0","{""ArrowUp,ArrowLeft"":2,""ArrowUp,ArrowRight"":11,""ArrowDown,ArrowLeft"":8,""ArrowDown,ArrowRight"":27}","false","ArrowUp","false","","","revaluation","1","","","",""
"html-keyboard-response","263","1172293","0.0-5.0-8.0-1.3","spark_pilot_2","7289","4","10","Female","","","","","","","","null","<div style=""font-size:60px;"">+</div>","null","fixation","","","","","","","","","","","","","",""
"learning-instructions","264","1186506","0.0-5.0-9.0-0.0","spark_pilot_2","7289","4","10","Female","","","","","","","","2873","<p> Now you will see the animals again and can search their chests for treasure. </p>
            <p> This time, you will not see how much treasure you earned, but you will earn more bonus money for making better choices. </p>","","instructions","","","","","","","","","","","","","",""
"revaluation","265","1187511","0.0-5.0-10.0-0.0","spark_pilot_2","7289","4","10","Female","","false","","","","","","[1004]","./assets/img/ocean/animals/octopus.jpg","[""ArrowRight""]","second stage test","ocean","0","{""ArrowUp,ArrowLeft"":2,""ArrowUp,ArrowRight"":11,""ArrowDown,ArrowLeft"":8,""ArrowDown,ArrowRight"":27}","true","ArrowUp,ArrowRight","","","","revaluation","1","","","",""
"html-keyboard-response","266","1188013","0.0-5.0-10.0-1.0","spark_pilot_2","7289","4","10","Female","","","","","","","","null","<div style=""font-size:60px;"">+</div>","null","fixation","","","","","","","","","","","","","",""
"revaluation","267","1188981","0.0-5.0-10.0-0.1","spark_pilot_2","7289","4","10","Female","","false","","","","","","[967]","./assets/img/ocean/animals/octopus.jpg","[""ArrowLeft""]","second stage test","ocean","0","{""ArrowUp,ArrowLeft"":2,""ArrowUp,ArrowRight"":11,""ArrowDown,ArrowLeft"":8,""ArrowDown,ArrowRight"":27}","false","ArrowUp,ArrowLeft","","","","revaluation","1","","","",""
"html-keyboard-response","268","1189483","0.0-5.0-10.0-1.1","spark_pilot_2","7289","4","10","Female","","","","","","","","null","<div style=""font-size:60px;"">+</div>","null","fixation","","","","","","","","","","","","","",""
"revaluation","269","1190346","0.0-5.0-10.0-0.2","spark_pilot_2","7289","4","10","Female","","false","","","","","","[862]","./assets/img/ocean/animals/octopus.jpg","[""ArrowRight""]","second stage test","ocean","0","{""ArrowUp,ArrowLeft"":2,""ArrowUp,ArrowRight"":11,""ArrowDown,ArrowLeft"":8,""ArrowDown,ArrowRight"":27}","true","ArrowUp,ArrowRight","","","","revaluation","1","","","",""
"html-keyboard-response","270","1190848","0.0-5.0-10.0-1.2","spark_pilot_2","7289","4","10","Female","","","","","","","","null","<div style=""font-size:60px;"">+</div>","null","fixation","","","","","","","","","","","","","",""
"revaluation","271","1191606","0.0-5.0-10.0-0.3","spark_pilot_2","7289","4","10","Female","","false","","","","","","[757]","./assets/img/ocean/animals/octopus.jpg","[""ArrowLeft""]","second stage test","ocean","0","{""ArrowUp,ArrowLeft"":2,""ArrowUp,ArrowRight"":11,""ArrowDown,ArrowLeft"":8,""ArrowDown,ArrowRight"":27}","false","ArrowUp,ArrowLeft","","","","revaluation","1","","","",""
"html-keyboard-response","272","1192107","0.0-5.0-10.0-1.3","spark_pilot_2","7289","4","10","Female","","","","","","","","null","<div style=""font-size:60px;"">+</div>","null","fixation","","","","","","","","","","","","","",""
"revaluation","273","1192761","0.0-5.0-10.0-0.4","spark_pilot_2","7289","4","10","Female","","false","","","","","","[652]","./assets/img/ocean/animals/seahorse.jpg","[""ArrowRight""]","second stage test","ocean","0","{""ArrowUp,ArrowLeft"":2,""ArrowUp,ArrowRight"":11,""ArrowDown,ArrowLeft"":8,""ArrowDown,ArrowRight"":27}","true","ArrowDown,ArrowRight","","","","revaluation","1","","","",""
"html-keyboard-response","274","1193262","0.0-5.0-10.0-1.4","spark_pilot_2","7289","4","10","Female","","","","","","","","null","<div style=""font-size:60px;"">+</div>","null","fixation","","","","","","","","","","","","","",""
"revaluation","275","1193781","0.0-5.0-10.0-0.5","spark_pilot_2","7289","4","10","Female","","false","","","","","","[517]","./assets/img/ocean/animals/seahorse.jpg","[""ArrowLeft""]","second stage test","ocean","0","{""ArrowUp,ArrowLeft"":2,""ArrowUp,ArrowRight"":11,""ArrowDown,ArrowLeft"":8,""ArrowDown,ArrowRight"":27}","false","ArrowDown,ArrowLeft","","","","revaluation","1","","","",""
"html-keyboard-response","276","1194283","0.0-5.0-10.0-1.5","spark_pilot_2","7289","4","10","Female","","","","","","","","null","<div style=""font-size:60px;"">+</div>","null","fixation","","","","","","","","","","","","","",""
"revaluation","277","1194846","0.0-5.0-10.0-0.6","spark_pilot_2","7289","4","10","Female","","false","","","","","","[562]","./assets/img/ocean/animals/seahorse.jpg","[""ArrowRight""]","second stage test","ocean","0","{""ArrowUp,ArrowLeft"":2,""ArrowUp,ArrowRight"":11,""ArrowDown,ArrowLeft"":8,""ArrowDown,ArrowRight"":27}","true","ArrowDown,ArrowRight","","","","revaluation","1","","","",""
"html-keyboard-response","278","1195347","0.0-5.0-10.0-1.6","spark_pilot_2","7289","4","10","Female","","","","","","","","null","<div style=""font-size:60px;"">+</div>","null","fixation","","","","","","","","","","","","","",""
"revaluation","279","1195701","0.0-5.0-10.0-0.7","spark_pilot_2","7289","4","10","Female","","false","","","","","","[353]","./assets/img/ocean/animals/seahorse.jpg","[""ArrowLeft""]","second stage test","ocean","0","{""ArrowUp,ArrowLeft"":2,""ArrowUp,ArrowRight"":11,""ArrowDown,ArrowLeft"":8,""ArrowDown,ArrowRight"":27}","false","ArrowDown,ArrowLeft","","","","revaluation","1","","","",""
"html-keyboard-response","280","1196202","0.0-5.0-10.0-1.7","spark_pilot_2","7289","4","10","Female","","","","","","","","null","<div style=""font-size:60px;"">+</div>","null","fixation","","","","","","","","","","","","","",""
"learning-instructions","281","1201945","0.0-5.0-0.1-0.2","spark_pilot_2","7289","4","10","Female","","","","","","","","2991.000000000233","<p> This time you are searching for treasure in the <b>canyon</b>.</p>","","instructions","","","","","","","","","","","","","",""
"learning-instructions","282","1222160","0.0-5.0-0.1-0.3","spark_pilot_2","7289","4","10","Female","","","","","","","","2965","<p><b>New</b> animals with <b>new</b> treasure chests live here. You need to explore to discover where the animal with the best treasure chest is.</p>
                    <p> Like before, once you figure out which animal has the chest with the most treasure, you should try to get to that animal and select that chest! </p>","","instructions","","","","","","","","","","","","","",""
"learning-instructions","283","1239320","0.0-5.0-1.1-0.1","spark_pilot_2","7289","4","10","Female","","","","","","","","2431","<p> Remember, when you see a picture of the place, use the up and down keys to <b>find an animal</b>.</p>
            <p> When you encounter an animal, you should use the left and right keys to <b>select a treasure chest</b>.</p>
            <p> Don't forget to look out for the robber! </p>","","instructions","","","","","","","","","","","","","",""
"revaluation","284","1245325","0.0-5.0-2.1-0.50","spark_pilot_2","7289","4","10","Female","","false","","","","","","[959,337]","./assets/img/canyon/memory/2.jpg","[""ArrowDown"",""ArrowRight""]","value training","canyon","30","{""ArrowUp,ArrowLeft"":23,""ArrowUp,ArrowRight"":10,""ArrowDown,ArrowLeft"":8,""ArrowDown,ArrowRight"":30}","true","ArrowDown,ArrowRight","false","","","original","2","0","","",""
"html-keyboard-response","285","1245825","0.0-5.0-2.1-1.50","spark_pilot_2","7289","4","10","Female","","","","","","","","null","<div style=""font-size:60px;"">+</div>","null","fixation","","","","","","","","","","","1","","",""
"revaluation","286","1249828","0.0-5.0-2.1-0.51","spark_pilot_2","7289","4","10","Female","","false","","","","","","[602]","./assets/img/canyon/catch/6.jpg","[""ArrowDown""]","value training","canyon","-10","{""ArrowUp,ArrowLeft"":23,""ArrowUp,ArrowRight"":10,""ArrowDown,ArrowLeft"":8,""ArrowDown,ArrowRight"":30}","false","ArrowDown","true","","","original","2","2","","",""
"html-keyboard-response","287","1250330","0.0-5.0-2.1-1.51","spark_pilot_2","7289","4","10","Female","","","","","","","","null","<div style=""font-size:60px;"">+</div>","null","fixation","","","","","","","","","","","3","","",""
"revaluation","288","1256334","0.0-5.0-2.1-0.52","spark_pilot_2","7289","4","10","Female","","false","","","","","","[509,562]","./assets/img/canyon/memory/40.jpg","[""ArrowDown"",""ArrowRight""]","value training","canyon","30","{""ArrowUp,ArrowLeft"":23,""ArrowUp,ArrowRight"":10,""ArrowDown,ArrowLeft"":8,""ArrowDown,ArrowRight"":30}","true","ArrowDown,ArrowRight","false","","","original","2","4","","",""
"html-keyboard-response","289","1256836","0.0-5.0-2.1-1.52","spark_pilot_2","7289","4","10","Female","","","","","","","","null","<div style=""font-size:60px;"">+</div>","null","fixation","","","","","","","","","","","5","","",""
"revaluation","290","1262841","0.0-5.0-2.1-0.53","spark_pilot_2","7289","4","10","Female","","false","","","","","","[436.99999999976717,311]","./assets/img/canyon/memory/9.jpg","[""ArrowDown"",""ArrowRight""]","value training","canyon","30","{""ArrowUp,ArrowLeft"":23,""ArrowUp,ArrowRight"":10,""ArrowDown,ArrowLeft"":8,""ArrowDown,ArrowRight"":30}","true","ArrowDown,ArrowRight","false","","","original","2","6","","",""
"html-keyboard-response","291","1263342","0.0-5.0-2.1-1.53","spark_pilot_2","7289","4","10","Female","","","","","","","","null","<div style=""font-size:60px;"">+</div>","null","fixation","","","","","","","","","","","7","","",""
"revaluation","292","1269347","0.0-5.0-2.1-0.54","spark_pilot_2","7289","4","10","Female","","false","","","","","","[621,360]","./assets/img/canyon/memory/36.jpg","[""ArrowDown"",""ArrowRight""]","value training","canyon","30","{""ArrowUp,ArrowLeft"":23,""ArrowUp,ArrowRight"":10,""ArrowDown,ArrowLeft"":8,""ArrowDown,ArrowRight"":30}","true","ArrowDown,ArrowRight","false","","","original","2","8","","",""
"html-keyboard-response","293","1269848","0.0-5.0-2.1-1.54","spark_pilot_2","7289","4","10","Female","","","","","","","","null","<div style=""font-size:60px;"">+</div>","null","fixation","","","","","","","","","","","9","","",""
"revaluation","294","1275853","0.0-5.0-2.1-0.55","spark_pilot_2","7289","4","10","Female","","false","","","","","","[715,423]","./assets/img/canyon/memory/35.jpg","[""ArrowDown"",""ArrowRight""]","value training","canyon","30","{""ArrowUp,ArrowLeft"":23,""ArrowUp,ArrowRight"":10,""ArrowDown,ArrowLeft"":8,""ArrowDown,ArrowRight"":30}","true","ArrowDown,ArrowRight","false","","","original","2","10","","",""
"html-keyboard-response","295","1276355","0.0-5.0-2.1-1.55","spark_pilot_2","7289","4","10","Female","","","","","","","","null","<div style=""font-size:60px;"">+</div>","null","fixation","","","","","","","","","","","11","","",""
"revaluation","296","1280358","0.0-5.0-2.1-0.56","spark_pilot_2","7289","4","10","Female","","false","","","","","","[778]","./assets/img/canyon/catch/7.jpg","[""spaceBar""]","value training","canyon","0","{""ArrowUp,ArrowLeft"":23,""ArrowUp,ArrowRight"":10,""ArrowDown,ArrowLeft"":8,""ArrowDown,ArrowRight"":30}","true","spaceBar","true","","","original","2","12","","",""
"html-keyboard-response","297","1280859","0.0-5.0-2.1-1.56","spark_pilot_2","7289","4","10","Female","","","","","","","","null","<div style=""font-size:60px;"">+</div>","null","fixation","","","","","","","","","","","13","","",""
"revaluation","298","1286864","0.0-5.0-2.1-0.57","spark_pilot_2","7289","4","10","Female","","false","","","","","","[818,662]","./assets/img/canyon/memory/22.jpg","[""ArrowDown"",""ArrowRight""]","value training","canyon","30","{""ArrowUp,ArrowLeft"":23,""ArrowUp,ArrowRight"":10,""ArrowDown,ArrowLeft"":8,""ArrowDown,ArrowRight"":30}","true","ArrowDown,ArrowRight","false","","","original","2","14","","",""
"html-keyboard-response","299","1287366","0.0-5.0-2.1-1.57","spark_pilot_2","7289","4","10","Female","","","","","","","","null","<div style=""font-size:60px;"">+</div>","null","fixation","","","","","","","","","","","15","","",""
"revaluation","300","1293370","0.0-5.0-2.1-0.58","spark_pilot_2","7289","4","10","Female","","false","","","","","","[702,1281]","./assets/img/canyon/memory/35.jpg","[""ArrowDown"",""ArrowRight""]","value training","canyon","30","{""ArrowUp,ArrowLeft"":23,""ArrowUp,ArrowRight"":10,""ArrowDown,ArrowLeft"":8,""ArrowDown,ArrowRight"":30}","true","ArrowDown,ArrowRight","false","","","original","2","16","","",""
"html-keyboard-response","301","1293871","0.0-5.0-2.1-1.58","spark_pilot_2","7289","4","10","Female","","","","","","","","null","<div style=""font-size:60px;"">+</div>","null","fixation","","","","","","","","","","","17","","",""
"revaluation","302","1299874","0.0-5.0-2.1-0.59","spark_pilot_2","7289","4","10","Female","","false","","","","","","[391,325]","./assets/img/canyon/memory/34.jpg","[""ArrowDown"",""ArrowRight""]","value training","canyon","30","{""ArrowUp,ArrowLeft"":23,""ArrowUp,ArrowRight"":10,""ArrowDown,ArrowLeft"":8,""ArrowDown,ArrowRight"":30}","true","ArrowDown,ArrowRight","false","","","original","2","18","","",""
"html-keyboard-response","303","1300376","0.0-5.0-2.1-1.59","spark_pilot_2","7289","4","10","Female","","","","","","","","null","<div style=""font-size:60px;"">+</div>","null","fixation","","","","","","","","","","","19","","",""
"revaluation","304","1306381","0.0-5.0-2.1-0.60","spark_pilot_2","7289","4","10","Female","","false","","","","","","[846,495]","./assets/img/canyon/memory/32.jpg","[""ArrowDown"",""ArrowRight""]","value training","canyon","30","{""ArrowUp,ArrowLeft"":23,""ArrowUp,ArrowRight"":10,""ArrowDown,ArrowLeft"":8,""ArrowDown,ArrowRight"":30}","true","ArrowDown,ArrowRight","false","","","original","2","20","","",""
"html-keyboard-response","305","1306882","0.0-5.0-2.1-1.60","spark_pilot_2","7289","4","10","Female","","","","","","","","null","<div style=""font-size:60px;"">+</div>","null","fixation","","","","","","","","","","","21","","",""
"revaluation","306","1312887","0.0-5.0-2.1-0.61","spark_pilot_2","7289","4","10","Female","","false","","","","","","[503.99999999976717,333]","./assets/img/canyon/memory/2.jpg","[""ArrowDown"",""ArrowRight""]","value training","canyon","30","{""ArrowUp,ArrowLeft"":23,""ArrowUp,ArrowRight"":10,""ArrowDown,ArrowLeft"":8,""ArrowDown,ArrowRight"":30}","true","ArrowDown,ArrowRight","false","","","original","2","22","","",""
"html-keyboard-response","307","1313388","0.0-5.0-2.1-1.61","spark_pilot_2","7289","4","10","Female","","","","","","","","null","<div style=""font-size:60px;"">+</div>","null","fixation","","","","","","","","","","","23","","",""
"revaluation","308","1317392","0.0-5.0-2.1-0.62","spark_pilot_2","7289","4","10","Female","","false","","","","","","[718]","./assets/img/canyon/catch/0.jpg","[""spaceBar""]","value training","canyon","0","{""ArrowUp,ArrowLeft"":23,""ArrowUp,ArrowRight"":10,""ArrowDown,ArrowLeft"":8,""ArrowDown,ArrowRight"":30}","true","spaceBar","true","","","original","2","24","","",""
"html-keyboard-response","309","1317894","0.0-5.0-2.1-1.62","spark_pilot_2","7289","4","10","Female","","","","","","","","null","<div style=""font-size:60px;"">+</div>","null","fixation","","","","","","","","","","","25","","",""
