"trial_type","trial_index","time_elapsed","internal_node_id","task_version","subject_id","assigned_condition","age","gender","success","timeout","failed_images","failed_audio","failed_video","browser_interaction","rt","stimulus","response","task_part","environment","score","rewardMap","correct","fullState","isCatch","numberMissed","duration","condition","order","trial_num","key_press","ground_truth","bonus"
"pavlovia","0","1052","0.0-0.0","spark_pilot_2","8153","8","9","Male","","","","","","","","","","","","","","","","","","","","","","","",""
"preload","1","2954","0.0-1.0","spark_pilot_2","8153","8","9","Male","true","false","[]","[]","[]","[{""event"":""fullscreenenter"",""trial"":2,""time"":6268},{""event"":""fullscreenexit"",""trial"":499,""time"":1931823}]","","","","","","","","","","","","","","","","","",""
"fullscreen","2","7263","0.0-2.0","spark_pilot_2","8153","8","9","Male","true","","","","","","","","","","","","","","","","","","","","","","",""
"audio-button-response","3","10297","0.0-3.0-0.0-0.0","spark_pilot_2","8153","8","9","Male","","","","","","","2933","./assets/audio/audiotest/turtle.mp3","2","audio_test","","","","","","","","","","","","","",""
"learning-instructions","4","22382","0.0-3.0-1.0-0.0","spark_pilot_2","8153","8","9","Male","","","","","","","5098.299999999988","<p> Welcome! Please remember to stay in fullscreen mode and don't click away from the experiment. </p>","","instructions","","","","","","","","","","","","","",""
"learning-instructions","5","31628","0.0-3.0-1.0-0.1","spark_pilot_2","8153","8","9","Male","","","","","","","822.2000000000116","<p> Today you will be playing a game to earn treasure. </p>
            <p> At the end of the experiment, you will earn a bonus based on how much treasure you find. </p>
            <img src='./assets/img/instructions/treasure.jpg' class='instructions-image'>","","instructions","","","","","","","","","","","","","",""
"learning-instructions","6","41497","0.0-3.0-1.0-0.2","spark_pilot_2","8153","8","9","Male","","","","","","","1603.5","<p> Animals have hidden treasure in treasure chests. </p>
            <p> You need to first find an animal and then choose which of their treasure chests to search. </p>
            <img src='./assets/img/space/animals/cat.jpg' class='instructions-image'>","","instructions","","","","","","","","","","","","","",""
"learning-instructions","7","55388","0.0-3.0-1.0-0.3","spark_pilot_2","8153","8","9","Male","","","","","","","720.7000000000116","<p> In each round, you will search for treasure in a different place. In the real game, there will be two rounds. </p>
            <p> You will begin with a separate, practice round where you will search for treasure in outer space. </p>
            <img src='./assets/img/space/0.jpg' class='instructions-image'>","","instructions","","","","","","","","","","","","","",""
"learning-instructions","8","67597","0.0-3.0-1.0-0.4","spark_pilot_2","8153","8","9","Male","","","","","","","780.2000000000116","<p> On every turn, you will see a picture of the place that you are in, but the specific image may be different each time. </p>
            <p> For example, both of these images mean you are in outer space. </p>
            <img src='./assets/img/instructions/outerspace.jpg' class='instructions-image'>","","instructions","","","","","","","","","","","","","",""
"learning-instructions","9","77351","0.0-3.0-1.0-0.5","spark_pilot_2","8153","8","9","Male","","","","","","","1916.399999999965","<p> You need to decide which direction to travel in. </p>
            <p> You can choose between going <b>up or down</b> by using the arrow keys. </p>
            <img src='./assets/img/instructions/updown.jpg' class='instructions-image'>","","instructions","","","","","","","","","","","","","",""
"learning-instructions","10","87522","0.0-3.0-1.0-0.6","spark_pilot_2","8153","8","9","Male","","","","","","","1346","<p> You will have <b>2 seconds</b> to make your choice. </p>
            <p> If you do not make a choice within 2 seconds, you will not find an animal or earn treasure. </p>
            <img src='./assets/img/instructions/2seconds.jpg' class='instructions-image'>","","instructions","","","","","","","","","","","","","",""
"learning-instructions","11","95271","0.0-3.0-1.0-0.7","spark_pilot_2","8153","8","9","Male","","","","","","","699.4000000000233","<p> Let’s try practicing that now! </p>
            <p> When you see a picture of the place you are in, press the <b>up</b> key to travel up. </p>
            <img src='./assets/img/instructions/pressUp.jpg' class='instructions-image'>","","instructions","","","","","","","","","","","","","",""
"revaluation","12","99296","0.0-3.0-2.0-0.0","spark_pilot_2","8153","8","9","Male","","false","","","","","[465.80000000004657]","./assets/img/space/0.jpg","[""ArrowUp""]","first stage practice","space","0","null","null","ArrowUp","false","","","","","","","",""
"html-keyboard-response","13","99800","0.0-3.0-2.0-1.0","spark_pilot_2","8153","8","9","Male","","","","","","","null","<div style=""font-size:60px;"">+</div>","null","fixation","","","","","","","","","","","","","",""
"revaluation","14","103816","0.0-3.0-2.0-0.1","spark_pilot_2","8153","8","9","Male","","false","","","","","[1120.2000000000116]","./assets/img/space/1.jpg","[""ArrowUp""]","first stage practice","space","0","null","null","ArrowUp","false","","","","","","","",""
"html-keyboard-response","15","104319","0.0-3.0-2.0-1.1","spark_pilot_2","8153","8","9","Male","","","","","","","null","<div style=""font-size:60px;"">+</div>","null","fixation","","","","","","","","","","","","","",""
"revaluation","16","108336","0.0-3.0-2.0-0.2","spark_pilot_2","8153","8","9","Male","","false","","","","","[679.2999999999884]","./assets/img/space/2.jpg","[""ArrowUp""]","first stage practice","space","0","null","null","ArrowUp","false","","","","","","","",""
"html-keyboard-response","17","108839","0.0-3.0-2.0-1.2","spark_pilot_2","8153","8","9","Male","","","","","","","null","<div style=""font-size:60px;"">+</div>","null","fixation","","","","","","","","","","","","","",""
"learning-instructions","18","115689","0.0-3.0-3.0-0.0","spark_pilot_2","8153","8","9","Male","","","","","","","2141.600000000035","<p> Great job! Now try pressing the <b>down</b> key to travel down. </p>
            <img src='./assets/img/instructions/pressDown.jpg' class='instructions-image'>","","instructions","","","","","","","","","","","","","",""
"revaluation","19","119704","0.0-3.0-4.0-0.0","spark_pilot_2","8153","8","9","Male","","false","","","","","[1748.100000000035]","./assets/img/space/3.jpg","[""ArrowDown""]","first stage practice","space","0","null","null","ArrowDown","false","","","","","","","",""
"html-keyboard-response","20","120207","0.0-3.0-4.0-1.0","spark_pilot_2","8153","8","9","Male","","","","","","","null","<div style=""font-size:60px;"">+</div>","null","fixation","","","","","","","","","","","","","",""
"revaluation","21","124224","0.0-3.0-4.0-0.1","spark_pilot_2","8153","8","9","Male","","false","","","","","[582]","./assets/img/space/4.jpg","[""ArrowDown""]","first stage practice","space","0","null","null","ArrowDown","false","","","","","","","",""
"html-keyboard-response","22","124727","0.0-3.0-4.0-1.1","spark_pilot_2","8153","8","9","Male","","","","","","","null","<div style=""font-size:60px;"">+</div>","null","fixation","","","","","","","","","","","","","",""
"revaluation","23","128744","0.0-3.0-4.0-0.2","spark_pilot_2","8153","8","9","Male","","false","","","","","[785.5]","./assets/img/space/5.jpg","[""ArrowDown""]","first stage practice","space","0","null","null","ArrowDown","false","","","","","","","",""
"html-keyboard-response","24","129247","0.0-3.0-4.0-1.2","spark_pilot_2","8153","8","9","Male","","","","","","","null","<div style=""font-size:60px;"">+</div>","null","fixation","","","","","","","","","","","","","",""
"learning-instructions","25","141411","0.0-3.0-5.0-0.0","spark_pilot_2","8153","8","9","Male","","","","","","","2307.3000000000466","<p> The animals don’t move, so the animal in the upper part of a place will stay in the upper part of a place, and the animal in the lower part of a place will stay in the lower part of a place. </p>","","instructions","","","","","","","","","","","","","",""
"learning-instructions","26","151863","0.0-3.0-5.0-0.1","spark_pilot_2","8153","8","9","Male","","","","","","","1303.100000000035","<p> Each animal has two treasure chests for you to choose from. </p>
            <p> The amount of treasure in each chest can range from <b> 0 to 40 pieces.</b></p>","","instructions","","","","","","","","","","","","","",""
"learning-instructions","27","164672","0.0-3.0-5.0-0.2","spark_pilot_2","8153","8","9","Male","","","","","","","1610.5","<p> You should decide which chest to search for treasure by using the <b>left</b> and <b>right</b> arrow keys. </p>
            <p><b> Pay attention to which animal is on the screen, as the animals have different treasure chests. </b></p>
            <img src='./assets/img/instructions/leftright.jpg' class='instructions-image'>","","instructions","","","","","","","","","","","","","",""
"learning-instructions","28","171821","0.0-3.0-5.0-0.3","spark_pilot_2","8153","8","9","Male","","","","","","","780.2999999999884","<p> Let’s try practicing that now. </p>
            <p> When you see an animal, choose which chest to search for treasure. </p>
            <img src='./assets/img/instructions/chooseChest.jpg' class='instructions-image'>","","instructions","","","","","","","","","","","","","",""
"revaluation","29","175840","0.0-3.0-6.0-0.0","spark_pilot_2","8153","8","9","Male","","false","","","","","[922.0999999999767]","./assets/img/space/animals/cat.jpg","[""ArrowRight""]","second stage practice","space","36","{""ArrowUp,ArrowLeft"":3,""ArrowUp,ArrowRight"":36,""ArrowDown,ArrowLeft"":15,""ArrowDown,ArrowRight"":23}","true","ArrowUp,ArrowRight","","","","","","","","",""
"html-keyboard-response","30","176343","0.0-3.0-6.0-1.0","spark_pilot_2","8153","8","9","Male","","","","","","","null","<div style=""font-size:60px;"">+</div>","null","fixation","","","","","","","","","","","","","",""
"revaluation","31","180360","0.0-3.0-6.0-0.1","spark_pilot_2","8153","8","9","Male","","false","","","","","[480.1000000000349]","./assets/img/space/animals/rabbit.jpg","[""ArrowLeft""]","second stage practice","space","15","{""ArrowUp,ArrowLeft"":3,""ArrowUp,ArrowRight"":36,""ArrowDown,ArrowLeft"":15,""ArrowDown,ArrowRight"":23}","false","ArrowDown,ArrowLeft","","","","","","","","",""
"html-keyboard-response","32","180863","0.0-3.0-6.0-1.1","spark_pilot_2","8153","8","9","Male","","","","","","","null","<div style=""font-size:60px;"">+</div>","null","fixation","","","","","","","","","","","","","",""
"revaluation","33","184880","0.0-3.0-6.0-0.2","spark_pilot_2","8153","8","9","Male","","false","","","","","[363.5999999999767]","./assets/img/space/animals/cat.jpg","[""ArrowLeft""]","second stage practice","space","3","{""ArrowUp,ArrowLeft"":3,""ArrowUp,ArrowRight"":36,""ArrowDown,ArrowLeft"":15,""ArrowDown,ArrowRight"":23}","false","ArrowUp,ArrowLeft","","","","","","","","",""
"html-keyboard-response","34","185383","0.0-3.0-6.0-1.2","spark_pilot_2","8153","8","9","Male","","","","","","","null","<div style=""font-size:60px;"">+</div>","null","fixation","","","","","","","","","","","","","",""
"revaluation","35","189400","0.0-3.0-6.0-0.3","spark_pilot_2","8153","8","9","Male","","false","","","","","[343.5999999999767]","./assets/img/space/animals/rabbit.jpg","[""ArrowRight""]","second stage practice","space","23","{""ArrowUp,ArrowLeft"":3,""ArrowUp,ArrowRight"":36,""ArrowDown,ArrowLeft"":15,""ArrowDown,ArrowRight"":23}","true","ArrowDown,ArrowRight","","","","","","","","",""
"html-keyboard-response","36","189904","0.0-3.0-6.0-1.3","spark_pilot_2","8153","8","9","Male","","","","","","","null","<div style=""font-size:60px;"">+</div>","null","fixation","","","","","","","","","","","","","",""
"learning-instructions","37","208120","0.0-3.0-7.0-0.0","spark_pilot_2","8153","8","9","Male","","","","","","","1379.100000000035","<p> Great job. Now let’s try putting it together. </p>
            <p> On each turn, you will first see a picture to remind you of the place you are in, and you need to choose whether to go up or down. </p>
            <p> Then you will see an animal and choose which of its chests to search for treasure. </p>","","instructions","","","","","","","","","","","","","",""
"learning-instructions","38","217310","0.0-3.0-7.0-0.1","spark_pilot_2","8153","8","9","Male","","","","","","","830.7000000000116","<p> When you choose whether to go up or down, try to go to the animal with the chest with the most treasure. </p>
            <p> Try practicing that now! </p>","","instructions","","","","","","","","","","","","","",""
"revaluation","39","223336","0.0-3.0-8.0-0.0","spark_pilot_2","8153","8","9","Male","","false","","","","","[982.7000000000116,925.7999999999884]","./assets/img/space/6.jpg","[""ArrowDown"",""ArrowLeft""]","full practice","space","15","{""ArrowUp,ArrowLeft"":3,""ArrowUp,ArrowRight"":36,""ArrowDown,ArrowLeft"":15,""ArrowDown,ArrowRight"":23}","false","ArrowDown,ArrowLeft","false","","","","","","","",""
"html-keyboard-response","40","223839","0.0-3.0-8.0-1.0","spark_pilot_2","8153","8","9","Male","","","","","","","null","<div style=""font-size:60px;"">+</div>","null","fixation","","","","","","","","","","","","","",""
"revaluation","41","229864","0.0-3.0-8.0-0.1","spark_pilot_2","8153","8","9","Male","","false","","","","","[671.2000000000116,951]","./assets/img/space/7.jpg","[""ArrowUp"",""ArrowRight""]","full practice","space","36","{""ArrowUp,ArrowLeft"":3,""ArrowUp,ArrowRight"":36,""ArrowDown,ArrowLeft"":15,""ArrowDown,ArrowRight"":23}","true","ArrowUp,ArrowRight","false","","","","","","","",""
"html-keyboard-response","42","230367","0.0-3.0-8.0-1.1","spark_pilot_2","8153","8","9","Male","","","","","","","null","<div style=""font-size:60px;"">+</div>","null","fixation","","","","","","","","","","","","","",""
"revaluation","43","236392","0.0-3.0-8.0-0.2","spark_pilot_2","8153","8","9","Male","","false","","","","","[919.7000000000116,738.5]","./assets/img/space/8.jpg","[""ArrowUp"",""ArrowRight""]","full practice","space","36","{""ArrowUp,ArrowLeft"":3,""ArrowUp,ArrowRight"":36,""ArrowDown,ArrowLeft"":15,""ArrowDown,ArrowRight"":23}","true","ArrowUp,ArrowRight","false","","","","","","","",""
"html-keyboard-response","44","236895","0.0-3.0-8.0-1.2","spark_pilot_2","8153","8","9","Male","","","","","","","null","<div style=""font-size:60px;"">+</div>","null","fixation","","","","","","","","","","","","","",""
"revaluation","45","242920","0.0-3.0-8.0-0.3","spark_pilot_2","8153","8","9","Male","","false","","","","","[802.8999999999651,732.2000000000116]","./assets/img/space/9.jpg","[""ArrowDown"",""ArrowLeft""]","full practice","space","15","{""ArrowUp,ArrowLeft"":3,""ArrowUp,ArrowRight"":36,""ArrowDown,ArrowLeft"":15,""ArrowDown,ArrowRight"":23}","false","ArrowDown,ArrowLeft","false","","","","","","","",""
"html-keyboard-response","46","243423","0.0-3.0-8.0-1.3","spark_pilot_2","8153","8","9","Male","","","","","","","null","<div style=""font-size:60px;"">+</div>","null","fixation","","","","","","","","","","","","","",""
"revaluation","47","249448","0.0-3.0-8.0-0.4","spark_pilot_2","8153","8","9","Male","","false","","","","","[513.4000000000233,478.4000000000233]","./assets/img/space/10.jpg","[""ArrowDown"",""ArrowRight""]","full practice","space","23","{""ArrowUp,ArrowLeft"":3,""ArrowUp,ArrowRight"":36,""ArrowDown,ArrowLeft"":15,""ArrowDown,ArrowRight"":23}","false","ArrowDown,ArrowRight","false","","","","","","","",""
"html-keyboard-response","48","249951","0.0-3.0-8.0-1.4","spark_pilot_2","8153","8","9","Male","","","","","","","null","<div style=""font-size:60px;"">+</div>","null","fixation","","","","","","","","","","","","","",""
"learning-instructions","49","261942","0.0-3.0-9.0-0.0","spark_pilot_2","8153","8","9","Male","","","","","","","1682.1000000000931","<p> One last thing: sometimes, you will see a robber. The robber can be anywhere in the picture. </p>
            <p> If you do not stop them, you will lose treasure. </p>
            <img src='./assets/img/instructions/robber.jpg' class='instructions-image'>","","instructions","","","","","","","","","","","","","",""
"learning-instructions","50","269835","0.0-3.0-9.0-0.1","spark_pilot_2","8153","8","9","Male","","","","","","","712.5","<p> If you see the robber, you should <b>press the space bar</b> rather than using the arrow keys. </p>
            <p> Try practicing that now! </p>","","instructions","","","","","","","","","","","","","",""
"revaluation","51","273848","0.0-3.0-10.0-0.0","spark_pilot_2","8153","8","9","Male","","false","","","","","[637.1999999999534]","./assets/img/space/catch/0.jpg","[""spaceBar""]","catch practice","space","0","{""ArrowUp,ArrowLeft"":3,""ArrowUp,ArrowRight"":36,""ArrowDown,ArrowLeft"":15,""ArrowDown,ArrowRight"":23}","true","spaceBar","true","","","","","","","",""
"html-keyboard-response","52","274351","0.0-3.0-10.0-1.0","spark_pilot_2","8153","8","9","Male","","","","","","","null","<div style=""font-size:60px;"">+</div>","null","fixation","","","","","","","","","","","","","",""
"revaluation","53","278368","0.0-3.0-10.0-0.1","spark_pilot_2","8153","8","9","Male","","false","","","","","[507.30000000004657]","./assets/img/space/catch/1.jpg","[""spaceBar""]","catch practice","space","0","{""ArrowUp,ArrowLeft"":3,""ArrowUp,ArrowRight"":36,""ArrowDown,ArrowLeft"":15,""ArrowDown,ArrowRight"":23}","true","spaceBar","true","","","","","","","",""
"html-keyboard-response","54","278872","0.0-3.0-10.0-1.1","spark_pilot_2","8153","8","9","Male","","","","","","","null","<div style=""font-size:60px;"">+</div>","null","fixation","","","","","","","","","","","","","",""
"revaluation","55","282888","0.0-3.0-10.0-0.2","spark_pilot_2","8153","8","9","Male","","false","","","","","[515.8000000000466]","./assets/img/space/catch/2.jpg","[""spaceBar""]","catch practice","space","0","{""ArrowUp,ArrowLeft"":3,""ArrowUp,ArrowRight"":36,""ArrowDown,ArrowLeft"":15,""ArrowDown,ArrowRight"":23}","true","spaceBar","true","","","","","","","",""
"html-keyboard-response","56","283391","0.0-3.0-10.0-1.2","spark_pilot_2","8153","8","9","Male","","","","","","","null","<div style=""font-size:60px;"">+</div>","null","fixation","","","","","","","","","","","","","",""
"learning-instructions","57","298377","0.0-3.0-11.0-0.0","spark_pilot_2","8153","8","9","Male","","","","","","","1381.7999999999302","<p> After you explore a place to find treasure, it will be time to play a different game. </p>
            <p> During this game, red dots will appear on the screen and fall down slowly. </p>
            <p><b> You must click on them before they reach the bottom. </b></p>
            <img src='./assets/img/instructions/dotGame.jpg' class='instructions-image'>","","instructions","","","","","","","","","","","","","",""
"learning-instructions","58","304779","0.0-3.0-11.0-0.1","spark_pilot_2","8153","8","9","Male","","","","","","","722.1999999999534","<p> For every dot you click, you will earn additional treasure. </p>
            <p> Let’s try practicing that now. </p>","","instructions","","","","","","","","","","","","","",""
"revaluation","59","319794","0.0-3.0-12.0-0.0","spark_pilot_2","8153","8","9","Male","","","","","","","[84]","","","rest practice","","10","","","","","0","15000","","","","","",""
"learning-instructions","60","326845","0.0-3.0-13.0-0.0-0.0","spark_pilot_2","8153","8","9","Male","","","","","","","1775.1999999999534","<p> Now, you will practice a shortened version of the game to get a sense of how it all fits together. </p>","","instructions","","","","","","","","","","","","","",""
"learning-instructions","61","331287","0.0-3.0-13.0-0.0-0.1","spark_pilot_2","8153","8","9","Male","","","","","","","1246.3000000000466","<p>This time you are searching for treasure in outer space.</p>","","instructions","","","","","","","","","","","","","",""
"learning-instructions","62","347258","0.0-3.0-13.0-1.0-0.0","spark_pilot_2","8153","8","9","Male","","","","","","","1196.1999999999534","<p> Remember, when you see a picture of the place, use the up and down keys to <b>find an animal</b>.</p>
            <p> When you encounter an animal, you should use the left and right keys to <b>select a treasure chest</b>.</p>
            <p> Don't forget to look out for the robber! </p>","","instructions","","","","","","","","","","","","","",""
"revaluation","63","353280","0.0-3.0-13.0-2.0-0.0","spark_pilot_2","8153","8","9","Male","","false","","","","","[1389.1000000000931,1038.5999999999767]","./assets/img/space/11.jpg","[""ArrowUp"",""ArrowRight""]","practice block","space","36","{""ArrowUp,ArrowLeft"":3,""ArrowUp,ArrowRight"":36,""ArrowDown,ArrowLeft"":15,""ArrowDown,ArrowRight"":23}","true","ArrowUp,ArrowRight","false","","","","","","","",""
"html-keyboard-response","64","353783","0.0-3.0-13.0-2.0-1.0","spark_pilot_2","8153","8","9","Male","","","","","","","null","<div style=""font-size:60px;"">+</div>","null","fixation","","","","","","","","","","","","","",""
"revaluation","65","359808","0.0-3.0-13.0-2.0-0.1","spark_pilot_2","8153","8","9","Male","","false","","","","","[596.0999999999767,551.7999999999302]","./assets/img/space/12.jpg","[""ArrowUp"",""ArrowRight""]","practice block","space","36","{""ArrowUp,ArrowLeft"":3,""ArrowUp,ArrowRight"":36,""ArrowDown,ArrowLeft"":15,""ArrowDown,ArrowRight"":23}","true","ArrowUp,ArrowRight","false","","","","","","","",""
"html-keyboard-response","66","360311","0.0-3.0-13.0-2.0-1.1","spark_pilot_2","8153","8","9","Male","","","","","","","null","<div style=""font-size:60px;"">+</div>","null","fixation","","","","","","","","","","","","","",""
"revaluation","67","366336","0.0-3.0-13.0-2.0-0.2","spark_pilot_2","8153","8","9","Male","","false","","","","","[993.8999999999069,951.5999999999767]","./assets/img/space/13.jpg","[""ArrowUp"",""ArrowRight""]","practice block","space","36","{""ArrowUp,ArrowLeft"":3,""ArrowUp,ArrowRight"":36,""ArrowDown,ArrowLeft"":15,""ArrowDown,ArrowRight"":23}","true","ArrowUp,ArrowRight","false","","","","","","","",""
"html-keyboard-response","68","366839","0.0-3.0-13.0-2.0-1.2","spark_pilot_2","8153","8","9","Male","","","","","","","null","<div style=""font-size:60px;"">+</div>","null","fixation","","","","","","","","","","","","","",""
"revaluation","69","372864","0.0-3.0-13.0-2.0-0.3","spark_pilot_2","8153","8","9","Male","","false","","","","","[853.8000000000466,660.4000000000233]","./assets/img/space/14.jpg","[""ArrowUp"",""ArrowLeft""]","practice block","space","3","{""ArrowUp,ArrowLeft"":3,""ArrowUp,ArrowRight"":36,""ArrowDown,ArrowLeft"":15,""ArrowDown,ArrowRight"":23}","false","ArrowUp,ArrowLeft","false","","","","","","","",""
"html-keyboard-response","70","373367","0.0-3.0-13.0-2.0-1.3","spark_pilot_2","8153","8","9","Male","","","","","","","null","<div style=""font-size:60px;"">+</div>","null","fixation","","","","","","","","","","","","","",""
"revaluation","71","379392","0.0-3.0-13.0-2.0-0.4","spark_pilot_2","8153","8","9","Male","","false","","","","","[418.80000000004657,453.69999999995343]","./assets/img/space/11.jpg","[""ArrowUp"",""ArrowLeft""]","practice block","space","3","{""ArrowUp,ArrowLeft"":3,""ArrowUp,ArrowRight"":36,""ArrowDown,ArrowLeft"":15,""ArrowDown,ArrowRight"":23}","false","ArrowUp,ArrowLeft","false","","","","","","","",""
"html-keyboard-response","72","379896","0.0-3.0-13.0-2.0-1.4","spark_pilot_2","8153","8","9","Male","","","","","","","null","<div style=""font-size:60px;"">+</div>","null","fixation","","","","","","","","","","","","","",""
"revaluation","73","385920","0.0-3.0-13.0-2.0-0.5","spark_pilot_2","8153","8","9","Male","","false","","","","","[721.4000000000233,340.30000000004657]","./assets/img/space/12.jpg","[""ArrowUp"",""ArrowRight""]","practice block","space","36","{""ArrowUp,ArrowLeft"":3,""ArrowUp,ArrowRight"":36,""ArrowDown,ArrowLeft"":15,""ArrowDown,ArrowRight"":23}","true","ArrowUp,ArrowRight","false","","","","","","","",""
"html-keyboard-response","74","386423","0.0-3.0-13.0-2.0-1.5","spark_pilot_2","8153","8","9","Male","","","","","","","null","<div style=""font-size:60px;"">+</div>","null","fixation","","","","","","","","","","","","","",""
"revaluation","75","392455","0.0-3.0-13.0-2.0-0.6","spark_pilot_2","8153","8","9","Male","","false","","","","","[537.5999999999767,584.0999999999767]","./assets/img/space/13.jpg","[""ArrowDown"",""ArrowLeft""]","practice block","space","15","{""ArrowUp,ArrowLeft"":3,""ArrowUp,ArrowRight"":36,""ArrowDown,ArrowLeft"":15,""ArrowDown,ArrowRight"":23}","false","ArrowDown,ArrowLeft","false","","","","","","","",""
"html-keyboard-response","76","392959","0.0-3.0-13.0-2.0-1.6","spark_pilot_2","8153","8","9","Male","","","","","","","null","<div style=""font-size:60px;"">+</div>","null","fixation","","","","","","","","","","","","","",""
"revaluation","77","398980","0.0-3.0-13.0-2.0-0.7","spark_pilot_2","8153","8","9","Male","","false","","","","","[474.4000000000233,352.5999999999767]","./assets/img/space/14.jpg","[""ArrowDown"",""ArrowRight""]","practice block","space","23","{""ArrowUp,ArrowLeft"":3,""ArrowUp,ArrowRight"":36,""ArrowDown,ArrowLeft"":15,""ArrowDown,ArrowRight"":23}","false","ArrowDown,ArrowRight","false","","","","","","","",""
"html-keyboard-response","78","399488","0.0-3.0-13.0-2.0-1.7","spark_pilot_2","8153","8","9","Male","","","","","","","null","<div style=""font-size:60px;"">+</div>","null","fixation","","","","","","","","","","","","","",""
"revaluation","79","403504","0.0-3.0-13.0-2.0-0.8","spark_pilot_2","8153","8","9","Male","","false","","","","","[437.10000000009313]","./assets/img/space/catch/3.jpg","[""ArrowUp""]","practice block","space","-10","{""ArrowUp,ArrowLeft"":3,""ArrowUp,ArrowRight"":36,""ArrowDown,ArrowLeft"":15,""ArrowDown,ArrowRight"":23}","false","ArrowUp","true","","","","","","","",""
"html-keyboard-response","80","404008","0.0-3.0-13.0-2.0-1.8","spark_pilot_2","8153","8","9","Male","","","","","","","null","<div style=""font-size:60px;"">+</div>","null","fixation","","","","","","","","","","","","","",""
"learning-instructions","81","418813","0.0-3.0-13.0-3.0-0.0","spark_pilot_2","8153","8","9","Male","","","","","","","1792.0999999999767","<p> Now, you will travel with a friend who will choose whether you go up or down first. </p>
            <p> On these turns, you will just see the animal that they found. You will still get to choose which chest to search for treasure.</p>","","instructions","","","","","","","","","","","","","",""
"revaluation","82","422832","0.0-3.0-13.0-4.0-0.0","spark_pilot_2","8153","8","9","Male","","false","","","","","[1028.5]","./assets/img/space/animals/cat.jpg","[""ArrowLeft""]","practice block","space","3","{""ArrowUp,ArrowLeft"":3,""ArrowUp,ArrowRight"":36,""ArrowDown,ArrowLeft"":15,""ArrowDown,ArrowRight"":23}","false","ArrowUp,ArrowLeft","","","","","","","","",""
"html-keyboard-response","83","423335","0.0-3.0-13.0-4.0-1.0","spark_pilot_2","8153","8","9","Male","","","","","","","null","<div style=""font-size:60px;"">+</div>","null","fixation","","","","","","","","","","","","","",""
"revaluation","84","427352","0.0-3.0-13.0-4.0-0.1","spark_pilot_2","8153","8","9","Male","","false","","","","","[624.4000000000233]","./assets/img/space/animals/rabbit.jpg","[""ArrowRight""]","practice block","space","23","{""ArrowUp,ArrowLeft"":3,""ArrowUp,ArrowRight"":36,""ArrowDown,ArrowLeft"":15,""ArrowDown,ArrowRight"":23}","true","ArrowDown,ArrowRight","","","","","","","","",""
"html-keyboard-response","85","427856","0.0-3.0-13.0-4.0-1.1","spark_pilot_2","8153","8","9","Male","","","","","","","null","<div style=""font-size:60px;"">+</div>","null","fixation","","","","","","","","","","","","","",""
"revaluation","86","431872","0.0-3.0-13.0-4.0-0.2","spark_pilot_2","8153","8","9","Male","","false","","","","","[579.7000000000698]","./assets/img/space/animals/cat.jpg","[""ArrowRight""]","practice block","space","36","{""ArrowUp,ArrowLeft"":3,""ArrowUp,ArrowRight"":36,""ArrowDown,ArrowLeft"":15,""ArrowDown,ArrowRight"":23}","true","ArrowUp,ArrowRight","","","","","","","","",""
"html-keyboard-response","87","432375","0.0-3.0-13.0-4.0-1.2","spark_pilot_2","8153","8","9","Male","","","","","","","null","<div style=""font-size:60px;"">+</div>","null","fixation","","","","","","","","","","","","","",""
"revaluation","88","436391","0.0-3.0-13.0-4.0-0.3","spark_pilot_2","8153","8","9","Male","","true","","","","","[]","./assets/img/space/animals/rabbit.jpg","[]","practice block","space","-5","{""ArrowUp,ArrowLeft"":3,""ArrowUp,ArrowRight"":36,""ArrowDown,ArrowLeft"":15,""ArrowDown,ArrowRight"":23}","false","ArrowDown","","","","","","","","",""
"html-keyboard-response","89","436896","0.0-3.0-13.0-4.0-1.3","spark_pilot_2","8153","8","9","Male","","","","","","","null","<div style=""font-size:60px;"">+</div>","null","fixation","","","","","","","","","","","","","",""
"learning-instructions","90","444779","0.0-3.0-13.0-5.0-0.0","spark_pilot_2","8153","8","9","Male","","","","","","","504.19999999995343","<p> Time to play the dot game! </p>
            <p> For 15 seconds, click the red dots on the following screen as they appear. </p>","","instructions","","","","","","","","","","","","","",""
"revaluation","91","459783","0.0-3.0-13.0-6.0-0.0","spark_pilot_2","8153","8","9","Male","","","","","","","[76]","","","rest practice","","10","","","","","0","15000","","","","","",""
"learning-instructions","92","467602","0.0-3.0-13.0-7.0-0.0","spark_pilot_2","8153","8","9","Male","","","","","","","1685.5999999999767","<p> You have almost finished this part of the game! </p>
            <p> We are going to ask you to make a few more choices. </p>","","instructions","","","","","","","","","","","","","",""
"learning-instructions","93","482572","0.0-3.0-13.0-7.0-0.1","spark_pilot_2","8153","8","9","Male","","","","","","","953.5999999999767","<p> First, you need to decide whether to go up or down. When you see each picture, use the arrow keys to make your choice. </p>
            <p><b>You will not see which animal you found, but try to get to the one that will give you the most treasure.</b></p>","","instructions","","","","","","","","","","","","","",""
"revaluation","94","484783","0.0-3.0-13.0-8.0","spark_pilot_2","8153","8","9","Male","","false","","","","","[2208.4000000000233]","./assets/img/space/15.jpg","[""ArrowUp""]","practice block","space","0","{""ArrowUp,ArrowLeft"":3,""ArrowUp,ArrowRight"":36,""ArrowDown,ArrowLeft"":15,""ArrowDown,ArrowRight"":23}","true","ArrowUp","false","","","","","","","",""
"html-keyboard-response","95","485287","0.0-3.0-13.0-9.0","spark_pilot_2","8153","8","9","Male","","","","","","","null","<div style=""font-size:60px;"">+</div>","null","fixation","","","","","","","","","","","","","",""
"learning-instructions","96","497656","0.0-3.0-13.0-10.0-0.0","spark_pilot_2","8153","8","9","Male","","","","","","","977","<p> Now you will see the animals again and can search their chests for treasure. </p>
            <p> This time, you will not see how much treasure you earned, but you will earn more bonus money for making better choices. </p>","","instructions","","","","","","","","","","","","","",""
"revaluation","97","498917","0.0-3.0-13.0-11.0-0.0","spark_pilot_2","8153","8","9","Male","","false","","","","","[1257.3000000000466]","./assets/img/space/animals/cat.jpg","[""ArrowRight""]","practice block","space","0","{""ArrowUp,ArrowLeft"":3,""ArrowUp,ArrowRight"":36,""ArrowDown,ArrowLeft"":15,""ArrowDown,ArrowRight"":23}","true","ArrowUp,ArrowRight","","","","","","","","",""
"html-keyboard-response","98","499423","0.0-3.0-13.0-11.0-1.0","spark_pilot_2","8153","8","9","Male","","","","","","","null","<div style=""font-size:60px;"">+</div>","null","fixation","","","","","","","","","","","","","",""
"revaluation","99","501067","0.0-3.0-13.0-11.0-0.1","spark_pilot_2","8153","8","9","Male","","false","","","","","[1639.9000000000233]","./assets/img/space/animals/rabbit.jpg","[""ArrowRight""]","practice block","space","0","{""ArrowUp,ArrowLeft"":3,""ArrowUp,ArrowRight"":36,""ArrowDown,ArrowLeft"":15,""ArrowDown,ArrowRight"":23}","true","ArrowDown,ArrowRight","","","","","","","","",""
"html-keyboard-response","100","501576","0.0-3.0-13.0-11.0-1.1","spark_pilot_2","8153","8","9","Male","","","","","","","null","<div style=""font-size:60px;"">+</div>","null","fixation","","","","","","","","","","","","","",""
"learning-instructions","101","507883","0.0-3.0-14.0-0.0","spark_pilot_2","8153","8","9","Male","","","","","","","1721.7999999999302","<p> Before you start, we're going to ask you a few questions about how the game works. </p>","","instructions","","","","","","","","","","","","","",""
"comp-q","102","515216","0.0-3.0-15.0-0.0-0.0","spark_pilot_2","8153","8","9","Male","","","","","","","1733.3999999999069","<p> <b> True or False? </b> </p>
            <p> There can be 50 pieces of treasure in a given animal's chest. </p>","1","comp_question","","","","true","","","","","","","","","",""
"comp-q","103","523517","0.0-3.0-15.0-0.0-1.0","spark_pilot_2","8153","8","9","Male","","","","","","","1557.6999999999534","<p> <b> That's right! </b> The amount of treasure in each chest can range from 0 to 40 pieces. </p>","0","comp_answer","","","","","","","","","","","","","",""
"comp-q","104","531509","0.0-3.0-15.0-0.1-0.1","spark_pilot_2","8153","8","9","Male","","","","","","","867.4000000000233","<p> <b> True or False? </b> </p><p> In this game, all animals have the same amount of treasure in their left and right chests. </p>","1","comp_question","","","","true","","","","","","","","","",""
"comp-q","105","537873","0.0-3.0-15.0-0.1-1.1","spark_pilot_2","8153","8","9","Male","","","","","","","1127.4000000000233","<p> <b> That's right! </b> Animals have different amounts of treasure in their treasure chests. </p>","0","comp_answer","","","","","","","","","","","","","",""
"comp-q","106","544976","0.0-3.0-15.0-0.2-0.2","spark_pilot_2","8153","8","9","Male","","","","","","","1257","<p> <b> True or False? </b> </p><p> The same animal will always be there if you go up in the same place. </p>","0","comp_question","","","","true","","","","","","","","","",""
"comp-q","107","552545","0.0-3.0-15.0-0.2-1.2","spark_pilot_2","8153","8","9","Male","","","","","","","1125.0999999999767","<p> <b> That's right! </b> One animal lives in the upper part and one lives in the lower part of every place. </p>","0","comp_answer","","","","","","","","","","","","","",""
"comp-q","108","558793","0.0-3.0-15.0-0.3-0.3","spark_pilot_2","8153","8","9","Male","","","","","","","716.6999999999534","<p> <b> True or False? </b> </p><p> If you see a different picture, it means you are in a new place. </p>","0","comp_question","","","","false","","","","","","","","","",""
"comp-q","109","571409","0.0-3.0-15.0-0.3-1.3","spark_pilot_2","8153","8","9","Male","","","","","","","1513.2999999999302","<p> <b>Incorrect.</b> Lots of different images may show the same place. For example,  you may see three different images that all remind you that you are in outer space. </p>","0","comp_answer","","","","","","","","","","","","","",""
"comp-q","110","577752","0.0-3.0-15.0-0.4-0.4","spark_pilot_2","8153","8","9","Male","","","","","","","838.4000000000233","<p> <b> True or False? </b> </p><p> If you see a different picture, it means you are in a new place. </p>","1","comp_question","","","","true","","","","","","","","","",""
"comp-q","111","590236","0.0-3.0-15.0-0.4-1.4","spark_pilot_2","8153","8","9","Male","","","","","","","1237.0999999999767","<p> <b> That's right! </b> Lots of different images may show the same place. For example,  you may see three different images that all remind you that you are in outer space. </p>","0","comp_answer","","","","","","","","","","","","","",""
"learning-instructions","112","601457","0.0-3.0-16.0-0.0","spark_pilot_2","8153","8","9","Male","","","","","","","1364.4000000000233","<p> Good job. Remember to do your best because the amount of treasure you earn will be converted into bonus money. </p>
            <p> It’s time to start the real game! </p>","","instructions","","","","","","","","","","","","","",""
"learning-instructions","113","606875","0.0-4.0-0.0-0.0","spark_pilot_2","8153","8","9","Male","","","","","","","2643.3000000000466","<p> This time you are searching for treasure in the <b>canyon</b>.</p>","","instructions","","","","","","","","","","","","","",""
"learning-instructions","114","625577","0.0-4.0-0.0-0.1","spark_pilot_2","8153","8","9","Male","","","","","","","1388.5999999999767","<p><b>New</b> animals with <b>new</b> treasure chests live here. You need to explore to discover where the animal with the best treasure chest is.</p>
                    <p> Like before, once you figure out which animal has the chest with the most treasure, you should try to get to that animal and select that chest! </p>","","instructions","","","","","","","","","","","","","",""
"learning-instructions","115","641730","0.0-4.0-1.0-0.0","spark_pilot_2","8153","8","9","Male","","","","","","","1424.5999999999767","<p> Remember, when you see a picture of the place, use the up and down keys to <b>find an animal</b>.</p>
            <p> When you encounter an animal, you should use the left and right keys to <b>select a treasure chest</b>.</p>
            <p> Don't forget to look out for the robber! </p>","","instructions","","","","","","","","","","","","","",""
"revaluation","116","645744","0.0-4.0-2.0-0.0","spark_pilot_2","8153","8","9","Male","","false","","","","","[855.0999999999767]","./assets/img/canyon/catch/3.jpg","[""ArrowUp""]","value training","canyon","-10","{""ArrowUp,ArrowLeft"":26,""ArrowUp,ArrowRight"":10,""ArrowDown,ArrowLeft"":5,""ArrowDown,ArrowRight"":17}","false","ArrowUp","true","","","revaluation","1","0","","",""
"html-keyboard-response","117","646255","0.0-4.0-2.0-1.0","spark_pilot_2","8153","8","9","Male","","","","","","","null","<div style=""font-size:60px;"">+</div>","null","fixation","","","","","","","","","","","1","","",""
"revaluation","118","652280","0.0-4.0-2.0-0.1","spark_pilot_2","8153","8","9","Male","","false","","","","","[704.6999999999534,1130.4000000000233]","./assets/img/canyon/memory/26.jpg","[""ArrowUp"",""ArrowRight""]","value training","canyon","10","{""ArrowUp,ArrowLeft"":26,""ArrowUp,ArrowRight"":10,""ArrowDown,ArrowLeft"":5,""ArrowDown,ArrowRight"":17}","false","ArrowUp,ArrowRight","false","","","revaluation","1","2","","",""
"html-keyboard-response","119","652783","0.0-4.0-2.0-1.1","spark_pilot_2","8153","8","9","Male","","","","","","","null","<div style=""font-size:60px;"">+</div>","null","fixation","","","","","","","","","","","3","","",""
"revaluation","120","658808","0.0-4.0-2.0-0.2","spark_pilot_2","8153","8","9","Male","","false","","","","","[614.8000000000466,659.0999999999767]","./assets/img/canyon/memory/32.jpg","[""ArrowUp"",""ArrowLeft""]","value training","canyon","26","{""ArrowUp,ArrowLeft"":26,""ArrowUp,ArrowRight"":10,""ArrowDown,ArrowLeft"":5,""ArrowDown,ArrowRight"":17}","true","ArrowUp,ArrowLeft","false","","","revaluation","1","4","","",""
"html-keyboard-response","121","659311","0.0-4.0-2.0-1.2","spark_pilot_2","8153","8","9","Male","","","","","","","null","<div style=""font-size:60px;"">+</div>","null","fixation","","","","","","","","","","","5","","",""
"revaluation","122","665336","0.0-4.0-2.0-0.3","spark_pilot_2","8153","8","9","Male","","false","","","","","[383,1072.4000000000233]","./assets/img/canyon/memory/30.jpg","[""ArrowDown"",""ArrowRight""]","value training","canyon","17","{""ArrowUp,ArrowLeft"":26,""ArrowUp,ArrowRight"":10,""ArrowDown,ArrowLeft"":5,""ArrowDown,ArrowRight"":17}","false","ArrowDown,ArrowRight","false","","","revaluation","1","6","","",""
"html-keyboard-response","123","665839","0.0-4.0-2.0-1.3","spark_pilot_2","8153","8","9","Male","","","","","","","null","<div style=""font-size:60px;"">+</div>","null","fixation","","","","","","","","","","","7","","",""
"revaluation","124","671864","0.0-4.0-2.0-0.4","spark_pilot_2","8153","8","9","Male","","false","","","","","[476.0999999999767,527.9000000000233]","./assets/img/canyon/memory/0.jpg","[""ArrowDown"",""ArrowLeft""]","value training","canyon","5","{""ArrowUp,ArrowLeft"":26,""ArrowUp,ArrowRight"":10,""ArrowDown,ArrowLeft"":5,""ArrowDown,ArrowRight"":17}","false","ArrowDown,ArrowLeft","false","","","revaluation","1","8","","",""
"html-keyboard-response","125","672367","0.0-4.0-2.0-1.4","spark_pilot_2","8153","8","9","Male","","","","","","","null","<div style=""font-size:60px;"">+</div>","null","fixation","","","","","","","","","","","9","","",""
"revaluation","126","678392","0.0-4.0-2.0-0.5","spark_pilot_2","8153","8","9","Male","","false","","","","","[724.0999999999767,568.6999999999534]","./assets/img/canyon/memory/11.jpg","[""ArrowUp"",""ArrowRight""]","value training","canyon","10","{""ArrowUp,ArrowLeft"":26,""ArrowUp,ArrowRight"":10,""ArrowDown,ArrowLeft"":5,""ArrowDown,ArrowRight"":17}","false","ArrowUp,ArrowRight","false","","","revaluation","1","10","","",""
"html-keyboard-response","127","678895","0.0-4.0-2.0-1.5","spark_pilot_2","8153","8","9","Male","","","","","","","null","<div style=""font-size:60px;"">+</div>","null","fixation","","","","","","","","","","","11","","",""
"revaluation","128","682912","0.0-4.0-2.0-0.6","spark_pilot_2","8153","8","9","Male","","true","","","","","[]","./assets/img/canyon/memory/23.jpg","[]","value training","canyon","-5","{""ArrowUp,ArrowLeft"":26,""ArrowUp,ArrowRight"":10,""ArrowDown,ArrowLeft"":5,""ArrowDown,ArrowRight"":17}","false","","false","","","revaluation","1","12","","",""
"html-keyboard-response","129","683415","0.0-4.0-2.0-1.6","spark_pilot_2","8153","8","9","Male","","","","","","","null","<div style=""font-size:60px;"">+</div>","null","fixation","","","","","","","","","","","13","","",""
"revaluation","130","689440","0.0-4.0-2.0-0.7","spark_pilot_2","8153","8","9","Male","","false","","","","","[619.5,591.3000000000466]","./assets/img/canyon/memory/17.jpg","[""ArrowDown"",""ArrowLeft""]","value training","canyon","5","{""ArrowUp,ArrowLeft"":26,""ArrowUp,ArrowRight"":10,""ArrowDown,ArrowLeft"":5,""ArrowDown,ArrowRight"":17}","false","ArrowDown,ArrowLeft","false","","","revaluation","1","14","","",""
"html-keyboard-response","131","689943","0.0-4.0-2.0-1.7","spark_pilot_2","8153","8","9","Male","","","","","","","null","<div style=""font-size:60px;"">+</div>","null","fixation","","","","","","","","","","","15","","",""
"revaluation","132","695968","0.0-4.0-2.0-0.8","spark_pilot_2","8153","8","9","Male","","false","","","","","[919.5,493.30000000004657]","./assets/img/canyon/memory/11.jpg","[""ArrowUp"",""ArrowLeft""]","value training","canyon","26","{""ArrowUp,ArrowLeft"":26,""ArrowUp,ArrowRight"":10,""ArrowDown,ArrowLeft"":5,""ArrowDown,ArrowRight"":17}","true","ArrowUp,ArrowLeft","false","","","revaluation","1","16","","",""
"html-keyboard-response","133","696471","0.0-4.0-2.0-1.8","spark_pilot_2","8153","8","9","Male","","","","","","","null","<div style=""font-size:60px;"">+</div>","null","fixation","","","","","","","","","","","17","","",""
"revaluation","134","702495","0.0-4.0-2.0-0.9","spark_pilot_2","8153","8","9","Male","","false","","","","","[599.5,395]","./assets/img/canyon/memory/18.jpg","[""ArrowUp"",""ArrowLeft""]","value training","canyon","26","{""ArrowUp,ArrowLeft"":26,""ArrowUp,ArrowRight"":10,""ArrowDown,ArrowLeft"":5,""ArrowDown,ArrowRight"":17}","true","ArrowUp,ArrowLeft","false","","","revaluation","1","18","","",""
"html-keyboard-response","135","702999","0.0-4.0-2.0-1.9","spark_pilot_2","8153","8","9","Male","","","","","","","null","<div style=""font-size:60px;"">+</div>","null","fixation","","","","","","","","","","","19","","",""
"revaluation","136","709024","0.0-4.0-2.0-0.10","spark_pilot_2","8153","8","9","Male","","false","","","","","[546.4000000000233,431.10000000009313]","./assets/img/canyon/memory/24.jpg","[""ArrowUp"",""ArrowLeft""]","value training","canyon","26","{""ArrowUp,ArrowLeft"":26,""ArrowUp,ArrowRight"":10,""ArrowDown,ArrowLeft"":5,""ArrowDown,ArrowRight"":17}","true","ArrowUp,ArrowLeft","false","","","revaluation","1","20","","",""
"html-keyboard-response","137","709527","0.0-4.0-2.0-1.10","spark_pilot_2","8153","8","9","Male","","","","","","","null","<div style=""font-size:60px;"">+</div>","null","fixation","","","","","","","","","","","21","","",""
"revaluation","138","715551","0.0-4.0-2.0-0.11","spark_pilot_2","8153","8","9","Male","","false","","","","","[476.69999999995343,342.60000000009313]","./assets/img/canyon/memory/39.jpg","[""ArrowUp"",""ArrowLeft""]","value training","canyon","26","{""ArrowUp,ArrowLeft"":26,""ArrowUp,ArrowRight"":10,""ArrowDown,ArrowLeft"":5,""ArrowDown,ArrowRight"":17}","true","ArrowUp,ArrowLeft","false","","","revaluation","1","22","","",""
"html-keyboard-response","139","716055","0.0-4.0-2.0-1.11","spark_pilot_2","8153","8","9","Male","","","","","","","null","<div style=""font-size:60px;"">+</div>","null","fixation","","","","","","","","","","","23","","",""
"revaluation","140","722079","0.0-4.0-2.0-0.12","spark_pilot_2","8153","8","9","Male","","false","","","","","[467.30000000004657,433.4000000000233]","./assets/img/canyon/memory/30.jpg","[""ArrowUp"",""ArrowLeft""]","value training","canyon","26","{""ArrowUp,ArrowLeft"":26,""ArrowUp,ArrowRight"":10,""ArrowDown,ArrowLeft"":5,""ArrowDown,ArrowRight"":17}","true","ArrowUp,ArrowLeft","false","","","revaluation","1","24","","",""
"html-keyboard-response","141","722583","0.0-4.0-2.0-1.12","spark_pilot_2","8153","8","9","Male","","","","","","","null","<div style=""font-size:60px;"">+</div>","null","fixation","","","","","","","","","","","25","","",""
"revaluation","142","728607","0.0-4.0-2.0-0.13","spark_pilot_2","8153","8","9","Male","","false","","","","","[397.70000000006985,327.0999999999767]","./assets/img/canyon/memory/13.jpg","[""ArrowUp"",""ArrowLeft""]","value training","canyon","26","{""ArrowUp,ArrowLeft"":26,""ArrowUp,ArrowRight"":10,""ArrowDown,ArrowLeft"":5,""ArrowDown,ArrowRight"":17}","true","ArrowUp,ArrowLeft","false","","","revaluation","1","26","","",""
"html-keyboard-response","143","729111","0.0-4.0-2.0-1.13","spark_pilot_2","8153","8","9","Male","","","","","","","null","<div style=""font-size:60px;"">+</div>","null","fixation","","","","","","","","","","","27","","",""
"revaluation","144","735136","0.0-4.0-2.0-0.14","spark_pilot_2","8153","8","9","Male","","false","","","","","[317.4000000000233,143.40000000002328]","./assets/img/canyon/memory/27.jpg","[""ArrowUp"",""ArrowLeft""]","value training","canyon","26","{""ArrowUp,ArrowLeft"":26,""ArrowUp,ArrowRight"":10,""ArrowDown,ArrowLeft"":5,""ArrowDown,ArrowRight"":17}","true","ArrowUp,ArrowLeft","false","","","revaluation","1","28","","",""
"html-keyboard-response","145","735639","0.0-4.0-2.0-1.14","spark_pilot_2","8153","8","9","Male","","","","","","","null","<div style=""font-size:60px;"">+</div>","null","fixation","","","","","","","","","","","29","","",""
"revaluation","146","741664","0.0-4.0-2.0-0.15","spark_pilot_2","8153","8","9","Male","","false","","","","","[952.6999999999534,519.0999999999767]","./assets/img/canyon/memory/20.jpg","[""ArrowUp"",""ArrowLeft""]","value training","canyon","26","{""ArrowUp,ArrowLeft"":26,""ArrowUp,ArrowRight"":10,""ArrowDown,ArrowLeft"":5,""ArrowDown,ArrowRight"":17}","true","ArrowUp,ArrowLeft","false","","","revaluation","1","30","","",""
"html-keyboard-response","147","742168","0.0-4.0-2.0-1.15","spark_pilot_2","8153","8","9","Male","","","","","","","null","<div style=""font-size:60px;"">+</div>","null","fixation","","","","","","","","","","","31","","",""
"revaluation","148","746183","0.0-4.0-2.0-0.16","spark_pilot_2","8153","8","9","Male","","false","","","","","[831]","./assets/img/canyon/catch/1.jpg","[""spaceBar""]","value training","canyon","0","{""ArrowUp,ArrowLeft"":26,""ArrowUp,ArrowRight"":10,""ArrowDown,ArrowLeft"":5,""ArrowDown,ArrowRight"":17}","true","spaceBar","true","","","revaluation","1","32","","",""
"html-keyboard-response","149","746687","0.0-4.0-2.0-1.16","spark_pilot_2","8153","8","9","Male","","","","","","","null","<div style=""font-size:60px;"">+</div>","null","fixation","","","","","","","","","","","33","","",""
"revaluation","150","752712","0.0-4.0-2.0-0.17","spark_pilot_2","8153","8","9","Male","","false","","","","","[559.5,576.2999999999302]","./assets/img/canyon/memory/15.jpg","[""ArrowUp"",""ArrowLeft""]","value training","canyon","26","{""ArrowUp,ArrowLeft"":26,""ArrowUp,ArrowRight"":10,""ArrowDown,ArrowLeft"":5,""ArrowDown,ArrowRight"":17}","true","ArrowUp,ArrowLeft","false","","","revaluation","1","34","","",""
"html-keyboard-response","151","753215","0.0-4.0-2.0-1.17","spark_pilot_2","8153","8","9","Male","","","","","","","null","<div style=""font-size:60px;"">+</div>","null","fixation","","","","","","","","","","","35","","",""
"revaluation","152","757232","0.0-4.0-2.0-0.18","spark_pilot_2","8153","8","9","Male","","false","","","","","[528.8000000000466]","./assets/img/canyon/catch/2.jpg","[""ArrowUp""]","value training","canyon","-10","{""ArrowUp,ArrowLeft"":26,""ArrowUp,ArrowRight"":10,""ArrowDown,ArrowLeft"":5,""ArrowDown,ArrowRight"":17}","false","ArrowUp","true","","","revaluation","1","36","","",""
"html-keyboard-response","153","757735","0.0-4.0-2.0-1.18","spark_pilot_2","8153","8","9","Male","","","","","","","null","<div style=""font-size:60px;"">+</div>","null","fixation","","","","","","","","","","","37","","",""
"revaluation","154","763760","0.0-4.0-2.0-0.19","spark_pilot_2","8153","8","9","Male","","false","","","","","[607,559.6999999999534]","./assets/img/canyon/memory/2.jpg","[""ArrowUp"",""ArrowLeft""]","value training","canyon","26","{""ArrowUp,ArrowLeft"":26,""ArrowUp,ArrowRight"":10,""ArrowDown,ArrowLeft"":5,""ArrowDown,ArrowRight"":17}","true","ArrowUp,ArrowLeft","false","","","revaluation","1","38","","",""
"html-keyboard-response","155","764263","0.0-4.0-2.0-1.19","spark_pilot_2","8153","8","9","Male","","","","","","","null","<div style=""font-size:60px;"">+</div>","null","fixation","","","","","","","","","","","39","","",""
"revaluation","156","770288","0.0-4.0-2.0-0.20","spark_pilot_2","8153","8","9","Male","","false","","","","","[519.5,413.30000000004657]","./assets/img/canyon/memory/14.jpg","[""ArrowUp"",""ArrowLeft""]","value training","canyon","26","{""ArrowUp,ArrowLeft"":26,""ArrowUp,ArrowRight"":10,""ArrowDown,ArrowLeft"":5,""ArrowDown,ArrowRight"":17}","true","ArrowUp,ArrowLeft","false","","","revaluation","1","40","","",""
"html-keyboard-response","157","770791","0.0-4.0-2.0-1.20","spark_pilot_2","8153","8","9","Male","","","","","","","null","<div style=""font-size:60px;"">+</div>","null","fixation","","","","","","","","","","","41","","",""
"revaluation","158","776816","0.0-4.0-2.0-0.21","spark_pilot_2","8153","8","9","Male","","false","","","","","[577.8999999999069,441.5]","./assets/img/canyon/memory/15.jpg","[""ArrowUp"",""ArrowLeft""]","value training","canyon","26","{""ArrowUp,ArrowLeft"":26,""ArrowUp,ArrowRight"":10,""ArrowDown,ArrowLeft"":5,""ArrowDown,ArrowRight"":17}","true","ArrowUp,ArrowLeft","false","","","revaluation","1","42","","",""
"html-keyboard-response","159","777319","0.0-4.0-2.0-1.21","spark_pilot_2","8153","8","9","Male","","","","","","","null","<div style=""font-size:60px;"">+</div>","null","fixation","","","","","","","","","","","43","","",""
"revaluation","160","781336","0.0-4.0-2.0-0.22","spark_pilot_2","8153","8","9","Male","","true","","","","","[]","./assets/img/canyon/memory/2.jpg","[]","value training","canyon","-5","{""ArrowUp,ArrowLeft"":26,""ArrowUp,ArrowRight"":10,""ArrowDown,ArrowLeft"":5,""ArrowDown,ArrowRight"":17}","false","","false","","","revaluation","1","44","","",""
"html-keyboard-response","161","781839","0.0-4.0-2.0-1.22","spark_pilot_2","8153","8","9","Male","","","","","","","null","<div style=""font-size:60px;"">+</div>","null","fixation","","","","","","","","","","","45","","",""
"revaluation","162","787863","0.0-4.0-2.0-0.23","spark_pilot_2","8153","8","9","Male","","false","","","","","[478,422.30000000004657]","./assets/img/canyon/memory/35.jpg","[""ArrowUp"",""ArrowLeft""]","value training","canyon","26","{""ArrowUp,ArrowLeft"":26,""ArrowUp,ArrowRight"":10,""ArrowDown,ArrowLeft"":5,""ArrowDown,ArrowRight"":17}","true","ArrowUp,ArrowLeft","false","","","revaluation","1","46","","",""
"html-keyboard-response","163","788367","0.0-4.0-2.0-1.23","spark_pilot_2","8153","8","9","Male","","","","","","","null","<div style=""font-size:60px;"">+</div>","null","fixation","","","","","","","","","","","47","","",""
"revaluation","164","794392","0.0-4.0-2.0-0.24","spark_pilot_2","8153","8","9","Male","","false","","","","","[921.8999999999069,592.4000000001397]","./assets/img/canyon/memory/26.jpg","[""ArrowUp"",""ArrowLeft""]","value training","canyon","26","{""ArrowUp,ArrowLeft"":26,""ArrowUp,ArrowRight"":10,""ArrowDown,ArrowLeft"":5,""ArrowDown,ArrowRight"":17}","true","ArrowUp,ArrowLeft","false","","","revaluation","1","48","","",""
"html-keyboard-response","165","794895","0.0-4.0-2.0-1.24","spark_pilot_2","8153","8","9","Male","","","","","","","null","<div style=""font-size:60px;"">+</div>","null","fixation","","","","","","","","","","","49","","",""
"revaluation","166","798912","0.0-4.0-2.0-0.25","spark_pilot_2","8153","8","9","Male","","false","","","","","[622.3000000000466]","./assets/img/canyon/catch/4.jpg","[""spaceBar""]","value training","canyon","0","{""ArrowUp,ArrowLeft"":26,""ArrowUp,ArrowRight"":10,""ArrowDown,ArrowLeft"":5,""ArrowDown,ArrowRight"":17}","true","spaceBar","true","","","revaluation","1","50","","",""
"html-keyboard-response","167","799415","0.0-4.0-2.0-1.25","spark_pilot_2","8153","8","9","Male","","","","","","","null","<div style=""font-size:60px;"">+</div>","null","fixation","","","","","","","","","","","51","","",""
"revaluation","168","803431","0.0-4.0-2.0-0.26","spark_pilot_2","8153","8","9","Male","","true","","","","","[]","./assets/img/canyon/memory/13.jpg","[]","value training","canyon","-5","{""ArrowUp,ArrowLeft"":26,""ArrowUp,ArrowRight"":10,""ArrowDown,ArrowLeft"":5,""ArrowDown,ArrowRight"":17}","false","","false","","","revaluation","1","52","","",""
"html-keyboard-response","169","803935","0.0-4.0-2.0-1.26","spark_pilot_2","8153","8","9","Male","","","","","","","null","<div style=""font-size:60px;"">+</div>","null","fixation","","","","","","","","","","","53","","",""
"revaluation","170","809959","0.0-4.0-2.0-0.27","spark_pilot_2","8153","8","9","Male","","false","","","","","[704.6999999999534,1898.1000000000931]","./assets/img/canyon/memory/17.jpg","[""ArrowUp"",""ArrowLeft""]","value training","canyon","26","{""ArrowUp,ArrowLeft"":26,""ArrowUp,ArrowRight"":10,""ArrowDown,ArrowLeft"":5,""ArrowDown,ArrowRight"":17}","true","ArrowUp,ArrowLeft","false","","","revaluation","1","54","","",""
"html-keyboard-response","171","810463","0.0-4.0-2.0-1.27","spark_pilot_2","8153","8","9","Male","","","","","","","null","<div style=""font-size:60px;"">+</div>","null","fixation","","","","","","","","","","","55","","",""
"revaluation","172","816487","0.0-4.0-2.0-0.28","spark_pilot_2","8153","8","9","Male","","false","","","","","[452.5,589.3999999999069]","./assets/img/canyon/memory/18.jpg","[""ArrowUp"",""ArrowLeft""]","value training","canyon","26","{""ArrowUp,ArrowLeft"":26,""ArrowUp,ArrowRight"":10,""ArrowDown,ArrowLeft"":5,""ArrowDown,ArrowRight"":17}","true","ArrowUp,ArrowLeft","false","","","revaluation","1","56","","",""
"html-keyboard-response","173","816991","0.0-4.0-2.0-1.28","spark_pilot_2","8153","8","9","Male","","","","","","","null","<div style=""font-size:60px;"">+</div>","null","fixation","","","","","","","","","","","57","","",""
"revaluation","174","823015","0.0-4.0-2.0-0.29","spark_pilot_2","8153","8","9","Male","","false","","","","","[663.6999999999534,461.80000000004657]","./assets/img/canyon/memory/34.jpg","[""ArrowUp"",""ArrowLeft""]","value training","canyon","26","{""ArrowUp,ArrowLeft"":26,""ArrowUp,ArrowRight"":10,""ArrowDown,ArrowLeft"":5,""ArrowDown,ArrowRight"":17}","true","ArrowUp,ArrowLeft","false","","","revaluation","1","58","","",""
"html-keyboard-response","175","823519","0.0-4.0-2.0-1.29","spark_pilot_2","8153","8","9","Male","","","","","","","null","<div style=""font-size:60px;"">+</div>","null","fixation","","","","","","","","","","","59","","",""
"revaluation","176","829544","0.0-4.0-2.0-0.30","spark_pilot_2","8153","8","9","Male","","false","","","","","[914.5,614.5]","./assets/img/canyon/memory/23.jpg","[""ArrowUp"",""ArrowLeft""]","value training","canyon","26","{""ArrowUp,ArrowLeft"":26,""ArrowUp,ArrowRight"":10,""ArrowDown,ArrowLeft"":5,""ArrowDown,ArrowRight"":17}","true","ArrowUp,ArrowLeft","false","","","revaluation","1","60","","",""
"html-keyboard-response","177","830047","0.0-4.0-2.0-1.30","spark_pilot_2","8153","8","9","Male","","","","","","","null","<div style=""font-size:60px;"">+</div>","null","fixation","","","","","","","","","","","61","","",""
"revaluation","178","834063","0.0-4.0-2.0-0.31","spark_pilot_2","8153","8","9","Male","","false","","","","","[1342.7000000001863]","./assets/img/canyon/catch/6.jpg","[""spaceBar""]","value training","canyon","0","{""ArrowUp,ArrowLeft"":26,""ArrowUp,ArrowRight"":10,""ArrowDown,ArrowLeft"":5,""ArrowDown,ArrowRight"":17}","true","spaceBar","true","","","revaluation","1","62","","",""
"html-keyboard-response","179","834568","0.0-4.0-2.0-1.31","spark_pilot_2","8153","8","9","Male","","","","","","","null","<div style=""font-size:60px;"">+</div>","null","fixation","","","","","","","","","","","63","","",""
"revaluation","180","838584","0.0-4.0-2.0-0.32","spark_pilot_2","8153","8","9","Male","","false","","","","","[1260.4000000001397]","./assets/img/canyon/catch/0.jpg","[""spaceBar""]","value training","canyon","0","{""ArrowUp,ArrowLeft"":26,""ArrowUp,ArrowRight"":10,""ArrowDown,ArrowLeft"":5,""ArrowDown,ArrowRight"":17}","true","spaceBar","true","","","revaluation","1","64","","",""
"html-keyboard-response","181","839087","0.0-4.0-2.0-1.32","spark_pilot_2","8153","8","9","Male","","","","","","","null","<div style=""font-size:60px;"">+</div>","null","fixation","","","","","","","","","","","65","","",""
"revaluation","182","845112","0.0-4.0-2.0-0.33","spark_pilot_2","8153","8","9","Male","","false","","","","","[1699.7000000001863,1100.1999999999534]","./assets/img/canyon/memory/3.jpg","[""ArrowUp"",""ArrowLeft""]","value training","canyon","26","{""ArrowUp,ArrowLeft"":26,""ArrowUp,ArrowRight"":10,""ArrowDown,ArrowLeft"":5,""ArrowDown,ArrowRight"":17}","true","ArrowUp,ArrowLeft","false","","","revaluation","1","66","","",""
"html-keyboard-response","183","845615","0.0-4.0-2.0-1.33","spark_pilot_2","8153","8","9","Male","","","","","","","null","<div style=""font-size:60px;"">+</div>","null","fixation","","","","","","","","","","","67","","",""
"revaluation","184","851640","0.0-4.0-2.0-0.34","spark_pilot_2","8153","8","9","Male","","false","","","","","[591.5,439.5]","./assets/img/canyon/memory/14.jpg","[""ArrowUp"",""ArrowLeft""]","value training","canyon","26","{""ArrowUp,ArrowLeft"":26,""ArrowUp,ArrowRight"":10,""ArrowDown,ArrowLeft"":5,""ArrowDown,ArrowRight"":17}","true","ArrowUp,ArrowLeft","false","","","revaluation","1","68","","",""
"html-keyboard-response","185","852143","0.0-4.0-2.0-1.34","spark_pilot_2","8153","8","9","Male","","","","","","","null","<div style=""font-size:60px;"">+</div>","null","fixation","","","","","","","","","","","69","","",""
"revaluation","186","858168","0.0-4.0-2.0-0.35","spark_pilot_2","8153","8","9","Male","","false","","","","","[540.3999999999069,489.80000000004657]","./assets/img/canyon/memory/38.jpg","[""ArrowUp"",""ArrowLeft""]","value training","canyon","26","{""ArrowUp,ArrowLeft"":26,""ArrowUp,ArrowRight"":10,""ArrowDown,ArrowLeft"":5,""ArrowDown,ArrowRight"":17}","true","ArrowUp,ArrowLeft","false","","","revaluation","1","70","","",""
"html-keyboard-response","187","858671","0.0-4.0-2.0-1.35","spark_pilot_2","8153","8","9","Male","","","","","","","null","<div style=""font-size:60px;"">+</div>","null","fixation","","","","","","","","","","","71","","",""
"revaluation","188","864696","0.0-4.0-2.0-0.36","spark_pilot_2","8153","8","9","Male","","false","","","","","[547.0999999998603,890]","./assets/img/canyon/memory/0.jpg","[""ArrowUp"",""ArrowLeft""]","value training","canyon","26","{""ArrowUp,ArrowLeft"":26,""ArrowUp,ArrowRight"":10,""ArrowDown,ArrowLeft"":5,""ArrowDown,ArrowRight"":17}","true","ArrowUp,ArrowLeft","false","","","revaluation","1","72","","",""
"html-keyboard-response","189","865199","0.0-4.0-2.0-1.36","spark_pilot_2","8153","8","9","Male","","","","","","","null","<div style=""font-size:60px;"">+</div>","null","fixation","","","","","","","","","","","73","","",""
"revaluation","190","871223","0.0-4.0-2.0-0.37","spark_pilot_2","8153","8","9","Male","","false","","","","","[1601.6000000000931,731.2000000001863]","./assets/img/canyon/memory/35.jpg","[""ArrowUp"",""ArrowLeft""]","value training","canyon","26","{""ArrowUp,ArrowLeft"":26,""ArrowUp,ArrowRight"":10,""ArrowDown,ArrowLeft"":5,""ArrowDown,ArrowRight"":17}","true","ArrowUp,ArrowLeft","false","","","revaluation","1","74","","",""
"html-keyboard-response","191","871727","0.0-4.0-2.0-1.37","spark_pilot_2","8153","8","9","Male","","","","","","","null","<div style=""font-size:60px;"">+</div>","null","fixation","","","","","","","","","","","75","","",""
"revaluation","192","877752","0.0-4.0-2.0-0.38","spark_pilot_2","8153","8","9","Male","","false","","","","","[521.2999999998137,469.4000000001397]","./assets/img/canyon/memory/24.jpg","[""ArrowUp"",""ArrowLeft""]","value training","canyon","26","{""ArrowUp,ArrowLeft"":26,""ArrowUp,ArrowRight"":10,""ArrowDown,ArrowLeft"":5,""ArrowDown,ArrowRight"":17}","true","ArrowUp,ArrowLeft","false","","","revaluation","1","76","","",""
"html-keyboard-response","193","878255","0.0-4.0-2.0-1.38","spark_pilot_2","8153","8","9","Male","","","","","","","null","<div style=""font-size:60px;"">+</div>","null","fixation","","","","","","","","","","","77","","",""
"revaluation","194","884280","0.0-4.0-2.0-0.39","spark_pilot_2","8153","8","9","Male","","false","","","","","[579.3999999999069,956.9000000001397]","./assets/img/canyon/memory/27.jpg","[""ArrowUp"",""ArrowLeft""]","value training","canyon","26","{""ArrowUp,ArrowLeft"":26,""ArrowUp,ArrowRight"":10,""ArrowDown,ArrowLeft"":5,""ArrowDown,ArrowRight"":17}","true","ArrowUp,ArrowLeft","false","","","revaluation","1","78","","",""
"html-keyboard-response","195","884783","0.0-4.0-2.0-1.39","spark_pilot_2","8153","8","9","Male","","","","","","","null","<div style=""font-size:60px;"">+</div>","null","fixation","","","","","","","","","","","79","","",""
"revaluation","196","888799","0.0-4.0-2.0-0.40","spark_pilot_2","8153","8","9","Male","","true","","","","","[]","./assets/img/canyon/memory/32.jpg","[]","value training","canyon","-5","{""ArrowUp,ArrowLeft"":26,""ArrowUp,ArrowRight"":10,""ArrowDown,ArrowLeft"":5,""ArrowDown,ArrowRight"":17}","false","","false","","","revaluation","1","80","","",""
"html-keyboard-response","197","889303","0.0-4.0-2.0-1.40","spark_pilot_2","8153","8","9","Male","","","","","","","null","<div style=""font-size:60px;"">+</div>","null","fixation","","","","","","","","","","","81","","",""
"revaluation","198","895328","0.0-4.0-2.0-0.41","spark_pilot_2","8153","8","9","Male","","false","","","","","[617,404.60000000009313]","./assets/img/canyon/memory/34.jpg","[""ArrowUp"",""ArrowLeft""]","value training","canyon","26","{""ArrowUp,ArrowLeft"":26,""ArrowUp,ArrowRight"":10,""ArrowDown,ArrowLeft"":5,""ArrowDown,ArrowRight"":17}","true","ArrowUp,ArrowLeft","false","","","revaluation","1","82","","",""
"html-keyboard-response","199","895832","0.0-4.0-2.0-1.41","spark_pilot_2","8153","8","9","Male","","","","","","","null","<div style=""font-size:60px;"">+</div>","null","fixation","","","","","","","","","","","83","","",""
"revaluation","200","899847","0.0-4.0-2.0-0.42","spark_pilot_2","8153","8","9","Male","","false","","","","","[818.1999999999534]","./assets/img/canyon/catch/5.jpg","[""spaceBar""]","value training","canyon","0","{""ArrowUp,ArrowLeft"":26,""ArrowUp,ArrowRight"":10,""ArrowDown,ArrowLeft"":5,""ArrowDown,ArrowRight"":17}","true","spaceBar","true","","","revaluation","1","84","","",""
"html-keyboard-response","201","900351","0.0-4.0-2.0-1.42","spark_pilot_2","8153","8","9","Male","","","","","","","null","<div style=""font-size:60px;"">+</div>","null","fixation","","","","","","","","","","","85","","",""
"revaluation","202","906384","0.0-4.0-2.0-0.43","spark_pilot_2","8153","8","9","Male","","false","","","","","[854.6000000000931,632.2000000001863]","./assets/img/canyon/memory/3.jpg","[""ArrowUp"",""ArrowLeft""]","value training","canyon","26","{""ArrowUp,ArrowLeft"":26,""ArrowUp,ArrowRight"":10,""ArrowDown,ArrowLeft"":5,""ArrowDown,ArrowRight"":17}","true","ArrowUp,ArrowLeft","false","","","revaluation","1","86","","",""
"html-keyboard-response","203","906887","0.0-4.0-2.0-1.43","spark_pilot_2","8153","8","9","Male","","","","","","","null","<div style=""font-size:60px;"">+</div>","null","fixation","","","","","","","","","","","87","","",""
"revaluation","204","912911","0.0-4.0-2.0-0.44","spark_pilot_2","8153","8","9","Male","","false","","","","","[579.0999999998603,1496.8000000000466]","./assets/img/canyon/memory/20.jpg","[""ArrowUp"",""ArrowLeft""]","value training","canyon","26","{""ArrowUp,ArrowLeft"":26,""ArrowUp,ArrowRight"":10,""ArrowDown,ArrowLeft"":5,""ArrowDown,ArrowRight"":17}","true","ArrowUp,ArrowLeft","false","","","revaluation","1","88","","",""
"html-keyboard-response","205","913415","0.0-4.0-2.0-1.44","spark_pilot_2","8153","8","9","Male","","","","","","","null","<div style=""font-size:60px;"">+</div>","null","fixation","","","","","","","","","","","89","","",""
"revaluation","206","919440","0.0-4.0-2.0-0.45","spark_pilot_2","8153","8","9","Male","","false","","","","","[603.1000000000931,1127]","./assets/img/canyon/memory/1.jpg","[""ArrowUp"",""ArrowLeft""]","value training","canyon","26","{""ArrowUp,ArrowLeft"":26,""ArrowUp,ArrowRight"":10,""ArrowDown,ArrowLeft"":5,""ArrowDown,ArrowRight"":17}","true","ArrowUp,ArrowLeft","false","","","revaluation","1","90","","",""
"html-keyboard-response","207","919943","0.0-4.0-2.0-1.45","spark_pilot_2","8153","8","9","Male","","","","","","","null","<div style=""font-size:60px;"">+</div>","null","fixation","","","","","","","","","","","91","","",""
"revaluation","208","923959","0.0-4.0-2.0-0.46","spark_pilot_2","8153","8","9","Male","","false","","","","","[781.7000000001863]","./assets/img/canyon/catch/7.jpg","[""spaceBar""]","value training","canyon","0","{""ArrowUp,ArrowLeft"":26,""ArrowUp,ArrowRight"":10,""ArrowDown,ArrowLeft"":5,""ArrowDown,ArrowRight"":17}","true","spaceBar","true","","","revaluation","1","92","","",""
"html-keyboard-response","209","924463","0.0-4.0-2.0-1.46","spark_pilot_2","8153","8","9","Male","","","","","","","null","<div style=""font-size:60px;"">+</div>","null","fixation","","","","","","","","","","","93","","",""
"revaluation","210","930488","0.0-4.0-2.0-0.47","spark_pilot_2","8153","8","9","Male","","false","","","","","[855.6000000000931,608.3000000000466]","./assets/img/canyon/memory/39.jpg","[""ArrowUp"",""ArrowLeft""]","value training","canyon","26","{""ArrowUp,ArrowLeft"":26,""ArrowUp,ArrowRight"":10,""ArrowDown,ArrowLeft"":5,""ArrowDown,ArrowRight"":17}","true","ArrowUp,ArrowLeft","false","","","revaluation","1","94","","",""
"html-keyboard-response","211","930991","0.0-4.0-2.0-1.47","spark_pilot_2","8153","8","9","Male","","","","","","","null","<div style=""font-size:60px;"">+</div>","null","fixation","","","","","","","","","","","95","","",""
"revaluation","212","937015","0.0-4.0-2.0-0.48","spark_pilot_2","8153","8","9","Male","","false","","","","","[1522.5999999998603,527.1000000000931]","./assets/img/canyon/memory/1.jpg","[""ArrowUp"",""ArrowLeft""]","value training","canyon","26","{""ArrowUp,ArrowLeft"":26,""ArrowUp,ArrowRight"":10,""ArrowDown,ArrowLeft"":5,""ArrowDown,ArrowRight"":17}","true","ArrowUp,ArrowLeft","false","","","revaluation","1","96","","",""
"html-keyboard-response","213","937519","0.0-4.0-2.0-1.48","spark_pilot_2","8153","8","9","Male","","","","","","","null","<div style=""font-size:60px;"">+</div>","null","fixation","","","","","","","","","","","97","","",""
"revaluation","214","943544","0.0-4.0-2.0-0.49","spark_pilot_2","8153","8","9","Male","","false","","","","","[302.5,401]","./assets/img/canyon/memory/38.jpg","[""ArrowUp"",""ArrowLeft""]","value training","canyon","26","{""ArrowUp,ArrowLeft"":26,""ArrowUp,ArrowRight"":10,""ArrowDown,ArrowLeft"":5,""ArrowDown,ArrowRight"":17}","true","ArrowUp,ArrowLeft","false","","","revaluation","1","98","","",""
"html-keyboard-response","215","944047","0.0-4.0-2.0-1.49","spark_pilot_2","8153","8","9","Male","","","","","","","null","<div style=""font-size:60px;"">+</div>","null","fixation","","","","","","","","","","","99","","",""
"learning-instructions","216","958878","0.0-4.0-3.0-0.0","spark_pilot_2","8153","8","9","Male","","","","","","","1854","<p> Now, you will travel with a friend who will choose whether you go up or down first. </p>
            <p> On these turns, you will just see the animal that they found. You will still get to choose which chest to search for treasure.</p>","","instructions","","","","","","","","","","","","","",""
"revaluation","217","962896","0.0-4.0-4.0-0.0","spark_pilot_2","8153","8","9","Male","","false","","","","","[1687.9000000001397]","./assets/img/canyon/animals/lion.jpg","[""ArrowLeft""]","revaluation","canyon","8","{""ArrowUp,ArrowLeft"":2,""ArrowUp,ArrowRight"":11,""ArrowDown,ArrowLeft"":8,""ArrowDown,ArrowRight"":27}","false","ArrowDown,ArrowLeft","","","","revaluation","1","0","","",""
"html-keyboard-response","218","963407","0.0-4.0-4.0-1.0","spark_pilot_2","8153","8","9","Male","","","","","","","null","<div style=""font-size:60px;"">+</div>","null","fixation","","","","","","","","","","","1","","",""
"revaluation","219","967424","0.0-4.0-4.0-0.1","spark_pilot_2","8153","8","9","Male","","false","","","","","[1044.4000000001397]","./assets/img/canyon/animals/giraffe.jpg","[""ArrowLeft""]","revaluation","canyon","2","{""ArrowUp,ArrowLeft"":2,""ArrowUp,ArrowRight"":11,""ArrowDown,ArrowLeft"":8,""ArrowDown,ArrowRight"":27}","false","ArrowUp,ArrowLeft","","","","revaluation","1","2","","",""
"html-keyboard-response","220","967927","0.0-4.0-4.0-1.1","spark_pilot_2","8153","8","9","Male","","","","","","","null","<div style=""font-size:60px;"">+</div>","null","fixation","","","","","","","","","","","3","","",""
"revaluation","221","971936","0.0-4.0-4.0-0.2","spark_pilot_2","8153","8","9","Male","","false","","","","","[623.1000000000931]","./assets/img/canyon/animals/lion.jpg","[""ArrowRight""]","revaluation","canyon","27","{""ArrowUp,ArrowLeft"":2,""ArrowUp,ArrowRight"":11,""ArrowDown,ArrowLeft"":8,""ArrowDown,ArrowRight"":27}","true","ArrowDown,ArrowRight","","","","revaluation","1","4","","",""
"html-keyboard-response","222","972439","0.0-4.0-4.0-1.2","spark_pilot_2","8153","8","9","Male","","","","","","","null","<div style=""font-size:60px;"">+</div>","null","fixation","","","","","","","","","","","5","","",""
"revaluation","223","976455","0.0-4.0-4.0-0.3","spark_pilot_2","8153","8","9","Male","","false","","","","","[1035.1999999999534]","./assets/img/canyon/animals/lion.jpg","[""ArrowRight""]","revaluation","canyon","27","{""ArrowUp,ArrowLeft"":2,""ArrowUp,ArrowRight"":11,""ArrowDown,ArrowLeft"":8,""ArrowDown,ArrowRight"":27}","true","ArrowDown,ArrowRight","","","","revaluation","1","6","","",""
"html-keyboard-response","224","976960","0.0-4.0-4.0-1.3","spark_pilot_2","8153","8","9","Male","","","","","","","null","<div style=""font-size:60px;"">+</div>","null","fixation","","","","","","","","","","","7","","",""
"revaluation","225","980976","0.0-4.0-4.0-0.4","spark_pilot_2","8153","8","9","Male","","false","","","","","[829.9000000001397]","./assets/img/canyon/animals/lion.jpg","[""ArrowRight""]","revaluation","canyon","27","{""ArrowUp,ArrowLeft"":2,""ArrowUp,ArrowRight"":11,""ArrowDown,ArrowLeft"":8,""ArrowDown,ArrowRight"":27}","true","ArrowDown,ArrowRight","","","","revaluation","1","8","","",""
"html-keyboard-response","226","981479","0.0-4.0-4.0-1.4","spark_pilot_2","8153","8","9","Male","","","","","","","null","<div style=""font-size:60px;"">+</div>","null","fixation","","","","","","","","","","","9","","",""
"revaluation","227","985496","0.0-4.0-4.0-0.5","spark_pilot_2","8153","8","9","Male","","false","","","","","[711.3000000000466]","./assets/img/canyon/animals/lion.jpg","[""ArrowRight""]","revaluation","canyon","27","{""ArrowUp,ArrowLeft"":2,""ArrowUp,ArrowRight"":11,""ArrowDown,ArrowLeft"":8,""ArrowDown,ArrowRight"":27}","true","ArrowDown,ArrowRight","","","","revaluation","1","10","","",""
"html-keyboard-response","228","985999","0.0-4.0-4.0-1.5","spark_pilot_2","8153","8","9","Male","","","","","","","null","<div style=""font-size:60px;"">+</div>","null","fixation","","","","","","","","","","","11","","",""
"revaluation","229","990016","0.0-4.0-4.0-0.6","spark_pilot_2","8153","8","9","Male","","false","","","","","[508.80000000004657]","./assets/img/canyon/animals/lion.jpg","[""ArrowRight""]","revaluation","canyon","27","{""ArrowUp,ArrowLeft"":2,""ArrowUp,ArrowRight"":11,""ArrowDown,ArrowLeft"":8,""ArrowDown,ArrowRight"":27}","true","ArrowDown,ArrowRight","","","","revaluation","1","12","","",""
"html-keyboard-response","230","990519","0.0-4.0-4.0-1.6","spark_pilot_2","8153","8","9","Male","","","","","","","null","<div style=""font-size:60px;"">+</div>","null","fixation","","","","","","","","","","","13","","",""
"revaluation","231","994536","0.0-4.0-4.0-0.7","spark_pilot_2","8153","8","9","Male","","false","","","","","[174.69999999995343]","./assets/img/canyon/animals/giraffe.jpg","[""ArrowRight""]","revaluation","canyon","11","{""ArrowUp,ArrowLeft"":2,""ArrowUp,ArrowRight"":11,""ArrowDown,ArrowLeft"":8,""ArrowDown,ArrowRight"":27}","true","ArrowUp,ArrowRight","","","","revaluation","1","14","","",""
"html-keyboard-response","232","995040","0.0-4.0-4.0-1.7","spark_pilot_2","8153","8","9","Male","","","","","","","null","<div style=""font-size:60px;"">+</div>","null","fixation","","","","","","","","","","","15","","",""
"revaluation","233","999056","0.0-4.0-4.0-0.8","spark_pilot_2","8153","8","9","Male","","false","","","","","[406.70000000018626]","./assets/img/canyon/animals/giraffe.jpg","[""ArrowRight""]","revaluation","canyon","11","{""ArrowUp,ArrowLeft"":2,""ArrowUp,ArrowRight"":11,""ArrowDown,ArrowLeft"":8,""ArrowDown,ArrowRight"":27}","true","ArrowUp,ArrowRight","","","","revaluation","1","16","","",""
"html-keyboard-response","234","999559","0.0-4.0-4.0-1.8","spark_pilot_2","8153","8","9","Male","","","","","","","null","<div style=""font-size:60px;"">+</div>","null","fixation","","","","","","","","","","","17","","",""
"revaluation","235","1003575","0.0-4.0-4.0-0.9","spark_pilot_2","8153","8","9","Male","","false","","","","","[1143.9000000001397]","./assets/img/canyon/animals/lion.jpg","[""ArrowRight""]","revaluation","canyon","27","{""ArrowUp,ArrowLeft"":2,""ArrowUp,ArrowRight"":11,""ArrowDown,ArrowLeft"":8,""ArrowDown,ArrowRight"":27}","true","ArrowDown,ArrowRight","","","","revaluation","1","18","","",""
"html-keyboard-response","236","1004079","0.0-4.0-4.0-1.9","spark_pilot_2","8153","8","9","Male","","","","","","","null","<div style=""font-size:60px;"">+</div>","null","fixation","","","","","","","","","","","19","","",""
"revaluation","237","1008096","0.0-4.0-4.0-0.10","spark_pilot_2","8153","8","9","Male","","false","","","","","[596.5]","./assets/img/canyon/animals/lion.jpg","[""ArrowRight""]","revaluation","canyon","27","{""ArrowUp,ArrowLeft"":2,""ArrowUp,ArrowRight"":11,""ArrowDown,ArrowLeft"":8,""ArrowDown,ArrowRight"":27}","true","ArrowDown,ArrowRight","","","","revaluation","1","20","","",""
"html-keyboard-response","238","1008599","0.0-4.0-4.0-1.10","spark_pilot_2","8153","8","9","Male","","","","","","","null","<div style=""font-size:60px;"">+</div>","null","fixation","","","","","","","","","","","21","","",""
"revaluation","239","1012616","0.0-4.0-4.0-0.11","spark_pilot_2","8153","8","9","Male","","false","","","","","[473.39999999990687]","./assets/img/canyon/animals/giraffe.jpg","[""ArrowRight""]","revaluation","canyon","11","{""ArrowUp,ArrowLeft"":2,""ArrowUp,ArrowRight"":11,""ArrowDown,ArrowLeft"":8,""ArrowDown,ArrowRight"":27}","true","ArrowUp,ArrowRight","","","","revaluation","1","22","","",""
"html-keyboard-response","240","1013119","0.0-4.0-4.0-1.11","spark_pilot_2","8153","8","9","Male","","","","","","","null","<div style=""font-size:60px;"">+</div>","null","fixation","","","","","","","","","","","23","","",""
"revaluation","241","1017136","0.0-4.0-4.0-0.12","spark_pilot_2","8153","8","9","Male","","false","","","","","[607]","./assets/img/canyon/animals/giraffe.jpg","[""ArrowLeft""]","revaluation","canyon","2","{""ArrowUp,ArrowLeft"":2,""ArrowUp,ArrowRight"":11,""ArrowDown,ArrowLeft"":8,""ArrowDown,ArrowRight"":27}","false","ArrowUp,ArrowLeft","","","","revaluation","1","24","","",""
"html-keyboard-response","242","1017639","0.0-4.0-4.0-1.12","spark_pilot_2","8153","8","9","Male","","","","","","","null","<div style=""font-size:60px;"">+</div>","null","fixation","","","","","","","","","","","25","","",""
"revaluation","243","1021655","0.0-4.0-4.0-0.13","spark_pilot_2","8153","8","9","Male","","false","","","","","[501.69999999995343]","./assets/img/canyon/animals/lion.jpg","[""ArrowRight""]","revaluation","canyon","27","{""ArrowUp,ArrowLeft"":2,""ArrowUp,ArrowRight"":11,""ArrowDown,ArrowLeft"":8,""ArrowDown,ArrowRight"":27}","true","ArrowDown,ArrowRight","","","","revaluation","1","26","","",""
"html-keyboard-response","244","1022159","0.0-4.0-4.0-1.13","spark_pilot_2","8153","8","9","Male","","","","","","","null","<div style=""font-size:60px;"">+</div>","null","fixation","","","","","","","","","","","27","","",""
"revaluation","245","1026176","0.0-4.0-4.0-0.14","spark_pilot_2","8153","8","9","Male","","false","","","","","[917.6000000000931]","./assets/img/canyon/animals/giraffe.jpg","[""ArrowRight""]","revaluation","canyon","11","{""ArrowUp,ArrowLeft"":2,""ArrowUp,ArrowRight"":11,""ArrowDown,ArrowLeft"":8,""ArrowDown,ArrowRight"":27}","true","ArrowUp,ArrowRight","","","","revaluation","1","28","","",""
"html-keyboard-response","246","1026679","0.0-4.0-4.0-1.14","spark_pilot_2","8153","8","9","Male","","","","","","","null","<div style=""font-size:60px;"">+</div>","null","fixation","","","","","","","","","","","29","","",""
"revaluation","247","1030696","0.0-4.0-4.0-0.15","spark_pilot_2","8153","8","9","Male","","false","","","","","[190.39999999990687]","./assets/img/canyon/animals/giraffe.jpg","[""ArrowRight""]","revaluation","canyon","11","{""ArrowUp,ArrowLeft"":2,""ArrowUp,ArrowRight"":11,""ArrowDown,ArrowLeft"":8,""ArrowDown,ArrowRight"":27}","true","ArrowUp,ArrowRight","","","","revaluation","1","30","","",""
"html-keyboard-response","248","1031199","0.0-4.0-4.0-1.15","spark_pilot_2","8153","8","9","Male","","","","","","","null","<div style=""font-size:60px;"">+</div>","null","fixation","","","","","","","","","","","31","","",""
"revaluation","249","1035216","0.0-4.0-4.0-0.16","spark_pilot_2","8153","8","9","Male","","false","","","","","[262]","./assets/img/canyon/animals/giraffe.jpg","[""ArrowRight""]","revaluation","canyon","11","{""ArrowUp,ArrowLeft"":2,""ArrowUp,ArrowRight"":11,""ArrowDown,ArrowLeft"":8,""ArrowDown,ArrowRight"":27}","true","ArrowUp,ArrowRight","","","","revaluation","1","32","","",""
"html-keyboard-response","250","1035719","0.0-4.0-4.0-1.16","spark_pilot_2","8153","8","9","Male","","","","","","","null","<div style=""font-size:60px;"">+</div>","null","fixation","","","","","","","","","","","33","","",""
"revaluation","251","1039736","0.0-4.0-4.0-0.17","spark_pilot_2","8153","8","9","Male","","false","","","","","[176.39999999990687]","./assets/img/canyon/animals/giraffe.jpg","[""ArrowRight""]","revaluation","canyon","11","{""ArrowUp,ArrowLeft"":2,""ArrowUp,ArrowRight"":11,""ArrowDown,ArrowLeft"":8,""ArrowDown,ArrowRight"":27}","true","ArrowUp,ArrowRight","","","","revaluation","1","34","","",""
"html-keyboard-response","252","1040239","0.0-4.0-4.0-1.17","spark_pilot_2","8153","8","9","Male","","","","","","","null","<div style=""font-size:60px;"">+</div>","null","fixation","","","","","","","","","","","35","","",""
"learning-instructions","253","1053158","0.0-4.0-5.0-0.0","spark_pilot_2","8153","8","9","Male","","","","","","","1505.5","<p> Time to play the dot game! </p>
            <p> For one minute, click the red dots on the following screen as they appear. </p>
            <p><b> Don't look away, as you will earn bonus for clicking dots</b>. </p>","","instructions","","","","","","","","","","","","","",""
"revaluation","254","1113167","0.0-4.0-6.0-0.0","spark_pilot_2","8153","8","9","Male","","","","","","","[45,75,79,91,60,111,41]","","","rest","","70","","","","","0","60000","","","","","",""
"learning-instructions","255","1121279","0.0-4.0-7.0-0.0","spark_pilot_2","8153","8","9","Male","","","","","","","1921.7000000001863","<p> You have almost finished this part of the game! </p>
            <p> We are going to ask you to make a few more choices. </p>","","instructions","","","","","","","","","","","","","",""
"learning-instructions","256","1136200","0.0-4.0-7.0-0.1","spark_pilot_2","8153","8","9","Male","","","","","","","949.3000000000466","<p> First, you need to decide whether to go up or down. When you see each picture, use the arrow keys to make your choice. </p>
            <p><b>You will not see which animal you found, but try to get to the one that will give you the most treasure.</b></p>","","instructions","","","","","","","","","","","","","",""
"revaluation","257","1136869","0.0-4.0-8.0-0.0","spark_pilot_2","8153","8","9","Male","","false","","","","","[666.0999999998603]","./assets/img/canyon/test/1.jpg","[""ArrowUp""]","first stage test","canyon","0","{""ArrowUp,ArrowLeft"":2,""ArrowUp,ArrowRight"":11,""ArrowDown,ArrowLeft"":8,""ArrowDown,ArrowRight"":27}","false","ArrowUp","false","","","revaluation","1","","","",""
"html-keyboard-response","258","1137376","0.0-4.0-8.0-1.0","spark_pilot_2","8153","8","9","Male","","","","","","","null","<div style=""font-size:60px;"">+</div>","null","fixation","","","","","","","","","","","","","",""
"revaluation","259","1138266","0.0-4.0-8.0-0.1","spark_pilot_2","8153","8","9","Male","","false","","","","","[886.1000000000931]","./assets/img/canyon/test/3.jpg","[""ArrowUp""]","first stage test","canyon","0","{""ArrowUp,ArrowLeft"":2,""ArrowUp,ArrowRight"":11,""ArrowDown,ArrowLeft"":8,""ArrowDown,ArrowRight"":27}","false","ArrowUp","false","","","revaluation","1","","","",""
"html-keyboard-response","260","1138767","0.0-4.0-8.0-1.1","spark_pilot_2","8153","8","9","Male","","","","","","","null","<div style=""font-size:60px;"">+</div>","null","fixation","","","","","","","","","","","","","",""
"revaluation","261","1139341","0.0-4.0-8.0-0.2","spark_pilot_2","8153","8","9","Male","","false","","","","","[570.5]","./assets/img/canyon/test/2.jpg","[""ArrowDown""]","first stage test","canyon","0","{""ArrowUp,ArrowLeft"":2,""ArrowUp,ArrowRight"":11,""ArrowDown,ArrowLeft"":8,""ArrowDown,ArrowRight"":27}","true","ArrowDown","false","","","revaluation","1","","","",""
"html-keyboard-response","262","1139847","0.0-4.0-8.0-1.2","spark_pilot_2","8153","8","9","Male","","","","","","","null","<div style=""font-size:60px;"">+</div>","null","fixation","","","","","","","","","","","","","",""
"revaluation","263","1140382","0.0-4.0-8.0-0.3","spark_pilot_2","8153","8","9","Male","","false","","","","","[531.5]","./assets/img/canyon/test/0.jpg","[""ArrowUp""]","first stage test","canyon","0","{""ArrowUp,ArrowLeft"":2,""ArrowUp,ArrowRight"":11,""ArrowDown,ArrowLeft"":8,""ArrowDown,ArrowRight"":27}","false","ArrowUp","false","","","revaluation","1","","","",""
"html-keyboard-response","264","1140887","0.0-4.0-8.0-1.3","spark_pilot_2","8153","8","9","Male","","","","","","","null","<div style=""font-size:60px;"">+</div>","null","fixation","","","","","","","","","","","","","",""
"learning-instructions","265","1154247","0.0-4.0-9.0-0.0","spark_pilot_2","8153","8","9","Male","","","","","","","2014.6999999999534","<p> Now you will see the animals again and can search their chests for treasure. </p>
            <p> This time, you will not see how much treasure you earned, but you will earn more bonus money for making better choices. </p>","","instructions","","","","","","","","","","","","","",""
"revaluation","266","1156622","0.0-4.0-10.0-0.0","spark_pilot_2","8153","8","9","Male","","false","","","","","[2372.1999999999534]","./assets/img/canyon/animals/giraffe.jpg","[""ArrowRight""]","second stage test","canyon","0","{""ArrowUp,ArrowLeft"":2,""ArrowUp,ArrowRight"":11,""ArrowDown,ArrowLeft"":8,""ArrowDown,ArrowRight"":27}","true","ArrowUp,ArrowRight","","","","revaluation","1","","","",""
"html-keyboard-response","267","1157127","0.0-4.0-10.0-1.0","spark_pilot_2","8153","8","9","Male","","","","","","","null","<div style=""font-size:60px;"">+</div>","null","fixation","","","","","","","","","","","","","",""
"revaluation","268","1157988","0.0-4.0-10.0-0.1","spark_pilot_2","8153","8","9","Male","","false","","","","","[855.8999999999069]","./assets/img/canyon/animals/giraffe.jpg","[""ArrowRight""]","second stage test","canyon","0","{""ArrowUp,ArrowLeft"":2,""ArrowUp,ArrowRight"":11,""ArrowDown,ArrowLeft"":8,""ArrowDown,ArrowRight"":27}","true","ArrowUp,ArrowRight","","","","revaluation","1","","","",""
"html-keyboard-response","269","1158495","0.0-4.0-10.0-1.1","spark_pilot_2","8153","8","9","Male","","","","","","","null","<div style=""font-size:60px;"">+</div>","null","fixation","","","","","","","","","","","","","",""
"revaluation","270","1158995","0.0-4.0-10.0-0.2","spark_pilot_2","8153","8","9","Male","","false","","","","","[496]","./assets/img/canyon/animals/giraffe.jpg","[""ArrowRight""]","second stage test","canyon","0","{""ArrowUp,ArrowLeft"":2,""ArrowUp,ArrowRight"":11,""ArrowDown,ArrowLeft"":8,""ArrowDown,ArrowRight"":27}","true","ArrowUp,ArrowRight","","","","revaluation","1","","","",""
"html-keyboard-response","271","1159503","0.0-4.0-10.0-1.2","spark_pilot_2","8153","8","9","Male","","","","","","","null","<div style=""font-size:60px;"">+</div>","null","fixation","","","","","","","","","","","","","",""
"revaluation","272","1159987","0.0-4.0-10.0-0.3","spark_pilot_2","8153","8","9","Male","","false","","","","","[479.30000000004657]","./assets/img/canyon/animals/giraffe.jpg","[""ArrowRight""]","second stage test","canyon","0","{""ArrowUp,ArrowLeft"":2,""ArrowUp,ArrowRight"":11,""ArrowDown,ArrowLeft"":8,""ArrowDown,ArrowRight"":27}","true","ArrowUp,ArrowRight","","","","revaluation","1","","","",""
"html-keyboard-response","273","1160495","0.0-4.0-10.0-1.3","spark_pilot_2","8153","8","9","Male","","","","","","","null","<div style=""font-size:60px;"">+</div>","null","fixation","","","","","","","","","","","","","",""
"revaluation","274","1164129","0.0-4.0-10.0-0.4","spark_pilot_2","8153","8","9","Male","","false","","","","","[3630.1999999999534]","./assets/img/canyon/animals/lion.jpg","[""ArrowRight""]","second stage test","canyon","0","{""ArrowUp,ArrowLeft"":2,""ArrowUp,ArrowRight"":11,""ArrowDown,ArrowLeft"":8,""ArrowDown,ArrowRight"":27}","true","ArrowDown,ArrowRight","","","","revaluation","1","","","",""
"html-keyboard-response","275","1164631","0.0-4.0-10.0-1.4","spark_pilot_2","8153","8","9","Male","","","","","","","null","<div style=""font-size:60px;"">+</div>","null","fixation","","","","","","","","","","","","","",""
"revaluation","276","1165326","0.0-4.0-10.0-0.5","spark_pilot_2","8153","8","9","Male","","false","","","","","[690.8000000000466]","./assets/img/canyon/animals/lion.jpg","[""ArrowRight""]","second stage test","canyon","0","{""ArrowUp,ArrowLeft"":2,""ArrowUp,ArrowRight"":11,""ArrowDown,ArrowLeft"":8,""ArrowDown,ArrowRight"":27}","true","ArrowDown,ArrowRight","","","","revaluation","1","","","",""
"html-keyboard-response","277","1165832","0.0-4.0-10.0-1.5","spark_pilot_2","8153","8","9","Male","","","","","","","null","<div style=""font-size:60px;"">+</div>","null","fixation","","","","","","","","","","","","","",""
"revaluation","278","1166296","0.0-4.0-10.0-0.6","spark_pilot_2","8153","8","9","Male","","false","","","","","[461.39999999990687]","./assets/img/canyon/animals/lion.jpg","[""ArrowRight""]","second stage test","canyon","0","{""ArrowUp,ArrowLeft"":2,""ArrowUp,ArrowRight"":11,""ArrowDown,ArrowLeft"":8,""ArrowDown,ArrowRight"":27}","true","ArrowDown,ArrowRight","","","","revaluation","1","","","",""
"html-keyboard-response","279","1166799","0.0-4.0-10.0-1.6","spark_pilot_2","8153","8","9","Male","","","","","","","null","<div style=""font-size:60px;"">+</div>","null","fixation","","","","","","","","","","","","","",""
"revaluation","280","1167207","0.0-4.0-10.0-0.7","spark_pilot_2","8153","8","9","Male","","false","","","","","[403.80000000004657]","./assets/img/canyon/animals/lion.jpg","[""ArrowRight""]","second stage test","canyon","0","{""ArrowUp,ArrowLeft"":2,""ArrowUp,ArrowRight"":11,""ArrowDown,ArrowLeft"":8,""ArrowDown,ArrowRight"":27}","true","ArrowDown,ArrowRight","","","","revaluation","1","","","",""
"html-keyboard-response","281","1167711","0.0-4.0-10.0-1.7","spark_pilot_2","8153","8","9","Male","","","","","","","null","<div style=""font-size:60px;"">+</div>","null","fixation","","","","","","","","","","","","","",""
"learning-instructions","282","1173285","0.0-4.0-0.1-0.2","spark_pilot_2","8153","8","9","Male","","","","","","","2855.5","<p> This time you are searching for treasure in the <b>ocean</b>.</p>","","instructions","","","","","","","","","","","","","",""
"learning-instructions","283","1192068","0.0-4.0-0.1-0.3","spark_pilot_2","8153","8","9","Male","","","","","","","1521.8000000000466","<p><b>New</b> animals with <b>new</b> treasure chests live here. You need to explore to discover where the animal with the best treasure chest is.</p>
                    <p> Like before, once you figure out which animal has the chest with the most treasure, you should try to get to that animal and select that chest! </p>","","instructions","","","","","","","","","","","","","",""
"learning-instructions","284","1208967","0.0-4.0-1.1-0.1","spark_pilot_2","8153","8","9","Male","","","","","","","2174.7000000001863","<p> Remember, when you see a picture of the place, use the up and down keys to <b>find an animal</b>.</p>
            <p> When you encounter an animal, you should use the left and right keys to <b>select a treasure chest</b>.</p>
            <p> Don't forget to look out for the robber! </p>","","instructions","","","","","","","","","","","","","",""
"revaluation","285","1214992","0.0-4.0-2.1-0.50","spark_pilot_2","8153","8","9","Male","","false","","","","","[1345.5999999998603,1706.3000000000466]","./assets/img/ocean/memory/17.jpg","[""ArrowDown"",""ArrowRight""]","value training","ocean","30","{""ArrowUp,ArrowLeft"":23,""ArrowUp,ArrowRight"":10,""ArrowDown,ArrowLeft"":8,""ArrowDown,ArrowRight"":30}","true","ArrowDown,ArrowRight","false","","","original","2","0","","",""
"html-keyboard-response","286","1215495","0.0-4.0-2.1-1.50","spark_pilot_2","8153","8","9","Male","","","","","","","null","<div style=""font-size:60px;"">+</div>","null","fixation","","","","","","","","","","","1","","",""
"revaluation","287","1221521","0.0-4.0-2.1-0.51","spark_pilot_2","8153","8","9","Male","","false","","","","","[807.3000000000466,490.5]","./assets/img/ocean/memory/30.jpg","[""ArrowDown"",""ArrowLeft""]","value training","ocean","8","{""ArrowUp,ArrowLeft"":23,""ArrowUp,ArrowRight"":10,""ArrowDown,ArrowLeft"":8,""ArrowDown,ArrowRight"":30}","false","ArrowDown,ArrowLeft","false","","","original","2","2","","",""
"html-keyboard-response","288","1222023","0.0-4.0-2.1-1.51","spark_pilot_2","8153","8","9","Male","","","","","","","null","<div style=""font-size:60px;"">+</div>","null","fixation","","","","","","","","","","","3","","",""
"revaluation","289","1228047","0.0-4.0-2.1-0.52","spark_pilot_2","8153","8","9","Male","","false","","","","","[711.5,921.6999999999534]","./assets/img/ocean/memory/35.jpg","[""ArrowUp"",""ArrowLeft""]","value training","ocean","23","{""ArrowUp,ArrowLeft"":23,""ArrowUp,ArrowRight"":10,""ArrowDown,ArrowLeft"":8,""ArrowDown,ArrowRight"":30}","false","ArrowUp,ArrowLeft","false","","","original","2","4","","",""
"html-keyboard-response","290","1228551","0.0-4.0-2.1-1.52","spark_pilot_2","8153","8","9","Male","","","","","","","null","<div style=""font-size:60px;"">+</div>","null","fixation","","","","","","","","","","","5","","",""
"revaluation","291","1234576","0.0-4.0-2.1-0.53","spark_pilot_2","8153","8","9","Male","","false","","","","","[686.6999999999534,654.3999999999069]","./assets/img/ocean/memory/3.jpg","[""ArrowUp"",""ArrowRight""]","value training","ocean","10","{""ArrowUp,ArrowLeft"":23,""ArrowUp,ArrowRight"":10,""ArrowDown,ArrowLeft"":8,""ArrowDown,ArrowRight"":30}","false","ArrowUp,ArrowRight","false","","","original","2","6","","",""
"html-keyboard-response","292","1235079","0.0-4.0-2.1-1.53","spark_pilot_2","8153","8","9","Male","","","","","","","null","<div style=""font-size:60px;"">+</div>","null","fixation","","","","","","","","","","","7","","",""
"revaluation","293","1241104","0.0-4.0-2.1-0.54","spark_pilot_2","8153","8","9","Male","","false","","","","","[773.3999999999069,625.5]","./assets/img/ocean/memory/11.jpg","[""ArrowDown"",""ArrowRight""]","value training","ocean","30","{""ArrowUp,ArrowLeft"":23,""ArrowUp,ArrowRight"":10,""ArrowDown,ArrowLeft"":8,""ArrowDown,ArrowRight"":30}","true","ArrowDown,ArrowRight","false","","","original","2","8","","",""
"html-keyboard-response","294","1241608","0.0-4.0-2.1-1.54","spark_pilot_2","8153","8","9","Male","","","","","","","null","<div style=""font-size:60px;"">+</div>","null","fixation","","","","","","","","","","","9","","",""
"revaluation","295","1247632","0.0-4.0-2.1-0.55","spark_pilot_2","8153","8","9","Male","","false","","","","","[1111.9000000001397,557.3999999999069]","./assets/img/ocean/memory/39.jpg","[""ArrowDown"",""ArrowRight""]","value training","ocean","30","{""ArrowUp,ArrowLeft"":23,""ArrowUp,ArrowRight"":10,""ArrowDown,ArrowLeft"":8,""ArrowDown,ArrowRight"":30}","true","ArrowDown,ArrowRight","false","","","original","2","10","","",""
"html-keyboard-response","296","1248135","0.0-4.0-2.1-1.55","spark_pilot_2","8153","8","9","Male","","","","","","","null","<div style=""font-size:60px;"">+</div>","null","fixation","","","","","","","","","","","11","","",""
"revaluation","297","1254160","0.0-4.0-2.1-0.56","spark_pilot_2","8153","8","9","Male","","false","","","","","[741.8000000000466,537.6999999999534]","./assets/img/ocean/memory/23.jpg","[""ArrowDown"",""ArrowRight""]","value training","ocean","30","{""ArrowUp,ArrowLeft"":23,""ArrowUp,ArrowRight"":10,""ArrowDown,ArrowLeft"":8,""ArrowDown,ArrowRight"":30}","true","ArrowDown,ArrowRight","false","","","original","2","12","","",""
"html-keyboard-response","298","1254663","0.0-4.0-2.1-1.56","spark_pilot_2","8153","8","9","Male","","","","","","","null","<div style=""font-size:60px;"">+</div>","null","fixation","","","","","","","","","","","13","","",""
"revaluation","299","1258680","0.0-4.0-2.1-0.57","spark_pilot_2","8153","8","9","Male","","false","","","","","[1086.7999999998137]","./assets/img/ocean/catch/4.jpg","[""spaceBar""]","value training","ocean","0","{""ArrowUp,ArrowLeft"":23,""ArrowUp,ArrowRight"":10,""ArrowDown,ArrowLeft"":8,""ArrowDown,ArrowRight"":30}","true","spaceBar","true","","","original","2","14","","",""
"html-keyboard-response","300","1259184","0.0-4.0-2.1-1.57","spark_pilot_2","8153","8","9","Male","","","","","","","null","<div style=""font-size:60px;"">+</div>","null","fixation","","","","","","","","","","","15","","",""
"revaluation","301","1265207","0.0-4.0-2.1-0.58","spark_pilot_2","8153","8","9","Male","","false","","","","","[875.5,700]","./assets/img/ocean/memory/38.jpg","[""ArrowDown"",""ArrowRight""]","value training","ocean","30","{""ArrowUp,ArrowLeft"":23,""ArrowUp,ArrowRight"":10,""ArrowDown,ArrowLeft"":8,""ArrowDown,ArrowRight"":30}","true","ArrowDown,ArrowRight","false","","","original","2","16","","",""
"html-keyboard-response","302","1265711","0.0-4.0-2.1-1.58","spark_pilot_2","8153","8","9","Male","","","","","","","null","<div style=""font-size:60px;"">+</div>","null","fixation","","","","","","","","","","","17","","",""
"revaluation","303","1271735","0.0-4.0-2.1-0.59","spark_pilot_2","8153","8","9","Male","","true","","","","","[1009]","./assets/img/ocean/memory/1.jpg","[""ArrowDown""]","value training","ocean","-5","{""ArrowUp,ArrowLeft"":23,""ArrowUp,ArrowRight"":10,""ArrowDown,ArrowLeft"":8,""ArrowDown,ArrowRight"":30}","false","ArrowDown","false","","","original","2","18","","",""
"html-keyboard-response","304","1272239","0.0-4.0-2.1-1.59","spark_pilot_2","8153","8","9","Male","","","","","","","null","<div style=""font-size:60px;"">+</div>","null","fixation","","","","","","","","","","","19","","",""
"revaluation","305","1278264","0.0-4.0-2.1-0.60","spark_pilot_2","8153","8","9","Male","","false","","","","","[894,511]","./assets/img/ocean/memory/14.jpg","[""ArrowDown"",""ArrowRight""]","value training","ocean","30","{""ArrowUp,ArrowLeft"":23,""ArrowUp,ArrowRight"":10,""ArrowDown,ArrowLeft"":8,""ArrowDown,ArrowRight"":30}","true","ArrowDown,ArrowRight","false","","","original","2","20","","",""
"html-keyboard-response","306","1278767","0.0-4.0-2.1-1.60","spark_pilot_2","8153","8","9","Male","","","","","","","null","<div style=""font-size:60px;"">+</div>","null","fixation","","","","","","","","","","","21","","",""
"revaluation","307","1284791","0.0-4.0-2.1-0.61","spark_pilot_2","8153","8","9","Male","","false","","","","","[682.3999999999069,494.9000000001397]","./assets/img/ocean/memory/15.jpg","[""ArrowDown"",""ArrowRight""]","value training","ocean","30","{""ArrowUp,ArrowLeft"":23,""ArrowUp,ArrowRight"":10,""ArrowDown,ArrowLeft"":8,""ArrowDown,ArrowRight"":30}","true","ArrowDown,ArrowRight","false","","","original","2","22","","",""
"html-keyboard-response","308","1285295","0.0-4.0-2.1-1.61","spark_pilot_2","8153","8","9","Male","","","","","","","null","<div style=""font-size:60px;"">+</div>","null","fixation","","","","","","","","","","","23","","",""
"revaluation","309","1291319","0.0-4.0-2.1-0.62","spark_pilot_2","8153","8","9","Male","","false","","","","","[492,427.30000000004657]","./assets/img/ocean/memory/0.jpg","[""ArrowDown"",""ArrowRight""]","value training","ocean","30","{""ArrowUp,ArrowLeft"":23,""ArrowUp,ArrowRight"":10,""ArrowDown,ArrowLeft"":8,""ArrowDown,ArrowRight"":30}","true","ArrowDown,ArrowRight","false","","","original","2","24","","",""
