"trial_type","trial_index","time_elapsed","internal_node_id","task_version","subject_id","assigned_condition","age","gender","browser_interaction","success","timeout","failed_images","failed_audio","failed_video","rt","stimulus","response","task_part","environment","score","rewardMap","correct","fullState","isCatch","numberMissed","duration","condition","order","trial_num","key_press","ground_truth","bonus"
"pavlovia","0","1863","0.0-0.0","spark_pilot_2","7776","5","8","Female","[{""event"":""blur"",""trial"":1,""time"":13185},{""event"":""focus"",""trial"":1,""time"":14622},{""event"":""fullscreenenter"",""trial"":2,""time"":97551},{""event"":""blur"",""trial"":19,""time"":232569},{""event"":""focus"",""trial"":19,""time"":234774},{""event"":""blur"",""trial"":19,""time"":235281},{""event"":""focus"",""trial"":19,""time"":235658},{""event"":""blur"",""trial"":19,""time"":235677},{""event"":""focus"",""trial"":19,""time"":240688}]","","","","","","","","","","","","","","","","","","","","","","",""
"preload","1","71244","0.0-1.0","spark_pilot_2","7776","5","8","Female","[{""event"":""blur"",""trial"":1,""time"":13185},{""event"":""focus"",""trial"":1,""time"":14622},{""event"":""fullscreenenter"",""trial"":2,""time"":97551},{""event"":""blur"",""trial"":19,""time"":232569},{""event"":""focus"",""trial"":19,""time"":234774},{""event"":""blur"",""trial"":19,""time"":235281},{""event"":""focus"",""trial"":19,""time"":235658},{""event"":""blur"",""trial"":19,""time"":235677},{""event"":""focus"",""trial"":19,""time"":240688}]","true","false","[]","[]","[]","","","","","","","","","","","","","","","","","",""
"fullscreen","2","98525","0.0-2.0","spark_pilot_2","7776","5","8","Female","","true","","","","","","","","","","","","","","","","","","","","","",""
"audio-button-response","3","105205","0.0-3.0-0.0-0.0","spark_pilot_2","7776","5","8","Female","","","","","","","5531","./assets/audio/audiotest/turtle.mp3","4","audio_test","","","","","","","","","","","","","",""
"audio-button-response","4","107834","0.0-3.0-0.1-0.1","spark_pilot_2","7776","5","8","Female","","","","","","","1611","./assets/audio/audiotest/turtle.mp3","2","audio_test","","","","","","","","","","","","","",""
"learning-instructions","5","118595","0.0-3.0-1.0-0.0","spark_pilot_2","7776","5","8","Female","","","","","","","2308.5999999046326","<p> Welcome! Please remember to stay in fullscreen mode and don't click away from the experiment. </p>","","instructions","","","","","","","","","","","","","",""
"learning-instructions","6","132058","0.0-3.0-1.0-0.1","spark_pilot_2","7776","5","8","Female","","","","","","","3415.5","<p> Today you will be playing a game to earn treasure. </p>
            <p> At the end of the experiment, you will earn a bonus based on how much treasure you find. </p>
            <img src='./assets/img/instructions/treasure.jpg' class='instructions-image'>","","instructions","","","","","","","","","","","","","",""
"learning-instructions","7","145162","0.0-3.0-1.0-0.2","spark_pilot_2","7776","5","8","Female","","","","","","","2994.0999999046326","<p> Animals have hidden treasure in treasure chests. </p>
            <p> You need to first find an animal and then choose which of their treasure chests to search. </p>
            <img src='./assets/img/space/animals/cat.jpg' class='instructions-image'>","","instructions","","","","","","","","","","","","","",""
"learning-instructions","8","162425","0.0-3.0-1.0-0.3","spark_pilot_2","7776","5","8","Female","","","","","","","2966","<p> In each round, you will search for treasure in a different place. In the real game, there will be two rounds. </p>
            <p> You will begin with a separate, practice round where you will search for treasure in outer space. </p>
            <img src='./assets/img/space/0.jpg' class='instructions-image'>","","instructions","","","","","","","","","","","","","",""
"learning-instructions","9","177336","0.0-3.0-1.0-0.4","spark_pilot_2","7776","5","8","Female","","","","","","","1568.7999999523163","<p> On every turn, you will see a picture of the place that you are in, but the specific image may be different each time. </p>
            <p> For example, both of these images mean you are in outer space. </p>
            <img src='./assets/img/instructions/outerspace.jpg' class='instructions-image'>","","instructions","","","","","","","","","","","","","",""
"learning-instructions","10","188601","0.0-3.0-1.0-0.5","spark_pilot_2","7776","5","8","Female","","","","","","","1931.5","<p> You need to decide which direction to travel in. </p>
            <p> You can choose between going <b>up or down</b> by using the arrow keys. </p>
            <img src='./assets/img/instructions/updown.jpg' class='instructions-image'>","","instructions","","","","","","","","","","","","","",""
"learning-instructions","11","200227","0.0-3.0-1.0-0.6","spark_pilot_2","7776","5","8","Female","","","","","","","1782.2000000476837","<p> You will have <b>2 seconds</b> to make your choice. </p>
            <p> If you do not make a choice within 2 seconds, you will not find an animal or earn treasure. </p>
            <img src='./assets/img/instructions/2seconds.jpg' class='instructions-image'>","","instructions","","","","","","","","","","","","","",""
"learning-instructions","12","210990","0.0-3.0-1.0-0.7","spark_pilot_2","7776","5","8","Female","","","","","","","2389.7000000476837","<p> Let’s try practicing that now! </p>
            <p> When you see a picture of the place you are in, press the <b>up</b> key to travel up. </p>
            <img src='./assets/img/instructions/pressUp.jpg' class='instructions-image'>","","instructions","","","","","","","","","","","","","",""
"revaluation","13","215021","0.0-3.0-2.0-0.0","spark_pilot_2","7776","5","8","Female","","","true","","","","[]","./assets/img/space/0.jpg","[]","first stage practice","space","-5","null","null","","false","","","","","","","",""
"html-keyboard-response","14","215533","0.0-3.0-2.0-1.0","spark_pilot_2","7776","5","8","Female","","","","","","","null","<div style=""font-size:60px;"">+</div>","null","fixation","","","","","","","","","","","","","",""
"revaluation","15","219553","0.0-3.0-2.0-0.1","spark_pilot_2","7776","5","8","Female","","","true","","","","[]","./assets/img/space/1.jpg","[]","first stage practice","space","-5","null","null","","false","","","","","","","",""
"html-keyboard-response","16","220069","0.0-3.0-2.0-1.1","spark_pilot_2","7776","5","8","Female","","","","","","","null","<div style=""font-size:60px;"">+</div>","null","fixation","","","","","","","","","","","","","",""
"revaluation","17","224098","0.0-3.0-2.0-0.2","spark_pilot_2","7776","5","8","Female","","","true","","","","[]","./assets/img/space/2.jpg","[]","first stage practice","space","-5","null","null","","false","","","","","","","",""
"html-keyboard-response","18","224620","0.0-3.0-2.0-1.2","spark_pilot_2","7776","5","8","Female","[{""event"":""blur"",""trial"":1,""time"":13185},{""event"":""focus"",""trial"":1,""time"":14622},{""event"":""fullscreenenter"",""trial"":2,""time"":97551},{""event"":""blur"",""trial"":19,""time"":232569},{""event"":""focus"",""trial"":19,""time"":234774},{""event"":""blur"",""trial"":19,""time"":235281},{""event"":""focus"",""trial"":19,""time"":235658},{""event"":""blur"",""trial"":19,""time"":235677},{""event"":""focus"",""trial"":19,""time"":240688}]","","","","","","null","<div style=""font-size:60px;"">+</div>","null","fixation","","","","","","","","","","","","","",""
"learning-instructions","19","249251","0.0-3.0-3.0-0.0","spark_pilot_2","7776","5","8","Female","","","","","","","19200.700000047684","<p> Great job! Now try pressing the <b>down</b> key to travel down. </p>
            <img src='./assets/img/instructions/pressDown.jpg' class='instructions-image'>","","instructions","","","","","","","","","","","","","",""
"revaluation","20","253271","0.0-3.0-4.0-0.0","spark_pilot_2","7776","5","8","Female","","","true","","","","[]","./assets/img/space/3.jpg","[]","first stage practice","space","-5","null","null","","false","","","","","","","",""
"html-keyboard-response","21","253773","0.0-3.0-4.0-1.0","spark_pilot_2","7776","5","8","Female","","","","","","","null","<div style=""font-size:60px;"">+</div>","null","fixation","","","","","","","","","","","","","",""
"revaluation","22","257783","0.0-3.0-4.0-0.1","spark_pilot_2","7776","5","8","Female","","","true","","","","[]","./assets/img/space/4.jpg","[]","first stage practice","space","-5","null","null","","false","","","","","","","",""
"html-keyboard-response","23","258294","0.0-3.0-4.0-1.1","spark_pilot_2","7776","5","8","Female","","","","","","","null","<div style=""font-size:60px;"">+</div>","null","fixation","","","","","","","","","","","","","",""
"revaluation","24","262300","0.0-3.0-4.0-0.2","spark_pilot_2","7776","5","8","Female","","","true","","","","[]","./assets/img/space/5.jpg","[]","first stage practice","space","-5","null","null","","false","","","","","","","",""
"html-keyboard-response","25","262801","0.0-3.0-4.0-1.2","spark_pilot_2","7776","5","8","Female","","","","","","","null","<div style=""font-size:60px;"">+</div>","null","fixation","","","","","","","","","","","","","",""
"learning-instructions","26","276010","0.0-3.0-5.0-0.0","spark_pilot_2","7776","5","8","Female","","","","","","","1917.5","<p> The animals don’t move, so the animal in the upper part of a place will stay in the upper part of a place, and the animal in the lower part of a place will stay in the lower part of a place. </p>","","instructions","","","","","","","","","","","","","",""
"learning-instructions","27","290074","0.0-3.0-5.0-0.1","spark_pilot_2","7776","5","8","Female","","","","","","","2135.7999999523163","<p> Each animal has two treasure chests for you to choose from. </p>
            <p> The amount of treasure in each chest can range from <b> 0 to 40 pieces.</b></p>","","instructions","","","","","","","","","","","","","",""
"learning-instructions","28","304330","0.0-3.0-5.0-0.2","spark_pilot_2","7776","5","8","Female","","","","","","","1661.4000000953674","<p> You should decide which chest to search for treasure by using the <b>left</b> and <b>right</b> arrow keys. </p>
            <p><b> Pay attention to which animal is on the screen, as the animals have different treasure chests. </b></p>
            <img src='./assets/img/instructions/leftright.jpg' class='instructions-image'>","","instructions","","","","","","","","","","","","","",""
"learning-instructions","29","315554","0.0-3.0-5.0-0.3","spark_pilot_2","7776","5","8","Female","","","","","","","2933.4000000953674","<p> Let’s try practicing that now. </p>
            <p> When you see an animal, choose which chest to search for treasure. </p>
            <img src='./assets/img/instructions/chooseChest.jpg' class='instructions-image'>","","instructions","","","","","","","","","","","","","",""
"revaluation","30","319589","0.0-3.0-6.0-0.0","spark_pilot_2","7776","5","8","Female","","","true","","","","[]","./assets/img/space/animals/cat.jpg","[]","second stage practice","space","-5","{""ArrowUp,ArrowLeft"":3,""ArrowUp,ArrowRight"":36,""ArrowDown,ArrowLeft"":15,""ArrowDown,ArrowRight"":23}","false","ArrowUp","","","","","","","","",""
"html-keyboard-response","31","320092","0.0-3.0-6.0-1.0","spark_pilot_2","7776","5","8","Female","","","","","","","null","<div style=""font-size:60px;"">+</div>","null","fixation","","","","","","","","","","","","","",""
"revaluation","32","324114","0.0-3.0-6.0-0.1","spark_pilot_2","7776","5","8","Female","","","true","","","","[]","./assets/img/space/animals/rabbit.jpg","[]","second stage practice","space","-5","{""ArrowUp,ArrowLeft"":3,""ArrowUp,ArrowRight"":36,""ArrowDown,ArrowLeft"":15,""ArrowDown,ArrowRight"":23}","false","ArrowDown","","","","","","","","",""
"html-keyboard-response","33","324616","0.0-3.0-6.0-1.1","spark_pilot_2","7776","5","8","Female","","","","","","","null","<div style=""font-size:60px;"">+</div>","null","fixation","","","","","","","","","","","","","",""
"revaluation","34","328626","0.0-3.0-6.0-0.2","spark_pilot_2","7776","5","8","Female","","","true","","","","[]","./assets/img/space/animals/rabbit.jpg","[]","second stage practice","space","-5","{""ArrowUp,ArrowLeft"":3,""ArrowUp,ArrowRight"":36,""ArrowDown,ArrowLeft"":15,""ArrowDown,ArrowRight"":23}","false","ArrowDown","","","","","","","","",""
"html-keyboard-response","35","329142","0.0-3.0-6.0-1.2","spark_pilot_2","7776","5","8","Female","","","","","","","null","<div style=""font-size:60px;"">+</div>","null","fixation","","","","","","","","","","","","","",""
"revaluation","36","333153","0.0-3.0-6.0-0.3","spark_pilot_2","7776","5","8","Female","","","true","","","","[]","./assets/img/space/animals/cat.jpg","[]","second stage practice","space","-5","{""ArrowUp,ArrowLeft"":3,""ArrowUp,ArrowRight"":36,""ArrowDown,ArrowLeft"":15,""ArrowDown,ArrowRight"":23}","false","ArrowUp","","","","","","","","",""
"html-keyboard-response","37","333654","0.0-3.0-6.0-1.3","spark_pilot_2","7776","5","8","Female","","","","","","","null","<div style=""font-size:60px;"">+</div>","null","fixation","","","","","","","","","","","","","",""
"learning-instructions","38","358210","0.0-3.0-7.0-0.0","spark_pilot_2","7776","5","8","Female","","","","","","","6165.600000143051","<p> Great job. Now let’s try putting it together. </p>
            <p> On each turn, you will first see a picture to remind you of the place you are in, and you need to choose whether to go up or down. </p>
            <p> Then you will see an animal and choose which of its chests to search for treasure. </p>","","instructions","","","","","","","","","","","","","",""
"learning-instructions","39","371250","0.0-3.0-7.0-0.1","spark_pilot_2","7776","5","8","Female","","","","","","","2352.2999999523163","<p> When you choose whether to go up or down, try to go to the animal with the chest with the most treasure. </p>
            <p> Try practicing that now! </p>","","instructions","","","","","","","","","","","","","",""
"revaluation","40","375265","0.0-3.0-8.0-0.0","spark_pilot_2","7776","5","8","Female","","","true","","","","[]","./assets/img/space/6.jpg","[]","full practice","space","-5","{""ArrowUp,ArrowLeft"":3,""ArrowUp,ArrowRight"":36,""ArrowDown,ArrowLeft"":15,""ArrowDown,ArrowRight"":23}","false","","false","","","","","","","",""
"html-keyboard-response","41","375788","0.0-3.0-8.0-1.0","spark_pilot_2","7776","5","8","Female","","","","","","","null","<div style=""font-size:60px;"">+</div>","null","fixation","","","","","","","","","","","","","",""
"revaluation","42","381815","0.0-3.0-8.0-0.1","spark_pilot_2","7776","5","8","Female","","","false","","","","[1465,1561.2999999523163]","./assets/img/space/7.jpg","[""ArrowDown"",""ArrowRight""]","full practice","space","23","{""ArrowUp,ArrowLeft"":3,""ArrowUp,ArrowRight"":36,""ArrowDown,ArrowLeft"":15,""ArrowDown,ArrowRight"":23}","false","ArrowDown,ArrowRight","false","","","","","","","",""
"html-keyboard-response","43","382323","0.0-3.0-8.0-1.1","spark_pilot_2","7776","5","8","Female","","","","","","","null","<div style=""font-size:60px;"">+</div>","null","fixation","","","","","","","","","","","","","",""
"revaluation","44","388363","0.0-3.0-8.0-0.2","spark_pilot_2","7776","5","8","Female","","","false","","","","[1399.7999999523163,702.8000001907349]","./assets/img/space/8.jpg","[""ArrowDown"",""ArrowRight""]","full practice","space","23","{""ArrowUp,ArrowLeft"":3,""ArrowUp,ArrowRight"":36,""ArrowDown,ArrowLeft"":15,""ArrowDown,ArrowRight"":23}","false","ArrowDown,ArrowRight","false","","","","","","","",""
"html-keyboard-response","45","388876","0.0-3.0-8.0-1.2","spark_pilot_2","7776","5","8","Female","","","","","","","null","<div style=""font-size:60px;"">+</div>","null","fixation","","","","","","","","","","","","","",""
"revaluation","46","394902","0.0-3.0-8.0-0.3","spark_pilot_2","7776","5","8","Female","","","false","","","","[654.4000000953674,132.70000004768372]","./assets/img/space/9.jpg","[""ArrowUp"",""ArrowLeft""]","full practice","space","3","{""ArrowUp,ArrowLeft"":3,""ArrowUp,ArrowRight"":36,""ArrowDown,ArrowLeft"":15,""ArrowDown,ArrowRight"":23}","false","ArrowUp,ArrowLeft","false","","","","","","","",""
"html-keyboard-response","47","395424","0.0-3.0-8.0-1.3","spark_pilot_2","7776","5","8","Female","","","","","","","null","<div style=""font-size:60px;"">+</div>","null","fixation","","","","","","","","","","","","","",""
"revaluation","48","401431","0.0-3.0-8.0-0.4","spark_pilot_2","7776","5","8","Female","","","false","","","","[853.6999998092651,89.69999980926514]","./assets/img/space/10.jpg","[""ArrowDown"",""ArrowRight""]","full practice","space","23","{""ArrowUp,ArrowLeft"":3,""ArrowUp,ArrowRight"":36,""ArrowDown,ArrowLeft"":15,""ArrowDown,ArrowRight"":23}","false","ArrowDown,ArrowRight","false","","","","","","","",""
"html-keyboard-response","49","401933","0.0-3.0-8.0-1.4","spark_pilot_2","7776","5","8","Female","","","","","","","null","<div style=""font-size:60px;"">+</div>","null","fixation","","","","","","","","","","","","","",""
"learning-instructions","50","416378","0.0-3.0-9.0-0.0","spark_pilot_2","7776","5","8","Female","","","","","","","1085.7999999523163","<p> One last thing: sometimes, you will see a robber. The robber can be anywhere in the picture. </p>
            <p> If you do not stop them, you will lose treasure. </p>
            <img src='./assets/img/instructions/robber.jpg' class='instructions-image'>","","instructions","","","","","","","","","","","","","",""
"learning-instructions","51","428434","0.0-3.0-9.0-0.1","spark_pilot_2","7776","5","8","Female","","","","","","","1962.9000000953674","<p> If you see the robber, you should <b>press the space bar</b> rather than using the arrow keys. </p>
            <p> Try practicing that now! </p>","","instructions","","","","","","","","","","","","","",""
"revaluation","52","432444","0.0-3.0-10.0-0.0","spark_pilot_2","7776","5","8","Female","","","false","","","","[1473.5999999046326]","./assets/img/space/catch/0.jpg","[""spaceBar""]","catch practice","space","0","{""ArrowUp,ArrowLeft"":3,""ArrowUp,ArrowRight"":36,""ArrowDown,ArrowLeft"":15,""ArrowDown,ArrowRight"":23}","true","spaceBar","true","","","","","","","",""
"html-keyboard-response","53","432966","0.0-3.0-10.0-1.0","spark_pilot_2","7776","5","8","Female","","","","","","","null","<div style=""font-size:60px;"">+</div>","null","fixation","","","","","","","","","","","","","",""
"revaluation","54","436987","0.0-3.0-10.0-0.1","spark_pilot_2","7776","5","8","Female","","","false","","","","[856.5999999046326]","./assets/img/space/catch/1.jpg","[""spaceBar""]","catch practice","space","0","{""ArrowUp,ArrowLeft"":3,""ArrowUp,ArrowRight"":36,""ArrowDown,ArrowLeft"":15,""ArrowDown,ArrowRight"":23}","true","spaceBar","true","","","","","","","",""
"html-keyboard-response","55","437509","0.0-3.0-10.0-1.1","spark_pilot_2","7776","5","8","Female","","","","","","","null","<div style=""font-size:60px;"">+</div>","null","fixation","","","","","","","","","","","","","",""
"revaluation","56","441520","0.0-3.0-10.0-0.2","spark_pilot_2","7776","5","8","Female","","","false","","","","[607.1000001430511]","./assets/img/space/catch/2.jpg","[""spaceBar""]","catch practice","space","0","{""ArrowUp,ArrowLeft"":3,""ArrowUp,ArrowRight"":36,""ArrowDown,ArrowLeft"":15,""ArrowDown,ArrowRight"":23}","true","spaceBar","true","","","","","","","",""
"html-keyboard-response","57","442022","0.0-3.0-10.0-1.2","spark_pilot_2","7776","5","8","Female","","","","","","","null","<div style=""font-size:60px;"">+</div>","null","fixation","","","","","","","","","","","","","",""
"learning-instructions","58","468408","0.0-3.0-11.0-0.0","spark_pilot_2","7776","5","8","Female","","","","","","","10141.899999856949","<p> After you explore a place to find treasure, it will be time to play a different game. </p>
            <p> During this game, red dots will appear on the screen and fall down slowly. </p>
            <p><b> You must click on them before they reach the bottom. </b></p>
            <img src='./assets/img/instructions/dotGame.jpg' class='instructions-image'>","","instructions","","","","","","","","","","","","","",""
"learning-instructions","59","484098","0.0-3.0-11.0-0.1","spark_pilot_2","7776","5","8","Female","","","","","","","8754.5","<p> For every dot you click, you will earn additional treasure. </p>
            <p> Let’s try practicing that now. </p>","","instructions","","","","","","","","","","","","","",""
"revaluation","60","499108","0.0-3.0-12.0-0.0","spark_pilot_2","7776","5","8","Female","","","","","","","[111]","","","rest practice","","10","","","","","0","15000","","","","","",""
"learning-instructions","61","508113","0.0-3.0-13.0-0.0-0.0","spark_pilot_2","7776","5","8","Female","","","","","","","1535.2999999523163","<p> Now, you will practice a shortened version of the game to get a sense of how it all fits together. </p>","","instructions","","","","","","","","","","","","","",""
"learning-instructions","62","517097","0.0-3.0-13.0-0.0-0.1","spark_pilot_2","7776","5","8","Female","","","","","","","3404.5","<p>This time you are searching for treasure in outer space.</p>","","instructions","","","","","","","","","","","","","",""
"learning-instructions","63","536417","0.0-3.0-13.0-1.0-0.0","spark_pilot_2","7776","5","8","Female","","","","","","","1764.1000001430511","<p> Remember, when you see a picture of the place, use the up and down keys to <b>find an animal</b>.</p>
            <p> When you encounter an animal, you should use the left and right keys to <b>select a treasure chest</b>.</p>
            <p> Don't forget to look out for the robber! </p>","","instructions","","","","","","","","","","","","","",""
"revaluation","64","542438","0.0-3.0-13.0-2.0-0.0","spark_pilot_2","7776","5","8","Female","","","false","","","","[1240.7000000476837,857]","./assets/img/space/11.jpg","[""ArrowDown"",""ArrowRight""]","practice block","space","23","{""ArrowUp,ArrowLeft"":3,""ArrowUp,ArrowRight"":36,""ArrowDown,ArrowLeft"":15,""ArrowDown,ArrowRight"":23}","false","ArrowDown,ArrowRight","false","","","","","","","",""
"html-keyboard-response","65","542950","0.0-3.0-13.0-2.0-1.0","spark_pilot_2","7776","5","8","Female","","","","","","","null","<div style=""font-size:60px;"">+</div>","null","fixation","","","","","","","","","","","","","",""
"revaluation","66","548966","0.0-3.0-13.0-2.0-0.1","spark_pilot_2","7776","5","8","Female","","","false","","","","[901.7000000476837,796.5999999046326]","./assets/img/space/12.jpg","[""ArrowDown"",""ArrowLeft""]","practice block","space","15","{""ArrowUp,ArrowLeft"":3,""ArrowUp,ArrowRight"":36,""ArrowDown,ArrowLeft"":15,""ArrowDown,ArrowRight"":23}","false","ArrowDown,ArrowLeft","false","","","","","","","",""
"html-keyboard-response","67","549478","0.0-3.0-13.0-2.0-1.1","spark_pilot_2","7776","5","8","Female","","","","","","","null","<div style=""font-size:60px;"">+</div>","null","fixation","","","","","","","","","","","","","",""
"revaluation","68","555500","0.0-3.0-13.0-2.0-0.2","spark_pilot_2","7776","5","8","Female","","","false","","","","[795.7000000476837,737.8999998569489]","./assets/img/space/13.jpg","[""ArrowDown"",""ArrowRight""]","practice block","space","23","{""ArrowUp,ArrowLeft"":3,""ArrowUp,ArrowRight"":36,""ArrowDown,ArrowLeft"":15,""ArrowDown,ArrowRight"":23}","false","ArrowDown,ArrowRight","false","","","","","","","",""
"html-keyboard-response","69","556017","0.0-3.0-13.0-2.0-1.2","spark_pilot_2","7776","5","8","Female","","","","","","","null","<div style=""font-size:60px;"">+</div>","null","fixation","","","","","","","","","","","","","",""
"revaluation","70","562033","0.0-3.0-13.0-2.0-0.3","spark_pilot_2","7776","5","8","Female","","","false","","","","[937,68.90000009536743]","./assets/img/space/14.jpg","[""ArrowDown"",""ArrowLeft""]","practice block","space","15","{""ArrowUp,ArrowLeft"":3,""ArrowUp,ArrowRight"":36,""ArrowDown,ArrowLeft"":15,""ArrowDown,ArrowRight"":23}","false","ArrowDown,ArrowLeft","false","","","","","","","",""
"html-keyboard-response","71","562555","0.0-3.0-13.0-2.0-1.3","spark_pilot_2","7776","5","8","Female","","","","","","","null","<div style=""font-size:60px;"">+</div>","null","fixation","","","","","","","","","","","","","",""
"revaluation","72","568573","0.0-3.0-13.0-2.0-0.4","spark_pilot_2","7776","5","8","Female","","","false","","","","[923,42.299999952316284]","./assets/img/space/11.jpg","[""ArrowUp"",""ArrowRight""]","practice block","space","36","{""ArrowUp,ArrowLeft"":3,""ArrowUp,ArrowRight"":36,""ArrowDown,ArrowLeft"":15,""ArrowDown,ArrowRight"":23}","true","ArrowUp,ArrowRight","false","","","","","","","",""
"html-keyboard-response","73","569074","0.0-3.0-13.0-2.0-1.4","spark_pilot_2","7776","5","8","Female","","","","","","","null","<div style=""font-size:60px;"">+</div>","null","fixation","","","","","","","","","","","","","",""
"revaluation","74","575080","0.0-3.0-13.0-2.0-0.5","spark_pilot_2","7776","5","8","Female","","","false","","","","[756.7999999523163,144.10000014305115]","./assets/img/space/12.jpg","[""ArrowUp"",""ArrowLeft""]","practice block","space","3","{""ArrowUp,ArrowLeft"":3,""ArrowUp,ArrowRight"":36,""ArrowDown,ArrowLeft"":15,""ArrowDown,ArrowRight"":23}","false","ArrowUp,ArrowLeft","false","","","","","","","",""
"html-keyboard-response","75","575581","0.0-3.0-13.0-2.0-1.5","spark_pilot_2","7776","5","8","Female","","","","","","","null","<div style=""font-size:60px;"">+</div>","null","fixation","","","","","","","","","","","","","",""
"revaluation","76","581587","0.0-3.0-13.0-2.0-0.6","spark_pilot_2","7776","5","8","Female","","","false","","","","[1151.2000000476837,197]","./assets/img/space/13.jpg","[""ArrowUp"",""ArrowRight""]","practice block","space","36","{""ArrowUp,ArrowLeft"":3,""ArrowUp,ArrowRight"":36,""ArrowDown,ArrowLeft"":15,""ArrowDown,ArrowRight"":23}","true","ArrowUp,ArrowRight","false","","","","","","","",""
"html-keyboard-response","77","582089","0.0-3.0-13.0-2.0-1.6","spark_pilot_2","7776","5","8","Female","","","","","","","null","<div style=""font-size:60px;"">+</div>","null","fixation","","","","","","","","","","","","","",""
"revaluation","78","588095","0.0-3.0-13.0-2.0-0.7","spark_pilot_2","7776","5","8","Female","","","false","","","","[798.5,372.2000000476837]","./assets/img/space/14.jpg","[""ArrowUp"",""ArrowRight""]","practice block","space","36","{""ArrowUp,ArrowLeft"":3,""ArrowUp,ArrowRight"":36,""ArrowDown,ArrowLeft"":15,""ArrowDown,ArrowRight"":23}","true","ArrowUp,ArrowRight","false","","","","","","","",""
"html-keyboard-response","79","588597","0.0-3.0-13.0-2.0-1.7","spark_pilot_2","7776","5","8","Female","","","","","","","null","<div style=""font-size:60px;"">+</div>","null","fixation","","","","","","","","","","","","","",""
"revaluation","80","592602","0.0-3.0-13.0-2.0-0.8","spark_pilot_2","7776","5","8","Female","","","false","","","","[1054.2999999523163]","./assets/img/space/catch/3.jpg","[""spaceBar""]","practice block","space","0","{""ArrowUp,ArrowLeft"":3,""ArrowUp,ArrowRight"":36,""ArrowDown,ArrowLeft"":15,""ArrowDown,ArrowRight"":23}","true","spaceBar","true","","","","","","","",""
"html-keyboard-response","81","593104","0.0-3.0-13.0-2.0-1.8","spark_pilot_2","7776","5","8","Female","","","","","","","null","<div style=""font-size:60px;"">+</div>","null","fixation","","","","","","","","","","","","","",""
"learning-instructions","82","609469","0.0-3.0-13.0-3.0-0.0","spark_pilot_2","7776","5","8","Female","","","","","","","794.2999999523163","<p> Now, you will travel with a friend who will choose whether you go up or down first. </p>
            <p> On these turns, you will just see the animal that they found. You will still get to choose which chest to search for treasure.</p>","","instructions","","","","","","","","","","","","","",""
"revaluation","83","613484","0.0-3.0-13.0-4.0-0.0","spark_pilot_2","7776","5","8","Female","","","false","","","","[1749.1999998092651]","./assets/img/space/animals/rabbit.jpg","[""ArrowRight""]","practice block","space","23","{""ArrowUp,ArrowLeft"":3,""ArrowUp,ArrowRight"":36,""ArrowDown,ArrowLeft"":15,""ArrowDown,ArrowRight"":23}","true","ArrowDown,ArrowRight","","","","","","","","",""
"html-keyboard-response","84","614007","0.0-3.0-13.0-4.0-1.0","spark_pilot_2","7776","5","8","Female","","","","","","","null","<div style=""font-size:60px;"">+</div>","null","fixation","","","","","","","","","","","","","",""
"revaluation","85","618016","0.0-3.0-13.0-4.0-0.1","spark_pilot_2","7776","5","8","Female","","","false","","","","[597.2999999523163]","./assets/img/space/animals/rabbit.jpg","[""ArrowLeft""]","practice block","space","15","{""ArrowUp,ArrowLeft"":3,""ArrowUp,ArrowRight"":36,""ArrowDown,ArrowLeft"":15,""ArrowDown,ArrowRight"":23}","false","ArrowDown,ArrowLeft","","","","","","","","",""
"html-keyboard-response","86","618533","0.0-3.0-13.0-4.0-1.1","spark_pilot_2","7776","5","8","Female","","","","","","","null","<div style=""font-size:60px;"">+</div>","null","fixation","","","","","","","","","","","","","",""
"revaluation","87","622542","0.0-3.0-13.0-4.0-0.2","spark_pilot_2","7776","5","8","Female","","","false","","","","[550.2000000476837]","./assets/img/space/animals/cat.jpg","[""ArrowRight""]","practice block","space","36","{""ArrowUp,ArrowLeft"":3,""ArrowUp,ArrowRight"":36,""ArrowDown,ArrowLeft"":15,""ArrowDown,ArrowRight"":23}","true","ArrowUp,ArrowRight","","","","","","","","",""
"html-keyboard-response","88","623044","0.0-3.0-13.0-4.0-1.2","spark_pilot_2","7776","5","8","Female","","","","","","","null","<div style=""font-size:60px;"">+</div>","null","fixation","","","","","","","","","","","","","",""
"revaluation","89","627074","0.0-3.0-13.0-4.0-0.3","spark_pilot_2","7776","5","8","Female","","","false","","","","[767.2000000476837]","./assets/img/space/animals/cat.jpg","[""ArrowLeft""]","practice block","space","3","{""ArrowUp,ArrowLeft"":3,""ArrowUp,ArrowRight"":36,""ArrowDown,ArrowLeft"":15,""ArrowDown,ArrowRight"":23}","false","ArrowUp,ArrowLeft","","","","","","","","",""
"html-keyboard-response","90","627596","0.0-3.0-13.0-4.0-1.3","spark_pilot_2","7776","5","8","Female","","","","","","","null","<div style=""font-size:60px;"">+</div>","null","fixation","","","","","","","","","","","","","",""
"learning-instructions","91","638916","0.0-3.0-13.0-5.0-0.0","spark_pilot_2","7776","5","8","Female","","","","","","","1441.5","<p> Time to play the dot game! </p>
            <p> For 15 seconds, click the red dots on the following screen as they appear. </p>","","instructions","","","","","","","","","","","","","",""
"revaluation","92","653918","0.0-3.0-13.0-6.0-0.0","spark_pilot_2","7776","5","8","Female","","","","","","","[213]","","","rest practice","","10","","","","","0","15000","","","","","",""
"learning-instructions","93","666193","0.0-3.0-13.0-7.0-0.0","spark_pilot_2","7776","5","8","Female","","","","","","","2287.100000143051","<p> You have almost finished this part of the game! </p>
            <p> We are going to ask you to make a few more choices. </p>","","instructions","","","","","","","","","","","","","",""
"learning-instructions","94","687750","0.0-3.0-13.0-7.0-0.1","spark_pilot_2","7776","5","8","Female","","","","","","","2510.2999999523163","<p> First, you need to decide whether to go up or down. When you see each picture, use the arrow keys to make your choice. </p>
            <p><b>You will not see which animal you found, but try to get to the one that will give you the most treasure.</b></p>","","instructions","","","","","","","","","","","","","",""
"revaluation","95","689119","0.0-3.0-13.0-8.0","spark_pilot_2","7776","5","8","Female","","","false","","","","[1365.7999999523163]","./assets/img/space/15.jpg","[""ArrowUp""]","practice block","space","0","{""ArrowUp,ArrowLeft"":3,""ArrowUp,ArrowRight"":36,""ArrowDown,ArrowLeft"":15,""ArrowDown,ArrowRight"":23}","true","ArrowUp","false","","","","","","","",""
"html-keyboard-response","96","689634","0.0-3.0-13.0-9.0","spark_pilot_2","7776","5","8","Female","","","","","","","null","<div style=""font-size:60px;"">+</div>","null","fixation","","","","","","","","","","","","","",""
"learning-instructions","97","704613","0.0-3.0-13.0-10.0-0.0","spark_pilot_2","7776","5","8","Female","","","","","","","1004.2999999523163","<p> Now you will see the animals again and can search their chests for treasure. </p>
            <p> This time, you will not see how much treasure you earned, but you will earn more bonus money for making better choices. </p>","","instructions","","","","","","","","","","","","","",""
"revaluation","98","705627","0.0-3.0-13.0-11.0-0.0","spark_pilot_2","7776","5","8","Female","","","false","","","","[1011.5999999046326]","./assets/img/space/animals/cat.jpg","[""ArrowRight""]","practice block","space","0","{""ArrowUp,ArrowLeft"":3,""ArrowUp,ArrowRight"":36,""ArrowDown,ArrowLeft"":15,""ArrowDown,ArrowRight"":23}","true","ArrowUp,ArrowRight","","","","","","","","",""
"html-keyboard-response","99","706145","0.0-3.0-13.0-11.0-1.0","spark_pilot_2","7776","5","8","Female","","","","","","","null","<div style=""font-size:60px;"">+</div>","null","fixation","","","","","","","","","","","","","",""
"revaluation","100","707174","0.0-3.0-13.0-11.0-0.1","spark_pilot_2","7776","5","8","Female","","","false","","","","[1024.3999998569489]","./assets/img/space/animals/rabbit.jpg","[""ArrowLeft""]","practice block","space","0","{""ArrowUp,ArrowLeft"":3,""ArrowUp,ArrowRight"":36,""ArrowDown,ArrowLeft"":15,""ArrowDown,ArrowRight"":23}","false","ArrowDown,ArrowLeft","","","","","","","","",""
"html-keyboard-response","101","707676","0.0-3.0-13.0-11.0-1.1","spark_pilot_2","7776","5","8","Female","","","","","","","null","<div style=""font-size:60px;"">+</div>","null","fixation","","","","","","","","","","","","","",""
"learning-instructions","102","717201","0.0-3.0-14.0-0.0","spark_pilot_2","7776","5","8","Female","","","","","","","3800.5999999046326","<p> Before you start, we're going to ask you a few questions about how the game works. </p>","","instructions","","","","","","","","","","","","","",""
"comp-q","103","727159","0.0-3.0-15.0-0.0-0.0","spark_pilot_2","7776","5","8","Female","","","","","","","1957.1999998092651","<p> <b> True or False? </b> </p>
            <p> There can be 50 pieces of treasure in a given animal's chest. </p>","1","comp_question","","","","true","","","","","","","","","",""
"comp-q","104","739257","0.0-3.0-15.0-0.0-1.0","spark_pilot_2","7776","5","8","Female","","","","","","","3093.600000143051","<p> <b> That's right! </b> The amount of treasure in each chest can range from 0 to 40 pieces. </p>","0","comp_answer","","","","","","","","","","","","","",""
"comp-q","105","749988","0.0-3.0-15.0-0.1-0.1","spark_pilot_2","7776","5","8","Female","","","","","","","1664.7000000476837","<p> <b> True or False? </b> </p><p> In this game, all animals have the same amount of treasure in their left and right chests. </p>","1","comp_question","","","","true","","","","","","","","","",""
"comp-q","106","758798","0.0-3.0-15.0-0.1-1.1","spark_pilot_2","7776","5","8","Female","","","","","","","1814.5","<p> <b> That's right! </b> Animals have different amounts of treasure in their treasure chests. </p>","0","comp_answer","","","","","","","","","","","","","",""
"comp-q","107","769673","0.0-3.0-15.0-0.2-0.2","spark_pilot_2","7776","5","8","Female","","","","","","","4315.100000143051","<p> <b> True or False? </b> </p><p> The same animal will always be there if you go up in the same place. </p>","1","comp_question","","","","false","","","","","","","","","",""
"comp-q","108","778648","0.0-3.0-15.0-0.2-1.2","spark_pilot_2","7776","5","8","Female","","","","","","","1440.2999999523163","<p> <b>Incorrect.</b> One animal lives in the upper part and one lives in the lower part of every place. </p>","0","comp_answer","","","","","","","","","","","","","",""
"comp-q","109","785454","0.0-3.0-15.0-0.3-0.3","spark_pilot_2","7776","5","8","Female","","","","","","","981.8999998569489","<p> <b> True or False? </b> </p><p> The same animal will always be there if you go up in the same place. </p>","0","comp_question","","","","true","","","","","","","","","",""
"comp-q","110","795016","0.0-3.0-15.0-0.3-1.3","spark_pilot_2","7776","5","8","Female","","","","","","","1541.9000000953674","<p> <b> That's right! </b> One animal lives in the upper part and one lives in the lower part of every place. </p>","0","comp_answer","","","","","","","","","","","","","",""
"comp-q","111","803267","0.0-3.0-15.0-0.4-0.4","spark_pilot_2","7776","5","8","Female","","","","","","","1195.1000001430511","<p> <b> True or False? </b> </p><p> If you see a different picture, it means you are in a new place. </p>","0","comp_question","","","","false","","","","","","","","","",""
"comp-q","112","817411","0.0-3.0-15.0-0.4-1.4","spark_pilot_2","7776","5","8","Female","","","","","","","1290.8999998569489","<p> <b>Incorrect.</b> Lots of different images may show the same place. For example,  you may see three different images that all remind you that you are in outer space. </p>","0","comp_answer","","","","","","","","","","","","","",""
"comp-q","113","824142","0.0-3.0-15.0-0.5-0.5","spark_pilot_2","7776","5","8","Female","","","","","","","1227","<p> <b> True or False? </b> </p><p> If you see a different picture, it means you are in a new place. </p>","1","comp_question","","","","true","","","","","","","","","",""
"comp-q","114","839236","0.0-3.0-15.0-0.5-1.5","spark_pilot_2","7776","5","8","Female","","","","","","","1803.5999999046326","<p> <b> That's right! </b> Lots of different images may show the same place. For example,  you may see three different images that all remind you that you are in outer space. </p>","0","comp_answer","","","","","","","","","","","","","",""
"learning-instructions","115","851424","0.0-3.0-16.0-0.0","spark_pilot_2","7776","5","8","Female","","","","","","","1426.1000001430511","<p> Good job. Remember to do your best because the amount of treasure you earn will be converted into bonus money. </p>
            <p> It’s time to start the real game! </p>","","instructions","","","","","","","","","","","","","",""
"learning-instructions","116","856910","0.0-4.0-0.0-0.0","spark_pilot_2","7776","5","8","Female","","","","","","","917.6000001430511","<p> This time you are searching for treasure in the <b>canyon</b>.</p>","","instructions","","","","","","","","","","","","","",""
"learning-instructions","117","876259","0.0-4.0-0.0-0.1","spark_pilot_2","7776","5","8","Female","","","","","","","1301.5","<p><b>New</b> animals with <b>new</b> treasure chests live here. You need to explore to discover where the animal with the best treasure chest is.</p>
                    <p> Like before, once you figure out which animal has the chest with the most treasure, you should try to get to that animal and select that chest! </p>","","instructions","","","","","","","","","","","","","",""
"learning-instructions","118","891826","0.0-4.0-1.0-0.0","spark_pilot_2","7776","5","8","Female","","","","","","","836.8999998569489","<p> Remember, when you see a picture of the place, use the up and down keys to <b>find an animal</b>.</p>
            <p> When you encounter an animal, you should use the left and right keys to <b>select a treasure chest</b>.</p>
            <p> Don't forget to look out for the robber! </p>","","instructions","","","","","","","","","","","","","",""
"revaluation","119","897859","0.0-4.0-2.0-0.0","spark_pilot_2","7776","5","8","Female","","","false","","","","[1380.1000001430511,481.39999985694885]","./assets/img/canyon/memory/17.jpg","[""ArrowDown"",""ArrowRight""]","value training","canyon","17","{""ArrowUp,ArrowLeft"":26,""ArrowUp,ArrowRight"":10,""ArrowDown,ArrowLeft"":5,""ArrowDown,ArrowRight"":17}","false","ArrowDown,ArrowRight","false","","","original","1","0","","",""
"html-keyboard-response","120","898380","0.0-4.0-2.0-1.0","spark_pilot_2","7776","5","8","Female","","","","","","","null","<div style=""font-size:60px;"">+</div>","null","fixation","","","","","","","","","","","1","","",""
"revaluation","121","902404","0.0-4.0-2.0-0.1","spark_pilot_2","7776","5","8","Female","","","false","","","","[562.2999999523163]","./assets/img/canyon/catch/1.jpg","[""ArrowUp""]","value training","canyon","-10","{""ArrowUp,ArrowLeft"":26,""ArrowUp,ArrowRight"":10,""ArrowDown,ArrowLeft"":5,""ArrowDown,ArrowRight"":17}","false","ArrowUp","true","","","original","1","2","","",""
"html-keyboard-response","122","902924","0.0-4.0-2.0-1.1","spark_pilot_2","7776","5","8","Female","","","","","","","null","<div style=""font-size:60px;"">+</div>","null","fixation","","","","","","","","","","","3","","",""
"revaluation","123","908941","0.0-4.0-2.0-0.2","spark_pilot_2","7776","5","8","Female","","","false","","","","[1139.7999999523163,80.29999995231628]","./assets/img/canyon/memory/29.jpg","[""ArrowDown"",""ArrowLeft""]","value training","canyon","5","{""ArrowUp,ArrowLeft"":26,""ArrowUp,ArrowRight"":10,""ArrowDown,ArrowLeft"":5,""ArrowDown,ArrowRight"":17}","false","ArrowDown,ArrowLeft","false","","","original","1","4","","",""
"html-keyboard-response","124","909442","0.0-4.0-2.0-1.2","spark_pilot_2","7776","5","8","Female","","","","","","","null","<div style=""font-size:60px;"">+</div>","null","fixation","","","","","","","","","","","5","","",""
"revaluation","125","915458","0.0-4.0-2.0-0.3","spark_pilot_2","7776","5","8","Female","","","false","","","","[612.4000000953674,1747.0999999046326]","./assets/img/canyon/memory/5.jpg","[""ArrowUp"",""ArrowRight""]","value training","canyon","10","{""ArrowUp,ArrowLeft"":26,""ArrowUp,ArrowRight"":10,""ArrowDown,ArrowLeft"":5,""ArrowDown,ArrowRight"":17}","false","ArrowUp,ArrowRight","false","","","original","1","6","","",""
"html-keyboard-response","126","915980","0.0-4.0-2.0-1.3","spark_pilot_2","7776","5","8","Female","","","","","","","null","<div style=""font-size:60px;"">+</div>","null","fixation","","","","","","","","","","","7","","",""
"revaluation","127","922003","0.0-4.0-2.0-0.4","spark_pilot_2","7776","5","8","Female","","","false","","","","[567,1259.7999999523163]","./assets/img/canyon/memory/12.jpg","[""ArrowUp"",""ArrowRight""]","value training","canyon","10","{""ArrowUp,ArrowLeft"":26,""ArrowUp,ArrowRight"":10,""ArrowDown,ArrowLeft"":5,""ArrowDown,ArrowRight"":17}","false","ArrowUp,ArrowRight","false","","","original","1","8","","",""
"html-keyboard-response","128","922504","0.0-4.0-2.0-1.4","spark_pilot_2","7776","5","8","Female","","","","","","","null","<div style=""font-size:60px;"">+</div>","null","fixation","","","","","","","","","","","9","","",""
"revaluation","129","928510","0.0-4.0-2.0-0.5","spark_pilot_2","7776","5","8","Female","","","false","","","","[592.5,597.4000000953674]","./assets/img/canyon/memory/34.jpg","[""ArrowDown"",""ArrowLeft""]","value training","canyon","5","{""ArrowUp,ArrowLeft"":26,""ArrowUp,ArrowRight"":10,""ArrowDown,ArrowLeft"":5,""ArrowDown,ArrowRight"":17}","false","ArrowDown,ArrowLeft","false","","","original","1","10","","",""
"html-keyboard-response","130","929012","0.0-4.0-2.0-1.5","spark_pilot_2","7776","5","8","Female","","","","","","","null","<div style=""font-size:60px;"">+</div>","null","fixation","","","","","","","","","","","11","","",""
"revaluation","131","935018","0.0-4.0-2.0-0.6","spark_pilot_2","7776","5","8","Female","","","false","","","","[910.1000001430511,30.799999952316284]","./assets/img/canyon/memory/0.jpg","[""ArrowUp"",""ArrowLeft""]","value training","canyon","26","{""ArrowUp,ArrowLeft"":26,""ArrowUp,ArrowRight"":10,""ArrowDown,ArrowLeft"":5,""ArrowDown,ArrowRight"":17}","true","ArrowUp,ArrowLeft","false","","","original","1","12","","",""
"html-keyboard-response","132","935520","0.0-4.0-2.0-1.6","spark_pilot_2","7776","5","8","Female","","","","","","","null","<div style=""font-size:60px;"">+</div>","null","fixation","","","","","","","","","","","13","","",""
"revaluation","133","941527","0.0-4.0-2.0-0.7","spark_pilot_2","7776","5","8","Female","","","false","","","","[885.2999999523163,568.9000000953674]","./assets/img/canyon/memory/31.jpg","[""ArrowUp"",""ArrowLeft""]","value training","canyon","26","{""ArrowUp,ArrowLeft"":26,""ArrowUp,ArrowRight"":10,""ArrowDown,ArrowLeft"":5,""ArrowDown,ArrowRight"":17}","true","ArrowUp,ArrowLeft","false","","","original","1","14","","",""
"html-keyboard-response","134","942029","0.0-4.0-2.0-1.7","spark_pilot_2","7776","5","8","Female","","","","","","","null","<div style=""font-size:60px;"">+</div>","null","fixation","","","","","","","","","","","15","","",""
"revaluation","135","946035","0.0-4.0-2.0-0.8","spark_pilot_2","7776","5","8","Female","","","false","","","","[1378.7999999523163]","./assets/img/canyon/catch/7.jpg","[""spaceBar""]","value training","canyon","0","{""ArrowUp,ArrowLeft"":26,""ArrowUp,ArrowRight"":10,""ArrowDown,ArrowLeft"":5,""ArrowDown,ArrowRight"":17}","true","spaceBar","true","","","original","1","16","","",""
"html-keyboard-response","136","946537","0.0-4.0-2.0-1.8","spark_pilot_2","7776","5","8","Female","","","","","","","null","<div style=""font-size:60px;"">+</div>","null","fixation","","","","","","","","","","","17","","",""
"revaluation","137","952544","0.0-4.0-2.0-0.9","spark_pilot_2","7776","5","8","Female","","","false","","","","[1106.3999998569489,595.5]","./assets/img/canyon/memory/38.jpg","[""ArrowUp"",""ArrowRight""]","value training","canyon","10","{""ArrowUp,ArrowLeft"":26,""ArrowUp,ArrowRight"":10,""ArrowDown,ArrowLeft"":5,""ArrowDown,ArrowRight"":17}","false","ArrowUp,ArrowRight","false","","","original","1","18","","",""
"html-keyboard-response","138","953045","0.0-4.0-2.0-1.9","spark_pilot_2","7776","5","8","Female","","","","","","","null","<div style=""font-size:60px;"">+</div>","null","fixation","","","","","","","","","","","19","","",""
"revaluation","139","959052","0.0-4.0-2.0-0.10","spark_pilot_2","7776","5","8","Female","","","false","","","","[635.2000000476837,682.7000000476837]","./assets/img/canyon/memory/19.jpg","[""ArrowDown"",""ArrowLeft""]","value training","canyon","5","{""ArrowUp,ArrowLeft"":26,""ArrowUp,ArrowRight"":10,""ArrowDown,ArrowLeft"":5,""ArrowDown,ArrowRight"":17}","false","ArrowDown,ArrowLeft","false","","","original","1","20","","",""
"html-keyboard-response","140","959553","0.0-4.0-2.0-1.10","spark_pilot_2","7776","5","8","Female","","","","","","","null","<div style=""font-size:60px;"">+</div>","null","fixation","","","","","","","","","","","21","","",""
"revaluation","141","965559","0.0-4.0-2.0-0.11","spark_pilot_2","7776","5","8","Female","","","false","","","","[1067.2999999523163,636.5]","./assets/img/canyon/memory/38.jpg","[""ArrowDown"",""ArrowRight""]","value training","canyon","17","{""ArrowUp,ArrowLeft"":26,""ArrowUp,ArrowRight"":10,""ArrowDown,ArrowLeft"":5,""ArrowDown,ArrowRight"":17}","false","ArrowDown,ArrowRight","false","","","original","1","22","","",""
"html-keyboard-response","142","966060","0.0-4.0-2.0-1.11","spark_pilot_2","7776","5","8","Female","","","","","","","null","<div style=""font-size:60px;"">+</div>","null","fixation","","","","","","","","","","","23","","",""
"revaluation","143","972065","0.0-4.0-2.0-0.12","spark_pilot_2","7776","5","8","Female","","","false","","","","[661.3999998569489,471.60000014305115]","./assets/img/canyon/memory/34.jpg","[""ArrowUp"",""ArrowRight""]","value training","canyon","10","{""ArrowUp,ArrowLeft"":26,""ArrowUp,ArrowRight"":10,""ArrowDown,ArrowLeft"":5,""ArrowDown,ArrowRight"":17}","false","ArrowUp,ArrowRight","false","","","original","1","24","","",""
"html-keyboard-response","144","972567","0.0-4.0-2.0-1.12","spark_pilot_2","7776","5","8","Female","","","","","","","null","<div style=""font-size:60px;"">+</div>","null","fixation","","","","","","","","","","","25","","",""
"revaluation","145","978573","0.0-4.0-2.0-0.13","spark_pilot_2","7776","5","8","Female","","","false","","","","[865,646.2999999523163]","./assets/img/canyon/memory/12.jpg","[""ArrowUp"",""ArrowLeft""]","value training","canyon","26","{""ArrowUp,ArrowLeft"":26,""ArrowUp,ArrowRight"":10,""ArrowDown,ArrowLeft"":5,""ArrowDown,ArrowRight"":17}","true","ArrowUp,ArrowLeft","false","","","original","1","26","","",""
"html-keyboard-response","146","979075","0.0-4.0-2.0-1.13","spark_pilot_2","7776","5","8","Female","","","","","","","null","<div style=""font-size:60px;"">+</div>","null","fixation","","","","","","","","","","","27","","",""
"revaluation","147","985080","0.0-4.0-2.0-0.14","spark_pilot_2","7776","5","8","Female","","","false","","","","[746.7999999523163,593.6000001430511]","./assets/img/canyon/memory/7.jpg","[""ArrowUp"",""ArrowLeft""]","value training","canyon","26","{""ArrowUp,ArrowLeft"":26,""ArrowUp,ArrowRight"":10,""ArrowDown,ArrowLeft"":5,""ArrowDown,ArrowRight"":17}","true","ArrowUp,ArrowLeft","false","","","original","1","28","","",""
"html-keyboard-response","148","985582","0.0-4.0-2.0-1.14","spark_pilot_2","7776","5","8","Female","","","","","","","null","<div style=""font-size:60px;"">+</div>","null","fixation","","","","","","","","","","","29","","",""
"revaluation","149","991589","0.0-4.0-2.0-0.15","spark_pilot_2","7776","5","8","Female","","","false","","","","[709.2000000476837,602.4000000953674]","./assets/img/canyon/memory/11.jpg","[""ArrowUp"",""ArrowLeft""]","value training","canyon","26","{""ArrowUp,ArrowLeft"":26,""ArrowUp,ArrowRight"":10,""ArrowDown,ArrowLeft"":5,""ArrowDown,ArrowRight"":17}","true","ArrowUp,ArrowLeft","false","","","original","1","30","","",""
"html-keyboard-response","150","992091","0.0-4.0-2.0-1.15","spark_pilot_2","7776","5","8","Female","","","","","","","null","<div style=""font-size:60px;"">+</div>","null","fixation","","","","","","","","","","","31","","",""
"revaluation","151","998099","0.0-4.0-2.0-0.16","spark_pilot_2","7776","5","8","Female","","","false","","","","[669.5999999046326,462.19999980926514]","./assets/img/canyon/memory/36.jpg","[""ArrowUp"",""ArrowLeft""]","value training","canyon","26","{""ArrowUp,ArrowLeft"":26,""ArrowUp,ArrowRight"":10,""ArrowDown,ArrowLeft"":5,""ArrowDown,ArrowRight"":17}","true","ArrowUp,ArrowLeft","false","","","original","1","32","","",""
"html-keyboard-response","152","998601","0.0-4.0-2.0-1.16","spark_pilot_2","7776","5","8","Female","","","","","","","null","<div style=""font-size:60px;"">+</div>","null","fixation","","","","","","","","","","","33","","",""
"revaluation","153","1004607","0.0-4.0-2.0-0.17","spark_pilot_2","7776","5","8","Female","","","false","","","","[685.0999999046326,705]","./assets/img/canyon/memory/9.jpg","[""ArrowUp"",""ArrowLeft""]","value training","canyon","26","{""ArrowUp,ArrowLeft"":26,""ArrowUp,ArrowRight"":10,""ArrowDown,ArrowLeft"":5,""ArrowDown,ArrowRight"":17}","true","ArrowUp,ArrowLeft","false","","","original","1","34","","",""
"html-keyboard-response","154","1005108","0.0-4.0-2.0-1.17","spark_pilot_2","7776","5","8","Female","","","","","","","null","<div style=""font-size:60px;"">+</div>","null","fixation","","","","","","","","","","","35","","",""
"revaluation","155","1011114","0.0-4.0-2.0-0.18","spark_pilot_2","7776","5","8","Female","","","false","","","","[669.2999999523163,741.2999999523163]","./assets/img/canyon/memory/39.jpg","[""ArrowUp"",""ArrowLeft""]","value training","canyon","26","{""ArrowUp,ArrowLeft"":26,""ArrowUp,ArrowRight"":10,""ArrowDown,ArrowLeft"":5,""ArrowDown,ArrowRight"":17}","true","ArrowUp,ArrowLeft","false","","","original","1","36","","",""
"html-keyboard-response","156","1011615","0.0-4.0-2.0-1.18","spark_pilot_2","7776","5","8","Female","","","","","","","null","<div style=""font-size:60px;"">+</div>","null","fixation","","","","","","","","","","","37","","",""
"revaluation","157","1017621","0.0-4.0-2.0-0.19","spark_pilot_2","7776","5","8","Female","","","false","","","","[818.2999999523163,550.4000000953674]","./assets/img/canyon/memory/29.jpg","[""ArrowUp"",""ArrowLeft""]","value training","canyon","26","{""ArrowUp,ArrowLeft"":26,""ArrowUp,ArrowRight"":10,""ArrowDown,ArrowLeft"":5,""ArrowDown,ArrowRight"":17}","true","ArrowUp,ArrowLeft","false","","","original","1","38","","",""
"html-keyboard-response","158","1018123","0.0-4.0-2.0-1.19","spark_pilot_2","7776","5","8","Female","","","","","","","null","<div style=""font-size:60px;"">+</div>","null","fixation","","","","","","","","","","","39","","",""
"revaluation","159","1022129","0.0-4.0-2.0-0.20","spark_pilot_2","7776","5","8","Female","","","false","","","","[986]","./assets/img/canyon/catch/5.jpg","[""spaceBar""]","value training","canyon","0","{""ArrowUp,ArrowLeft"":26,""ArrowUp,ArrowRight"":10,""ArrowDown,ArrowLeft"":5,""ArrowDown,ArrowRight"":17}","true","spaceBar","true","","","original","1","40","","",""
"html-keyboard-response","160","1022630","0.0-4.0-2.0-1.20","spark_pilot_2","7776","5","8","Female","","","","","","","null","<div style=""font-size:60px;"">+</div>","null","fixation","","","","","","","","","","","41","","",""
"revaluation","161","1028637","0.0-4.0-2.0-0.21","spark_pilot_2","7776","5","8","Female","","","false","","","","[747.8000001907349,412.39999985694885]","./assets/img/canyon/memory/3.jpg","[""ArrowUp"",""ArrowLeft""]","value training","canyon","26","{""ArrowUp,ArrowLeft"":26,""ArrowUp,ArrowRight"":10,""ArrowDown,ArrowLeft"":5,""ArrowDown,ArrowRight"":17}","true","ArrowUp,ArrowLeft","false","","","original","1","42","","",""
"html-keyboard-response","162","1029138","0.0-4.0-2.0-1.21","spark_pilot_2","7776","5","8","Female","","","","","","","null","<div style=""font-size:60px;"">+</div>","null","fixation","","","","","","","","","","","43","","",""
"revaluation","163","1035144","0.0-4.0-2.0-0.22","spark_pilot_2","7776","5","8","Female","","","false","","","","[865.0999999046326,565.9000000953674]","./assets/img/canyon/memory/1.jpg","[""ArrowUp"",""ArrowLeft""]","value training","canyon","26","{""ArrowUp,ArrowLeft"":26,""ArrowUp,ArrowRight"":10,""ArrowDown,ArrowLeft"":5,""ArrowDown,ArrowRight"":17}","true","ArrowUp,ArrowLeft","false","","","original","1","44","","",""
"html-keyboard-response","164","1035646","0.0-4.0-2.0-1.22","spark_pilot_2","7776","5","8","Female","","","","","","","null","<div style=""font-size:60px;"">+</div>","null","fixation","","","","","","","","","","","45","","",""
"revaluation","165","1041653","0.0-4.0-2.0-0.23","spark_pilot_2","7776","5","8","Female","","","false","","","","[619.2000000476837,519.3999998569489]","./assets/img/canyon/memory/20.jpg","[""ArrowUp"",""ArrowLeft""]","value training","canyon","26","{""ArrowUp,ArrowLeft"":26,""ArrowUp,ArrowRight"":10,""ArrowDown,ArrowLeft"":5,""ArrowDown,ArrowRight"":17}","true","ArrowUp,ArrowLeft","false","","","original","1","46","","",""
"html-keyboard-response","166","1042155","0.0-4.0-2.0-1.23","spark_pilot_2","7776","5","8","Female","","","","","","","null","<div style=""font-size:60px;"">+</div>","null","fixation","","","","","","","","","","","47","","",""
"revaluation","167","1048161","0.0-4.0-2.0-0.24","spark_pilot_2","7776","5","8","Female","","","false","","","","[559.9000000953674,434.69999980926514]","./assets/img/canyon/memory/17.jpg","[""ArrowUp"",""ArrowLeft""]","value training","canyon","26","{""ArrowUp,ArrowLeft"":26,""ArrowUp,ArrowRight"":10,""ArrowDown,ArrowLeft"":5,""ArrowDown,ArrowRight"":17}","true","ArrowUp,ArrowLeft","false","","","original","1","48","","",""
"html-keyboard-response","168","1048662","0.0-4.0-2.0-1.24","spark_pilot_2","7776","5","8","Female","","","","","","","null","<div style=""font-size:60px;"">+</div>","null","fixation","","","","","","","","","","","49","","",""
"revaluation","169","1054669","0.0-4.0-2.0-0.25","spark_pilot_2","7776","5","8","Female","","","false","","","","[528.8999998569489,490.09999990463257]","./assets/img/canyon/memory/3.jpg","[""ArrowUp"",""ArrowLeft""]","value training","canyon","26","{""ArrowUp,ArrowLeft"":26,""ArrowUp,ArrowRight"":10,""ArrowDown,ArrowLeft"":5,""ArrowDown,ArrowRight"":17}","true","ArrowUp,ArrowLeft","false","","","original","1","50","","",""
"html-keyboard-response","170","1055170","0.0-4.0-2.0-1.25","spark_pilot_2","7776","5","8","Female","","","","","","","null","<div style=""font-size:60px;"">+</div>","null","fixation","","","","","","","","","","","51","","",""
"revaluation","171","1061177","0.0-4.0-2.0-0.26","spark_pilot_2","7776","5","8","Female","","","false","","","","[138.69999980926514,435]","./assets/img/canyon/memory/36.jpg","[""ArrowUp"",""ArrowLeft""]","value training","canyon","26","{""ArrowUp,ArrowLeft"":26,""ArrowUp,ArrowRight"":10,""ArrowDown,ArrowLeft"":5,""ArrowDown,ArrowRight"":17}","true","ArrowUp,ArrowLeft","false","","","original","1","52","","",""
"html-keyboard-response","172","1061678","0.0-4.0-2.0-1.26","spark_pilot_2","7776","5","8","Female","","","","","","","null","<div style=""font-size:60px;"">+</div>","null","fixation","","","","","","","","","","","53","","",""
"revaluation","173","1065685","0.0-4.0-2.0-0.27","spark_pilot_2","7776","5","8","Female","","","false","","","","[902]","./assets/img/canyon/catch/3.jpg","[""spaceBar""]","value training","canyon","0","{""ArrowUp,ArrowLeft"":26,""ArrowUp,ArrowRight"":10,""ArrowDown,ArrowLeft"":5,""ArrowDown,ArrowRight"":17}","true","spaceBar","true","","","original","1","54","","",""
"html-keyboard-response","174","1066188","0.0-4.0-2.0-1.27","spark_pilot_2","7776","5","8","Female","","","","","","","null","<div style=""font-size:60px;"">+</div>","null","fixation","","","","","","","","","","","55","","",""
"revaluation","175","1072192","0.0-4.0-2.0-0.28","spark_pilot_2","7776","5","8","Female","","","false","","","","[678.7999999523163,485.60000014305115]","./assets/img/canyon/memory/7.jpg","[""ArrowUp"",""ArrowLeft""]","value training","canyon","26","{""ArrowUp,ArrowLeft"":26,""ArrowUp,ArrowRight"":10,""ArrowDown,ArrowLeft"":5,""ArrowDown,ArrowRight"":17}","true","ArrowUp,ArrowLeft","false","","","original","1","56","","",""
"html-keyboard-response","176","1072694","0.0-4.0-2.0-1.28","spark_pilot_2","7776","5","8","Female","","","","","","","null","<div style=""font-size:60px;"">+</div>","null","fixation","","","","","","","","","","","57","","",""
"revaluation","177","1078701","0.0-4.0-2.0-0.29","spark_pilot_2","7776","5","8","Female","","","false","","","","[239.5,574]","./assets/img/canyon/memory/22.jpg","[""ArrowUp"",""ArrowLeft""]","value training","canyon","26","{""ArrowUp,ArrowLeft"":26,""ArrowUp,ArrowRight"":10,""ArrowDown,ArrowLeft"":5,""ArrowDown,ArrowRight"":17}","true","ArrowUp,ArrowLeft","false","","","original","1","58","","",""
"html-keyboard-response","178","1079203","0.0-4.0-2.0-1.29","spark_pilot_2","7776","5","8","Female","","","","","","","null","<div style=""font-size:60px;"">+</div>","null","fixation","","","","","","","","","","","59","","",""
"revaluation","179","1085208","0.0-4.0-2.0-0.30","spark_pilot_2","7776","5","8","Female","","","false","","","","[1132.2999999523163,723.4000000953674]","./assets/img/canyon/memory/20.jpg","[""ArrowUp"",""ArrowLeft""]","value training","canyon","26","{""ArrowUp,ArrowLeft"":26,""ArrowUp,ArrowRight"":10,""ArrowDown,ArrowLeft"":5,""ArrowDown,ArrowRight"":17}","true","ArrowUp,ArrowLeft","false","","","original","1","60","","",""
"html-keyboard-response","180","1085709","0.0-4.0-2.0-1.30","spark_pilot_2","7776","5","8","Female","","","","","","","null","<div style=""font-size:60px;"">+</div>","null","fixation","","","","","","","","","","","61","","",""
"revaluation","181","1089715","0.0-4.0-2.0-0.31","spark_pilot_2","7776","5","8","Female","","","false","","","","[996.7000000476837]","./assets/img/canyon/catch/0.jpg","[""spaceBar""]","value training","canyon","0","{""ArrowUp,ArrowLeft"":26,""ArrowUp,ArrowRight"":10,""ArrowDown,ArrowLeft"":5,""ArrowDown,ArrowRight"":17}","true","spaceBar","true","","","original","1","62","","",""
"html-keyboard-response","182","1090217","0.0-4.0-2.0-1.31","spark_pilot_2","7776","5","8","Female","","","","","","","null","<div style=""font-size:60px;"">+</div>","null","fixation","","","","","","","","","","","63","","",""
"revaluation","183","1096223","0.0-4.0-2.0-0.32","spark_pilot_2","7776","5","8","Female","","","false","","","","[1053.6999998092651,411.60000014305115]","./assets/img/canyon/memory/31.jpg","[""ArrowUp"",""ArrowLeft""]","value training","canyon","26","{""ArrowUp,ArrowLeft"":26,""ArrowUp,ArrowRight"":10,""ArrowDown,ArrowLeft"":5,""ArrowDown,ArrowRight"":17}","true","ArrowUp,ArrowLeft","false","","","original","1","64","","",""
"html-keyboard-response","184","1096725","0.0-4.0-2.0-1.32","spark_pilot_2","7776","5","8","Female","","","","","","","null","<div style=""font-size:60px;"">+</div>","null","fixation","","","","","","","","","","","65","","",""
"revaluation","185","1102731","0.0-4.0-2.0-0.33","spark_pilot_2","7776","5","8","Female","","","false","","","","[782.2999999523163,795.2000000476837]","./assets/img/canyon/memory/9.jpg","[""ArrowUp"",""ArrowLeft""]","value training","canyon","26","{""ArrowUp,ArrowLeft"":26,""ArrowUp,ArrowRight"":10,""ArrowDown,ArrowLeft"":5,""ArrowDown,ArrowRight"":17}","true","ArrowUp,ArrowLeft","false","","","original","1","66","","",""
"html-keyboard-response","186","1103233","0.0-4.0-2.0-1.33","spark_pilot_2","7776","5","8","Female","","","","","","","null","<div style=""font-size:60px;"">+</div>","null","fixation","","","","","","","","","","","67","","",""
"revaluation","187","1109241","0.0-4.0-2.0-0.34","spark_pilot_2","7776","5","8","Female","","","false","","","","[697.1000001430511,632.2000000476837]","./assets/img/canyon/memory/11.jpg","[""ArrowUp"",""ArrowLeft""]","value training","canyon","26","{""ArrowUp,ArrowLeft"":26,""ArrowUp,ArrowRight"":10,""ArrowDown,ArrowLeft"":5,""ArrowDown,ArrowRight"":17}","true","ArrowUp,ArrowLeft","false","","","original","1","68","","",""
"html-keyboard-response","188","1109742","0.0-4.0-2.0-1.34","spark_pilot_2","7776","5","8","Female","","","","","","","null","<div style=""font-size:60px;"">+</div>","null","fixation","","","","","","","","","","","69","","",""
"revaluation","189","1115748","0.0-4.0-2.0-0.35","spark_pilot_2","7776","5","8","Female","","","false","","","","[617.7000000476837,757.5999999046326]","./assets/img/canyon/memory/23.jpg","[""ArrowUp"",""ArrowLeft""]","value training","canyon","26","{""ArrowUp,ArrowLeft"":26,""ArrowUp,ArrowRight"":10,""ArrowDown,ArrowLeft"":5,""ArrowDown,ArrowRight"":17}","true","ArrowUp,ArrowLeft","false","","","original","1","70","","",""
"html-keyboard-response","190","1116249","0.0-4.0-2.0-1.35","spark_pilot_2","7776","5","8","Female","","","","","","","null","<div style=""font-size:60px;"">+</div>","null","fixation","","","","","","","","","","","71","","",""
"revaluation","191","1120254","0.0-4.0-2.0-0.36","spark_pilot_2","7776","5","8","Female","","","false","","","","[610.3000001907349]","./assets/img/canyon/catch/2.jpg","[""ArrowUp""]","value training","canyon","-10","{""ArrowUp,ArrowLeft"":26,""ArrowUp,ArrowRight"":10,""ArrowDown,ArrowLeft"":5,""ArrowDown,ArrowRight"":17}","false","ArrowUp","true","","","original","1","72","","",""
"html-keyboard-response","192","1120755","0.0-4.0-2.0-1.36","spark_pilot_2","7776","5","8","Female","","","","","","","null","<div style=""font-size:60px;"">+</div>","null","fixation","","","","","","","","","","","73","","",""
"revaluation","193","1126768","0.0-4.0-2.0-0.37","spark_pilot_2","7776","5","8","Female","","","false","","","","[1106.1999998092651,356.59999990463257]","./assets/img/canyon/memory/5.jpg","[""ArrowUp"",""ArrowLeft""]","value training","canyon","26","{""ArrowUp,ArrowLeft"":26,""ArrowUp,ArrowRight"":10,""ArrowDown,ArrowLeft"":5,""ArrowDown,ArrowRight"":17}","true","ArrowUp,ArrowLeft","false","","","original","1","74","","",""
"html-keyboard-response","194","1127270","0.0-4.0-2.0-1.37","spark_pilot_2","7776","5","8","Female","","","","","","","null","<div style=""font-size:60px;"">+</div>","null","fixation","","","","","","","","","","","75","","",""
"revaluation","195","1133277","0.0-4.0-2.0-0.38","spark_pilot_2","7776","5","8","Female","","","false","","","","[1182.7000000476837,759]","./assets/img/canyon/memory/4.jpg","[""ArrowUp"",""ArrowLeft""]","value training","canyon","26","{""ArrowUp,ArrowLeft"":26,""ArrowUp,ArrowRight"":10,""ArrowDown,ArrowLeft"":5,""ArrowDown,ArrowRight"":17}","true","ArrowUp,ArrowLeft","false","","","original","1","76","","",""
"html-keyboard-response","196","1133779","0.0-4.0-2.0-1.38","spark_pilot_2","7776","5","8","Female","","","","","","","null","<div style=""font-size:60px;"">+</div>","null","fixation","","","","","","","","","","","77","","",""
"revaluation","197","1137784","0.0-4.0-2.0-0.39","spark_pilot_2","7776","5","8","Female","","","true","","","","[]","./assets/img/canyon/memory/0.jpg","[]","value training","canyon","-5","{""ArrowUp,ArrowLeft"":26,""ArrowUp,ArrowRight"":10,""ArrowDown,ArrowLeft"":5,""ArrowDown,ArrowRight"":17}","false","","false","","","original","1","78","","",""
"html-keyboard-response","198","1138285","0.0-4.0-2.0-1.39","spark_pilot_2","7776","5","8","Female","","","","","","","null","<div style=""font-size:60px;"">+</div>","null","fixation","","","","","","","","","","","79","","",""
"revaluation","199","1144291","0.0-4.0-2.0-0.40","spark_pilot_2","7776","5","8","Female","","","false","","","","[704.7000000476837,662.8000001907349]","./assets/img/canyon/memory/19.jpg","[""ArrowUp"",""ArrowLeft""]","value training","canyon","26","{""ArrowUp,ArrowLeft"":26,""ArrowUp,ArrowRight"":10,""ArrowDown,ArrowLeft"":5,""ArrowDown,ArrowRight"":17}","true","ArrowUp,ArrowLeft","false","","","original","1","80","","",""
"html-keyboard-response","200","1144792","0.0-4.0-2.0-1.40","spark_pilot_2","7776","5","8","Female","","","","","","","null","<div style=""font-size:60px;"">+</div>","null","fixation","","","","","","","","","","","81","","",""
"revaluation","201","1148798","0.0-4.0-2.0-0.41","spark_pilot_2","7776","5","8","Female","","","false","","","","[891.3000001907349]","./assets/img/canyon/catch/4.jpg","[""spaceBar""]","value training","canyon","0","{""ArrowUp,ArrowLeft"":26,""ArrowUp,ArrowRight"":10,""ArrowDown,ArrowLeft"":5,""ArrowDown,ArrowRight"":17}","true","spaceBar","true","","","original","1","82","","",""
"html-keyboard-response","202","1149299","0.0-4.0-2.0-1.41","spark_pilot_2","7776","5","8","Female","","","","","","","null","<div style=""font-size:60px;"">+</div>","null","fixation","","","","","","","","","","","83","","",""
"revaluation","203","1153304","0.0-4.0-2.0-0.42","spark_pilot_2","7776","5","8","Female","","","false","","","","[716.2999999523163]","./assets/img/canyon/catch/6.jpg","[""spaceBar""]","value training","canyon","0","{""ArrowUp,ArrowLeft"":26,""ArrowUp,ArrowRight"":10,""ArrowDown,ArrowLeft"":5,""ArrowDown,ArrowRight"":17}","true","spaceBar","true","","","original","1","84","","",""
"html-keyboard-response","204","1153807","0.0-4.0-2.0-1.42","spark_pilot_2","7776","5","8","Female","","","","","","","null","<div style=""font-size:60px;"">+</div>","null","fixation","","","","","","","","","","","85","","",""
"revaluation","205","1159813","0.0-4.0-2.0-0.43","spark_pilot_2","7776","5","8","Female","","","false","","","","[1010.7000000476837,533.7999999523163]","./assets/img/canyon/memory/22.jpg","[""ArrowUp"",""ArrowLeft""]","value training","canyon","26","{""ArrowUp,ArrowLeft"":26,""ArrowUp,ArrowRight"":10,""ArrowDown,ArrowLeft"":5,""ArrowDown,ArrowRight"":17}","true","ArrowUp,ArrowLeft","false","","","original","1","86","","",""
"html-keyboard-response","206","1160315","0.0-4.0-2.0-1.43","spark_pilot_2","7776","5","8","Female","","","","","","","null","<div style=""font-size:60px;"">+</div>","null","fixation","","","","","","","","","","","87","","",""
"revaluation","207","1166321","0.0-4.0-2.0-0.44","spark_pilot_2","7776","5","8","Female","","","false","","","","[948.8000001907349,620]","./assets/img/canyon/memory/39.jpg","[""ArrowUp"",""ArrowLeft""]","value training","canyon","26","{""ArrowUp,ArrowLeft"":26,""ArrowUp,ArrowRight"":10,""ArrowDown,ArrowLeft"":5,""ArrowDown,ArrowRight"":17}","true","ArrowUp,ArrowLeft","false","","","original","1","88","","",""
"html-keyboard-response","208","1166822","0.0-4.0-2.0-1.44","spark_pilot_2","7776","5","8","Female","","","","","","","null","<div style=""font-size:60px;"">+</div>","null","fixation","","","","","","","","","","","89","","",""
"revaluation","209","1172829","0.0-4.0-2.0-0.45","spark_pilot_2","7776","5","8","Female","","","false","","","","[664.0999999046326,402.7000000476837]","./assets/img/canyon/memory/4.jpg","[""ArrowUp"",""ArrowLeft""]","value training","canyon","26","{""ArrowUp,ArrowLeft"":26,""ArrowUp,ArrowRight"":10,""ArrowDown,ArrowLeft"":5,""ArrowDown,ArrowRight"":17}","true","ArrowUp,ArrowLeft","false","","","original","1","90","","",""
"html-keyboard-response","210","1173331","0.0-4.0-2.0-1.45","spark_pilot_2","7776","5","8","Female","","","","","","","null","<div style=""font-size:60px;"">+</div>","null","fixation","","","","","","","","","","","91","","",""
"revaluation","211","1179337","0.0-4.0-2.0-0.46","spark_pilot_2","7776","5","8","Female","","","false","","","","[813,973.6999998092651]","./assets/img/canyon/memory/23.jpg","[""ArrowUp"",""ArrowLeft""]","value training","canyon","26","{""ArrowUp,ArrowLeft"":26,""ArrowUp,ArrowRight"":10,""ArrowDown,ArrowLeft"":5,""ArrowDown,ArrowRight"":17}","true","ArrowUp,ArrowLeft","false","","","original","1","92","","",""
"html-keyboard-response","212","1179839","0.0-4.0-2.0-1.46","spark_pilot_2","7776","5","8","Female","","","","","","","null","<div style=""font-size:60px;"">+</div>","null","fixation","","","","","","","","","","","93","","",""
"revaluation","213","1185844","0.0-4.0-2.0-0.47","spark_pilot_2","7776","5","8","Female","","","false","","","","[1020.6000001430511,1938.8000001907349]","./assets/img/canyon/memory/2.jpg","[""ArrowUp"",""ArrowLeft""]","value training","canyon","26","{""ArrowUp,ArrowLeft"":26,""ArrowUp,ArrowRight"":10,""ArrowDown,ArrowLeft"":5,""ArrowDown,ArrowRight"":17}","true","ArrowUp,ArrowLeft","false","","","original","1","94","","",""
"html-keyboard-response","214","1186346","0.0-4.0-2.0-1.47","spark_pilot_2","7776","5","8","Female","","","","","","","null","<div style=""font-size:60px;"">+</div>","null","fixation","","","","","","","","","","","95","","",""
"revaluation","215","1192353","0.0-4.0-2.0-0.48","spark_pilot_2","7776","5","8","Female","","","false","","","","[538.1000001430511,580.7999999523163]","./assets/img/canyon/memory/1.jpg","[""ArrowUp"",""ArrowLeft""]","value training","canyon","26","{""ArrowUp,ArrowLeft"":26,""ArrowUp,ArrowRight"":10,""ArrowDown,ArrowLeft"":5,""ArrowDown,ArrowRight"":17}","true","ArrowUp,ArrowLeft","false","","","original","1","96","","",""
"html-keyboard-response","216","1192854","0.0-4.0-2.0-1.48","spark_pilot_2","7776","5","8","Female","","","","","","","null","<div style=""font-size:60px;"">+</div>","null","fixation","","","","","","","","","","","97","","",""
"revaluation","217","1198860","0.0-4.0-2.0-0.49","spark_pilot_2","7776","5","8","Female","","","false","","","","[480.30000019073486,1080.9000000953674]","./assets/img/canyon/memory/2.jpg","[""ArrowUp"",""ArrowLeft""]","value training","canyon","26","{""ArrowUp,ArrowLeft"":26,""ArrowUp,ArrowRight"":10,""ArrowDown,ArrowLeft"":5,""ArrowDown,ArrowRight"":17}","true","ArrowUp,ArrowLeft","false","","","original","1","98","","",""
"html-keyboard-response","218","1199361","0.0-4.0-2.0-1.49","spark_pilot_2","7776","5","8","Female","","","","","","","null","<div style=""font-size:60px;"">+</div>","null","fixation","","","","","","","","","","","99","","",""
"learning-instructions","219","1215471","0.0-4.0-3.0-0.0","spark_pilot_2","7776","5","8","Female","","","","","","","2712","<p> Now, you will travel with a friend who will choose whether you go up or down first. </p>
            <p> On these turns, you will just see the animal that they found. You will still get to choose which chest to search for treasure.</p>","","instructions","","","","","","","","","","","","","",""
"revaluation","220","1219483","0.0-4.0-4.0-0.0","spark_pilot_2","7776","5","8","Female","","","false","","","","[875.5]","./assets/img/canyon/animals/lion.jpg","[""ArrowRight""]","revaluation","canyon","17","{""ArrowUp,ArrowLeft"":26,""ArrowUp,ArrowRight"":10,""ArrowDown,ArrowLeft"":5,""ArrowDown,ArrowRight"":17}","true","ArrowDown,ArrowRight","","","","original","1","0","","",""
"html-keyboard-response","221","1220001","0.0-4.0-4.0-1.0","spark_pilot_2","7776","5","8","Female","","","","","","","null","<div style=""font-size:60px;"">+</div>","null","fixation","","","","","","","","","","","1","","",""
"revaluation","222","1224022","0.0-4.0-4.0-0.1","spark_pilot_2","7776","5","8","Female","","","false","","","","[552.0999999046326]","./assets/img/canyon/animals/lion.jpg","[""ArrowLeft""]","revaluation","canyon","5","{""ArrowUp,ArrowLeft"":26,""ArrowUp,ArrowRight"":10,""ArrowDown,ArrowLeft"":5,""ArrowDown,ArrowRight"":17}","false","ArrowDown,ArrowLeft","","","","original","1","2","","",""
"html-keyboard-response","223","1224544","0.0-4.0-4.0-1.1","spark_pilot_2","7776","5","8","Female","","","","","","","null","<div style=""font-size:60px;"">+</div>","null","fixation","","","","","","","","","","","3","","",""
"revaluation","224","1228555","0.0-4.0-4.0-0.2","spark_pilot_2","7776","5","8","Female","","","false","","","","[852]","./assets/img/canyon/animals/lion.jpg","[""ArrowRight""]","revaluation","canyon","17","{""ArrowUp,ArrowLeft"":26,""ArrowUp,ArrowRight"":10,""ArrowDown,ArrowLeft"":5,""ArrowDown,ArrowRight"":17}","true","ArrowDown,ArrowRight","","","","original","1","4","","",""
"html-keyboard-response","225","1229057","0.0-4.0-4.0-1.2","spark_pilot_2","7776","5","8","Female","","","","","","","null","<div style=""font-size:60px;"">+</div>","null","fixation","","","","","","","","","","","5","","",""
"revaluation","226","1233078","0.0-4.0-4.0-0.3","spark_pilot_2","7776","5","8","Female","","","false","","","","[641.7000000476837]","./assets/img/canyon/animals/giraffe.jpg","[""ArrowRight""]","revaluation","canyon","10","{""ArrowUp,ArrowLeft"":26,""ArrowUp,ArrowRight"":10,""ArrowDown,ArrowLeft"":5,""ArrowDown,ArrowRight"":17}","false","ArrowUp,ArrowRight","","","","original","1","6","","",""
"html-keyboard-response","227","1233579","0.0-4.0-4.0-1.3","spark_pilot_2","7776","5","8","Female","","","","","","","null","<div style=""font-size:60px;"">+</div>","null","fixation","","","","","","","","","","","7","","",""
"revaluation","228","1237599","0.0-4.0-4.0-0.4","spark_pilot_2","7776","5","8","Female","","","false","","","","[1134.5999999046326]","./assets/img/canyon/animals/lion.jpg","[""ArrowRight""]","revaluation","canyon","17","{""ArrowUp,ArrowLeft"":26,""ArrowUp,ArrowRight"":10,""ArrowDown,ArrowLeft"":5,""ArrowDown,ArrowRight"":17}","true","ArrowDown,ArrowRight","","","","original","1","8","","",""
"html-keyboard-response","229","1238115","0.0-4.0-4.0-1.4","spark_pilot_2","7776","5","8","Female","","","","","","","null","<div style=""font-size:60px;"">+</div>","null","fixation","","","","","","","","","","","9","","",""
"revaluation","230","1242144","0.0-4.0-4.0-0.5","spark_pilot_2","7776","5","8","Female","","","false","","","","[906.7000000476837]","./assets/img/canyon/animals/giraffe.jpg","[""ArrowLeft""]","revaluation","canyon","26","{""ArrowUp,ArrowLeft"":26,""ArrowUp,ArrowRight"":10,""ArrowDown,ArrowLeft"":5,""ArrowDown,ArrowRight"":17}","true","ArrowUp,ArrowLeft","","","","original","1","10","","",""
"html-keyboard-response","231","1242667","0.0-4.0-4.0-1.5","spark_pilot_2","7776","5","8","Female","","","","","","","null","<div style=""font-size:60px;"">+</div>","null","fixation","","","","","","","","","","","11","","",""
"revaluation","232","1246672","0.0-4.0-4.0-0.6","spark_pilot_2","7776","5","8","Female","","","false","","","","[717.9000000953674]","./assets/img/canyon/animals/giraffe.jpg","[""ArrowLeft""]","revaluation","canyon","26","{""ArrowUp,ArrowLeft"":26,""ArrowUp,ArrowRight"":10,""ArrowDown,ArrowLeft"":5,""ArrowDown,ArrowRight"":17}","true","ArrowUp,ArrowLeft","","","","original","1","12","","",""
"html-keyboard-response","233","1247174","0.0-4.0-4.0-1.6","spark_pilot_2","7776","5","8","Female","","","","","","","null","<div style=""font-size:60px;"">+</div>","null","fixation","","","","","","","","","","","13","","",""
"revaluation","234","1251179","0.0-4.0-4.0-0.7","spark_pilot_2","7776","5","8","Female","","","false","","","","[483.7000000476837]","./assets/img/canyon/animals/lion.jpg","[""ArrowRight""]","revaluation","canyon","17","{""ArrowUp,ArrowLeft"":26,""ArrowUp,ArrowRight"":10,""ArrowDown,ArrowLeft"":5,""ArrowDown,ArrowRight"":17}","true","ArrowDown,ArrowRight","","","","original","1","14","","",""
"html-keyboard-response","235","1251680","0.0-4.0-4.0-1.7","spark_pilot_2","7776","5","8","Female","","","","","","","null","<div style=""font-size:60px;"">+</div>","null","fixation","","","","","","","","","","","15","","",""
"revaluation","236","1255685","0.0-4.0-4.0-0.8","spark_pilot_2","7776","5","8","Female","","","false","","","","[1336.7999999523163]","./assets/img/canyon/animals/giraffe.jpg","[""ArrowLeft""]","revaluation","canyon","26","{""ArrowUp,ArrowLeft"":26,""ArrowUp,ArrowRight"":10,""ArrowDown,ArrowLeft"":5,""ArrowDown,ArrowRight"":17}","true","ArrowUp,ArrowLeft","","","","original","1","16","","",""
"html-keyboard-response","237","1256187","0.0-4.0-4.0-1.8","spark_pilot_2","7776","5","8","Female","","","","","","","null","<div style=""font-size:60px;"">+</div>","null","fixation","","","","","","","","","","","17","","",""
"revaluation","238","1260192","0.0-4.0-4.0-0.9","spark_pilot_2","7776","5","8","Female","","","false","","","","[613.5]","./assets/img/canyon/animals/lion.jpg","[""ArrowRight""]","revaluation","canyon","17","{""ArrowUp,ArrowLeft"":26,""ArrowUp,ArrowRight"":10,""ArrowDown,ArrowLeft"":5,""ArrowDown,ArrowRight"":17}","true","ArrowDown,ArrowRight","","","","original","1","18","","",""
"html-keyboard-response","239","1260694","0.0-4.0-4.0-1.9","spark_pilot_2","7776","5","8","Female","","","","","","","null","<div style=""font-size:60px;"">+</div>","null","fixation","","","","","","","","","","","19","","",""
"revaluation","240","1264700","0.0-4.0-4.0-0.10","spark_pilot_2","7776","5","8","Female","","","false","","","","[670]","./assets/img/canyon/animals/giraffe.jpg","[""ArrowLeft""]","revaluation","canyon","26","{""ArrowUp,ArrowLeft"":26,""ArrowUp,ArrowRight"":10,""ArrowDown,ArrowLeft"":5,""ArrowDown,ArrowRight"":17}","true","ArrowUp,ArrowLeft","","","","original","1","20","","",""
"html-keyboard-response","241","1265202","0.0-4.0-4.0-1.10","spark_pilot_2","7776","5","8","Female","","","","","","","null","<div style=""font-size:60px;"">+</div>","null","fixation","","","","","","","","","","","21","","",""
"revaluation","242","1269207","0.0-4.0-4.0-0.11","spark_pilot_2","7776","5","8","Female","","","false","","","","[878.5]","./assets/img/canyon/animals/giraffe.jpg","[""ArrowLeft""]","revaluation","canyon","26","{""ArrowUp,ArrowLeft"":26,""ArrowUp,ArrowRight"":10,""ArrowDown,ArrowLeft"":5,""ArrowDown,ArrowRight"":17}","true","ArrowUp,ArrowLeft","","","","original","1","22","","",""
"html-keyboard-response","243","1269708","0.0-4.0-4.0-1.11","spark_pilot_2","7776","5","8","Female","","","","","","","null","<div style=""font-size:60px;"">+</div>","null","fixation","","","","","","","","","","","23","","",""
"revaluation","244","1273712","0.0-4.0-4.0-0.12","spark_pilot_2","7776","5","8","Female","","","false","","","","[1137.4000000953674]","./assets/img/canyon/animals/lion.jpg","[""ArrowRight""]","revaluation","canyon","17","{""ArrowUp,ArrowLeft"":26,""ArrowUp,ArrowRight"":10,""ArrowDown,ArrowLeft"":5,""ArrowDown,ArrowRight"":17}","true","ArrowDown,ArrowRight","","","","original","1","24","","",""
"html-keyboard-response","245","1274214","0.0-4.0-4.0-1.12","spark_pilot_2","7776","5","8","Female","","","","","","","null","<div style=""font-size:60px;"">+</div>","null","fixation","","","","","","","","","","","25","","",""
"revaluation","246","1278219","0.0-4.0-4.0-0.13","spark_pilot_2","7776","5","8","Female","","","false","","","","[1078.9000000953674]","./assets/img/canyon/animals/giraffe.jpg","[""ArrowLeft""]","revaluation","canyon","26","{""ArrowUp,ArrowLeft"":26,""ArrowUp,ArrowRight"":10,""ArrowDown,ArrowLeft"":5,""ArrowDown,ArrowRight"":17}","true","ArrowUp,ArrowLeft","","","","original","1","26","","",""
"html-keyboard-response","247","1278721","0.0-4.0-4.0-1.13","spark_pilot_2","7776","5","8","Female","","","","","","","null","<div style=""font-size:60px;"">+</div>","null","fixation","","","","","","","","","","","27","","",""
"revaluation","248","1282726","0.0-4.0-4.0-0.14","spark_pilot_2","7776","5","8","Female","","","false","","","","[903.2000000476837]","./assets/img/canyon/animals/giraffe.jpg","[""ArrowLeft""]","revaluation","canyon","26","{""ArrowUp,ArrowLeft"":26,""ArrowUp,ArrowRight"":10,""ArrowDown,ArrowLeft"":5,""ArrowDown,ArrowRight"":17}","true","ArrowUp,ArrowLeft","","","","original","1","28","","",""
"html-keyboard-response","249","1283227","0.0-4.0-4.0-1.14","spark_pilot_2","7776","5","8","Female","","","","","","","null","<div style=""font-size:60px;"">+</div>","null","fixation","","","","","","","","","","","29","","",""
"revaluation","250","1287232","0.0-4.0-4.0-0.15","spark_pilot_2","7776","5","8","Female","","","false","","","","[1026.2000000476837]","./assets/img/canyon/animals/lion.jpg","[""ArrowRight""]","revaluation","canyon","17","{""ArrowUp,ArrowLeft"":26,""ArrowUp,ArrowRight"":10,""ArrowDown,ArrowLeft"":5,""ArrowDown,ArrowRight"":17}","true","ArrowDown,ArrowRight","","","","original","1","30","","",""
"html-keyboard-response","251","1287734","0.0-4.0-4.0-1.15","spark_pilot_2","7776","5","8","Female","","","","","","","null","<div style=""font-size:60px;"">+</div>","null","fixation","","","","","","","","","","","31","","",""
"revaluation","252","1291739","0.0-4.0-4.0-0.16","spark_pilot_2","7776","5","8","Female","","","false","","","","[1405.8999998569489]","./assets/img/canyon/animals/giraffe.jpg","[""ArrowRight""]","revaluation","canyon","10","{""ArrowUp,ArrowLeft"":26,""ArrowUp,ArrowRight"":10,""ArrowDown,ArrowLeft"":5,""ArrowDown,ArrowRight"":17}","false","ArrowUp,ArrowRight","","","","original","1","32","","",""
"html-keyboard-response","253","1292240","0.0-4.0-4.0-1.16","spark_pilot_2","7776","5","8","Female","","","","","","","null","<div style=""font-size:60px;"">+</div>","null","fixation","","","","","","","","","","","33","","",""
"revaluation","254","1296245","0.0-4.0-4.0-0.17","spark_pilot_2","7776","5","8","Female","","","false","","","","[1079.2000000476837]","./assets/img/canyon/animals/lion.jpg","[""ArrowRight""]","revaluation","canyon","17","{""ArrowUp,ArrowLeft"":26,""ArrowUp,ArrowRight"":10,""ArrowDown,ArrowLeft"":5,""ArrowDown,ArrowRight"":17}","true","ArrowDown,ArrowRight","","","","original","1","34","","",""
"html-keyboard-response","255","1296747","0.0-4.0-4.0-1.17","spark_pilot_2","7776","5","8","Female","","","","","","","null","<div style=""font-size:60px;"">+</div>","null","fixation","","","","","","","","","","","35","","",""
"learning-instructions","256","1315537","0.0-4.0-5.0-0.0","spark_pilot_2","7776","5","8","Female","","","","","","","5942.200000047684","<p> Time to play the dot game! </p>
            <p> For one minute, click the red dots on the following screen as they appear. </p>
            <p><b> Don't look away, as you will earn bonus for clicking dots</b>. </p>","","instructions","","","","","","","","","","","","","",""
"revaluation","257","1375539","0.0-4.0-6.0-0.0","spark_pilot_2","7776","5","8","Female","","","","","","","[301,174,162,188,214,172]","","","rest","","60","","","","","0","60000","","","","","",""
"learning-instructions","258","1385686","0.0-4.0-7.0-0.0","spark_pilot_2","7776","5","8","Female","","","","","","","3523.5","<p> You have almost finished this part of the game! </p>
            <p> We are going to ask you to make a few more choices. </p>","","instructions","","","","","","","","","","","","","",""
"learning-instructions","259","1401573","0.0-4.0-7.0-0.1","spark_pilot_2","7776","5","8","Female","","","","","","","1928.5","<p> First, you need to decide whether to go up or down. When you see each picture, use the arrow keys to make your choice. </p>
            <p><b>You will not see which animal you found, but try to get to the one that will give you the most treasure.</b></p>","","instructions","","","","","","","","","","","","","",""
"revaluation","260","1403347","0.0-4.0-8.0-0.0","spark_pilot_2","7776","5","8","Female","","","false","","","","[1771.2000000476837]","./assets/img/canyon/test/3.jpg","[""ArrowUp""]","first stage test","canyon","0","{""ArrowUp,ArrowLeft"":26,""ArrowUp,ArrowRight"":10,""ArrowDown,ArrowLeft"":5,""ArrowDown,ArrowRight"":17}","true","ArrowUp","false","","","original","1","","","",""
"html-keyboard-response","261","1403868","0.0-4.0-8.0-1.0","spark_pilot_2","7776","5","8","Female","","","","","","","null","<div style=""font-size:60px;"">+</div>","null","fixation","","","","","","","","","","","","","",""
"revaluation","262","1405556","0.0-4.0-8.0-0.1","spark_pilot_2","7776","5","8","Female","","","false","","","","[1684.2999999523163]","./assets/img/canyon/test/0.jpg","[""ArrowUp""]","first stage test","canyon","0","{""ArrowUp,ArrowLeft"":26,""ArrowUp,ArrowRight"":10,""ArrowDown,ArrowLeft"":5,""ArrowDown,ArrowRight"":17}","true","ArrowUp","false","","","original","1","","","",""
"html-keyboard-response","263","1406075","0.0-4.0-8.0-1.1","spark_pilot_2","7776","5","8","Female","","","","","","","null","<div style=""font-size:60px;"">+</div>","null","fixation","","","","","","","","","","","","","",""
"revaluation","264","1406924","0.0-4.0-8.0-0.2","spark_pilot_2","7776","5","8","Female","","","false","","","","[845.4000000953674]","./assets/img/canyon/test/1.jpg","[""ArrowUp""]","first stage test","canyon","0","{""ArrowUp,ArrowLeft"":26,""ArrowUp,ArrowRight"":10,""ArrowDown,ArrowLeft"":5,""ArrowDown,ArrowRight"":17}","true","ArrowUp","false","","","original","1","","","",""
"html-keyboard-response","265","1407431","0.0-4.0-8.0-1.2","spark_pilot_2","7776","5","8","Female","","","","","","","null","<div style=""font-size:60px;"">+</div>","null","fixation","","","","","","","","","","","","","",""
"revaluation","266","1408206","0.0-4.0-8.0-0.3","spark_pilot_2","7776","5","8","Female","","","false","","","","[771.7000000476837]","./assets/img/canyon/test/2.jpg","[""ArrowUp""]","first stage test","canyon","0","{""ArrowUp,ArrowLeft"":26,""ArrowUp,ArrowRight"":10,""ArrowDown,ArrowLeft"":5,""ArrowDown,ArrowRight"":17}","true","ArrowUp","false","","","original","1","","","",""
"html-keyboard-response","267","1408711","0.0-4.0-8.0-1.3","spark_pilot_2","7776","5","8","Female","","","","","","","null","<div style=""font-size:60px;"">+</div>","null","fixation","","","","","","","","","","","","","",""
"learning-instructions","268","1422142","0.0-4.0-9.0-0.0","spark_pilot_2","7776","5","8","Female","","","","","","","2091.600000143051","<p> Now you will see the animals again and can search their chests for treasure. </p>
            <p> This time, you will not see how much treasure you earned, but you will earn more bonus money for making better choices. </p>","","instructions","","","","","","","","","","","","","",""
"revaluation","269","1423322","0.0-4.0-10.0-0.0","spark_pilot_2","7776","5","8","Female","","","false","","","","[1177.7999999523163]","./assets/img/canyon/animals/giraffe.jpg","[""ArrowLeft""]","second stage test","canyon","0","{""ArrowUp,ArrowLeft"":26,""ArrowUp,ArrowRight"":10,""ArrowDown,ArrowLeft"":5,""ArrowDown,ArrowRight"":17}","true","ArrowUp,ArrowLeft","","","","original","1","","","",""
"html-keyboard-response","270","1423830","0.0-4.0-10.0-1.0","spark_pilot_2","7776","5","8","Female","","","","","","","null","<div style=""font-size:60px;"">+</div>","null","fixation","","","","","","","","","","","","","",""
"revaluation","271","1424457","0.0-4.0-10.0-0.1","spark_pilot_2","7776","5","8","Female","","","false","","","","[623.6000001430511]","./assets/img/canyon/animals/giraffe.jpg","[""ArrowLeft""]","second stage test","canyon","0","{""ArrowUp,ArrowLeft"":26,""ArrowUp,ArrowRight"":10,""ArrowDown,ArrowLeft"":5,""ArrowDown,ArrowRight"":17}","true","ArrowUp,ArrowLeft","","","","original","1","","","",""
"html-keyboard-response","272","1424967","0.0-4.0-10.0-1.1","spark_pilot_2","7776","5","8","Female","","","","","","","null","<div style=""font-size:60px;"">+</div>","null","fixation","","","","","","","","","","","","","",""
"revaluation","273","1425480","0.0-4.0-10.0-0.2","spark_pilot_2","7776","5","8","Female","","","false","","","","[509.5]","./assets/img/canyon/animals/giraffe.jpg","[""ArrowLeft""]","second stage test","canyon","0","{""ArrowUp,ArrowLeft"":26,""ArrowUp,ArrowRight"":10,""ArrowDown,ArrowLeft"":5,""ArrowDown,ArrowRight"":17}","true","ArrowUp,ArrowLeft","","","","original","1","","","",""
"html-keyboard-response","274","1426001","0.0-4.0-10.0-1.2","spark_pilot_2","7776","5","8","Female","","","","","","","null","<div style=""font-size:60px;"">+</div>","null","fixation","","","","","","","","","","","","","",""
"revaluation","275","1426520","0.0-4.0-10.0-0.3","spark_pilot_2","7776","5","8","Female","","","false","","","","[516.0999999046326]","./assets/img/canyon/animals/giraffe.jpg","[""ArrowLeft""]","second stage test","canyon","0","{""ArrowUp,ArrowLeft"":26,""ArrowUp,ArrowRight"":10,""ArrowDown,ArrowLeft"":5,""ArrowDown,ArrowRight"":17}","true","ArrowUp,ArrowLeft","","","","original","1","","","",""
"html-keyboard-response","276","1427030","0.0-4.0-10.0-1.3","spark_pilot_2","7776","5","8","Female","","","","","","","null","<div style=""font-size:60px;"">+</div>","null","fixation","","","","","","","","","","","","","",""
"revaluation","277","1428052","0.0-4.0-10.0-0.4","spark_pilot_2","7776","5","8","Female","","","false","","","","[1018.4000000953674]","./assets/img/canyon/animals/lion.jpg","[""ArrowRight""]","second stage test","canyon","0","{""ArrowUp,ArrowLeft"":26,""ArrowUp,ArrowRight"":10,""ArrowDown,ArrowLeft"":5,""ArrowDown,ArrowRight"":17}","true","ArrowDown,ArrowRight","","","","original","1","","","",""
"html-keyboard-response","278","1428572","0.0-4.0-10.0-1.4","spark_pilot_2","7776","5","8","Female","","","","","","","null","<div style=""font-size:60px;"">+</div>","null","fixation","","","","","","","","","","","","","",""
"revaluation","279","1429066","0.0-4.0-10.0-0.5","spark_pilot_2","7776","5","8","Female","","","false","","","","[490.5]","./assets/img/canyon/animals/lion.jpg","[""ArrowRight""]","second stage test","canyon","0","{""ArrowUp,ArrowLeft"":26,""ArrowUp,ArrowRight"":10,""ArrowDown,ArrowLeft"":5,""ArrowDown,ArrowRight"":17}","true","ArrowDown,ArrowRight","","","","original","1","","","",""
"html-keyboard-response","280","1429575","0.0-4.0-10.0-1.5","spark_pilot_2","7776","5","8","Female","","","","","","","null","<div style=""font-size:60px;"">+</div>","null","fixation","","","","","","","","","","","","","",""
"revaluation","281","1429937","0.0-4.0-10.0-0.6","spark_pilot_2","7776","5","8","Female","","","false","","","","[367.40000009536743]","./assets/img/canyon/animals/lion.jpg","[""ArrowRight""]","second stage test","canyon","0","{""ArrowUp,ArrowLeft"":26,""ArrowUp,ArrowRight"":10,""ArrowDown,ArrowLeft"":5,""ArrowDown,ArrowRight"":17}","true","ArrowDown,ArrowRight","","","","original","1","","","",""
"html-keyboard-response","282","1430442","0.0-4.0-10.0-1.6","spark_pilot_2","7776","5","8","Female","","","","","","","null","<div style=""font-size:60px;"">+</div>","null","fixation","","","","","","","","","","","","","",""
"revaluation","283","1430980","0.0-4.0-10.0-0.7","spark_pilot_2","7776","5","8","Female","","","false","","","","[534.2999999523163]","./assets/img/canyon/animals/lion.jpg","[""ArrowRight""]","second stage test","canyon","0","{""ArrowUp,ArrowLeft"":26,""ArrowUp,ArrowRight"":10,""ArrowDown,ArrowLeft"":5,""ArrowDown,ArrowRight"":17}","true","ArrowDown,ArrowRight","","","","original","1","","","",""
"html-keyboard-response","284","1431486","0.0-4.0-10.0-1.7","spark_pilot_2","7776","5","8","Female","","","","","","","null","<div style=""font-size:60px;"">+</div>","null","fixation","","","","","","","","","","","","","",""
"learning-instructions","285","1438052","0.0-4.0-0.1-0.2","spark_pilot_2","7776","5","8","Female","","","","","","","3076.7999999523163","<p> This time you are searching for treasure in the <b>ocean</b>.</p>","","instructions","","","","","","","","","","","","","",""
"learning-instructions","286","1457034","0.0-4.0-0.1-0.3","spark_pilot_2","7776","5","8","Female","","","","","","","1739.5999999046326","<p><b>New</b> animals with <b>new</b> treasure chests live here. You need to explore to discover where the animal with the best treasure chest is.</p>
                    <p> Like before, once you figure out which animal has the chest with the most treasure, you should try to get to that animal and select that chest! </p>","","instructions","","","","","","","","","","","","","",""
"learning-instructions","287","1475633","0.0-4.0-1.1-0.1","spark_pilot_2","7776","5","8","Female","","","","","","","3869.2999999523163","<p> Remember, when you see a picture of the place, use the up and down keys to <b>find an animal</b>.</p>
            <p> When you encounter an animal, you should use the left and right keys to <b>select a treasure chest</b>.</p>
            <p> Don't forget to look out for the robber! </p>","","instructions","","","","","","","","","","","","","",""
"revaluation","288","1481662","0.0-4.0-2.1-0.50","spark_pilot_2","7776","5","8","Female","","","false","","","","[1273,383.7000000476837]","./assets/img/ocean/memory/23.jpg","[""ArrowUp"",""ArrowRight""]","value training","ocean","10","{""ArrowUp,ArrowLeft"":23,""ArrowUp,ArrowRight"":10,""ArrowDown,ArrowLeft"":8,""ArrowDown,ArrowRight"":30}","false","ArrowUp,ArrowRight","false","","","revaluation","2","0","","",""
"html-keyboard-response","289","1482174","0.0-4.0-2.1-1.50","spark_pilot_2","7776","5","8","Female","","","","","","","null","<div style=""font-size:60px;"">+</div>","null","fixation","","","","","","","","","","","1","","",""
"revaluation","290","1488211","0.0-4.0-2.1-0.51","spark_pilot_2","7776","5","8","Female","","","false","","","","[621.0999999046326,427.2999999523163]","./assets/img/ocean/memory/22.jpg","[""ArrowUp"",""ArrowLeft""]","value training","ocean","23","{""ArrowUp,ArrowLeft"":23,""ArrowUp,ArrowRight"":10,""ArrowDown,ArrowLeft"":8,""ArrowDown,ArrowRight"":30}","false","ArrowUp,ArrowLeft","false","","","revaluation","2","2","","",""
"html-keyboard-response","291","1488731","0.0-4.0-2.1-1.51","spark_pilot_2","7776","5","8","Female","","","","","","","null","<div style=""font-size:60px;"">+</div>","null","fixation","","","","","","","","","","","3","","",""
"revaluation","292","1494772","0.0-4.0-2.1-0.52","spark_pilot_2","7776","5","8","Female","","","false","","","","[1256.5,877.9000000953674]","./assets/img/ocean/memory/3.jpg","[""ArrowDown"",""ArrowRight""]","value training","ocean","30","{""ArrowUp,ArrowLeft"":23,""ArrowUp,ArrowRight"":10,""ArrowDown,ArrowLeft"":8,""ArrowDown,ArrowRight"":30}","true","ArrowDown,ArrowRight","false","","","revaluation","2","4","","",""
"html-keyboard-response","293","1495292","0.0-4.0-2.1-1.52","spark_pilot_2","7776","5","8","Female","","","","","","","null","<div style=""font-size:60px;"">+</div>","null","fixation","","","","","","","","","","","5","","",""
"revaluation","294","1501308","0.0-4.0-2.1-0.53","spark_pilot_2","7776","5","8","Female","","","false","","","","[1097.8999998569489,743.8999998569489]","./assets/img/ocean/memory/0.jpg","[""ArrowDown"",""ArrowLeft""]","value training","ocean","8","{""ArrowUp,ArrowLeft"":23,""ArrowUp,ArrowRight"":10,""ArrowDown,ArrowLeft"":8,""ArrowDown,ArrowRight"":30}","false","ArrowDown,ArrowLeft","false","","","revaluation","2","6","","",""
"html-keyboard-response","295","1501818","0.0-4.0-2.1-1.53","spark_pilot_2","7776","5","8","Female","","","","","","","null","<div style=""font-size:60px;"">+</div>","null","fixation","","","","","","","","","","","7","","",""
"revaluation","296","1507824","0.0-4.0-2.1-0.54","spark_pilot_2","7776","5","8","Female","","","false","","","","[1302,1031.7000000476837]","./assets/img/ocean/memory/38.jpg","[""ArrowDown"",""ArrowRight""]","value training","ocean","30","{""ArrowUp,ArrowLeft"":23,""ArrowUp,ArrowRight"":10,""ArrowDown,ArrowLeft"":8,""ArrowDown,ArrowRight"":30}","true","ArrowDown,ArrowRight","false","","","revaluation","2","8","","",""
"html-keyboard-response","297","1508326","0.0-4.0-2.1-1.54","spark_pilot_2","7776","5","8","Female","","","","","","","null","<div style=""font-size:60px;"">+</div>","null","fixation","","","","","","","","","","","9","","",""
"revaluation","298","1514332","0.0-4.0-2.1-0.55","spark_pilot_2","7776","5","8","Female","","","false","","","","[469,605.8000001907349]","./assets/img/ocean/memory/39.jpg","[""ArrowUp"",""ArrowLeft""]","value training","ocean","23","{""ArrowUp,ArrowLeft"":23,""ArrowUp,ArrowRight"":10,""ArrowDown,ArrowLeft"":8,""ArrowDown,ArrowRight"":30}","false","ArrowUp,ArrowLeft","false","","","revaluation","2","10","","",""
"html-keyboard-response","299","1514833","0.0-4.0-2.1-1.55","spark_pilot_2","7776","5","8","Female","","","","","","","null","<div style=""font-size:60px;"">+</div>","null","fixation","","","","","","","","","","","11","","",""
"revaluation","300","1520839","0.0-4.0-2.1-0.56","spark_pilot_2","7776","5","8","Female","","","false","","","","[533.9000000953674,1769]","./assets/img/ocean/memory/34.jpg","[""ArrowDown"",""ArrowRight""]","value training","ocean","30","{""ArrowUp,ArrowLeft"":23,""ArrowUp,ArrowRight"":10,""ArrowDown,ArrowLeft"":8,""ArrowDown,ArrowRight"":30}","true","ArrowDown,ArrowRight","false","","","revaluation","2","12","","",""
"html-keyboard-response","301","1521341","0.0-4.0-2.1-1.56","spark_pilot_2","7776","5","8","Female","","","","","","","null","<div style=""font-size:60px;"">+</div>","null","fixation","","","","","","","","","","","13","","",""
"revaluation","302","1527347","0.0-4.0-2.1-0.57","spark_pilot_2","7776","5","8","Female","","","false","","","","[353.69999980926514,454.7000000476837]","./assets/img/ocean/memory/29.jpg","[""ArrowDown"",""ArrowRight""]","value training","ocean","30","{""ArrowUp,ArrowLeft"":23,""ArrowUp,ArrowRight"":10,""ArrowDown,ArrowLeft"":8,""ArrowDown,ArrowRight"":30}","true","ArrowDown,ArrowRight","false","","","revaluation","2","14","","",""
"html-keyboard-response","303","1527850","0.0-4.0-2.1-1.57","spark_pilot_2","7776","5","8","Female","","","","","","","null","<div style=""font-size:60px;"">+</div>","null","fixation","","","","","","","","","","","15","","",""
"revaluation","304","1533856","0.0-4.0-2.1-0.58","spark_pilot_2","7776","5","8","Female","","","false","","","","[616.3999998569489,909.5999999046326]","./assets/img/ocean/memory/17.jpg","[""ArrowDown"",""ArrowRight""]","value training","ocean","30","{""ArrowUp,ArrowLeft"":23,""ArrowUp,ArrowRight"":10,""ArrowDown,ArrowLeft"":8,""ArrowDown,ArrowRight"":30}","true","ArrowDown,ArrowRight","false","","","revaluation","2","16","","",""
