"trial_type","trial_index","time_elapsed","internal_node_id","task_version","subject_id","assigned_condition","age","gender","success","timeout","failed_images","failed_audio","failed_video","browser_interaction","rt","stimulus","response","task_part","environment","score","rewardMap","correct","fullState","isCatch","numberMissed","duration","condition","order","trial_num","key_press","ground_truth","bonus"
"pavlovia","0","1200","0.0-0.0","spark_pilot_2","8161","4","18","Male","","","","","","","","","","","","","","","","","","","","","","","",""
"preload","1","20952","0.0-1.0","spark_pilot_2","8161","4","18","Male","true","false","[]","[]","[]","[{""event"":""fullscreenenter"",""trial"":2,""time"":23288},{""event"":""blur"",""trial"":225,""time"":1004386},{""event"":""focus"",""trial"":229,""time"":1017311}]","","","","","","","","","","","","","","","","","",""
"fullscreen","2","24256","0.0-2.0","spark_pilot_2","8161","4","18","Male","true","","","","","","","","","","","","","","","","","","","","","","",""
"audio-button-response","3","27798","0.0-3.0-0.0-0.0","spark_pilot_2","8161","4","18","Male","","","","","","","3088","./assets/audio/audiotest/turtle.mp3","2","audio_test","","","","","","","","","","","","","",""
"learning-instructions","4","36338","0.0-3.0-1.0-0.0","spark_pilot_2","8161","4","18","Male","","","","","","","1538","<p> Welcome! Please remember to stay in fullscreen mode and don't click away from the experiment. </p>","","instructions","","","","","","","","","","","","","",""
"learning-instructions","5","45832","0.0-3.0-1.0-0.1","spark_pilot_2","8161","4","18","Male","","","","","","","1069.7999999970198","<p> Today you will be playing a game to earn treasure. </p>
            <p> At the end of the experiment, you will earn a bonus based on how much treasure you find. </p>
            <img src='./assets/img/instructions/treasure.jpg' class='instructions-image'>","","instructions","","","","","","","","","","","","","",""
"learning-instructions","6","56744","0.0-3.0-1.0-0.2","spark_pilot_2","8161","4","18","Male","","","","","","","2643.0999999940395","<p> Animals have hidden treasure in treasure chests. </p>
            <p> You need to first find an animal and then choose which of their treasure chests to search. </p>
            <img src='./assets/img/space/animals/cat.jpg' class='instructions-image'>","","instructions","","","","","","","","","","","","","",""
"learning-instructions","7","72502","0.0-3.0-1.0-0.3","spark_pilot_2","8161","4","18","Male","","","","","","","2599.2999999970198","<p> In each round, you will search for treasure in a different place. In the real game, there will be two rounds. </p>
            <p> You will begin with a separate, practice round where you will search for treasure in outer space. </p>
            <img src='./assets/img/space/0.jpg' class='instructions-image'>","","instructions","","","","","","","","","","","","","",""
"learning-instructions","8","85812","0.0-3.0-1.0-0.4","spark_pilot_2","8161","4","18","Male","","","","","","","1887.3999999910593","<p> On every turn, you will see a picture of the place that you are in, but the specific image may be different each time. </p>
            <p> For example, both of these images mean you are in outer space. </p>
            <img src='./assets/img/instructions/outerspace.jpg' class='instructions-image'>","","instructions","","","","","","","","","","","","","",""
"learning-instructions","9","94737","0.0-3.0-1.0-0.5","spark_pilot_2","8161","4","18","Male","","","","","","","1088.9000000059605","<p> You need to decide which direction to travel in. </p>
            <p> You can choose between going <b>up or down</b> by using the arrow keys. </p>
            <img src='./assets/img/instructions/updown.jpg' class='instructions-image'>","","instructions","","","","","","","","","","","","","",""
"learning-instructions","10","104481","0.0-3.0-1.0-0.6","spark_pilot_2","8161","4","18","Male","","","","","","","924.5","<p> You will have <b>2 seconds</b> to make your choice. </p>
            <p> If you do not make a choice within 2 seconds, you will not find an animal or earn treasure. </p>
            <img src='./assets/img/instructions/2seconds.jpg' class='instructions-image'>","","instructions","","","","","","","","","","","","","",""
"learning-instructions","11","112509","0.0-3.0-1.0-0.7","spark_pilot_2","8161","4","18","Male","","","","","","","984.8000000119209","<p> Let’s try practicing that now! </p>
            <p> When you see a picture of the place you are in, press the <b>up</b> key to travel up. </p>
            <img src='./assets/img/instructions/pressUp.jpg' class='instructions-image'>","","instructions","","","","","","","","","","","","","",""
"revaluation","12","116533","0.0-3.0-2.0-0.0","spark_pilot_2","8161","4","18","Male","","false","","","","","[1803.8999999910593]","./assets/img/space/0.jpg","[""ArrowUp""]","first stage practice","space","0","null","null","ArrowUp","false","","","","","","","",""
"html-keyboard-response","13","117041","0.0-3.0-2.0-1.0","spark_pilot_2","8161","4","18","Male","","","","","","","null","<div style=""font-size:60px;"">+</div>","null","fixation","","","","","","","","","","","","","",""
"revaluation","14","121061","0.0-3.0-2.0-0.1","spark_pilot_2","8161","4","18","Male","","false","","","","","[1789.9000000059605]","./assets/img/space/1.jpg","[""ArrowUp""]","first stage practice","space","0","null","null","ArrowUp","false","","","","","","","",""
"html-keyboard-response","15","121571","0.0-3.0-2.0-1.1","spark_pilot_2","8161","4","18","Male","","","","","","","null","<div style=""font-size:60px;"">+</div>","null","fixation","","","","","","","","","","","","","",""
"revaluation","16","125585","0.0-3.0-2.0-0.2","spark_pilot_2","8161","4","18","Male","","false","","","","","[1443.8999999910593]","./assets/img/space/2.jpg","[""ArrowUp""]","first stage practice","space","0","null","null","ArrowUp","false","","","","","","","",""
"html-keyboard-response","17","126088","0.0-3.0-2.0-1.2","spark_pilot_2","8161","4","18","Male","","","","","","","null","<div style=""font-size:60px;"">+</div>","null","fixation","","","","","","","","","","","","","",""
"learning-instructions","18","132094","0.0-3.0-3.0-0.0","spark_pilot_2","8161","4","18","Male","","","","","","","1295.2000000029802","<p> Great job! Now try pressing the <b>down</b> key to travel down. </p>
            <img src='./assets/img/instructions/pressDown.jpg' class='instructions-image'>","","instructions","","","","","","","","","","","","","",""
"revaluation","19","136105","0.0-3.0-4.0-0.0","spark_pilot_2","8161","4","18","Male","","false","","","","","[905.5]","./assets/img/space/3.jpg","[""ArrowDown""]","first stage practice","space","0","null","null","ArrowDown","false","","","","","","","",""
"html-keyboard-response","20","136612","0.0-3.0-4.0-1.0","spark_pilot_2","8161","4","18","Male","","","","","","","null","<div style=""font-size:60px;"">+</div>","null","fixation","","","","","","","","","","","","","",""
"revaluation","21","140633","0.0-3.0-4.0-0.1","spark_pilot_2","8161","4","18","Male","","false","","","","","[513.0999999940395]","./assets/img/space/4.jpg","[""ArrowDown""]","first stage practice","space","0","null","null","ArrowDown","false","","","","","","","",""
"html-keyboard-response","22","141136","0.0-3.0-4.0-1.1","spark_pilot_2","8161","4","18","Male","","","","","","","null","<div style=""font-size:60px;"">+</div>","null","fixation","","","","","","","","","","","","","",""
"revaluation","23","145153","0.0-3.0-4.0-0.2","spark_pilot_2","8161","4","18","Male","","false","","","","","[528.2999999970198]","./assets/img/space/5.jpg","[""ArrowDown""]","first stage practice","space","0","null","null","ArrowDown","false","","","","","","","",""
"html-keyboard-response","24","145660","0.0-3.0-4.0-1.2","spark_pilot_2","8161","4","18","Male","","","","","","","null","<div style=""font-size:60px;"">+</div>","null","fixation","","","","","","","","","","","","","",""
"learning-instructions","25","157312","0.0-3.0-5.0-0.0","spark_pilot_2","8161","4","18","Male","","","","","","","1788.5","<p> The animals don’t move, so the animal in the upper part of a place will stay in the upper part of a place, and the animal in the lower part of a place will stay in the lower part of a place. </p>","","instructions","","","","","","","","","","","","","",""
"learning-instructions","26","168268","0.0-3.0-5.0-0.1","spark_pilot_2","8161","4","18","Male","","","","","","","1816.2000000029802","<p> Each animal has two treasure chests for you to choose from. </p>
            <p> The amount of treasure in each chest can range from <b> 0 to 40 pieces.</b></p>","","instructions","","","","","","","","","","","","","",""
"learning-instructions","27","180730","0.0-3.0-5.0-0.2","spark_pilot_2","8161","4","18","Male","","","","","","","1265.5","<p> You should decide which chest to search for treasure by using the <b>left</b> and <b>right</b> arrow keys. </p>
            <p><b> Pay attention to which animal is on the screen, as the animals have different treasure chests. </b></p>
            <img src='./assets/img/instructions/leftright.jpg' class='instructions-image'>","","instructions","","","","","","","","","","","","","",""
"learning-instructions","28","188710","0.0-3.0-5.0-0.3","spark_pilot_2","8161","4","18","Male","","","","","","","1607.6000000089407","<p> Let’s try practicing that now. </p>
            <p> When you see an animal, choose which chest to search for treasure. </p>
            <img src='./assets/img/instructions/chooseChest.jpg' class='instructions-image'>","","instructions","","","","","","","","","","","","","",""
"revaluation","29","192733","0.0-3.0-6.0-0.0","spark_pilot_2","8161","4","18","Male","","false","","","","","[1045.5]","./assets/img/space/animals/rabbit.jpg","[""ArrowRight""]","second stage practice","space","23","{""ArrowUp,ArrowLeft"":3,""ArrowUp,ArrowRight"":36,""ArrowDown,ArrowLeft"":15,""ArrowDown,ArrowRight"":23}","true","ArrowDown,ArrowRight","","","","","","","","",""
"html-keyboard-response","30","193240","0.0-3.0-6.0-1.0","spark_pilot_2","8161","4","18","Male","","","","","","","null","<div style=""font-size:60px;"">+</div>","null","fixation","","","","","","","","","","","","","",""
"revaluation","31","197256","0.0-3.0-6.0-0.1","spark_pilot_2","8161","4","18","Male","","false","","","","","[795.4000000059605]","./assets/img/space/animals/cat.jpg","[""ArrowLeft""]","second stage practice","space","3","{""ArrowUp,ArrowLeft"":3,""ArrowUp,ArrowRight"":36,""ArrowDown,ArrowLeft"":15,""ArrowDown,ArrowRight"":23}","false","ArrowUp,ArrowLeft","","","","","","","","",""
"html-keyboard-response","32","197760","0.0-3.0-6.0-1.1","spark_pilot_2","8161","4","18","Male","","","","","","","null","<div style=""font-size:60px;"">+</div>","null","fixation","","","","","","","","","","","","","",""
"revaluation","33","201779","0.0-3.0-6.0-0.2","spark_pilot_2","8161","4","18","Male","","false","","","","","[368.40000000596046]","./assets/img/space/animals/rabbit.jpg","[""ArrowRight""]","second stage practice","space","23","{""ArrowUp,ArrowLeft"":3,""ArrowUp,ArrowRight"":36,""ArrowDown,ArrowLeft"":15,""ArrowDown,ArrowRight"":23}","true","ArrowDown,ArrowRight","","","","","","","","",""
"html-keyboard-response","34","202292","0.0-3.0-6.0-1.2","spark_pilot_2","8161","4","18","Male","","","","","","","null","<div style=""font-size:60px;"">+</div>","null","fixation","","","","","","","","","","","","","",""
"revaluation","35","206312","0.0-3.0-6.0-0.3","spark_pilot_2","8161","4","18","Male","","false","","","","","[681.7000000029802]","./assets/img/space/animals/cat.jpg","[""ArrowRight""]","second stage practice","space","36","{""ArrowUp,ArrowLeft"":3,""ArrowUp,ArrowRight"":36,""ArrowDown,ArrowLeft"":15,""ArrowDown,ArrowRight"":23}","true","ArrowUp,ArrowRight","","","","","","","","",""
"html-keyboard-response","36","206818","0.0-3.0-6.0-1.3","spark_pilot_2","8161","4","18","Male","","","","","","","null","<div style=""font-size:60px;"">+</div>","null","fixation","","","","","","","","","","","","","",""
"learning-instructions","37","226330","0.0-3.0-7.0-0.0","spark_pilot_2","8161","4","18","Male","","","","","","","2684.2999999970198","<p> Great job. Now let’s try putting it together. </p>
            <p> On each turn, you will first see a picture to remind you of the place you are in, and you need to choose whether to go up or down. </p>
            <p> Then you will see an animal and choose which of its chests to search for treasure. </p>","","instructions","","","","","","","","","","","","","",""
"learning-instructions","38","236707","0.0-3.0-7.0-0.1","spark_pilot_2","8161","4","18","Male","","","","","","","2106.6000000089407","<p> When you choose whether to go up or down, try to go to the animal with the chest with the most treasure. </p>
            <p> Try practicing that now! </p>","","instructions","","","","","","","","","","","","","",""
"revaluation","39","242728","0.0-3.0-8.0-0.0","spark_pilot_2","8161","4","18","Male","","false","","","","","[1609.4000000059605,1805.2000000029802]","./assets/img/space/6.jpg","[""ArrowUp"",""ArrowRight""]","full practice","space","36","{""ArrowUp,ArrowLeft"":3,""ArrowUp,ArrowRight"":36,""ArrowDown,ArrowLeft"":15,""ArrowDown,ArrowRight"":23}","true","ArrowUp,ArrowRight","false","","","","","","","",""
"html-keyboard-response","40","243232","0.0-3.0-8.0-1.0","spark_pilot_2","8161","4","18","Male","","","","","","","null","<div style=""font-size:60px;"">+</div>","null","fixation","","","","","","","","","","","","","",""
"revaluation","41","249260","0.0-3.0-8.0-0.1","spark_pilot_2","8161","4","18","Male","","false","","","","","[773.7999999970198,1159.2999999970198]","./assets/img/space/7.jpg","[""ArrowUp"",""ArrowLeft""]","full practice","space","3","{""ArrowUp,ArrowLeft"":3,""ArrowUp,ArrowRight"":36,""ArrowDown,ArrowLeft"":15,""ArrowDown,ArrowRight"":23}","false","ArrowUp,ArrowLeft","false","","","","","","","",""
"html-keyboard-response","42","249768","0.0-3.0-8.0-1.1","spark_pilot_2","8161","4","18","Male","","","","","","","null","<div style=""font-size:60px;"">+</div>","null","fixation","","","","","","","","","","","","","",""
"revaluation","43","255796","0.0-3.0-8.0-0.2","spark_pilot_2","8161","4","18","Male","","false","","","","","[557.1999999880791,1583.7999999970198]","./assets/img/space/8.jpg","[""ArrowDown"",""ArrowRight""]","full practice","space","23","{""ArrowUp,ArrowLeft"":3,""ArrowUp,ArrowRight"":36,""ArrowDown,ArrowLeft"":15,""ArrowDown,ArrowRight"":23}","false","ArrowDown,ArrowRight","false","","","","","","","",""
"html-keyboard-response","44","256308","0.0-3.0-8.0-1.2","spark_pilot_2","8161","4","18","Male","","","","","","","null","<div style=""font-size:60px;"">+</div>","null","fixation","","","","","","","","","","","","","",""
"revaluation","45","262336","0.0-3.0-8.0-0.3","spark_pilot_2","8161","4","18","Male","","false","","","","","[927.2000000029802,610.7999999970198]","./assets/img/space/9.jpg","[""ArrowDown"",""ArrowLeft""]","full practice","space","15","{""ArrowUp,ArrowLeft"":3,""ArrowUp,ArrowRight"":36,""ArrowDown,ArrowLeft"":15,""ArrowDown,ArrowRight"":23}","false","ArrowDown,ArrowLeft","false","","","","","","","",""
"html-keyboard-response","46","262840","0.0-3.0-8.0-1.3","spark_pilot_2","8161","4","18","Male","","","","","","","null","<div style=""font-size:60px;"">+</div>","null","fixation","","","","","","","","","","","","","",""
"revaluation","47","268868","0.0-3.0-8.0-0.4","spark_pilot_2","8161","4","18","Male","","false","","","","","[390.29999999701977,330.40000000596046]","./assets/img/space/10.jpg","[""ArrowUp"",""ArrowRight""]","full practice","space","36","{""ArrowUp,ArrowLeft"":3,""ArrowUp,ArrowRight"":36,""ArrowDown,ArrowLeft"":15,""ArrowDown,ArrowRight"":23}","true","ArrowUp,ArrowRight","false","","","","","","","",""
"html-keyboard-response","48","269379","0.0-3.0-8.0-1.4","spark_pilot_2","8161","4","18","Male","","","","","","","null","<div style=""font-size:60px;"">+</div>","null","fixation","","","","","","","","","","","","","",""
"learning-instructions","49","282190","0.0-3.0-9.0-0.0","spark_pilot_2","8161","4","18","Male","","","","","","","2173.6000000089407","<p> One last thing: sometimes, you will see a robber. The robber can be anywhere in the picture. </p>
            <p> If you do not stop them, you will lose treasure. </p>
            <img src='./assets/img/instructions/robber.jpg' class='instructions-image'>","","instructions","","","","","","","","","","","","","",""
"learning-instructions","50","290391","0.0-3.0-9.0-0.1","spark_pilot_2","8161","4","18","Male","","","","","","","1025.3999999910593","<p> If you see the robber, you should <b>press the space bar</b> rather than using the arrow keys. </p>
            <p> Try practicing that now! </p>","","instructions","","","","","","","","","","","","","",""
"revaluation","51","294410","0.0-3.0-10.0-0.0","spark_pilot_2","8161","4","18","Male","","false","","","","","[689.7000000029802]","./assets/img/space/catch/0.jpg","[""spaceBar""]","catch practice","space","0","{""ArrowUp,ArrowLeft"":3,""ArrowUp,ArrowRight"":36,""ArrowDown,ArrowLeft"":15,""ArrowDown,ArrowRight"":23}","true","spaceBar","true","","","","","","","",""
"html-keyboard-response","52","294921","0.0-3.0-10.0-1.0","spark_pilot_2","8161","4","18","Male","","","","","","","null","<div style=""font-size:60px;"">+</div>","null","fixation","","","","","","","","","","","","","",""
"revaluation","53","298936","0.0-3.0-10.0-0.1","spark_pilot_2","8161","4","18","Male","","false","","","","","[745.4000000059605]","./assets/img/space/catch/1.jpg","[""spaceBar""]","catch practice","space","0","{""ArrowUp,ArrowLeft"":3,""ArrowUp,ArrowRight"":36,""ArrowDown,ArrowLeft"":15,""ArrowDown,ArrowRight"":23}","true","spaceBar","true","","","","","","","",""
"html-keyboard-response","54","299440","0.0-3.0-10.0-1.1","spark_pilot_2","8161","4","18","Male","","","","","","","null","<div style=""font-size:60px;"">+</div>","null","fixation","","","","","","","","","","","","","",""
"revaluation","55","303458","0.0-3.0-10.0-0.2","spark_pilot_2","8161","4","18","Male","","false","","","","","[1100.9000000059605]","./assets/img/space/catch/2.jpg","[""spaceBar""]","catch practice","space","0","{""ArrowUp,ArrowLeft"":3,""ArrowUp,ArrowRight"":36,""ArrowDown,ArrowLeft"":15,""ArrowDown,ArrowRight"":23}","true","spaceBar","true","","","","","","","",""
"html-keyboard-response","56","303971","0.0-3.0-10.0-1.2","spark_pilot_2","8161","4","18","Male","","","","","","","null","<div style=""font-size:60px;"">+</div>","null","fixation","","","","","","","","","","","","","",""
"learning-instructions","57","318753","0.0-3.0-11.0-0.0","spark_pilot_2","8161","4","18","Male","","","","","","","954.7999999970198","<p> After you explore a place to find treasure, it will be time to play a different game. </p>
            <p> During this game, red dots will appear on the screen and fall down slowly. </p>
            <p><b> You must click on them before they reach the bottom. </b></p>
            <img src='./assets/img/instructions/dotGame.jpg' class='instructions-image'>","","instructions","","","","","","","","","","","","","",""
"learning-instructions","58","325890","0.0-3.0-11.0-0.1","spark_pilot_2","8161","4","18","Male","","","","","","","1452.7999999970198","<p> For every dot you click, you will earn additional treasure. </p>
            <p> Let’s try practicing that now. </p>","","instructions","","","","","","","","","","","","","",""
"revaluation","59","340912","0.0-3.0-12.0-0.0","spark_pilot_2","8161","4","18","Male","","","","","","","[99]","","","rest practice","","10","","","","","0","15000","","","","","",""
"learning-instructions","60","347258","0.0-3.0-13.0-0.0-0.0","spark_pilot_2","8161","4","18","Male","","","","","","","1081.7999999970198","<p> Now, you will practice a shortened version of the game to get a sense of how it all fits together. </p>","","instructions","","","","","","","","","","","","","",""
"learning-instructions","61","352270","0.0-3.0-13.0-0.0-0.1","spark_pilot_2","8161","4","18","Male","","","","","","","1822","<p>This time you are searching for treasure in outer space.</p>","","instructions","","","","","","","","","","","","","",""
"learning-instructions","62","367658","0.0-3.0-13.0-1.0-0.0","spark_pilot_2","8161","4","18","Male","","","","","","","602.0999999940395","<p> Remember, when you see a picture of the place, use the up and down keys to <b>find an animal</b>.</p>
            <p> When you encounter an animal, you should use the left and right keys to <b>select a treasure chest</b>.</p>
            <p> Don't forget to look out for the robber! </p>","","instructions","","","","","","","","","","","","","",""
"revaluation","63","373683","0.0-3.0-13.0-2.0-0.0","spark_pilot_2","8161","4","18","Male","","false","","","","","[1081.2000000029802,361.20000000298023]","./assets/img/space/11.jpg","[""ArrowUp"",""ArrowRight""]","practice block","space","36","{""ArrowUp,ArrowLeft"":3,""ArrowUp,ArrowRight"":36,""ArrowDown,ArrowLeft"":15,""ArrowDown,ArrowRight"":23}","true","ArrowUp,ArrowRight","false","","","","","","","",""
"html-keyboard-response","64","374191","0.0-3.0-13.0-2.0-1.0","spark_pilot_2","8161","4","18","Male","","","","","","","null","<div style=""font-size:60px;"">+</div>","null","fixation","","","","","","","","","","","","","",""
"revaluation","65","380218","0.0-3.0-13.0-2.0-0.1","spark_pilot_2","8161","4","18","Male","","false","","","","","[562.6000000089407,321.40000000596046]","./assets/img/space/12.jpg","[""ArrowUp"",""ArrowRight""]","practice block","space","36","{""ArrowUp,ArrowLeft"":3,""ArrowUp,ArrowRight"":36,""ArrowDown,ArrowLeft"":15,""ArrowDown,ArrowRight"":23}","true","ArrowUp,ArrowRight","false","","","","","","","",""
"html-keyboard-response","66","380726","0.0-3.0-13.0-2.0-1.1","spark_pilot_2","8161","4","18","Male","","","","","","","null","<div style=""font-size:60px;"">+</div>","null","fixation","","","","","","","","","","","","","",""
"revaluation","67","386754","0.0-3.0-13.0-2.0-0.2","spark_pilot_2","8161","4","18","Male","","false","","","","","[663.3999999910593,431.20000000298023]","./assets/img/space/13.jpg","[""ArrowUp"",""ArrowRight""]","practice block","space","36","{""ArrowUp,ArrowLeft"":3,""ArrowUp,ArrowRight"":36,""ArrowDown,ArrowLeft"":15,""ArrowDown,ArrowRight"":23}","true","ArrowUp,ArrowRight","false","","","","","","","",""
"html-keyboard-response","68","387263","0.0-3.0-13.0-2.0-1.2","spark_pilot_2","8161","4","18","Male","","","","","","","null","<div style=""font-size:60px;"">+</div>","null","fixation","","","","","","","","","","","","","",""
"revaluation","69","393287","0.0-3.0-13.0-2.0-0.3","spark_pilot_2","8161","4","18","Male","","false","","","","","[704.0999999940395,407.29999999701977]","./assets/img/space/14.jpg","[""ArrowUp"",""ArrowRight""]","practice block","space","36","{""ArrowUp,ArrowLeft"":3,""ArrowUp,ArrowRight"":36,""ArrowDown,ArrowLeft"":15,""ArrowDown,ArrowRight"":23}","true","ArrowUp,ArrowRight","false","","","","","","","",""
"html-keyboard-response","70","393791","0.0-3.0-13.0-2.0-1.3","spark_pilot_2","8161","4","18","Male","","","","","","","null","<div style=""font-size:60px;"">+</div>","null","fixation","","","","","","","","","","","","","",""
"revaluation","71","399814","0.0-3.0-13.0-2.0-0.4","spark_pilot_2","8161","4","18","Male","","false","","","","","[740.7000000029802,398.40000000596046]","./assets/img/space/11.jpg","[""ArrowUp"",""ArrowRight""]","practice block","space","36","{""ArrowUp,ArrowLeft"":3,""ArrowUp,ArrowRight"":36,""ArrowDown,ArrowLeft"":15,""ArrowDown,ArrowRight"":23}","true","ArrowUp,ArrowRight","false","","","","","","","",""
"html-keyboard-response","72","400320","0.0-3.0-13.0-2.0-1.4","spark_pilot_2","8161","4","18","Male","","","","","","","null","<div style=""font-size:60px;"">+</div>","null","fixation","","","","","","","","","","","","","",""
"revaluation","73","406347","0.0-3.0-13.0-2.0-0.5","spark_pilot_2","8161","4","18","Male","","false","","","","","[764.5999999940395,517.3000000119209]","./assets/img/space/12.jpg","[""ArrowUp"",""ArrowRight""]","practice block","space","36","{""ArrowUp,ArrowLeft"":3,""ArrowUp,ArrowRight"":36,""ArrowDown,ArrowLeft"":15,""ArrowDown,ArrowRight"":23}","true","ArrowUp,ArrowRight","false","","","","","","","",""
"html-keyboard-response","74","406854","0.0-3.0-13.0-2.0-1.5","spark_pilot_2","8161","4","18","Male","","","","","","","null","<div style=""font-size:60px;"">+</div>","null","fixation","","","","","","","","","","","","","",""
"revaluation","75","412886","0.0-3.0-13.0-2.0-0.6","spark_pilot_2","8161","4","18","Male","","false","","","","","[734.7000000029802,358.09999999403954]","./assets/img/space/13.jpg","[""ArrowUp"",""ArrowRight""]","practice block","space","36","{""ArrowUp,ArrowLeft"":3,""ArrowUp,ArrowRight"":36,""ArrowDown,ArrowLeft"":15,""ArrowDown,ArrowRight"":23}","true","ArrowUp,ArrowRight","false","","","","","","","",""
"html-keyboard-response","76","413393","0.0-3.0-13.0-2.0-1.6","spark_pilot_2","8161","4","18","Male","","","","","","","null","<div style=""font-size:60px;"">+</div>","null","fixation","","","","","","","","","","","","","",""
"revaluation","77","419421","0.0-3.0-13.0-2.0-0.7","spark_pilot_2","8161","4","18","Male","","false","","","","","[577.6000000089407,480.1000000089407]","./assets/img/space/14.jpg","[""ArrowUp"",""ArrowRight""]","practice block","space","36","{""ArrowUp,ArrowLeft"":3,""ArrowUp,ArrowRight"":36,""ArrowDown,ArrowLeft"":15,""ArrowDown,ArrowRight"":23}","true","ArrowUp,ArrowRight","false","","","","","","","",""
"html-keyboard-response","78","419928","0.0-3.0-13.0-2.0-1.7","spark_pilot_2","8161","4","18","Male","","","","","","","null","<div style=""font-size:60px;"">+</div>","null","fixation","","","","","","","","","","","","","",""
"revaluation","79","423946","0.0-3.0-13.0-2.0-0.8","spark_pilot_2","8161","4","18","Male","","false","","","","","[626.9000000059605]","./assets/img/space/catch/3.jpg","[""spaceBar""]","practice block","space","0","{""ArrowUp,ArrowLeft"":3,""ArrowUp,ArrowRight"":36,""ArrowDown,ArrowLeft"":15,""ArrowDown,ArrowRight"":23}","true","spaceBar","true","","","","","","","",""
"html-keyboard-response","80","424451","0.0-3.0-13.0-2.0-1.8","spark_pilot_2","8161","4","18","Male","","","","","","","null","<div style=""font-size:60px;"">+</div>","null","fixation","","","","","","","","","","","","","",""
"learning-instructions","81","438807","0.0-3.0-13.0-3.0-0.0","spark_pilot_2","8161","4","18","Male","","","","","","","871.7000000029802","<p> Now, you will travel with a friend who will choose whether you go up or down first. </p>
            <p> On these turns, you will just see the animal that they found. You will still get to choose which chest to search for treasure.</p>","","instructions","","","","","","","","","","","","","",""
"revaluation","82","442826","0.0-3.0-13.0-4.0-0.0","spark_pilot_2","8161","4","18","Male","","false","","","","","[787.3999999910593]","./assets/img/space/animals/rabbit.jpg","[""ArrowRight""]","practice block","space","23","{""ArrowUp,ArrowLeft"":3,""ArrowUp,ArrowRight"":36,""ArrowDown,ArrowLeft"":15,""ArrowDown,ArrowRight"":23}","true","ArrowDown,ArrowRight","","","","","","","","",""
"html-keyboard-response","83","443331","0.0-3.0-13.0-4.0-1.0","spark_pilot_2","8161","4","18","Male","","","","","","","null","<div style=""font-size:60px;"">+</div>","null","fixation","","","","","","","","","","","","","",""
"revaluation","84","447348","0.0-3.0-13.0-4.0-0.1","spark_pilot_2","8161","4","18","Male","","false","","","","","[551.7999999970198]","./assets/img/space/animals/rabbit.jpg","[""ArrowRight""]","practice block","space","23","{""ArrowUp,ArrowLeft"":3,""ArrowUp,ArrowRight"":36,""ArrowDown,ArrowLeft"":15,""ArrowDown,ArrowRight"":23}","true","ArrowDown,ArrowRight","","","","","","","","",""
"html-keyboard-response","85","447859","0.0-3.0-13.0-4.0-1.1","spark_pilot_2","8161","4","18","Male","","","","","","","null","<div style=""font-size:60px;"">+</div>","null","fixation","","","","","","","","","","","","","",""
"revaluation","86","451878","0.0-3.0-13.0-4.0-0.2","spark_pilot_2","8161","4","18","Male","","false","","","","","[547.5]","./assets/img/space/animals/cat.jpg","[""ArrowRight""]","practice block","space","36","{""ArrowUp,ArrowLeft"":3,""ArrowUp,ArrowRight"":36,""ArrowDown,ArrowLeft"":15,""ArrowDown,ArrowRight"":23}","true","ArrowUp,ArrowRight","","","","","","","","",""
"html-keyboard-response","87","452385","0.0-3.0-13.0-4.0-1.2","spark_pilot_2","8161","4","18","Male","","","","","","","null","<div style=""font-size:60px;"">+</div>","null","fixation","","","","","","","","","","","","","",""
"revaluation","88","456401","0.0-3.0-13.0-4.0-0.3","spark_pilot_2","8161","4","18","Male","","false","","","","","[377.6000000089407]","./assets/img/space/animals/cat.jpg","[""ArrowRight""]","practice block","space","36","{""ArrowUp,ArrowLeft"":3,""ArrowUp,ArrowRight"":36,""ArrowDown,ArrowLeft"":15,""ArrowDown,ArrowRight"":23}","true","ArrowUp,ArrowRight","","","","","","","","",""
"html-keyboard-response","89","456910","0.0-3.0-13.0-4.0-1.3","spark_pilot_2","8161","4","18","Male","","","","","","","null","<div style=""font-size:60px;"">+</div>","null","fixation","","","","","","","","","","","","","",""
"learning-instructions","90","465145","0.0-3.0-13.0-5.0-0.0","spark_pilot_2","8161","4","18","Male","","","","","","","849.1999999880791","<p> Time to play the dot game! </p>
            <p> For 15 seconds, click the red dots on the following screen as they appear. </p>","","instructions","","","","","","","","","","","","","",""
"revaluation","91","480156","0.0-3.0-13.0-6.0-0.0","spark_pilot_2","8161","4","18","Male","","","","","","","[101]","","","rest practice","","10","","","","","0","15000","","","","","",""
"learning-instructions","92","488016","0.0-3.0-13.0-7.0-0.0","spark_pilot_2","8161","4","18","Male","","","","","","","1714.5","<p> You have almost finished this part of the game! </p>
            <p> We are going to ask you to make a few more choices. </p>","","instructions","","","","","","","","","","","","","",""
"learning-instructions","93","502948","0.0-3.0-13.0-7.0-0.1","spark_pilot_2","8161","4","18","Male","","","","","","","908.6000000089407","<p> First, you need to decide whether to go up or down. When you see each picture, use the arrow keys to make your choice. </p>
            <p><b>You will not see which animal you found, but try to get to the one that will give you the most treasure.</b></p>","","instructions","","","","","","","","","","","","","",""
"revaluation","94","503556","0.0-3.0-13.0-8.0","spark_pilot_2","8161","4","18","Male","","false","","","","","[604.7000000029802]","./assets/img/space/15.jpg","[""ArrowUp""]","practice block","space","0","{""ArrowUp,ArrowLeft"":3,""ArrowUp,ArrowRight"":36,""ArrowDown,ArrowLeft"":15,""ArrowDown,ArrowRight"":23}","true","ArrowUp","false","","","","","","","",""
"html-keyboard-response","95","504061","0.0-3.0-13.0-9.0","spark_pilot_2","8161","4","18","Male","","","","","","","null","<div style=""font-size:60px;"">+</div>","null","fixation","","","","","","","","","","","","","",""
"learning-instructions","96","516589","0.0-3.0-13.0-10.0-0.0","spark_pilot_2","8161","4","18","Male","","","","","","","1130.7000000029802","<p> Now you will see the animals again and can search their chests for treasure. </p>
            <p> This time, you will not see how much treasure you earned, but you will earn more bonus money for making better choices. </p>","","instructions","","","","","","","","","","","","","",""
"revaluation","97","517314","0.0-3.0-13.0-11.0-0.0","spark_pilot_2","8161","4","18","Male","","false","","","","","[722]","./assets/img/space/animals/cat.jpg","[""ArrowRight""]","practice block","space","0","{""ArrowUp,ArrowLeft"":3,""ArrowUp,ArrowRight"":36,""ArrowDown,ArrowLeft"":15,""ArrowDown,ArrowRight"":23}","true","ArrowUp,ArrowRight","","","","","","","","",""
"html-keyboard-response","98","517820","0.0-3.0-13.0-11.0-1.0","spark_pilot_2","8161","4","18","Male","","","","","","","null","<div style=""font-size:60px;"">+</div>","null","fixation","","","","","","","","","","","","","",""
"revaluation","99","518894","0.0-3.0-13.0-11.0-0.1","spark_pilot_2","8161","4","18","Male","","false","","","","","[1070.5999999940395]","./assets/img/space/animals/rabbit.jpg","[""ArrowRight""]","practice block","space","0","{""ArrowUp,ArrowLeft"":3,""ArrowUp,ArrowRight"":36,""ArrowDown,ArrowLeft"":15,""ArrowDown,ArrowRight"":23}","true","ArrowDown,ArrowRight","","","","","","","","",""
"html-keyboard-response","100","519402","0.0-3.0-13.0-11.0-1.1","spark_pilot_2","8161","4","18","Male","","","","","","","null","<div style=""font-size:60px;"">+</div>","null","fixation","","","","","","","","","","","","","",""
"learning-instructions","101","524690","0.0-3.0-14.0-0.0","spark_pilot_2","8161","4","18","Male","","","","","","","693.5","<p> Before you start, we're going to ask you a few questions about how the game works. </p>","","instructions","","","","","","","","","","","","","",""
"comp-q","102","532727","0.0-3.0-15.0-0.0-0.0","spark_pilot_2","8161","4","18","Male","","","","","","","2431.7999999970198","<p> <b> True or False? </b> </p>
            <p> There can be 50 pieces of treasure in a given animal's chest. </p>","1","comp_question","","","","true","","","","","","","","","",""
"comp-q","103","540566","0.0-3.0-15.0-0.0-1.0","spark_pilot_2","8161","4","18","Male","","","","","","","1150.7999999970198","<p> <b> That's right! </b> The amount of treasure in each chest can range from 0 to 40 pieces. </p>","0","comp_answer","","","","","","","","","","","","","",""
"comp-q","104","548570","0.0-3.0-15.0-0.1-0.1","spark_pilot_2","8161","4","18","Male","","","","","","","861.6000000089407","<p> <b> True or False? </b> </p><p> In this game, all animals have the same amount of treasure in their left and right chests. </p>","1","comp_question","","","","true","","","","","","","","","",""
"comp-q","105","555213","0.0-3.0-15.0-0.1-1.1","spark_pilot_2","8161","4","18","Male","","","","","","","1382.2000000029802","<p> <b> That's right! </b> Animals have different amounts of treasure in their treasure chests. </p>","0","comp_answer","","","","","","","","","","","","","",""
"comp-q","106","563563","0.0-3.0-15.0-0.2-0.2","spark_pilot_2","8161","4","18","Male","","","","","","","2472.7999999970198","<p> <b> True or False? </b> </p><p> The same animal will always be there if you go up in the same place. </p>","0","comp_question","","","","true","","","","","","","","","",""
"comp-q","107","571250","0.0-3.0-15.0-0.2-1.2","spark_pilot_2","8161","4","18","Male","","","","","","","1216.2999999970198","<p> <b> That's right! </b> One animal lives in the upper part and one lives in the lower part of every place. </p>","0","comp_answer","","","","","","","","","","","","","",""
"comp-q","108","578259","0.0-3.0-15.0-0.3-0.3","spark_pilot_2","8161","4","18","Male","","","","","","","1451.7999999970198","<p> <b> True or False? </b> </p><p> If you see a different picture, it means you are in a new place. </p>","0","comp_question","","","","false","","","","","","","","","",""
"comp-q","109","591223","0.0-3.0-15.0-0.3-1.3","spark_pilot_2","8161","4","18","Male","","","","","","","1835.2999999970198","<p> <b>Incorrect.</b> Lots of different images may show the same place. For example,  you may see three different images that all remind you that you are in outer space. </p>","0","comp_answer","","","","","","","","","","","","","",""
"comp-q","110","598969","0.0-3.0-15.0-0.4-0.4","spark_pilot_2","8161","4","18","Male","","","","","","","2242.699999988079","<p> <b> True or False? </b> </p><p> If you see a different picture, it means you are in a new place. </p>","1","comp_question","","","","true","","","","","","","","","",""
"comp-q","111","611453","0.0-3.0-15.0-0.4-1.4","spark_pilot_2","8161","4","18","Male","","","","","","","1222.2999999970198","<p> <b> That's right! </b> Lots of different images may show the same place. For example,  you may see three different images that all remind you that you are in outer space. </p>","0","comp_answer","","","","","","","","","","","","","",""
"learning-instructions","112","623016","0.0-3.0-16.0-0.0","spark_pilot_2","8161","4","18","Male","","","","","","","1490.199999988079","<p> Good job. Remember to do your best because the amount of treasure you earn will be converted into bonus money. </p>
            <p> It’s time to start the real game! </p>","","instructions","","","","","","","","","","","","","",""
"learning-instructions","113","627012","0.0-4.0-0.0-0.0","spark_pilot_2","8161","4","18","Male","","","","","","","1283.2999999970198","<p> This time you are searching for treasure in the <b>ocean</b>.</p>","","instructions","","","","","","","","","","","","","",""
"learning-instructions","114","645432","0.0-4.0-0.0-0.1","spark_pilot_2","8161","4","18","Male","","","","","","","1105.8999999910593","<p><b>New</b> animals with <b>new</b> treasure chests live here. You need to explore to discover where the animal with the best treasure chest is.</p>
                    <p> Like before, once you figure out which animal has the chest with the most treasure, you should try to get to that animal and select that chest! </p>","","instructions","","","","","","","","","","","","","",""
"learning-instructions","115","661014","0.0-4.0-1.0-0.0","spark_pilot_2","8161","4","18","Male","","","","","","","853.3000000119209","<p> Remember, when you see a picture of the place, use the up and down keys to <b>find an animal</b>.</p>
            <p> When you encounter an animal, you should use the left and right keys to <b>select a treasure chest</b>.</p>
            <p> Don't forget to look out for the robber! </p>","","instructions","","","","","","","","","","","","","",""
"revaluation","116","665032","0.0-4.0-2.0-0.0","spark_pilot_2","8161","4","18","Male","","false","","","","","[767.4000000059605]","./assets/img/ocean/catch/1.jpg","[""ArrowUp""]","value training","ocean","-10","{""ArrowUp,ArrowLeft"":26,""ArrowUp,ArrowRight"":10,""ArrowDown,ArrowLeft"":5,""ArrowDown,ArrowRight"":17}","false","ArrowUp","true","","","revaluation","1","0","","",""
"html-keyboard-response","117","665548","0.0-4.0-2.0-1.0","spark_pilot_2","8161","4","18","Male","","","","","","","null","<div style=""font-size:60px;"">+</div>","null","fixation","","","","","","","","","","","1","","",""
"revaluation","118","671577","0.0-4.0-2.0-0.1","spark_pilot_2","8161","4","18","Male","","false","","","","","[763.5,1007.8999999910593]","./assets/img/ocean/memory/34.jpg","[""ArrowUp"",""ArrowLeft""]","value training","ocean","26","{""ArrowUp,ArrowLeft"":26,""ArrowUp,ArrowRight"":10,""ArrowDown,ArrowLeft"":5,""ArrowDown,ArrowRight"":17}","true","ArrowUp,ArrowLeft","false","","","revaluation","1","2","","",""
"html-keyboard-response","119","672079","0.0-4.0-2.0-1.1","spark_pilot_2","8161","4","18","Male","","","","","","","null","<div style=""font-size:60px;"">+</div>","null","fixation","","","","","","","","","","","3","","",""
"revaluation","120","678108","0.0-4.0-2.0-0.2","spark_pilot_2","8161","4","18","Male","","false","","","","","[799.1000000089407,458.40000000596046]","./assets/img/ocean/memory/25.jpg","[""ArrowUp"",""ArrowRight""]","value training","ocean","10","{""ArrowUp,ArrowLeft"":26,""ArrowUp,ArrowRight"":10,""ArrowDown,ArrowLeft"":5,""ArrowDown,ArrowRight"":17}","false","ArrowUp,ArrowRight","false","","","revaluation","1","4","","",""
"html-keyboard-response","121","678619","0.0-4.0-2.0-1.2","spark_pilot_2","8161","4","18","Male","","","","","","","null","<div style=""font-size:60px;"">+</div>","null","fixation","","","","","","","","","","","5","","",""
"revaluation","122","684640","0.0-4.0-2.0-0.3","spark_pilot_2","8161","4","18","Male","","false","","","","","[543.0999999940395,647.0999999940395]","./assets/img/ocean/memory/8.jpg","[""ArrowDown"",""ArrowLeft""]","value training","ocean","5","{""ArrowUp,ArrowLeft"":26,""ArrowUp,ArrowRight"":10,""ArrowDown,ArrowLeft"":5,""ArrowDown,ArrowRight"":17}","false","ArrowDown,ArrowLeft","false","","","revaluation","1","6","","",""
"html-keyboard-response","123","685146","0.0-4.0-2.0-1.3","spark_pilot_2","8161","4","18","Male","","","","","","","null","<div style=""font-size:60px;"">+</div>","null","fixation","","","","","","","","","","","7","","",""
"revaluation","124","691169","0.0-4.0-2.0-0.4","spark_pilot_2","8161","4","18","Male","","false","","","","","[658.7000000029802,653.5]","./assets/img/ocean/memory/32.jpg","[""ArrowDown"",""ArrowRight""]","value training","ocean","17","{""ArrowUp,ArrowLeft"":26,""ArrowUp,ArrowRight"":10,""ArrowDown,ArrowLeft"":5,""ArrowDown,ArrowRight"":17}","false","ArrowDown,ArrowRight","false","","","revaluation","1","8","","",""
"html-keyboard-response","125","691675","0.0-4.0-2.0-1.4","spark_pilot_2","8161","4","18","Male","","","","","","","null","<div style=""font-size:60px;"">+</div>","null","fixation","","","","","","","","","","","9","","",""
"revaluation","126","695692","0.0-4.0-2.0-0.5","spark_pilot_2","8161","4","18","Male","","false","","","","","[752]","./assets/img/ocean/catch/7.jpg","[""spaceBar""]","value training","ocean","0","{""ArrowUp,ArrowLeft"":26,""ArrowUp,ArrowRight"":10,""ArrowDown,ArrowLeft"":5,""ArrowDown,ArrowRight"":17}","true","spaceBar","true","","","revaluation","1","10","","",""
"html-keyboard-response","127","696203","0.0-4.0-2.0-1.5","spark_pilot_2","8161","4","18","Male","","","","","","","null","<div style=""font-size:60px;"">+</div>","null","fixation","","","","","","","","","","","11","","",""
"revaluation","128","702225","0.0-4.0-2.0-0.6","spark_pilot_2","8161","4","18","Male","","false","","","","","[669.5,387.40000000596046]","./assets/img/ocean/memory/29.jpg","[""ArrowUp"",""ArrowLeft""]","value training","ocean","26","{""ArrowUp,ArrowLeft"":26,""ArrowUp,ArrowRight"":10,""ArrowDown,ArrowLeft"":5,""ArrowDown,ArrowRight"":17}","true","ArrowUp,ArrowLeft","false","","","revaluation","1","12","","",""
"html-keyboard-response","129","702730","0.0-4.0-2.0-1.6","spark_pilot_2","8161","4","18","Male","","","","","","","null","<div style=""font-size:60px;"">+</div>","null","fixation","","","","","","","","","","","13","","",""
"revaluation","130","706747","0.0-4.0-2.0-0.7","spark_pilot_2","8161","4","18","Male","","false","","","","","[639.2999999970198]","./assets/img/ocean/catch/3.jpg","[""spaceBar""]","value training","ocean","0","{""ArrowUp,ArrowLeft"":26,""ArrowUp,ArrowRight"":10,""ArrowDown,ArrowLeft"":5,""ArrowDown,ArrowRight"":17}","true","spaceBar","true","","","revaluation","1","14","","",""
"html-keyboard-response","131","707259","0.0-4.0-2.0-1.7","spark_pilot_2","8161","4","18","Male","","","","","","","null","<div style=""font-size:60px;"">+</div>","null","fixation","","","","","","","","","","","15","","",""
"revaluation","132","713281","0.0-4.0-2.0-0.8","spark_pilot_2","8161","4","18","Male","","false","","","","","[501.79999999701977,328.59999999403954]","./assets/img/ocean/memory/9.jpg","[""ArrowUp"",""ArrowLeft""]","value training","ocean","26","{""ArrowUp,ArrowLeft"":26,""ArrowUp,ArrowRight"":10,""ArrowDown,ArrowLeft"":5,""ArrowDown,ArrowRight"":17}","true","ArrowUp,ArrowLeft","false","","","revaluation","1","16","","",""
"html-keyboard-response","133","713787","0.0-4.0-2.0-1.8","spark_pilot_2","8161","4","18","Male","","","","","","","null","<div style=""font-size:60px;"">+</div>","null","fixation","","","","","","","","","","","17","","",""
"revaluation","134","719809","0.0-4.0-2.0-0.9","spark_pilot_2","8161","4","18","Male","","false","","","","","[652.7000000029802,341.40000000596046]","./assets/img/ocean/memory/36.jpg","[""ArrowUp"",""ArrowLeft""]","value training","ocean","26","{""ArrowUp,ArrowLeft"":26,""ArrowUp,ArrowRight"":10,""ArrowDown,ArrowLeft"":5,""ArrowDown,ArrowRight"":17}","true","ArrowUp,ArrowLeft","false","","","revaluation","1","18","","",""
"html-keyboard-response","135","720315","0.0-4.0-2.0-1.9","spark_pilot_2","8161","4","18","Male","","","","","","","null","<div style=""font-size:60px;"">+</div>","null","fixation","","","","","","","","","","","19","","",""
"revaluation","136","726337","0.0-4.0-2.0-0.10","spark_pilot_2","8161","4","18","Male","","false","","","","","[952.7000000029802,382.20000000298023]","./assets/img/ocean/memory/14.jpg","[""ArrowUp"",""ArrowLeft""]","value training","ocean","26","{""ArrowUp,ArrowLeft"":26,""ArrowUp,ArrowRight"":10,""ArrowDown,ArrowLeft"":5,""ArrowDown,ArrowRight"":17}","true","ArrowUp,ArrowLeft","false","","","revaluation","1","20","","",""
"html-keyboard-response","137","726843","0.0-4.0-2.0-1.10","spark_pilot_2","8161","4","18","Male","","","","","","","null","<div style=""font-size:60px;"">+</div>","null","fixation","","","","","","","","","","","21","","",""
"revaluation","138","732863","0.0-4.0-2.0-0.11","spark_pilot_2","8161","4","18","Male","","false","","","","","[635.9000000059605,440.40000000596046]","./assets/img/ocean/memory/29.jpg","[""ArrowUp"",""ArrowLeft""]","value training","ocean","26","{""ArrowUp,ArrowLeft"":26,""ArrowUp,ArrowRight"":10,""ArrowDown,ArrowLeft"":5,""ArrowDown,ArrowRight"":17}","true","ArrowUp,ArrowLeft","false","","","revaluation","1","22","","",""
"html-keyboard-response","139","733371","0.0-4.0-2.0-1.11","spark_pilot_2","8161","4","18","Male","","","","","","","null","<div style=""font-size:60px;"">+</div>","null","fixation","","","","","","","","","","","23","","",""
"revaluation","140","739392","0.0-4.0-2.0-0.12","spark_pilot_2","8161","4","18","Male","","false","","","","","[580,410.90000000596046]","./assets/img/ocean/memory/32.jpg","[""ArrowUp"",""ArrowLeft""]","value training","ocean","26","{""ArrowUp,ArrowLeft"":26,""ArrowUp,ArrowRight"":10,""ArrowDown,ArrowLeft"":5,""ArrowDown,ArrowRight"":17}","true","ArrowUp,ArrowLeft","false","","","revaluation","1","24","","",""
"html-keyboard-response","141","739899","0.0-4.0-2.0-1.12","spark_pilot_2","8161","4","18","Male","","","","","","","null","<div style=""font-size:60px;"">+</div>","null","fixation","","","","","","","","","","","25","","",""
"revaluation","142","745920","0.0-4.0-2.0-0.13","spark_pilot_2","8161","4","18","Male","","false","","","","","[688.9000000059605,345.09999999403954]","./assets/img/ocean/memory/16.jpg","[""ArrowUp"",""ArrowLeft""]","value training","ocean","26","{""ArrowUp,ArrowLeft"":26,""ArrowUp,ArrowRight"":10,""ArrowDown,ArrowLeft"":5,""ArrowDown,ArrowRight"":17}","true","ArrowUp,ArrowLeft","false","","","revaluation","1","26","","",""
"html-keyboard-response","143","746427","0.0-4.0-2.0-1.13","spark_pilot_2","8161","4","18","Male","","","","","","","null","<div style=""font-size:60px;"">+</div>","null","fixation","","","","","","","","","","","27","","",""
"revaluation","144","752458","0.0-4.0-2.0-0.14","spark_pilot_2","8161","4","18","Male","","false","","","","","[578.2999999970198,449.8999999910593]","./assets/img/ocean/memory/16.jpg","[""ArrowUp"",""ArrowLeft""]","value training","ocean","26","{""ArrowUp,ArrowLeft"":26,""ArrowUp,ArrowRight"":10,""ArrowDown,ArrowLeft"":5,""ArrowDown,ArrowRight"":17}","true","ArrowUp,ArrowLeft","false","","","revaluation","1","28","","",""
"html-keyboard-response","145","752970","0.0-4.0-2.0-1.14","spark_pilot_2","8161","4","18","Male","","","","","","","null","<div style=""font-size:60px;"">+</div>","null","fixation","","","","","","","","","","","29","","",""
"revaluation","146","756987","0.0-4.0-2.0-0.15","spark_pilot_2","8161","4","18","Male","","false","","","","","[862.1000000089407]","./assets/img/ocean/catch/5.jpg","[""spaceBar""]","value training","ocean","0","{""ArrowUp,ArrowLeft"":26,""ArrowUp,ArrowRight"":10,""ArrowDown,ArrowLeft"":5,""ArrowDown,ArrowRight"":17}","true","spaceBar","true","","","revaluation","1","30","","",""
"html-keyboard-response","147","757498","0.0-4.0-2.0-1.15","spark_pilot_2","8161","4","18","Male","","","","","","","null","<div style=""font-size:60px;"">+</div>","null","fixation","","","","","","","","","","","31","","",""
"revaluation","148","763520","0.0-4.0-2.0-0.16","spark_pilot_2","8161","4","18","Male","","false","","","","","[740.7000000029802,382.20000000298023]","./assets/img/ocean/memory/35.jpg","[""ArrowUp"",""ArrowLeft""]","value training","ocean","26","{""ArrowUp,ArrowLeft"":26,""ArrowUp,ArrowRight"":10,""ArrowDown,ArrowLeft"":5,""ArrowDown,ArrowRight"":17}","true","ArrowUp,ArrowLeft","false","","","revaluation","1","32","","",""
"html-keyboard-response","149","764026","0.0-4.0-2.0-1.16","spark_pilot_2","8161","4","18","Male","","","","","","","null","<div style=""font-size:60px;"">+</div>","null","fixation","","","","","","","","","","","33","","",""
"revaluation","150","770048","0.0-4.0-2.0-0.17","spark_pilot_2","8161","4","18","Male","","false","","","","","[604,394.30000001192093]","./assets/img/ocean/memory/1.jpg","[""ArrowUp"",""ArrowLeft""]","value training","ocean","26","{""ArrowUp,ArrowLeft"":26,""ArrowUp,ArrowRight"":10,""ArrowDown,ArrowLeft"":5,""ArrowDown,ArrowRight"":17}","true","ArrowUp,ArrowLeft","false","","","revaluation","1","34","","",""
"html-keyboard-response","151","770554","0.0-4.0-2.0-1.17","spark_pilot_2","8161","4","18","Male","","","","","","","null","<div style=""font-size:60px;"">+</div>","null","fixation","","","","","","","","","","","35","","",""
"revaluation","152","776586","0.0-4.0-2.0-0.18","spark_pilot_2","8161","4","18","Male","","false","","","","","[670.8000000119209,416.29999999701977]","./assets/img/ocean/memory/36.jpg","[""ArrowUp"",""ArrowLeft""]","value training","ocean","26","{""ArrowUp,ArrowLeft"":26,""ArrowUp,ArrowRight"":10,""ArrowDown,ArrowLeft"":5,""ArrowDown,ArrowRight"":17}","true","ArrowUp,ArrowLeft","false","","","revaluation","1","36","","",""
"html-keyboard-response","153","777098","0.0-4.0-2.0-1.18","spark_pilot_2","8161","4","18","Male","","","","","","","null","<div style=""font-size:60px;"">+</div>","null","fixation","","","","","","","","","","","37","","",""
"revaluation","154","783129","0.0-4.0-2.0-0.19","spark_pilot_2","8161","4","18","Male","","false","","","","","[752.9000000059605,393.29999999701977]","./assets/img/ocean/memory/5.jpg","[""ArrowUp"",""ArrowLeft""]","value training","ocean","26","{""ArrowUp,ArrowLeft"":26,""ArrowUp,ArrowRight"":10,""ArrowDown,ArrowLeft"":5,""ArrowDown,ArrowRight"":17}","true","ArrowUp,ArrowLeft","false","","","revaluation","1","38","","",""
"html-keyboard-response","155","783642","0.0-4.0-2.0-1.19","spark_pilot_2","8161","4","18","Male","","","","","","","null","<div style=""font-size:60px;"">+</div>","null","fixation","","","","","","","","","","","39","","",""
"revaluation","156","789663","0.0-4.0-2.0-0.20","spark_pilot_2","8161","4","18","Male","","false","","","","","[684.2000000029802,351.70000000298023]","./assets/img/ocean/memory/40.jpg","[""ArrowUp"",""ArrowLeft""]","value training","ocean","26","{""ArrowUp,ArrowLeft"":26,""ArrowUp,ArrowRight"":10,""ArrowDown,ArrowLeft"":5,""ArrowDown,ArrowRight"":17}","true","ArrowUp,ArrowLeft","false","","","revaluation","1","40","","",""
"html-keyboard-response","157","790170","0.0-4.0-2.0-1.20","spark_pilot_2","8161","4","18","Male","","","","","","","null","<div style=""font-size:60px;"">+</div>","null","fixation","","","","","","","","","","","41","","",""
"revaluation","158","796191","0.0-4.0-2.0-0.21","spark_pilot_2","8161","4","18","Male","","false","","","","","[452.19999998807907,298.90000000596046]","./assets/img/ocean/memory/11.jpg","[""ArrowUp"",""ArrowLeft""]","value training","ocean","26","{""ArrowUp,ArrowLeft"":26,""ArrowUp,ArrowRight"":10,""ArrowDown,ArrowLeft"":5,""ArrowDown,ArrowRight"":17}","true","ArrowUp,ArrowLeft","false","","","revaluation","1","42","","",""
"html-keyboard-response","159","796698","0.0-4.0-2.0-1.21","spark_pilot_2","8161","4","18","Male","","","","","","","null","<div style=""font-size:60px;"">+</div>","null","fixation","","","","","","","","","","","43","","",""
"revaluation","160","800714","0.0-4.0-2.0-0.22","spark_pilot_2","8161","4","18","Male","","false","","","","","[499.3999999910593]","./assets/img/ocean/catch/6.jpg","[""spaceBar""]","value training","ocean","0","{""ArrowUp,ArrowLeft"":26,""ArrowUp,ArrowRight"":10,""ArrowDown,ArrowLeft"":5,""ArrowDown,ArrowRight"":17}","true","spaceBar","true","","","revaluation","1","44","","",""
"html-keyboard-response","161","801226","0.0-4.0-2.0-1.22","spark_pilot_2","8161","4","18","Male","","","","","","","null","<div style=""font-size:60px;"">+</div>","null","fixation","","","","","","","","","","","45","","",""
"revaluation","162","807248","0.0-4.0-2.0-0.23","spark_pilot_2","8161","4","18","Male","","false","","","","","[581.8999999910593,298]","./assets/img/ocean/memory/7.jpg","[""ArrowUp"",""ArrowLeft""]","value training","ocean","26","{""ArrowUp,ArrowLeft"":26,""ArrowUp,ArrowRight"":10,""ArrowDown,ArrowLeft"":5,""ArrowDown,ArrowRight"":17}","true","ArrowUp,ArrowLeft","false","","","revaluation","1","46","","",""
"html-keyboard-response","163","807758","0.0-4.0-2.0-1.23","spark_pilot_2","8161","4","18","Male","","","","","","","null","<div style=""font-size:60px;"">+</div>","null","fixation","","","","","","","","","","","47","","",""
"revaluation","164","813786","0.0-4.0-2.0-0.24","spark_pilot_2","8161","4","18","Male","","false","","","","","[1005.4000000059605,318.90000000596046]","./assets/img/ocean/memory/27.jpg","[""ArrowUp"",""ArrowLeft""]","value training","ocean","26","{""ArrowUp,ArrowLeft"":26,""ArrowUp,ArrowRight"":10,""ArrowDown,ArrowLeft"":5,""ArrowDown,ArrowRight"":17}","true","ArrowUp,ArrowLeft","false","","","revaluation","1","48","","",""
"html-keyboard-response","165","814297","0.0-4.0-2.0-1.24","spark_pilot_2","8161","4","18","Male","","","","","","","null","<div style=""font-size:60px;"">+</div>","null","fixation","","","","","","","","","","","49","","",""
"revaluation","166","820319","0.0-4.0-2.0-0.25","spark_pilot_2","8161","4","18","Male","","false","","","","","[430.5,371.1000000089407]","./assets/img/ocean/memory/11.jpg","[""ArrowUp"",""ArrowLeft""]","value training","ocean","26","{""ArrowUp,ArrowLeft"":26,""ArrowUp,ArrowRight"":10,""ArrowDown,ArrowLeft"":5,""ArrowDown,ArrowRight"":17}","true","ArrowUp,ArrowLeft","false","","","revaluation","1","50","","",""
"html-keyboard-response","167","820825","0.0-4.0-2.0-1.25","spark_pilot_2","8161","4","18","Male","","","","","","","null","<div style=""font-size:60px;"">+</div>","null","fixation","","","","","","","","","","","51","","",""
"revaluation","168","826847","0.0-4.0-2.0-0.26","spark_pilot_2","8161","4","18","Male","","false","","","","","[596.5999999940395,413.1000000089407]","./assets/img/ocean/memory/28.jpg","[""ArrowUp"",""ArrowLeft""]","value training","ocean","26","{""ArrowUp,ArrowLeft"":26,""ArrowUp,ArrowRight"":10,""ArrowDown,ArrowLeft"":5,""ArrowDown,ArrowRight"":17}","true","ArrowUp,ArrowLeft","false","","","revaluation","1","52","","",""
"html-keyboard-response","169","827352","0.0-4.0-2.0-1.26","spark_pilot_2","8161","4","18","Male","","","","","","","null","<div style=""font-size:60px;"">+</div>","null","fixation","","","","","","","","","","","53","","",""
"revaluation","170","833375","0.0-4.0-2.0-0.27","spark_pilot_2","8161","4","18","Male","","false","","","","","[605.2999999970198,441.40000000596046]","./assets/img/ocean/memory/41.jpg","[""ArrowUp"",""ArrowLeft""]","value training","ocean","26","{""ArrowUp,ArrowLeft"":26,""ArrowUp,ArrowRight"":10,""ArrowDown,ArrowLeft"":5,""ArrowDown,ArrowRight"":17}","true","ArrowUp,ArrowLeft","false","","","revaluation","1","54","","",""
"html-keyboard-response","171","833881","0.0-4.0-2.0-1.27","spark_pilot_2","8161","4","18","Male","","","","","","","null","<div style=""font-size:60px;"">+</div>","null","fixation","","","","","","","","","","","55","","",""
"revaluation","172","839903","0.0-4.0-2.0-0.28","spark_pilot_2","8161","4","18","Male","","false","","","","","[527.5999999940395,606.5]","./assets/img/ocean/memory/41.jpg","[""ArrowUp"",""ArrowLeft""]","value training","ocean","26","{""ArrowUp,ArrowLeft"":26,""ArrowUp,ArrowRight"":10,""ArrowDown,ArrowLeft"":5,""ArrowDown,ArrowRight"":17}","true","ArrowUp,ArrowLeft","false","","","revaluation","1","56","","",""
"html-keyboard-response","173","840409","0.0-4.0-2.0-1.28","spark_pilot_2","8161","4","18","Male","","","","","","","null","<div style=""font-size:60px;"">+</div>","null","fixation","","","","","","","","","","","57","","",""
"revaluation","174","846431","0.0-4.0-2.0-0.29","spark_pilot_2","8161","4","18","Male","","false","","","","","[638.5,763.8999999910593]","./assets/img/ocean/memory/0.jpg","[""ArrowUp"",""ArrowLeft""]","value training","ocean","26","{""ArrowUp,ArrowLeft"":26,""ArrowUp,ArrowRight"":10,""ArrowDown,ArrowLeft"":5,""ArrowDown,ArrowRight"":17}","true","ArrowUp,ArrowLeft","false","","","revaluation","1","58","","",""
"html-keyboard-response","175","846937","0.0-4.0-2.0-1.29","spark_pilot_2","8161","4","18","Male","","","","","","","null","<div style=""font-size:60px;"">+</div>","null","fixation","","","","","","","","","","","59","","",""
"revaluation","176","852959","0.0-4.0-2.0-0.30","spark_pilot_2","8161","4","18","Male","","false","","","","","[484.20000000298023,497.1000000089407]","./assets/img/ocean/memory/8.jpg","[""ArrowUp"",""ArrowLeft""]","value training","ocean","26","{""ArrowUp,ArrowLeft"":26,""ArrowUp,ArrowRight"":10,""ArrowDown,ArrowLeft"":5,""ArrowDown,ArrowRight"":17}","true","ArrowUp,ArrowLeft","false","","","revaluation","1","60","","",""
"html-keyboard-response","177","853465","0.0-4.0-2.0-1.30","spark_pilot_2","8161","4","18","Male","","","","","","","null","<div style=""font-size:60px;"">+</div>","null","fixation","","","","","","","","","","","61","","",""
"revaluation","178","859487","0.0-4.0-2.0-0.31","spark_pilot_2","8161","4","18","Male","","false","","","","","[867.7999999970198,949.9000000059605]","./assets/img/ocean/memory/2.jpg","[""ArrowUp"",""ArrowLeft""]","value training","ocean","26","{""ArrowUp,ArrowLeft"":26,""ArrowUp,ArrowRight"":10,""ArrowDown,ArrowLeft"":5,""ArrowDown,ArrowRight"":17}","true","ArrowUp,ArrowLeft","false","","","revaluation","1","62","","",""
"html-keyboard-response","179","859993","0.0-4.0-2.0-1.31","spark_pilot_2","8161","4","18","Male","","","","","","","null","<div style=""font-size:60px;"">+</div>","null","fixation","","","","","","","","","","","63","","",""
"revaluation","180","866014","0.0-4.0-2.0-0.32","spark_pilot_2","8161","4","18","Male","","false","","","","","[605.7999999970198,530]","./assets/img/ocean/memory/5.jpg","[""ArrowUp"",""ArrowLeft""]","value training","ocean","26","{""ArrowUp,ArrowLeft"":26,""ArrowUp,ArrowRight"":10,""ArrowDown,ArrowLeft"":5,""ArrowDown,ArrowRight"":17}","true","ArrowUp,ArrowLeft","false","","","revaluation","1","64","","",""
"html-keyboard-response","181","866521","0.0-4.0-2.0-1.32","spark_pilot_2","8161","4","18","Male","","","","","","","null","<div style=""font-size:60px;"">+</div>","null","fixation","","","","","","","","","","","65","","",""
"revaluation","182","872553","0.0-4.0-2.0-0.33","spark_pilot_2","8161","4","18","Male","","false","","","","","[626.8999999910593,662.3999999910593]","./assets/img/ocean/memory/39.jpg","[""ArrowUp"",""ArrowLeft""]","value training","ocean","26","{""ArrowUp,ArrowLeft"":26,""ArrowUp,ArrowRight"":10,""ArrowDown,ArrowLeft"":5,""ArrowDown,ArrowRight"":17}","true","ArrowUp,ArrowLeft","false","","","revaluation","1","66","","",""
"html-keyboard-response","183","873064","0.0-4.0-2.0-1.33","spark_pilot_2","8161","4","18","Male","","","","","","","null","<div style=""font-size:60px;"">+</div>","null","fixation","","","","","","","","","","","67","","",""
"revaluation","184","879086","0.0-4.0-2.0-0.34","spark_pilot_2","8161","4","18","Male","","false","","","","","[847.7000000029802,524.5999999940395]","./assets/img/ocean/memory/40.jpg","[""ArrowUp"",""ArrowLeft""]","value training","ocean","26","{""ArrowUp,ArrowLeft"":26,""ArrowUp,ArrowRight"":10,""ArrowDown,ArrowLeft"":5,""ArrowDown,ArrowRight"":17}","true","ArrowUp,ArrowLeft","false","","","revaluation","1","68","","",""
"html-keyboard-response","185","879593","0.0-4.0-2.0-1.34","spark_pilot_2","8161","4","18","Male","","","","","","","null","<div style=""font-size:60px;"">+</div>","null","fixation","","","","","","","","","","","69","","",""
"revaluation","186","885614","0.0-4.0-2.0-0.35","spark_pilot_2","8161","4","18","Male","","false","","","","","[636,475.40000000596046]","./assets/img/ocean/memory/35.jpg","[""ArrowUp"",""ArrowLeft""]","value training","ocean","26","{""ArrowUp,ArrowLeft"":26,""ArrowUp,ArrowRight"":10,""ArrowDown,ArrowLeft"":5,""ArrowDown,ArrowRight"":17}","true","ArrowUp,ArrowLeft","false","","","revaluation","1","70","","",""
"html-keyboard-response","187","886121","0.0-4.0-2.0-1.35","spark_pilot_2","8161","4","18","Male","","","","","","","null","<div style=""font-size:60px;"">+</div>","null","fixation","","","","","","","","","","","71","","",""
"revaluation","188","892142","0.0-4.0-2.0-0.36","spark_pilot_2","8161","4","18","Male","","false","","","","","[631.4000000059605,501.20000000298023]","./assets/img/ocean/memory/7.jpg","[""ArrowUp"",""ArrowLeft""]","value training","ocean","26","{""ArrowUp,ArrowLeft"":26,""ArrowUp,ArrowRight"":10,""ArrowDown,ArrowLeft"":5,""ArrowDown,ArrowRight"":17}","true","ArrowUp,ArrowLeft","false","","","revaluation","1","72","","",""
"html-keyboard-response","189","892648","0.0-4.0-2.0-1.36","spark_pilot_2","8161","4","18","Male","","","","","","","null","<div style=""font-size:60px;"">+</div>","null","fixation","","","","","","","","","","","73","","",""
"revaluation","190","896665","0.0-4.0-2.0-0.37","spark_pilot_2","8161","4","18","Male","","false","","","","","[815.7999999970198]","./assets/img/ocean/catch/4.jpg","[""ArrowUp""]","value training","ocean","-10","{""ArrowUp,ArrowLeft"":26,""ArrowUp,ArrowRight"":10,""ArrowDown,ArrowLeft"":5,""ArrowDown,ArrowRight"":17}","false","ArrowUp","true","","","revaluation","1","74","","",""
"html-keyboard-response","191","897176","0.0-4.0-2.0-1.37","spark_pilot_2","8161","4","18","Male","","","","","","","null","<div style=""font-size:60px;"">+</div>","null","fixation","","","","","","","","","","","75","","",""
"revaluation","192","903198","0.0-4.0-2.0-0.38","spark_pilot_2","8161","4","18","Male","","false","","","","","[644.9000000059605,619.2999999970198]","./assets/img/ocean/memory/39.jpg","[""ArrowUp"",""ArrowLeft""]","value training","ocean","26","{""ArrowUp,ArrowLeft"":26,""ArrowUp,ArrowRight"":10,""ArrowDown,ArrowLeft"":5,""ArrowDown,ArrowRight"":17}","true","ArrowUp,ArrowLeft","false","","","revaluation","1","76","","",""
"html-keyboard-response","193","903704","0.0-4.0-2.0-1.38","spark_pilot_2","8161","4","18","Male","","","","","","","null","<div style=""font-size:60px;"">+</div>","null","fixation","","","","","","","","","","","77","","",""
"revaluation","194","907721","0.0-4.0-2.0-0.39","spark_pilot_2","8161","4","18","Male","","false","","","","","[646.1000000089407]","./assets/img/ocean/catch/0.jpg","[""spaceBar""]","value training","ocean","0","{""ArrowUp,ArrowLeft"":26,""ArrowUp,ArrowRight"":10,""ArrowDown,ArrowLeft"":5,""ArrowDown,ArrowRight"":17}","true","spaceBar","true","","","revaluation","1","78","","",""
"html-keyboard-response","195","908232","0.0-4.0-2.0-1.39","spark_pilot_2","8161","4","18","Male","","","","","","","null","<div style=""font-size:60px;"">+</div>","null","fixation","","","","","","","","","","","79","","",""
"revaluation","196","914254","0.0-4.0-2.0-0.40","spark_pilot_2","8161","4","18","Male","","false","","","","","[892.6000000089407,551.1000000089407]","./assets/img/ocean/memory/2.jpg","[""ArrowUp"",""ArrowLeft""]","value training","ocean","26","{""ArrowUp,ArrowLeft"":26,""ArrowUp,ArrowRight"":10,""ArrowDown,ArrowLeft"":5,""ArrowDown,ArrowRight"":17}","true","ArrowUp,ArrowLeft","false","","","revaluation","1","80","","",""
"html-keyboard-response","197","914760","0.0-4.0-2.0-1.40","spark_pilot_2","8161","4","18","Male","","","","","","","null","<div style=""font-size:60px;"">+</div>","null","fixation","","","","","","","","","","","81","","",""
"revaluation","198","920782","0.0-4.0-2.0-0.41","spark_pilot_2","8161","4","18","Male","","false","","","","","[573.8999999910593,288.70000000298023]","./assets/img/ocean/memory/1.jpg","[""ArrowUp"",""ArrowLeft""]","value training","ocean","26","{""ArrowUp,ArrowLeft"":26,""ArrowUp,ArrowRight"":10,""ArrowDown,ArrowLeft"":5,""ArrowDown,ArrowRight"":17}","true","ArrowUp,ArrowLeft","false","","","revaluation","1","82","","",""
"html-keyboard-response","199","921288","0.0-4.0-2.0-1.41","spark_pilot_2","8161","4","18","Male","","","","","","","null","<div style=""font-size:60px;"">+</div>","null","fixation","","","","","","","","","","","83","","",""
"revaluation","200","925304","0.0-4.0-2.0-0.42","spark_pilot_2","8161","4","18","Male","","false","","","","","[535.7000000029802]","./assets/img/ocean/catch/2.jpg","[""spaceBar""]","value training","ocean","0","{""ArrowUp,ArrowLeft"":26,""ArrowUp,ArrowRight"":10,""ArrowDown,ArrowLeft"":5,""ArrowDown,ArrowRight"":17}","true","spaceBar","true","","","revaluation","1","84","","",""
"html-keyboard-response","201","925816","0.0-4.0-2.0-1.42","spark_pilot_2","8161","4","18","Male","","","","","","","null","<div style=""font-size:60px;"">+</div>","null","fixation","","","","","","","","","","","85","","",""
"revaluation","202","931837","0.0-4.0-2.0-0.43","spark_pilot_2","8161","4","18","Male","","false","","","","","[546.0999999940395,494.20000000298023]","./assets/img/ocean/memory/25.jpg","[""ArrowUp"",""ArrowLeft""]","value training","ocean","26","{""ArrowUp,ArrowLeft"":26,""ArrowUp,ArrowRight"":10,""ArrowDown,ArrowLeft"":5,""ArrowDown,ArrowRight"":17}","true","ArrowUp,ArrowLeft","false","","","revaluation","1","86","","",""
"html-keyboard-response","203","932344","0.0-4.0-2.0-1.43","spark_pilot_2","8161","4","18","Male","","","","","","","null","<div style=""font-size:60px;"">+</div>","null","fixation","","","","","","","","","","","87","","",""
"revaluation","204","938366","0.0-4.0-2.0-0.44","spark_pilot_2","8161","4","18","Male","","false","","","","","[794.5999999940395,428.5]","./assets/img/ocean/memory/14.jpg","[""ArrowUp"",""ArrowLeft""]","value training","ocean","26","{""ArrowUp,ArrowLeft"":26,""ArrowUp,ArrowRight"":10,""ArrowDown,ArrowLeft"":5,""ArrowDown,ArrowRight"":17}","true","ArrowUp,ArrowLeft","false","","","revaluation","1","88","","",""
"html-keyboard-response","205","938872","0.0-4.0-2.0-1.44","spark_pilot_2","8161","4","18","Male","","","","","","","null","<div style=""font-size:60px;"">+</div>","null","fixation","","","","","","","","","","","89","","",""
"revaluation","206","944893","0.0-4.0-2.0-0.45","spark_pilot_2","8161","4","18","Male","","false","","","","","[516.1000000089407,460.59999999403954]","./assets/img/ocean/memory/27.jpg","[""ArrowUp"",""ArrowLeft""]","value training","ocean","26","{""ArrowUp,ArrowLeft"":26,""ArrowUp,ArrowRight"":10,""ArrowDown,ArrowLeft"":5,""ArrowDown,ArrowRight"":17}","true","ArrowUp,ArrowLeft","false","","","revaluation","1","90","","",""
"html-keyboard-response","207","945400","0.0-4.0-2.0-1.45","spark_pilot_2","8161","4","18","Male","","","","","","","null","<div style=""font-size:60px;"">+</div>","null","fixation","","","","","","","","","","","91","","",""
"revaluation","208","951421","0.0-4.0-2.0-0.46","spark_pilot_2","8161","4","18","Male","","false","","","","","[630.7999999970198,513.5999999940395]","./assets/img/ocean/memory/34.jpg","[""ArrowUp"",""ArrowLeft""]","value training","ocean","26","{""ArrowUp,ArrowLeft"":26,""ArrowUp,ArrowRight"":10,""ArrowDown,ArrowLeft"":5,""ArrowDown,ArrowRight"":17}","true","ArrowUp,ArrowLeft","false","","","revaluation","1","92","","",""
"html-keyboard-response","209","951927","0.0-4.0-2.0-1.46","spark_pilot_2","8161","4","18","Male","","","","","","","null","<div style=""font-size:60px;"">+</div>","null","fixation","","","","","","","","","","","93","","",""
"revaluation","210","957951","0.0-4.0-2.0-0.47","spark_pilot_2","8161","4","18","Male","","false","","","","","[533.0999999940395,384.29999999701977]","./assets/img/ocean/memory/28.jpg","[""ArrowUp"",""ArrowLeft""]","value training","ocean","26","{""ArrowUp,ArrowLeft"":26,""ArrowUp,ArrowRight"":10,""ArrowDown,ArrowLeft"":5,""ArrowDown,ArrowRight"":17}","true","ArrowUp,ArrowLeft","false","","","revaluation","1","94","","",""
"html-keyboard-response","211","958460","0.0-4.0-2.0-1.47","spark_pilot_2","8161","4","18","Male","","","","","","","null","<div style=""font-size:60px;"">+</div>","null","fixation","","","","","","","","","","","95","","",""
"revaluation","212","964488","0.0-4.0-2.0-0.48","spark_pilot_2","8161","4","18","Male","","false","","","","","[723.2000000029802,431.20000000298023]","./assets/img/ocean/memory/0.jpg","[""ArrowUp"",""ArrowLeft""]","value training","ocean","26","{""ArrowUp,ArrowLeft"":26,""ArrowUp,ArrowRight"":10,""ArrowDown,ArrowLeft"":5,""ArrowDown,ArrowRight"":17}","true","ArrowUp,ArrowLeft","false","","","revaluation","1","96","","",""
"html-keyboard-response","213","964999","0.0-4.0-2.0-1.48","spark_pilot_2","8161","4","18","Male","","","","","","","null","<div style=""font-size:60px;"">+</div>","null","fixation","","","","","","","","","","","97","","",""
"revaluation","214","971021","0.0-4.0-2.0-0.49","spark_pilot_2","8161","4","18","Male","","false","","","","","[686,488.40000000596046]","./assets/img/ocean/memory/9.jpg","[""ArrowUp"",""ArrowLeft""]","value training","ocean","26","{""ArrowUp,ArrowLeft"":26,""ArrowUp,ArrowRight"":10,""ArrowDown,ArrowLeft"":5,""ArrowDown,ArrowRight"":17}","true","ArrowUp,ArrowLeft","false","","","revaluation","1","98","","",""
"html-keyboard-response","215","971526","0.0-4.0-2.0-1.49","spark_pilot_2","8161","4","18","Male","","","","","","","null","<div style=""font-size:60px;"">+</div>","null","fixation","","","","","","","","","","","99","","",""
"learning-instructions","216","986175","0.0-4.0-3.0-0.0","spark_pilot_2","8161","4","18","Male","","","","","","","1304.5","<p> Now, you will travel with a friend who will choose whether you go up or down first. </p>
            <p> On these turns, you will just see the animal that they found. You will still get to choose which chest to search for treasure.</p>","","instructions","","","","","","","","","","","","","",""
"revaluation","217","990190","0.0-4.0-4.0-0.0","spark_pilot_2","8161","4","18","Male","","false","","","","","[896.5999999940395]","./assets/img/ocean/animals/octopus.jpg","[""ArrowLeft""]","revaluation","ocean","2","{""ArrowUp,ArrowLeft"":2,""ArrowUp,ArrowRight"":11,""ArrowDown,ArrowLeft"":8,""ArrowDown,ArrowRight"":27}","false","ArrowUp,ArrowLeft","","","","revaluation","1","0","","",""
"html-keyboard-response","218","990699","0.0-4.0-4.0-1.0","spark_pilot_2","8161","4","18","Male","","","","","","","null","<div style=""font-size:60px;"">+</div>","null","fixation","","","","","","","","","","","1","","",""
"revaluation","219","994716","0.0-4.0-4.0-0.1","spark_pilot_2","8161","4","18","Male","","false","","","","","[956.7000000029802]","./assets/img/ocean/animals/seahorse.jpg","[""ArrowLeft""]","revaluation","ocean","8","{""ArrowUp,ArrowLeft"":2,""ArrowUp,ArrowRight"":11,""ArrowDown,ArrowLeft"":8,""ArrowDown,ArrowRight"":27}","false","ArrowDown,ArrowLeft","","","","revaluation","1","2","","",""
"html-keyboard-response","220","995219","0.0-4.0-4.0-1.1","spark_pilot_2","8161","4","18","Male","","","","","","","null","<div style=""font-size:60px;"">+</div>","null","fixation","","","","","","","","","","","3","","",""
"revaluation","221","999240","0.0-4.0-4.0-0.2","spark_pilot_2","8161","4","18","Male","","false","","","","","[704.2000000029802]","./assets/img/ocean/animals/seahorse.jpg","[""ArrowRight""]","revaluation","ocean","27","{""ArrowUp,ArrowLeft"":2,""ArrowUp,ArrowRight"":11,""ArrowDown,ArrowLeft"":8,""ArrowDown,ArrowRight"":27}","true","ArrowDown,ArrowRight","","","","revaluation","1","4","","",""
"html-keyboard-response","222","999747","0.0-4.0-4.0-1.2","spark_pilot_2","8161","4","18","Male","","","","","","","null","<div style=""font-size:60px;"">+</div>","null","fixation","","","","","","","","","","","5","","",""
"revaluation","223","1003766","0.0-4.0-4.0-0.3","spark_pilot_2","8161","4","18","Male","","false","","","","","[786.4000000059605]","./assets/img/ocean/animals/seahorse.jpg","[""ArrowRight""]","revaluation","ocean","27","{""ArrowUp,ArrowLeft"":2,""ArrowUp,ArrowRight"":11,""ArrowDown,ArrowLeft"":8,""ArrowDown,ArrowRight"":27}","true","ArrowDown,ArrowRight","","","","revaluation","1","6","","",""
"html-keyboard-response","224","1004274","0.0-4.0-4.0-1.3","spark_pilot_2","8161","4","18","Male","","","","","","[{""event"":""fullscreenenter"",""trial"":2,""time"":23288},{""event"":""blur"",""trial"":225,""time"":1004386},{""event"":""focus"",""trial"":229,""time"":1017311}]","null","<div style=""font-size:60px;"">+</div>","null","fixation","","","","","","","","","","","7","","",""
"revaluation","225","1008292","0.0-4.0-4.0-0.4","spark_pilot_2","8161","4","18","Male","","true","","","","","[]","./assets/img/ocean/animals/seahorse.jpg","[]","revaluation","ocean","-5","{""ArrowUp,ArrowLeft"":2,""ArrowUp,ArrowRight"":11,""ArrowDown,ArrowLeft"":8,""ArrowDown,ArrowRight"":27}","false","ArrowDown","","","","revaluation","1","8","","",""
"html-keyboard-response","226","1008795","0.0-4.0-4.0-1.4","spark_pilot_2","8161","4","18","Male","","","","","","","null","<div style=""font-size:60px;"">+</div>","null","fixation","","","","","","","","","","","9","","",""
"revaluation","227","1012811","0.0-4.0-4.0-0.5","spark_pilot_2","8161","4","18","Male","","true","","","","","[]","./assets/img/ocean/animals/octopus.jpg","[]","revaluation","ocean","-5","{""ArrowUp,ArrowLeft"":2,""ArrowUp,ArrowRight"":11,""ArrowDown,ArrowLeft"":8,""ArrowDown,ArrowRight"":27}","false","ArrowUp","","","","revaluation","1","10","","",""
"html-keyboard-response","228","1013317","0.0-4.0-4.0-1.5","spark_pilot_2","8161","4","18","Male","","","","","","[{""event"":""fullscreenenter"",""trial"":2,""time"":23288},{""event"":""blur"",""trial"":225,""time"":1004386},{""event"":""focus"",""trial"":229,""time"":1017311}]","null","<div style=""font-size:60px;"">+</div>","null","fixation","","","","","","","","","","","11","","",""
"revaluation","229","1017334","0.0-4.0-4.0-0.6","spark_pilot_2","8161","4","18","Male","","true","","","","","[]","./assets/img/ocean/animals/octopus.jpg","[]","revaluation","ocean","-5","{""ArrowUp,ArrowLeft"":2,""ArrowUp,ArrowRight"":11,""ArrowDown,ArrowLeft"":8,""ArrowDown,ArrowRight"":27}","false","ArrowUp","","","","revaluation","1","12","","",""
"html-keyboard-response","230","1017846","0.0-4.0-4.0-1.6","spark_pilot_2","8161","4","18","Male","","","","","","","null","<div style=""font-size:60px;"">+</div>","null","fixation","","","","","","","","","","","13","","",""
"revaluation","231","1021863","0.0-4.0-4.0-0.7","spark_pilot_2","8161","4","18","Male","","false","","","","","[883.2999999970198]","./assets/img/ocean/animals/octopus.jpg","[""ArrowRight""]","revaluation","ocean","11","{""ArrowUp,ArrowLeft"":2,""ArrowUp,ArrowRight"":11,""ArrowDown,ArrowLeft"":8,""ArrowDown,ArrowRight"":27}","true","ArrowUp,ArrowRight","","","","revaluation","1","14","","",""
"html-keyboard-response","232","1022374","0.0-4.0-4.0-1.7","spark_pilot_2","8161","4","18","Male","","","","","","","null","<div style=""font-size:60px;"">+</div>","null","fixation","","","","","","","","","","","15","","",""
"revaluation","233","1026391","0.0-4.0-4.0-0.8","spark_pilot_2","8161","4","18","Male","","false","","","","","[659.3999999910593]","./assets/img/ocean/animals/octopus.jpg","[""ArrowRight""]","revaluation","ocean","11","{""ArrowUp,ArrowLeft"":2,""ArrowUp,ArrowRight"":11,""ArrowDown,ArrowLeft"":8,""ArrowDown,ArrowRight"":27}","true","ArrowUp,ArrowRight","","","","revaluation","1","16","","",""
"html-keyboard-response","234","1026902","0.0-4.0-4.0-1.8","spark_pilot_2","8161","4","18","Male","","","","","","","null","<div style=""font-size:60px;"">+</div>","null","fixation","","","","","","","","","","","17","","",""
"revaluation","235","1030919","0.0-4.0-4.0-0.9","spark_pilot_2","8161","4","18","Male","","false","","","","","[565.1000000089407]","./assets/img/ocean/animals/seahorse.jpg","[""ArrowRight""]","revaluation","ocean","27","{""ArrowUp,ArrowLeft"":2,""ArrowUp,ArrowRight"":11,""ArrowDown,ArrowLeft"":8,""ArrowDown,ArrowRight"":27}","true","ArrowDown,ArrowRight","","","","revaluation","1","18","","",""
"html-keyboard-response","236","1031430","0.0-4.0-4.0-1.9","spark_pilot_2","8161","4","18","Male","","","","","","","null","<div style=""font-size:60px;"">+</div>","null","fixation","","","","","","","","","","","19","","",""
"revaluation","237","1035447","0.0-4.0-4.0-0.10","spark_pilot_2","8161","4","18","Male","","false","","","","","[328.09999999403954]","./assets/img/ocean/animals/seahorse.jpg","[""ArrowLeft""]","revaluation","ocean","8","{""ArrowUp,ArrowLeft"":2,""ArrowUp,ArrowRight"":11,""ArrowDown,ArrowLeft"":8,""ArrowDown,ArrowRight"":27}","false","ArrowDown,ArrowLeft","","","","revaluation","1","20","","",""
"html-keyboard-response","238","1035958","0.0-4.0-4.0-1.10","spark_pilot_2","8161","4","18","Male","","","","","","","null","<div style=""font-size:60px;"">+</div>","null","fixation","","","","","","","","","","","21","","",""
"revaluation","239","1039974","0.0-4.0-4.0-0.11","spark_pilot_2","8161","4","18","Male","","false","","","","","[400.8999999910593]","./assets/img/ocean/animals/octopus.jpg","[""ArrowRight""]","revaluation","ocean","11","{""ArrowUp,ArrowLeft"":2,""ArrowUp,ArrowRight"":11,""ArrowDown,ArrowLeft"":8,""ArrowDown,ArrowRight"":27}","true","ArrowUp,ArrowRight","","","","revaluation","1","22","","",""
"html-keyboard-response","240","1040486","0.0-4.0-4.0-1.11","spark_pilot_2","8161","4","18","Male","","","","","","","null","<div style=""font-size:60px;"">+</div>","null","fixation","","","","","","","","","","","23","","",""
"revaluation","241","1044502","0.0-4.0-4.0-0.12","spark_pilot_2","8161","4","18","Male","","false","","","","","[616.8000000119209]","./assets/img/ocean/animals/octopus.jpg","[""ArrowLeft""]","revaluation","ocean","2","{""ArrowUp,ArrowLeft"":2,""ArrowUp,ArrowRight"":11,""ArrowDown,ArrowLeft"":8,""ArrowDown,ArrowRight"":27}","false","ArrowUp,ArrowLeft","","","","revaluation","1","24","","",""
"html-keyboard-response","242","1045014","0.0-4.0-4.0-1.12","spark_pilot_2","8161","4","18","Male","","","","","","","null","<div style=""font-size:60px;"">+</div>","null","fixation","","","","","","","","","","","25","","",""
"revaluation","243","1049030","0.0-4.0-4.0-0.13","spark_pilot_2","8161","4","18","Male","","false","","","","","[412.20000000298023]","./assets/img/ocean/animals/octopus.jpg","[""ArrowRight""]","revaluation","ocean","11","{""ArrowUp,ArrowLeft"":2,""ArrowUp,ArrowRight"":11,""ArrowDown,ArrowLeft"":8,""ArrowDown,ArrowRight"":27}","true","ArrowUp,ArrowRight","","","","revaluation","1","26","","",""
"html-keyboard-response","244","1049542","0.0-4.0-4.0-1.13","spark_pilot_2","8161","4","18","Male","","","","","","","null","<div style=""font-size:60px;"">+</div>","null","fixation","","","","","","","","","","","27","","",""
"revaluation","245","1053558","0.0-4.0-4.0-0.14","spark_pilot_2","8161","4","18","Male","","false","","","","","[326.79999999701977]","./assets/img/ocean/animals/octopus.jpg","[""ArrowRight""]","revaluation","ocean","11","{""ArrowUp,ArrowLeft"":2,""ArrowUp,ArrowRight"":11,""ArrowDown,ArrowLeft"":8,""ArrowDown,ArrowRight"":27}","true","ArrowUp,ArrowRight","","","","revaluation","1","28","","",""
"html-keyboard-response","246","1054070","0.0-4.0-4.0-1.14","spark_pilot_2","8161","4","18","Male","","","","","","","null","<div style=""font-size:60px;"">+</div>","null","fixation","","","","","","","","","","","29","","",""
"revaluation","247","1058086","0.0-4.0-4.0-0.15","spark_pilot_2","8161","4","18","Male","","false","","","","","[345.09999999403954]","./assets/img/ocean/animals/seahorse.jpg","[""ArrowRight""]","revaluation","ocean","27","{""ArrowUp,ArrowLeft"":2,""ArrowUp,ArrowRight"":11,""ArrowDown,ArrowLeft"":8,""ArrowDown,ArrowRight"":27}","true","ArrowDown,ArrowRight","","","","revaluation","1","30","","",""
"html-keyboard-response","248","1058598","0.0-4.0-4.0-1.15","spark_pilot_2","8161","4","18","Male","","","","","","","null","<div style=""font-size:60px;"">+</div>","null","fixation","","","","","","","","","","","31","","",""
"revaluation","249","1062613","0.0-4.0-4.0-0.16","spark_pilot_2","8161","4","18","Male","","false","","","","","[90.1000000089407]","./assets/img/ocean/animals/seahorse.jpg","[""ArrowRight""]","revaluation","ocean","27","{""ArrowUp,ArrowLeft"":2,""ArrowUp,ArrowRight"":11,""ArrowDown,ArrowLeft"":8,""ArrowDown,ArrowRight"":27}","true","ArrowDown,ArrowRight","","","","revaluation","1","32","","",""
"html-keyboard-response","250","1063125","0.0-4.0-4.0-1.16","spark_pilot_2","8161","4","18","Male","","","","","","","null","<div style=""font-size:60px;"">+</div>","null","fixation","","","","","","","","","","","33","","",""
"revaluation","251","1067141","0.0-4.0-4.0-0.17","spark_pilot_2","8161","4","18","Male","","false","","","","","[205.79999999701977]","./assets/img/ocean/animals/seahorse.jpg","[""ArrowRight""]","revaluation","ocean","27","{""ArrowUp,ArrowLeft"":2,""ArrowUp,ArrowRight"":11,""ArrowDown,ArrowLeft"":8,""ArrowDown,ArrowRight"":27}","true","ArrowDown,ArrowRight","","","","revaluation","1","34","","",""
"html-keyboard-response","252","1067654","0.0-4.0-4.0-1.17","spark_pilot_2","8161","4","18","Male","","","","","","","null","<div style=""font-size:60px;"">+</div>","null","fixation","","","","","","","","","","","35","","",""
"learning-instructions","253","1081066","0.0-4.0-5.0-0.0","spark_pilot_2","8161","4","18","Male","","","","","","","1392","<p> Time to play the dot game! </p>
            <p> For one minute, click the red dots on the following screen as they appear. </p>
            <p><b> Don't look away, as you will earn bonus for clicking dots</b>. </p>","","instructions","","","","","","","","","","","","","",""
"revaluation","254","1141077","0.0-4.0-6.0-0.0","spark_pilot_2","8161","4","18","Male","","","","","","","[83,77,77,83,120,99]","","","rest","","60","","","","","0","60000","","","","","",""
"learning-instructions","255","1150187","0.0-4.0-7.0-0.0","spark_pilot_2","8161","4","18","Male","","","","","","","2495.2000000029802","<p> You have almost finished this part of the game! </p>
            <p> We are going to ask you to make a few more choices. </p>","","instructions","","","","","","","","","","","","","",""
"learning-instructions","256","1166082","0.0-4.0-7.0-0.1","spark_pilot_2","8161","4","18","Male","","","","","","","1922.2000000029802","<p> First, you need to decide whether to go up or down. When you see each picture, use the arrow keys to make your choice. </p>
            <p><b>You will not see which animal you found, but try to get to the one that will give you the most treasure.</b></p>","","instructions","","","","","","","","","","","","","",""
"revaluation","257","1167386","0.0-4.0-8.0-0.0","spark_pilot_2","8161","4","18","Male","","false","","","","","[1301.1000000089407]","./assets/img/ocean/test/3.jpg","[""ArrowUp""]","first stage test","ocean","0","{""ArrowUp,ArrowLeft"":2,""ArrowUp,ArrowRight"":11,""ArrowDown,ArrowLeft"":8,""ArrowDown,ArrowRight"":27}","false","ArrowUp","false","","","revaluation","1","","","",""
"html-keyboard-response","258","1167889","0.0-4.0-8.0-1.0","spark_pilot_2","8161","4","18","Male","","","","","","","null","<div style=""font-size:60px;"">+</div>","null","fixation","","","","","","","","","","","","","",""
"revaluation","259","1169624","0.0-4.0-8.0-0.1","spark_pilot_2","8161","4","18","Male","","false","","","","","[1731.9000000059605]","./assets/img/ocean/test/0.jpg","[""ArrowUp""]","first stage test","ocean","0","{""ArrowUp,ArrowLeft"":2,""ArrowUp,ArrowRight"":11,""ArrowDown,ArrowLeft"":8,""ArrowDown,ArrowRight"":27}","false","ArrowUp","false","","","revaluation","1","","","",""
"html-keyboard-response","260","1170133","0.0-4.0-8.0-1.1","spark_pilot_2","8161","4","18","Male","","","","","","","null","<div style=""font-size:60px;"">+</div>","null","fixation","","","","","","","","","","","","","",""
"revaluation","261","1171472","0.0-4.0-8.0-0.2","spark_pilot_2","8161","4","18","Male","","false","","","","","[1335.5]","./assets/img/ocean/test/1.jpg","[""ArrowUp""]","first stage test","ocean","0","{""ArrowUp,ArrowLeft"":2,""ArrowUp,ArrowRight"":11,""ArrowDown,ArrowLeft"":8,""ArrowDown,ArrowRight"":27}","false","ArrowUp","false","","","revaluation","1","","","",""
"html-keyboard-response","262","1171981","0.0-4.0-8.0-1.2","spark_pilot_2","8161","4","18","Male","","","","","","","null","<div style=""font-size:60px;"">+</div>","null","fixation","","","","","","","","","","","","","",""
"revaluation","263","1173187","0.0-4.0-8.0-0.3","spark_pilot_2","8161","4","18","Male","","false","","","","","[1202.5999999940395]","./assets/img/ocean/test/2.jpg","[""ArrowDown""]","first stage test","ocean","0","{""ArrowUp,ArrowLeft"":2,""ArrowUp,ArrowRight"":11,""ArrowDown,ArrowLeft"":8,""ArrowDown,ArrowRight"":27}","true","ArrowDown","false","","","revaluation","1","","","",""
"html-keyboard-response","264","1173691","0.0-4.0-8.0-1.3","spark_pilot_2","8161","4","18","Male","","","","","","","null","<div style=""font-size:60px;"">+</div>","null","fixation","","","","","","","","","","","","","",""
"learning-instructions","265","1186172","0.0-4.0-9.0-0.0","spark_pilot_2","8161","4","18","Male","","","","","","","1137.7000000029802","<p> Now you will see the animals again and can search their chests for treasure. </p>
            <p> This time, you will not see how much treasure you earned, but you will earn more bonus money for making better choices. </p>","","instructions","","","","","","","","","","","","","",""
"revaluation","266","1187019","0.0-4.0-10.0-0.0","spark_pilot_2","8161","4","18","Male","","false","","","","","[844.2000000029802]","./assets/img/ocean/animals/octopus.jpg","[""ArrowRight""]","second stage test","ocean","0","{""ArrowUp,ArrowLeft"":2,""ArrowUp,ArrowRight"":11,""ArrowDown,ArrowLeft"":8,""ArrowDown,ArrowRight"":27}","true","ArrowUp,ArrowRight","","","","revaluation","1","","","",""
"html-keyboard-response","267","1187523","0.0-4.0-10.0-1.0","spark_pilot_2","8161","4","18","Male","","","","","","","null","<div style=""font-size:60px;"">+</div>","null","fixation","","","","","","","","","","","","","",""
"revaluation","268","1188665","0.0-4.0-10.0-0.1","spark_pilot_2","8161","4","18","Male","","false","","","","","[1138.2000000029802]","./assets/img/ocean/animals/octopus.jpg","[""ArrowRight""]","second stage test","ocean","0","{""ArrowUp,ArrowLeft"":2,""ArrowUp,ArrowRight"":11,""ArrowDown,ArrowLeft"":8,""ArrowDown,ArrowRight"":27}","true","ArrowUp,ArrowRight","","","","revaluation","1","","","",""
"html-keyboard-response","269","1189173","0.0-4.0-10.0-1.1","spark_pilot_2","8161","4","18","Male","","","","","","","null","<div style=""font-size:60px;"">+</div>","null","fixation","","","","","","","","","","","","","",""
"revaluation","270","1189790","0.0-4.0-10.0-0.2","spark_pilot_2","8161","4","18","Male","","false","","","","","[614.0999999940395]","./assets/img/ocean/animals/octopus.jpg","[""ArrowRight""]","second stage test","ocean","0","{""ArrowUp,ArrowLeft"":2,""ArrowUp,ArrowRight"":11,""ArrowDown,ArrowLeft"":8,""ArrowDown,ArrowRight"":27}","true","ArrowUp,ArrowRight","","","","revaluation","1","","","",""
"html-keyboard-response","271","1190296","0.0-4.0-10.0-1.2","spark_pilot_2","8161","4","18","Male","","","","","","","null","<div style=""font-size:60px;"">+</div>","null","fixation","","","","","","","","","","","","","",""
"revaluation","272","1190748","0.0-4.0-10.0-0.3","spark_pilot_2","8161","4","18","Male","","false","","","","","[448.09999999403954]","./assets/img/ocean/animals/octopus.jpg","[""ArrowRight""]","second stage test","ocean","0","{""ArrowUp,ArrowLeft"":2,""ArrowUp,ArrowRight"":11,""ArrowDown,ArrowLeft"":8,""ArrowDown,ArrowRight"":27}","true","ArrowUp,ArrowRight","","","","revaluation","1","","","",""
"html-keyboard-response","273","1191253","0.0-4.0-10.0-1.3","spark_pilot_2","8161","4","18","Male","","","","","","","null","<div style=""font-size:60px;"">+</div>","null","fixation","","","","","","","","","","","","","",""
"revaluation","274","1192487","0.0-4.0-10.0-0.4","spark_pilot_2","8161","4","18","Male","","false","","","","","[1230.6000000089407]","./assets/img/ocean/animals/seahorse.jpg","[""ArrowRight""]","second stage test","ocean","0","{""ArrowUp,ArrowLeft"":2,""ArrowUp,ArrowRight"":11,""ArrowDown,ArrowLeft"":8,""ArrowDown,ArrowRight"":27}","true","ArrowDown,ArrowRight","","","","revaluation","1","","","",""
"html-keyboard-response","275","1192992","0.0-4.0-10.0-1.4","spark_pilot_2","8161","4","18","Male","","","","","","","null","<div style=""font-size:60px;"">+</div>","null","fixation","","","","","","","","","","","","","",""
"revaluation","276","1193403","0.0-4.0-10.0-0.5","spark_pilot_2","8161","4","18","Male","","false","","","","","[408.19999998807907]","./assets/img/ocean/animals/seahorse.jpg","[""ArrowRight""]","second stage test","ocean","0","{""ArrowUp,ArrowLeft"":2,""ArrowUp,ArrowRight"":11,""ArrowDown,ArrowLeft"":8,""ArrowDown,ArrowRight"":27}","true","ArrowDown,ArrowRight","","","","revaluation","1","","","",""
"html-keyboard-response","277","1193909","0.0-4.0-10.0-1.5","spark_pilot_2","8161","4","18","Male","","","","","","","null","<div style=""font-size:60px;"">+</div>","null","fixation","","","","","","","","","","","","","",""
"revaluation","278","1194231","0.0-4.0-10.0-0.6","spark_pilot_2","8161","4","18","Male","","false","","","","","[318.6000000089407]","./assets/img/ocean/animals/seahorse.jpg","[""ArrowRight""]","second stage test","ocean","0","{""ArrowUp,ArrowLeft"":2,""ArrowUp,ArrowRight"":11,""ArrowDown,ArrowLeft"":8,""ArrowDown,ArrowRight"":27}","true","ArrowDown,ArrowRight","","","","revaluation","1","","","",""
"html-keyboard-response","279","1194737","0.0-4.0-10.0-1.6","spark_pilot_2","8161","4","18","Male","","","","","","","null","<div style=""font-size:60px;"">+</div>","null","fixation","","","","","","","","","","","","","",""
"revaluation","280","1195054","0.0-4.0-10.0-0.7","spark_pilot_2","8161","4","18","Male","","false","","","","","[313.5]","./assets/img/ocean/animals/seahorse.jpg","[""ArrowRight""]","second stage test","ocean","0","{""ArrowUp,ArrowLeft"":2,""ArrowUp,ArrowRight"":11,""ArrowDown,ArrowLeft"":8,""ArrowDown,ArrowRight"":27}","true","ArrowDown,ArrowRight","","","","revaluation","1","","","",""
"html-keyboard-response","281","1195565","0.0-4.0-10.0-1.7","spark_pilot_2","8161","4","18","Male","","","","","","","null","<div style=""font-size:60px;"">+</div>","null","fixation","","","","","","","","","","","","","",""
"learning-instructions","282","1200126","0.0-4.0-0.1-0.2","spark_pilot_2","8161","4","18","Male","","","","","","","1779.7999999970198","<p> This time you are searching for treasure in the <b>canyon</b>.</p>","","instructions","","","","","","","","","","","","","",""
"learning-instructions","283","1219869","0.0-4.0-0.1-0.3","spark_pilot_2","8161","4","18","Male","","","","","","","2487.6000000089407","<p><b>New</b> animals with <b>new</b> treasure chests live here. You need to explore to discover where the animal with the best treasure chest is.</p>
                    <p> Like before, once you figure out which animal has the chest with the most treasure, you should try to get to that animal and select that chest! </p>","","instructions","","","","","","","","","","","","","",""
"learning-instructions","284","1236053","0.0-4.0-1.1-0.1","spark_pilot_2","8161","4","18","Male","","","","","","","1456.5999999940395","<p> Remember, when you see a picture of the place, use the up and down keys to <b>find an animal</b>.</p>
            <p> When you encounter an animal, you should use the left and right keys to <b>select a treasure chest</b>.</p>
            <p> Don't forget to look out for the robber! </p>","","instructions","","","","","","","","","","","","","",""
"revaluation","285","1242080","0.0-4.0-2.1-0.50","spark_pilot_2","8161","4","18","Male","","false","","","","","[1188.7999999970198,607.2999999970198]","./assets/img/canyon/memory/35.jpg","[""ArrowUp"",""ArrowRight""]","value training","canyon","10","{""ArrowUp,ArrowLeft"":23,""ArrowUp,ArrowRight"":10,""ArrowDown,ArrowLeft"":8,""ArrowDown,ArrowRight"":30}","false","ArrowUp,ArrowRight","false","","","original","2","0","","",""
"html-keyboard-response","286","1242584","0.0-4.0-2.1-1.50","spark_pilot_2","8161","4","18","Male","","","","","","","null","<div style=""font-size:60px;"">+</div>","null","fixation","","","","","","","","","","","1","","",""
"revaluation","287","1248612","0.0-4.0-2.1-0.51","spark_pilot_2","8161","4","18","Male","","false","","","","","[644,348.3999999910593]","./assets/img/canyon/memory/34.jpg","[""ArrowUp"",""ArrowLeft""]","value training","canyon","23","{""ArrowUp,ArrowLeft"":23,""ArrowUp,ArrowRight"":10,""ArrowDown,ArrowLeft"":8,""ArrowDown,ArrowRight"":30}","false","ArrowUp,ArrowLeft","false","","","original","2","2","","",""
"html-keyboard-response","288","1249123","0.0-4.0-2.1-1.51","spark_pilot_2","8161","4","18","Male","","","","","","","null","<div style=""font-size:60px;"">+</div>","null","fixation","","","","","","","","","","","3","","",""
"revaluation","289","1255148","0.0-4.0-2.1-0.52","spark_pilot_2","8161","4","18","Male","","false","","","","","[708.7000000029802,476.09999999403954]","./assets/img/canyon/memory/1.jpg","[""ArrowDown"",""ArrowLeft""]","value training","canyon","8","{""ArrowUp,ArrowLeft"":23,""ArrowUp,ArrowRight"":10,""ArrowDown,ArrowLeft"":8,""ArrowDown,ArrowRight"":30}","false","ArrowDown,ArrowLeft","false","","","original","2","4","","",""
"html-keyboard-response","290","1255656","0.0-4.0-2.1-1.52","spark_pilot_2","8161","4","18","Male","","","","","","","null","<div style=""font-size:60px;"">+</div>","null","fixation","","","","","","","","","","","5","","",""
"revaluation","291","1261684","0.0-4.0-2.1-0.53","spark_pilot_2","8161","4","18","Male","","false","","","","","[652.6999999880791,346.1000000089407]","./assets/img/canyon/memory/32.jpg","[""ArrowDown"",""ArrowRight""]","value training","canyon","30","{""ArrowUp,ArrowLeft"":23,""ArrowUp,ArrowRight"":10,""ArrowDown,ArrowLeft"":8,""ArrowDown,ArrowRight"":30}","true","ArrowDown,ArrowRight","false","","","original","2","6","","",""
"html-keyboard-response","292","1262196","0.0-4.0-2.1-1.53","spark_pilot_2","8161","4","18","Male","","","","","","","null","<div style=""font-size:60px;"">+</div>","null","fixation","","","","","","","","","","","7","","",""
"revaluation","293","1268224","0.0-4.0-2.1-0.54","spark_pilot_2","8161","4","18","Male","","false","","","","","[526.4000000059605,470.19999998807907]","./assets/img/canyon/memory/7.jpg","[""ArrowDown"",""ArrowRight""]","value training","canyon","30","{""ArrowUp,ArrowLeft"":23,""ArrowUp,ArrowRight"":10,""ArrowDown,ArrowLeft"":8,""ArrowDown,ArrowRight"":30}","true","ArrowDown,ArrowRight","false","","","original","2","8","","",""
"html-keyboard-response","294","1268730","0.0-4.0-2.1-1.54","spark_pilot_2","8161","4","18","Male","","","","","","","null","<div style=""font-size:60px;"">+</div>","null","fixation","","","","","","","","","","","9","","",""
"revaluation","295","1272746","0.0-4.0-2.1-0.55","spark_pilot_2","8161","4","18","Male","","false","","","","","[717.8999999910593]","./assets/img/canyon/catch/2.jpg","[""spaceBar""]","value training","canyon","0","{""ArrowUp,ArrowLeft"":23,""ArrowUp,ArrowRight"":10,""ArrowDown,ArrowLeft"":8,""ArrowDown,ArrowRight"":30}","true","spaceBar","true","","","original","2","10","","",""
"html-keyboard-response","296","1273258","0.0-4.0-2.1-1.55","spark_pilot_2","8161","4","18","Male","","","","","","","null","<div style=""font-size:60px;"">+</div>","null","fixation","","","","","","","","","","","11","","",""
"revaluation","297","1279280","0.0-4.0-2.1-0.56","spark_pilot_2","8161","4","18","Male","","false","","","","","[482.8999999910593,388.30000001192093]","./assets/img/canyon/memory/14.jpg","[""ArrowDown"",""ArrowRight""]","value training","canyon","30","{""ArrowUp,ArrowLeft"":23,""ArrowUp,ArrowRight"":10,""ArrowDown,ArrowLeft"":8,""ArrowDown,ArrowRight"":30}","true","ArrowDown,ArrowRight","false","","","original","2","12","","",""
"html-keyboard-response","298","1279786","0.0-4.0-2.1-1.56","spark_pilot_2","8161","4","18","Male","","","","","","","null","<div style=""font-size:60px;"">+</div>","null","fixation","","","","","","","","","","","13","","",""
"revaluation","299","1285808","0.0-4.0-2.1-0.57","spark_pilot_2","8161","4","18","Male","","false","","","","","[615.5,317]","./assets/img/canyon/memory/14.jpg","[""ArrowDown"",""ArrowRight""]","value training","canyon","30","{""ArrowUp,ArrowLeft"":23,""ArrowUp,ArrowRight"":10,""ArrowDown,ArrowLeft"":8,""ArrowDown,ArrowRight"":30}","true","ArrowDown,ArrowRight","false","","","original","2","14","","",""
"html-keyboard-response","300","1286314","0.0-4.0-2.1-1.57","spark_pilot_2","8161","4","18","Male","","","","","","","null","<div style=""font-size:60px;"">+</div>","null","fixation","","","","","","","","","","","15","","",""
"revaluation","301","1292335","0.0-4.0-2.1-0.58","spark_pilot_2","8161","4","18","Male","","false","","","","","[575.9000000059605,391.5]","./assets/img/canyon/memory/36.jpg","[""ArrowDown"",""ArrowRight""]","value training","canyon","30","{""ArrowUp,ArrowLeft"":23,""ArrowUp,ArrowRight"":10,""ArrowDown,ArrowLeft"":8,""ArrowDown,ArrowRight"":30}","true","ArrowDown,ArrowRight","false","","","original","2","16","","",""
"html-keyboard-response","302","1292841","0.0-4.0-2.1-1.58","spark_pilot_2","8161","4","18","Male","","","","","","","null","<div style=""font-size:60px;"">+</div>","null","fixation","","","","","","","","","","","17","","",""
"revaluation","303","1296858","0.0-4.0-2.1-0.59","spark_pilot_2","8161","4","18","Male","","false","","","","","[880.7000000029802]","./assets/img/canyon/catch/5.jpg","[""spaceBar""]","value training","canyon","0","{""ArrowUp,ArrowLeft"":23,""ArrowUp,ArrowRight"":10,""ArrowDown,ArrowLeft"":8,""ArrowDown,ArrowRight"":30}","true","spaceBar","true","","","original","2","18","","",""
"html-keyboard-response","304","1297370","0.0-4.0-2.1-1.59","spark_pilot_2","8161","4","18","Male","","","","","","","null","<div style=""font-size:60px;"">+</div>","null","fixation","","","","","","","","","","","19","","",""
"revaluation","305","1303392","0.0-4.0-2.1-0.60","spark_pilot_2","8161","4","18","Male","","false","","","","","[696.0999999940395,353.3999999910593]","./assets/img/canyon/memory/41.jpg","[""ArrowDown"",""ArrowRight""]","value training","canyon","30","{""ArrowUp,ArrowLeft"":23,""ArrowUp,ArrowRight"":10,""ArrowDown,ArrowLeft"":8,""ArrowDown,ArrowRight"":30}","true","ArrowDown,ArrowRight","false","","","original","2","20","","",""
"html-keyboard-response","306","1303898","0.0-4.0-2.1-1.60","spark_pilot_2","8161","4","18","Male","","","","","","","null","<div style=""font-size:60px;"">+</div>","null","fixation","","","","","","","","","","","21","","",""
