"trial_type","trial_index","time_elapsed","internal_node_id","task_version","subject_id","assigned_condition","age","gender","success","timeout","failed_images","failed_audio","failed_video","browser_interaction","rt","stimulus","response","task_part","environment","score","rewardMap","correct","fullState","isCatch","numberMissed","duration","condition","order","trial_num","key_press","ground_truth","bonus"
"pavlovia","0","1277","0.0-0.0","spark_pilot_2","7511","6","22","Female","","","","","","","","","","","","","","","","","","","","","","","",""
"preload","1","10214","0.0-1.0","spark_pilot_2","7511","6","22","Female","true","false","[]","[]","[]","[{""event"":""fullscreenenter"",""trial"":2,""time"":13948}]","","","","","","","","","","","","","","","","","",""
"fullscreen","2","14942","0.0-2.0","spark_pilot_2","7511","6","22","Female","true","","","","","","","","","","","","","","","","","","","","","","",""
"audio-button-response","3","16540","0.0-3.0-0.0-0.0","spark_pilot_2","7511","6","22","Female","","","","","","","1541","./assets/audio/audiotest/turtle.mp3","2","audio_test","","","","","","","","","","","","","",""
"learning-instructions","4","25841","0.0-3.0-1.0-0.0","spark_pilot_2","7511","6","22","Female","","","","","","","2302.400000035763","<p> Welcome! Please remember to stay in fullscreen mode and don't click away from the experiment. </p>","","instructions","","","","","","","","","","","","","",""
"learning-instructions","5","37254","0.0-3.0-1.0-0.1","spark_pilot_2","7511","6","22","Female","","","","","","","2979.400000035763","<p> Today you will be playing a game to earn treasure. </p>
            <p> At the end of the experiment, you will earn a bonus based on how much treasure you find. </p>
            <img src='./assets/img/instructions/treasure.jpg' class='instructions-image'>","","instructions","","","","","","","","","","","","","",""
"learning-instructions","6","47799","0.0-3.0-1.0-0.2","spark_pilot_2","7511","6","22","Female","","","","","","","2265.899999976158","<p> Animals have hidden treasure in treasure chests. </p>
            <p> You need to first find an animal and then choose which of their treasure chests to search. </p>
            <img src='./assets/img/space/animals/cat.jpg' class='instructions-image'>","","instructions","","","","","","","","","","","","","",""
"learning-instructions","7","62042","0.0-3.0-1.0-0.3","spark_pilot_2","7511","6","22","Female","","","","","","","1068.5","<p> In each round, you will search for treasure in a different place. In the real game, there will be two rounds. </p>
            <p> You will begin with a separate, practice round where you will search for treasure in outer space. </p>
            <img src='./assets/img/space/0.jpg' class='instructions-image'>","","instructions","","","","","","","","","","","","","",""
"learning-instructions","8","74317","0.0-3.0-1.0-0.4","spark_pilot_2","7511","6","22","Female","","","","","","","836.6000000238419","<p> On every turn, you will see a picture of the place that you are in, but the specific image may be different each time. </p>
            <p> For example, both of these images mean you are in outer space. </p>
            <img src='./assets/img/instructions/outerspace.jpg' class='instructions-image'>","","instructions","","","","","","","","","","","","","",""
"learning-instructions","9","88551","0.0-3.0-1.0-0.5","spark_pilot_2","7511","6","22","Female","","","","","","","6387.5","<p> You need to decide which direction to travel in. </p>
            <p> You can choose between going <b>up or down</b> by using the arrow keys. </p>
            <img src='./assets/img/instructions/updown.jpg' class='instructions-image'>","","instructions","","","","","","","","","","","","","",""
"learning-instructions","10","98475","0.0-3.0-1.0-0.6","spark_pilot_2","7511","6","22","Female","","","","","","","1090.0999999642372","<p> You will have <b>2 seconds</b> to make your choice. </p>
            <p> If you do not make a choice within 2 seconds, you will not find an animal or earn treasure. </p>
            <img src='./assets/img/instructions/2seconds.jpg' class='instructions-image'>","","instructions","","","","","","","","","","","","","",""
"learning-instructions","11","106997","0.0-3.0-1.0-0.7","spark_pilot_2","7511","6","22","Female","","","","","","","1467.7000000476837","<p> Let’s try practicing that now! </p>
            <p> When you see a picture of the place you are in, press the <b>up</b> key to travel up. </p>
            <img src='./assets/img/instructions/pressUp.jpg' class='instructions-image'>","","instructions","","","","","","","","","","","","","",""
"revaluation","12","111033","0.0-3.0-2.0-0.0","spark_pilot_2","7511","6","22","Female","","false","","","","","[992.3000000119209]","./assets/img/space/0.jpg","[""ArrowUp""]","first stage practice","space","0","null","null","ArrowUp","false","","","","","","","",""
"html-keyboard-response","13","111535","0.0-3.0-2.0-1.0","spark_pilot_2","7511","6","22","Female","","","","","","","null","<div style=""font-size:60px;"">+</div>","null","fixation","","","","","","","","","","","","","",""
"revaluation","14","115552","0.0-3.0-2.0-0.1","spark_pilot_2","7511","6","22","Female","","false","","","","","[1057.1000000238419]","./assets/img/space/1.jpg","[""ArrowUp""]","first stage practice","space","0","null","null","ArrowUp","false","","","","","","","",""
"html-keyboard-response","15","116058","0.0-3.0-2.0-1.1","spark_pilot_2","7511","6","22","Female","","","","","","","null","<div style=""font-size:60px;"">+</div>","null","fixation","","","","","","","","","","","","","",""
"revaluation","16","120073","0.0-3.0-2.0-0.2","spark_pilot_2","7511","6","22","Female","","false","","","","","[17.30000001192093]","./assets/img/space/2.jpg","[""ArrowUp""]","first stage practice","space","0","null","null","ArrowUp","false","","","","","","","",""
"html-keyboard-response","17","120576","0.0-3.0-2.0-1.2","spark_pilot_2","7511","6","22","Female","","","","","","","null","<div style=""font-size:60px;"">+</div>","null","fixation","","","","","","","","","","","","","",""
"learning-instructions","18","126904","0.0-3.0-3.0-0.0","spark_pilot_2","7511","6","22","Female","","","","","","","1619.699999988079","<p> Great job! Now try pressing the <b>down</b> key to travel down. </p>
            <img src='./assets/img/instructions/pressDown.jpg' class='instructions-image'>","","instructions","","","","","","","","","","","","","",""
"revaluation","19","130921","0.0-3.0-4.0-0.0","spark_pilot_2","7511","6","22","Female","","false","","","","","[428.4000000357628]","./assets/img/space/3.jpg","[""ArrowDown""]","first stage practice","space","0","null","null","ArrowDown","false","","","","","","","",""
"html-keyboard-response","20","131425","0.0-3.0-4.0-1.0","spark_pilot_2","7511","6","22","Female","","","","","","","null","<div style=""font-size:60px;"">+</div>","null","fixation","","","","","","","","","","","","","",""
"revaluation","21","135440","0.0-3.0-4.0-0.1","spark_pilot_2","7511","6","22","Female","","false","","","","","[664.8999999761581]","./assets/img/space/4.jpg","[""ArrowDown""]","first stage practice","space","0","null","null","ArrowDown","false","","","","","","","",""
"html-keyboard-response","22","135944","0.0-3.0-4.0-1.1","spark_pilot_2","7511","6","22","Female","","","","","","","null","<div style=""font-size:60px;"">+</div>","null","fixation","","","","","","","","","","","","","",""
"revaluation","23","139961","0.0-3.0-4.0-0.2","spark_pilot_2","7511","6","22","Female","","false","","","","","[421.0999999642372]","./assets/img/space/5.jpg","[""ArrowDown""]","first stage practice","space","0","null","null","ArrowDown","false","","","","","","","",""
"html-keyboard-response","24","140464","0.0-3.0-4.0-1.2","spark_pilot_2","7511","6","22","Female","","","","","","","null","<div style=""font-size:60px;"">+</div>","null","fixation","","","","","","","","","","","","","",""
"learning-instructions","25","151638","0.0-3.0-5.0-0.0","spark_pilot_2","7511","6","22","Female","","","","","","","1303.1000000238419","<p> The animals don’t move, so the animal in the upper part of a place will stay in the upper part of a place, and the animal in the lower part of a place will stay in the lower part of a place. </p>","","instructions","","","","","","","","","","","","","",""
"learning-instructions","26","161910","0.0-3.0-5.0-0.1","spark_pilot_2","7511","6","22","Female","","","","","","","1122","<p> Each animal has two treasure chests for you to choose from. </p>
            <p> The amount of treasure in each chest can range from <b> 0 to 40 pieces.</b></p>","","instructions","","","","","","","","","","","","","",""
"learning-instructions","27","174166","0.0-3.0-5.0-0.2","spark_pilot_2","7511","6","22","Female","","","","","","","1046.3999999761581","<p> You should decide which chest to search for treasure by using the <b>left</b> and <b>right</b> arrow keys. </p>
            <p><b> Pay attention to which animal is on the screen, as the animals have different treasure chests. </b></p>
            <img src='./assets/img/instructions/leftright.jpg' class='instructions-image'>","","instructions","","","","","","","","","","","","","",""
"learning-instructions","28","181546","0.0-3.0-5.0-0.3","spark_pilot_2","7511","6","22","Female","","","","","","","1001.6000000238419","<p> Let’s try practicing that now. </p>
            <p> When you see an animal, choose which chest to search for treasure. </p>
            <img src='./assets/img/instructions/chooseChest.jpg' class='instructions-image'>","","instructions","","","","","","","","","","","","","",""
"revaluation","29","185562","0.0-3.0-6.0-0.0","spark_pilot_2","7511","6","22","Female","","false","","","","","[820.0999999642372]","./assets/img/space/animals/cat.jpg","[""ArrowRight""]","second stage practice","space","36","{""ArrowUp,ArrowLeft"":3,""ArrowUp,ArrowRight"":36,""ArrowDown,ArrowLeft"":15,""ArrowDown,ArrowRight"":23}","true","ArrowUp,ArrowRight","","","","","","","","",""
"html-keyboard-response","30","186066","0.0-3.0-6.0-1.0","spark_pilot_2","7511","6","22","Female","","","","","","","null","<div style=""font-size:60px;"">+</div>","null","fixation","","","","","","","","","","","","","",""
"revaluation","31","190083","0.0-3.0-6.0-0.1","spark_pilot_2","7511","6","22","Female","","false","","","","","[812.1000000238419]","./assets/img/space/animals/cat.jpg","[""ArrowLeft""]","second stage practice","space","3","{""ArrowUp,ArrowLeft"":3,""ArrowUp,ArrowRight"":36,""ArrowDown,ArrowLeft"":15,""ArrowDown,ArrowRight"":23}","false","ArrowUp,ArrowLeft","","","","","","","","",""
"html-keyboard-response","32","190586","0.0-3.0-6.0-1.1","spark_pilot_2","7511","6","22","Female","","","","","","","null","<div style=""font-size:60px;"">+</div>","null","fixation","","","","","","","","","","","","","",""
"revaluation","33","194603","0.0-3.0-6.0-0.2","spark_pilot_2","7511","6","22","Female","","false","","","","","[760.8999999761581]","./assets/img/space/animals/rabbit.jpg","[""ArrowRight""]","second stage practice","space","23","{""ArrowUp,ArrowLeft"":3,""ArrowUp,ArrowRight"":36,""ArrowDown,ArrowLeft"":15,""ArrowDown,ArrowRight"":23}","true","ArrowDown,ArrowRight","","","","","","","","",""
"html-keyboard-response","34","195108","0.0-3.0-6.0-1.2","spark_pilot_2","7511","6","22","Female","","","","","","","null","<div style=""font-size:60px;"">+</div>","null","fixation","","","","","","","","","","","","","",""
"revaluation","35","199125","0.0-3.0-6.0-0.3","spark_pilot_2","7511","6","22","Female","","false","","","","","[579.5]","./assets/img/space/animals/rabbit.jpg","[""ArrowRight""]","second stage practice","space","23","{""ArrowUp,ArrowLeft"":3,""ArrowUp,ArrowRight"":36,""ArrowDown,ArrowLeft"":15,""ArrowDown,ArrowRight"":23}","true","ArrowDown,ArrowRight","","","","","","","","",""
"html-keyboard-response","36","199636","0.0-3.0-6.0-1.3","spark_pilot_2","7511","6","22","Female","","","","","","","null","<div style=""font-size:60px;"">+</div>","null","fixation","","","","","","","","","","","","","",""
"learning-instructions","37","217731","0.0-3.0-7.0-0.0","spark_pilot_2","7511","6","22","Female","","","","","","","1261.3999999761581","<p> Great job. Now let’s try putting it together. </p>
            <p> On each turn, you will first see a picture to remind you of the place you are in, and you need to choose whether to go up or down. </p>
            <p> Then you will see an animal and choose which of its chests to search for treasure. </p>","","instructions","","","","","","","","","","","","","",""
"learning-instructions","38","227295","0.0-3.0-7.0-0.1","spark_pilot_2","7511","6","22","Female","","","","","","","1284","<p> When you choose whether to go up or down, try to go to the animal with the chest with the most treasure. </p>
            <p> Try practicing that now! </p>","","instructions","","","","","","","","","","","","","",""
"revaluation","39","233315","0.0-3.0-8.0-0.0","spark_pilot_2","7511","6","22","Female","","false","","","","","[886.2999999523163,1503.4000000357628]","./assets/img/space/6.jpg","[""ArrowUp"",""ArrowRight""]","full practice","space","36","{""ArrowUp,ArrowLeft"":3,""ArrowUp,ArrowRight"":36,""ArrowDown,ArrowLeft"":15,""ArrowDown,ArrowRight"":23}","true","ArrowUp,ArrowRight","false","","","","","","","",""
"html-keyboard-response","40","233818","0.0-3.0-8.0-1.0","spark_pilot_2","7511","6","22","Female","","","","","","","null","<div style=""font-size:60px;"">+</div>","null","fixation","","","","","","","","","","","","","",""
"revaluation","41","239846","0.0-3.0-8.0-0.1","spark_pilot_2","7511","6","22","Female","","false","","","","","[890.8000000119209,640.6999999880791]","./assets/img/space/7.jpg","[""ArrowDown"",""ArrowRight""]","full practice","space","23","{""ArrowUp,ArrowLeft"":3,""ArrowUp,ArrowRight"":36,""ArrowDown,ArrowLeft"":15,""ArrowDown,ArrowRight"":23}","false","ArrowDown,ArrowRight","false","","","","","","","",""
"html-keyboard-response","42","240358","0.0-3.0-8.0-1.1","spark_pilot_2","7511","6","22","Female","","","","","","","null","<div style=""font-size:60px;"">+</div>","null","fixation","","","","","","","","","","","","","",""
"revaluation","43","246380","0.0-3.0-8.0-0.2","spark_pilot_2","7511","6","22","Female","","false","","","","","[924.1999999880791,640.8000000119209]","./assets/img/space/8.jpg","[""ArrowUp"",""ArrowRight""]","full practice","space","36","{""ArrowUp,ArrowLeft"":3,""ArrowUp,ArrowRight"":36,""ArrowDown,ArrowLeft"":15,""ArrowDown,ArrowRight"":23}","true","ArrowUp,ArrowRight","false","","","","","","","",""
"html-keyboard-response","44","246884","0.0-3.0-8.0-1.2","spark_pilot_2","7511","6","22","Female","","","","","","","null","<div style=""font-size:60px;"">+</div>","null","fixation","","","","","","","","","","","","","",""
"revaluation","45","252908","0.0-3.0-8.0-0.3","spark_pilot_2","7511","6","22","Female","","false","","","","","[709.5,429.30000001192093]","./assets/img/space/9.jpg","[""ArrowDown"",""ArrowLeft""]","full practice","space","15","{""ArrowUp,ArrowLeft"":3,""ArrowUp,ArrowRight"":36,""ArrowDown,ArrowLeft"":15,""ArrowDown,ArrowRight"":23}","false","ArrowDown,ArrowLeft","false","","","","","","","",""
"html-keyboard-response","46","253414","0.0-3.0-8.0-1.3","spark_pilot_2","7511","6","22","Female","","","","","","","null","<div style=""font-size:60px;"">+</div>","null","fixation","","","","","","","","","","","","","",""
"revaluation","47","259436","0.0-3.0-8.0-0.4","spark_pilot_2","7511","6","22","Female","","false","","","","","[616.9000000357628,392.5]","./assets/img/space/10.jpg","[""ArrowUp"",""ArrowRight""]","full practice","space","36","{""ArrowUp,ArrowLeft"":3,""ArrowUp,ArrowRight"":36,""ArrowDown,ArrowLeft"":15,""ArrowDown,ArrowRight"":23}","true","ArrowUp,ArrowRight","false","","","","","","","",""
"html-keyboard-response","48","259943","0.0-3.0-8.0-1.4","spark_pilot_2","7511","6","22","Female","","","","","","","null","<div style=""font-size:60px;"">+</div>","null","fixation","","","","","","","","","","","","","",""
"learning-instructions","49","272001","0.0-3.0-9.0-0.0","spark_pilot_2","7511","6","22","Female","","","","","","","1689.699999988079","<p> One last thing: sometimes, you will see a robber. The robber can be anywhere in the picture. </p>
            <p> If you do not stop them, you will lose treasure. </p>
            <img src='./assets/img/instructions/robber.jpg' class='instructions-image'>","","instructions","","","","","","","","","","","","","",""
"learning-instructions","50","280520","0.0-3.0-9.0-0.1","spark_pilot_2","7511","6","22","Female","","","","","","","1334.1000000238419","<p> If you see the robber, you should <b>press the space bar</b> rather than using the arrow keys. </p>
            <p> Try practicing that now! </p>","","instructions","","","","","","","","","","","","","",""
"revaluation","51","284533","0.0-3.0-10.0-0.0","spark_pilot_2","7511","6","22","Female","","false","","","","","[768.4000000357628]","./assets/img/space/catch/0.jpg","[""ArrowDown""]","catch practice","space","-10","{""ArrowUp,ArrowLeft"":3,""ArrowUp,ArrowRight"":36,""ArrowDown,ArrowLeft"":15,""ArrowDown,ArrowRight"":23}","false","ArrowDown","true","","","","","","","",""
"html-keyboard-response","52","285036","0.0-3.0-10.0-1.0","spark_pilot_2","7511","6","22","Female","","","","","","","null","<div style=""font-size:60px;"">+</div>","null","fixation","","","","","","","","","","","","","",""
"revaluation","53","289052","0.0-3.0-10.0-0.1","spark_pilot_2","7511","6","22","Female","","false","","","","","[662.1000000238419]","./assets/img/space/catch/1.jpg","[""spaceBar""]","catch practice","space","0","{""ArrowUp,ArrowLeft"":3,""ArrowUp,ArrowRight"":36,""ArrowDown,ArrowLeft"":15,""ArrowDown,ArrowRight"":23}","true","spaceBar","true","","","","","","","",""
"html-keyboard-response","54","289557","0.0-3.0-10.0-1.1","spark_pilot_2","7511","6","22","Female","","","","","","","null","<div style=""font-size:60px;"">+</div>","null","fixation","","","","","","","","","","","","","",""
"revaluation","55","293572","0.0-3.0-10.0-0.2","spark_pilot_2","7511","6","22","Female","","false","","","","","[834.6000000238419]","./assets/img/space/catch/2.jpg","[""spaceBar""]","catch practice","space","0","{""ArrowUp,ArrowLeft"":3,""ArrowUp,ArrowRight"":36,""ArrowDown,ArrowLeft"":15,""ArrowDown,ArrowRight"":23}","true","spaceBar","true","","","","","","","",""
"html-keyboard-response","56","294076","0.0-3.0-10.0-1.2","spark_pilot_2","7511","6","22","Female","","","","","","","null","<div style=""font-size:60px;"">+</div>","null","fixation","","","","","","","","","","","","","",""
"learning-instructions","57","721285","0.0-3.0-11.0-0.0","spark_pilot_2","7511","6","22","Female","","","","","","","413622.2000000477","<p> After you explore a place to find treasure, it will be time to play a different game. </p>
            <p> During this game, red dots will appear on the screen and fall down slowly. </p>
            <p><b> You must click on them before they reach the bottom. </b></p>
            <img src='./assets/img/instructions/dotGame.jpg' class='instructions-image'>","","instructions","","","","","","","","","","","","","",""
"learning-instructions","58","728476","0.0-3.0-11.0-0.1","spark_pilot_2","7511","6","22","Female","","","","","","","1435.0999999642372","<p> For every dot you click, you will earn additional treasure. </p>
            <p> Let’s try practicing that now. </p>","","instructions","","","","","","","","","","","","","",""
"revaluation","59","743495","0.0-3.0-12.0-0.0","spark_pilot_2","7511","6","22","Female","","","","","","","[101]","","","rest practice","","10","","","","","0","15000","","","","","",""
"learning-instructions","60","750878","0.0-3.0-13.0-0.0-0.0","spark_pilot_2","7511","6","22","Female","","","","","","","2109","<p> Now, you will practice a shortened version of the game to get a sense of how it all fits together. </p>","","instructions","","","","","","","","","","","","","",""
"learning-instructions","61","927618","0.0-3.0-13.0-0.0-0.1","spark_pilot_2","7511","6","22","Female","","","","","","","173532.09999996424","<p>This time you are searching for treasure in outer space.</p>","","instructions","","","","","","","","","","","","","",""
"learning-instructions","62","1100127","0.0-3.0-13.0-1.0-0.0","spark_pilot_2","7511","6","22","Female","","","","","","","157683.5","<p> Remember, when you see a picture of the place, use the up and down keys to <b>find an animal</b>.</p>
            <p> When you encounter an animal, you should use the left and right keys to <b>select a treasure chest</b>.</p>
            <p> Don't forget to look out for the robber! </p>","","instructions","","","","","","","","","","","","","",""
"revaluation","63","1106150","0.0-3.0-13.0-2.0-0.0","spark_pilot_2","7511","6","22","Female","","false","","","","","[1501.5999999642372,915.6999999880791]","./assets/img/space/11.jpg","[""ArrowDown"",""ArrowRight""]","practice block","space","23","{""ArrowUp,ArrowLeft"":3,""ArrowUp,ArrowRight"":36,""ArrowDown,ArrowLeft"":15,""ArrowDown,ArrowRight"":23}","false","ArrowDown,ArrowRight","false","","","","","","","",""
"html-keyboard-response","64","1106662","0.0-3.0-13.0-2.0-1.0","spark_pilot_2","7511","6","22","Female","","","","","","","null","<div style=""font-size:60px;"">+</div>","null","fixation","","","","","","","","","","","","","",""
"revaluation","65","1112684","0.0-3.0-13.0-2.0-0.1","spark_pilot_2","7511","6","22","Female","","false","","","","","[1239.699999988079,491.9000000357628]","./assets/img/space/12.jpg","[""ArrowUp"",""ArrowLeft""]","practice block","space","3","{""ArrowUp,ArrowLeft"":3,""ArrowUp,ArrowRight"":36,""ArrowDown,ArrowLeft"":15,""ArrowDown,ArrowRight"":23}","false","ArrowUp,ArrowLeft","false","","","","","","","",""
"html-keyboard-response","66","1113206","0.0-3.0-13.0-2.0-1.1","spark_pilot_2","7511","6","22","Female","","","","","","","null","<div style=""font-size:60px;"">+</div>","null","fixation","","","","","","","","","","","","","",""
"revaluation","67","1119228","0.0-3.0-13.0-2.0-0.2","spark_pilot_2","7511","6","22","Female","","false","","","","","[1726.5999999642372,671.8000000119209]","./assets/img/space/13.jpg","[""ArrowDown"",""ArrowRight""]","practice block","space","23","{""ArrowUp,ArrowLeft"":3,""ArrowUp,ArrowRight"":36,""ArrowDown,ArrowLeft"":15,""ArrowDown,ArrowRight"":23}","false","ArrowDown,ArrowRight","false","","","","","","","",""
"html-keyboard-response","68","1119734","0.0-3.0-13.0-2.0-1.2","spark_pilot_2","7511","6","22","Female","","","","","","","null","<div style=""font-size:60px;"">+</div>","null","fixation","","","","","","","","","","","","","",""
"revaluation","69","1125767","0.0-3.0-13.0-2.0-0.3","spark_pilot_2","7511","6","22","Female","","false","","","","","[985.6000000238419,515]","./assets/img/space/14.jpg","[""ArrowDown"",""ArrowRight""]","practice block","space","23","{""ArrowUp,ArrowLeft"":3,""ArrowUp,ArrowRight"":36,""ArrowDown,ArrowLeft"":15,""ArrowDown,ArrowRight"":23}","false","ArrowDown,ArrowRight","false","","","","","","","",""
"html-keyboard-response","70","1126279","0.0-3.0-13.0-2.0-1.3","spark_pilot_2","7511","6","22","Female","","","","","","","null","<div style=""font-size:60px;"">+</div>","null","fixation","","","","","","","","","","","","","",""
"revaluation","71","1132300","0.0-3.0-13.0-2.0-0.4","spark_pilot_2","7511","6","22","Female","","false","","","","","[150.30000001192093,572.9000000357628]","./assets/img/space/11.jpg","[""ArrowDown"",""ArrowLeft""]","practice block","space","15","{""ArrowUp,ArrowLeft"":3,""ArrowUp,ArrowRight"":36,""ArrowDown,ArrowLeft"":15,""ArrowDown,ArrowRight"":23}","false","ArrowDown,ArrowLeft","false","","","","","","","",""
"html-keyboard-response","72","1132807","0.0-3.0-13.0-2.0-1.4","spark_pilot_2","7511","6","22","Female","","","","","","","null","<div style=""font-size:60px;"">+</div>","null","fixation","","","","","","","","","","","","","",""
"revaluation","73","1138829","0.0-3.0-13.0-2.0-0.5","spark_pilot_2","7511","6","22","Female","","false","","","","","[1116.800000011921,849.6999999880791]","./assets/img/space/12.jpg","[""ArrowUp"",""ArrowRight""]","practice block","space","36","{""ArrowUp,ArrowLeft"":3,""ArrowUp,ArrowRight"":36,""ArrowDown,ArrowLeft"":15,""ArrowDown,ArrowRight"":23}","true","ArrowUp,ArrowRight","false","","","","","","","",""
"html-keyboard-response","74","1139335","0.0-3.0-13.0-2.0-1.5","spark_pilot_2","7511","6","22","Female","","","","","","","null","<div style=""font-size:60px;"">+</div>","null","fixation","","","","","","","","","","","","","",""
"revaluation","75","1143351","0.0-3.0-13.0-2.0-0.6","spark_pilot_2","7511","6","22","Female","","true","","","","","[]","./assets/img/space/13.jpg","[]","practice block","space","-5","{""ArrowUp,ArrowLeft"":3,""ArrowUp,ArrowRight"":36,""ArrowDown,ArrowLeft"":15,""ArrowDown,ArrowRight"":23}","false","","false","","","","","","","",""
"html-keyboard-response","76","1143863","0.0-3.0-13.0-2.0-1.6","spark_pilot_2","7511","6","22","Female","","","","","","","null","<div style=""font-size:60px;"">+</div>","null","fixation","","","","","","","","","","","","","",""
"revaluation","77","1149885","0.0-3.0-13.0-2.0-0.7","spark_pilot_2","7511","6","22","Female","","false","","","","","[546.8999999761581,477.4000000357628]","./assets/img/space/14.jpg","[""ArrowDown"",""ArrowRight""]","practice block","space","23","{""ArrowUp,ArrowLeft"":3,""ArrowUp,ArrowRight"":36,""ArrowDown,ArrowLeft"":15,""ArrowDown,ArrowRight"":23}","false","ArrowDown,ArrowRight","false","","","","","","","",""
"html-keyboard-response","78","1150391","0.0-3.0-13.0-2.0-1.7","spark_pilot_2","7511","6","22","Female","","","","","","","null","<div style=""font-size:60px;"">+</div>","null","fixation","","","","","","","","","","","","","",""
"revaluation","79","1154408","0.0-3.0-13.0-2.0-0.8","spark_pilot_2","7511","6","22","Female","","false","","","","","[102.20000004768372]","./assets/img/space/catch/3.jpg","[""ArrowUp""]","practice block","space","-10","{""ArrowUp,ArrowLeft"":3,""ArrowUp,ArrowRight"":36,""ArrowDown,ArrowLeft"":15,""ArrowDown,ArrowRight"":23}","false","ArrowUp","true","","","","","","","",""
"html-keyboard-response","80","1154919","0.0-3.0-13.0-2.0-1.8","spark_pilot_2","7511","6","22","Female","","","","","","","null","<div style=""font-size:60px;"">+</div>","null","fixation","","","","","","","","","","","","","",""
"learning-instructions","81","1169574","0.0-3.0-13.0-3.0-0.0","spark_pilot_2","7511","6","22","Female","","","","","","","1604","<p> Now, you will travel with a friend who will choose whether you go up or down first. </p>
            <p> On these turns, you will just see the animal that they found. You will still get to choose which chest to search for treasure.</p>","","instructions","","","","","","","","","","","","","",""
"revaluation","82","1173590","0.0-3.0-13.0-4.0-0.0","spark_pilot_2","7511","6","22","Female","","false","","","","","[723.1000000238419]","./assets/img/space/animals/rabbit.jpg","[""ArrowRight""]","practice block","space","23","{""ArrowUp,ArrowLeft"":3,""ArrowUp,ArrowRight"":36,""ArrowDown,ArrowLeft"":15,""ArrowDown,ArrowRight"":23}","true","ArrowDown,ArrowRight","","","","","","","","",""
"html-keyboard-response","83","1174097","0.0-3.0-13.0-4.0-1.0","spark_pilot_2","7511","6","22","Female","","","","","","","null","<div style=""font-size:60px;"">+</div>","null","fixation","","","","","","","","","","","","","",""
"revaluation","84","1178111","0.0-3.0-13.0-4.0-0.1","spark_pilot_2","7511","6","22","Female","","false","","","","","[635.5]","./assets/img/space/animals/cat.jpg","[""ArrowLeft""]","practice block","space","3","{""ArrowUp,ArrowLeft"":3,""ArrowUp,ArrowRight"":36,""ArrowDown,ArrowLeft"":15,""ArrowDown,ArrowRight"":23}","false","ArrowUp,ArrowLeft","","","","","","","","",""
"html-keyboard-response","85","1178615","0.0-3.0-13.0-4.0-1.1","spark_pilot_2","7511","6","22","Female","","","","","","","null","<div style=""font-size:60px;"">+</div>","null","fixation","","","","","","","","","","","","","",""
"revaluation","86","1182631","0.0-3.0-13.0-4.0-0.2","spark_pilot_2","7511","6","22","Female","","false","","","","","[854.3000000119209]","./assets/img/space/animals/cat.jpg","[""ArrowRight""]","practice block","space","36","{""ArrowUp,ArrowLeft"":3,""ArrowUp,ArrowRight"":36,""ArrowDown,ArrowLeft"":15,""ArrowDown,ArrowRight"":23}","true","ArrowUp,ArrowRight","","","","","","","","",""
"html-keyboard-response","87","1183136","0.0-3.0-13.0-4.0-1.2","spark_pilot_2","7511","6","22","Female","","","","","","","null","<div style=""font-size:60px;"">+</div>","null","fixation","","","","","","","","","","","","","",""
"revaluation","88","1187151","0.0-3.0-13.0-4.0-0.3","spark_pilot_2","7511","6","22","Female","","false","","","","","[1193.300000011921]","./assets/img/space/animals/rabbit.jpg","[""ArrowRight""]","practice block","space","23","{""ArrowUp,ArrowLeft"":3,""ArrowUp,ArrowRight"":36,""ArrowDown,ArrowLeft"":15,""ArrowDown,ArrowRight"":23}","true","ArrowDown,ArrowRight","","","","","","","","",""
"html-keyboard-response","89","1187655","0.0-3.0-13.0-4.0-1.3","spark_pilot_2","7511","6","22","Female","","","","","","","null","<div style=""font-size:60px;"">+</div>","null","fixation","","","","","","","","","","","","","",""
"learning-instructions","90","1196552","0.0-3.0-13.0-5.0-0.0","spark_pilot_2","7511","6","22","Female","","","","","","","1515.699999988079","<p> Time to play the dot game! </p>
            <p> For 15 seconds, click the red dots on the following screen as they appear. </p>","","instructions","","","","","","","","","","","","","",""
"revaluation","91","1211560","0.0-3.0-13.0-6.0-0.0","spark_pilot_2","7511","6","22","Female","","","","","","","[125]","","","rest practice","","10","","","","","0","15000","","","","","",""
"learning-instructions","92","1219400","0.0-3.0-13.0-7.0-0.0","spark_pilot_2","7511","6","22","Female","","","","","","","1696.300000011921","<p> You have almost finished this part of the game! </p>
            <p> We are going to ask you to make a few more choices. </p>","","instructions","","","","","","","","","","","","","",""
"learning-instructions","93","1234343","0.0-3.0-13.0-7.0-0.1","spark_pilot_2","7511","6","22","Female","","","","","","","911","<p> First, you need to decide whether to go up or down. When you see each picture, use the arrow keys to make your choice. </p>
            <p><b>You will not see which animal you found, but try to get to the one that will give you the most treasure.</b></p>","","instructions","","","","","","","","","","","","","",""
"revaluation","94","1235230","0.0-3.0-13.0-8.0","spark_pilot_2","7511","6","22","Female","","false","","","","","[883.7000000476837]","./assets/img/space/15.jpg","[""ArrowUp""]","practice block","space","0","{""ArrowUp,ArrowLeft"":3,""ArrowUp,ArrowRight"":36,""ArrowDown,ArrowLeft"":15,""ArrowDown,ArrowRight"":23}","true","ArrowUp","false","","","","","","","",""
"html-keyboard-response","95","1235736","0.0-3.0-13.0-9.0","spark_pilot_2","7511","6","22","Female","","","","","","","null","<div style=""font-size:60px;"">+</div>","null","fixation","","","","","","","","","","","","","",""
"learning-instructions","96","1248004","0.0-3.0-13.0-10.0-0.0","spark_pilot_2","7511","6","22","Female","","","","","","","869.7999999523163","<p> Now you will see the animals again and can search their chests for treasure. </p>
            <p> This time, you will not see how much treasure you earned, but you will earn more bonus money for making better choices. </p>","","instructions","","","","","","","","","","","","","",""
"revaluation","97","1248939","0.0-3.0-13.0-11.0-0.0","spark_pilot_2","7511","6","22","Female","","false","","","","","[932.0999999642372]","./assets/img/space/animals/cat.jpg","[""ArrowRight""]","practice block","space","0","{""ArrowUp,ArrowLeft"":3,""ArrowUp,ArrowRight"":36,""ArrowDown,ArrowLeft"":15,""ArrowDown,ArrowRight"":23}","true","ArrowUp,ArrowRight","","","","","","","","",""
"html-keyboard-response","98","1249440","0.0-3.0-13.0-11.0-1.0","spark_pilot_2","7511","6","22","Female","","","","","","","null","<div style=""font-size:60px;"">+</div>","null","fixation","","","","","","","","","","","","","",""
"revaluation","99","1250128","0.0-3.0-13.0-11.0-0.1","spark_pilot_2","7511","6","22","Female","","false","","","","","[684.1999999880791]","./assets/img/space/animals/rabbit.jpg","[""ArrowLeft""]","practice block","space","0","{""ArrowUp,ArrowLeft"":3,""ArrowUp,ArrowRight"":36,""ArrowDown,ArrowLeft"":15,""ArrowDown,ArrowRight"":23}","false","ArrowDown,ArrowLeft","","","","","","","","",""
"html-keyboard-response","100","1250632","0.0-3.0-13.0-11.0-1.1","spark_pilot_2","7511","6","22","Female","","","","","","","null","<div style=""font-size:60px;"">+</div>","null","fixation","","","","","","","","","","","","","",""
"learning-instructions","101","1256384","0.0-3.0-14.0-0.0","spark_pilot_2","7511","6","22","Female","","","","","","","1159.5","<p> Before you start, we're going to ask you a few questions about how the game works. </p>","","instructions","","","","","","","","","","","","","",""
"comp-q","102","1264277","0.0-3.0-15.0-0.0-0.0","spark_pilot_2","7511","6","22","Female","","","","","","","2280.699999988079","<p> <b> True or False? </b> </p>
            <p> There can be 50 pieces of treasure in a given animal's chest. </p>","1","comp_question","","","","true","","","","","","","","","",""
"comp-q","103","1272487","0.0-3.0-15.0-0.0-1.0","spark_pilot_2","7511","6","22","Female","","","","","","","1533.8999999761581","<p> <b> That's right! </b> The amount of treasure in each chest can range from 0 to 40 pieces. </p>","0","comp_answer","","","","","","","","","","","","","",""
"comp-q","104","1281080","0.0-3.0-15.0-0.1-0.1","spark_pilot_2","7511","6","22","Female","","","","","","","1454.2999999523163","<p> <b> True or False? </b> </p><p> In this game, all animals have the same amount of treasure in their left and right chests. </p>","1","comp_question","","","","true","","","","","","","","","",""
"comp-q","105","1287545","0.0-3.0-15.0-0.1-1.1","spark_pilot_2","7511","6","22","Female","","","","","","","1221.3999999761581","<p> <b> That's right! </b> Animals have different amounts of treasure in their treasure chests. </p>","0","comp_answer","","","","","","","","","","","","","",""
"comp-q","106","1295772","0.0-3.0-15.0-0.2-0.2","spark_pilot_2","7511","6","22","Female","","","","","","","2364.699999988079","<p> <b> True or False? </b> </p><p> The same animal will always be there if you go up in the same place. </p>","0","comp_question","","","","true","","","","","","","","","",""
"comp-q","107","1303746","0.0-3.0-15.0-0.2-1.2","spark_pilot_2","7511","6","22","Female","","","","","","","1512.300000011921","<p> <b> That's right! </b> One animal lives in the upper part and one lives in the lower part of every place. </p>","0","comp_answer","","","","","","","","","","","","","",""
"comp-q","108","1310347","0.0-3.0-15.0-0.3-0.3","spark_pilot_2","7511","6","22","Female","","","","","","","1060.8999999761581","<p> <b> True or False? </b> </p><p> If you see a different picture, it means you are in a new place. </p>","0","comp_question","","","","false","","","","","","","","","",""
"comp-q","109","1323029","0.0-3.0-15.0-0.3-1.3","spark_pilot_2","7511","6","22","Female","","","","","","","1568.199999988079","<p> <b>Incorrect.</b> Lots of different images may show the same place. For example,  you may see three different images that all remind you that you are in outer space. </p>","0","comp_answer","","","","","","","","","","","","","",""
"comp-q","110","1329679","0.0-3.0-15.0-0.4-0.4","spark_pilot_2","7511","6","22","Female","","","","","","","1145.5","<p> <b> True or False? </b> </p><p> If you see a different picture, it means you are in a new place. </p>","1","comp_question","","","","true","","","","","","","","","",""
"comp-q","111","1342791","0.0-3.0-15.0-0.4-1.4","spark_pilot_2","7511","6","22","Female","","","","","","","1862.699999988079","<p> <b> That's right! </b> Lots of different images may show the same place. For example,  you may see three different images that all remind you that you are in outer space. </p>","0","comp_answer","","","","","","","","","","","","","",""
"learning-instructions","112","1354586","0.0-3.0-16.0-0.0","spark_pilot_2","7511","6","22","Female","","","","","","","1924.3999999761581","<p> Good job. Remember to do your best because the amount of treasure you earn will be converted into bonus money. </p>
            <p> It’s time to start the real game! </p>","","instructions","","","","","","","","","","","","","",""
"learning-instructions","113","1359087","0.0-4.0-0.0-0.0","spark_pilot_2","7511","6","22","Female","","","","","","","1720.699999988079","<p> This time you are searching for treasure in the <b>canyon</b>.</p>","","instructions","","","","","","","","","","","","","",""
"learning-instructions","114","1377381","0.0-4.0-0.0-0.1","spark_pilot_2","7511","6","22","Female","","","","","","","974.9000000357628","<p><b>New</b> animals with <b>new</b> treasure chests live here. You need to explore to discover where the animal with the best treasure chest is.</p>
                    <p> Like before, once you figure out which animal has the chest with the most treasure, you should try to get to that animal and select that chest! </p>","","instructions","","","","","","","","","","","","","",""
"learning-instructions","115","1393141","0.0-4.0-1.0-0.0","spark_pilot_2","7511","6","22","Female","","","","","","","1028","<p> Remember, when you see a picture of the place, use the up and down keys to <b>find an animal</b>.</p>
            <p> When you encounter an animal, you should use the left and right keys to <b>select a treasure chest</b>.</p>
            <p> Don't forget to look out for the robber! </p>","","instructions","","","","","","","","","","","","","",""
"revaluation","116","1399164","0.0-4.0-2.0-0.0","spark_pilot_2","7511","6","22","Female","","false","","","","","[1004.6999999880791,615.6999999880791]","./assets/img/canyon/memory/23.jpg","[""ArrowUp"",""ArrowRight""]","value training","canyon","10","{""ArrowUp,ArrowLeft"":23,""ArrowUp,ArrowRight"":10,""ArrowDown,ArrowLeft"":8,""ArrowDown,ArrowRight"":30}","false","ArrowUp,ArrowRight","false","","","revaluation","1","0","","",""
"html-keyboard-response","117","1399676","0.0-4.0-2.0-1.0","spark_pilot_2","7511","6","22","Female","","","","","","","null","<div style=""font-size:60px;"">+</div>","null","fixation","","","","","","","","","","","1","","",""
"revaluation","118","1403697","0.0-4.0-2.0-0.1","spark_pilot_2","7511","6","22","Female","","false","","","","","[1388.300000011921]","./assets/img/canyon/catch/6.jpg","[""spaceBar""]","value training","canyon","0","{""ArrowUp,ArrowLeft"":23,""ArrowUp,ArrowRight"":10,""ArrowDown,ArrowLeft"":8,""ArrowDown,ArrowRight"":30}","true","spaceBar","true","","","revaluation","1","2","","",""
"html-keyboard-response","119","1404204","0.0-4.0-2.0-1.1","spark_pilot_2","7511","6","22","Female","","","","","","","null","<div style=""font-size:60px;"">+</div>","null","fixation","","","","","","","","","","","3","","",""
"revaluation","120","1410232","0.0-4.0-2.0-0.2","spark_pilot_2","7511","6","22","Female","","false","","","","","[648.6999999880791,377.10000002384186]","./assets/img/canyon/memory/1.jpg","[""ArrowUp"",""ArrowRight""]","value training","canyon","10","{""ArrowUp,ArrowLeft"":23,""ArrowUp,ArrowRight"":10,""ArrowDown,ArrowLeft"":8,""ArrowDown,ArrowRight"":30}","false","ArrowUp,ArrowRight","false","","","revaluation","1","4","","",""
"html-keyboard-response","121","1410741","0.0-4.0-2.0-1.2","spark_pilot_2","7511","6","22","Female","","","","","","","null","<div style=""font-size:60px;"">+</div>","null","fixation","","","","","","","","","","","5","","",""
"revaluation","122","1416769","0.0-4.0-2.0-0.3","spark_pilot_2","7511","6","22","Female","","false","","","","","[592.9000000357628,397.19999998807907]","./assets/img/canyon/memory/9.jpg","[""ArrowDown"",""ArrowLeft""]","value training","canyon","8","{""ArrowUp,ArrowLeft"":23,""ArrowUp,ArrowRight"":10,""ArrowDown,ArrowLeft"":8,""ArrowDown,ArrowRight"":30}","false","ArrowDown,ArrowLeft","false","","","revaluation","1","6","","",""
"html-keyboard-response","123","1417281","0.0-4.0-2.0-1.3","spark_pilot_2","7511","6","22","Female","","","","","","","null","<div style=""font-size:60px;"">+</div>","null","fixation","","","","","","","","","","","7","","",""
"revaluation","124","1423304","0.0-4.0-2.0-0.4","spark_pilot_2","7511","6","22","Female","","false","","","","","[762.5,346.89999997615814]","./assets/img/canyon/memory/34.jpg","[""ArrowUp"",""ArrowRight""]","value training","canyon","10","{""ArrowUp,ArrowLeft"":23,""ArrowUp,ArrowRight"":10,""ArrowDown,ArrowLeft"":8,""ArrowDown,ArrowRight"":30}","false","ArrowUp,ArrowRight","false","","","revaluation","1","8","","",""
"html-keyboard-response","125","1423815","0.0-4.0-2.0-1.4","spark_pilot_2","7511","6","22","Female","","","","","","","null","<div style=""font-size:60px;"">+</div>","null","fixation","","","","","","","","","","","9","","",""
"revaluation","126","1429837","0.0-4.0-2.0-0.5","spark_pilot_2","7511","6","22","Female","","false","","","","","[765,627.3999999761581]","./assets/img/canyon/memory/2.jpg","[""ArrowDown"",""ArrowRight""]","value training","canyon","30","{""ArrowUp,ArrowLeft"":23,""ArrowUp,ArrowRight"":10,""ArrowDown,ArrowLeft"":8,""ArrowDown,ArrowRight"":30}","true","ArrowDown,ArrowRight","false","","","revaluation","1","10","","",""
"html-keyboard-response","127","1430343","0.0-4.0-2.0-1.5","spark_pilot_2","7511","6","22","Female","","","","","","","null","<div style=""font-size:60px;"">+</div>","null","fixation","","","","","","","","","","","11","","",""
"revaluation","128","1436365","0.0-4.0-2.0-0.6","spark_pilot_2","7511","6","22","Female","","false","","","","","[860.4000000357628,451.60000002384186]","./assets/img/canyon/memory/31.jpg","[""ArrowUp"",""ArrowLeft""]","value training","canyon","23","{""ArrowUp,ArrowLeft"":23,""ArrowUp,ArrowRight"":10,""ArrowDown,ArrowLeft"":8,""ArrowDown,ArrowRight"":30}","false","ArrowUp,ArrowLeft","false","","","revaluation","1","12","","",""
"html-keyboard-response","129","1436872","0.0-4.0-2.0-1.6","spark_pilot_2","7511","6","22","Female","","","","","","","null","<div style=""font-size:60px;"">+</div>","null","fixation","","","","","","","","","","","13","","",""
"revaluation","130","1440888","0.0-4.0-2.0-0.7","spark_pilot_2","7511","6","22","Female","","false","","","","","[1145]","./assets/img/canyon/catch/3.jpg","[""spaceBar""]","value training","canyon","0","{""ArrowUp,ArrowLeft"":23,""ArrowUp,ArrowRight"":10,""ArrowDown,ArrowLeft"":8,""ArrowDown,ArrowRight"":30}","true","spaceBar","true","","","revaluation","1","14","","",""
"html-keyboard-response","131","1441400","0.0-4.0-2.0-1.7","spark_pilot_2","7511","6","22","Female","","","","","","","null","<div style=""font-size:60px;"">+</div>","null","fixation","","","","","","","","","","","15","","",""
"revaluation","132","1447422","0.0-4.0-2.0-0.8","spark_pilot_2","7511","6","22","Female","","false","","","","","[590,493.10000002384186]","./assets/img/canyon/memory/34.jpg","[""ArrowDown"",""ArrowRight""]","value training","canyon","30","{""ArrowUp,ArrowLeft"":23,""ArrowUp,ArrowRight"":10,""ArrowDown,ArrowLeft"":8,""ArrowDown,ArrowRight"":30}","true","ArrowDown,ArrowRight","false","","","revaluation","1","16","","",""
"html-keyboard-response","133","1447928","0.0-4.0-2.0-1.8","spark_pilot_2","7511","6","22","Female","","","","","","","null","<div style=""font-size:60px;"">+</div>","null","fixation","","","","","","","","","","","17","","",""
"revaluation","134","1451944","0.0-4.0-2.0-0.9","spark_pilot_2","7511","6","22","Female","","false","","","","","[1036.5]","./assets/img/canyon/catch/1.jpg","[""spaceBar""]","value training","canyon","0","{""ArrowUp,ArrowLeft"":23,""ArrowUp,ArrowRight"":10,""ArrowDown,ArrowLeft"":8,""ArrowDown,ArrowRight"":30}","true","spaceBar","true","","","revaluation","1","18","","",""
"html-keyboard-response","135","1452456","0.0-4.0-2.0-1.9","spark_pilot_2","7511","6","22","Female","","","","","","","null","<div style=""font-size:60px;"">+</div>","null","fixation","","","","","","","","","","","19","","",""
"revaluation","136","1458478","0.0-4.0-2.0-0.10","spark_pilot_2","7511","6","22","Female","","false","","","","","[907.8000000119209,320]","./assets/img/canyon/memory/40.jpg","[""ArrowUp"",""ArrowRight""]","value training","canyon","10","{""ArrowUp,ArrowLeft"":23,""ArrowUp,ArrowRight"":10,""ArrowDown,ArrowLeft"":8,""ArrowDown,ArrowRight"":30}","false","ArrowUp,ArrowRight","false","","","revaluation","1","20","","",""
"html-keyboard-response","137","1458984","0.0-4.0-2.0-1.10","spark_pilot_2","7511","6","22","Female","","","","","","","null","<div style=""font-size:60px;"">+</div>","null","fixation","","","","","","","","","","","21","","",""
"revaluation","138","1465006","0.0-4.0-2.0-0.11","spark_pilot_2","7511","6","22","Female","","false","","","","","[742.5,487.4000000357628]","./assets/img/canyon/memory/16.jpg","[""ArrowDown"",""ArrowRight""]","value training","canyon","30","{""ArrowUp,ArrowLeft"":23,""ArrowUp,ArrowRight"":10,""ArrowDown,ArrowLeft"":8,""ArrowDown,ArrowRight"":30}","true","ArrowDown,ArrowRight","false","","","revaluation","1","22","","",""
"html-keyboard-response","139","1465513","0.0-4.0-2.0-1.11","spark_pilot_2","7511","6","22","Female","","","","","","","null","<div style=""font-size:60px;"">+</div>","null","fixation","","","","","","","","","","","23","","",""
"revaluation","140","1471534","0.0-4.0-2.0-0.12","spark_pilot_2","7511","6","22","Female","","false","","","","","[799.4000000357628,371]","./assets/img/canyon/memory/26.jpg","[""ArrowUp"",""ArrowRight""]","value training","canyon","10","{""ArrowUp,ArrowLeft"":23,""ArrowUp,ArrowRight"":10,""ArrowDown,ArrowLeft"":8,""ArrowDown,ArrowRight"":30}","false","ArrowUp,ArrowRight","false","","","revaluation","1","24","","",""
"html-keyboard-response","141","1472041","0.0-4.0-2.0-1.12","spark_pilot_2","7511","6","22","Female","","","","","","","null","<div style=""font-size:60px;"">+</div>","null","fixation","","","","","","","","","","","25","","",""
"revaluation","142","1478066","0.0-4.0-2.0-0.13","spark_pilot_2","7511","6","22","Female","","false","","","","","[850.3000000119209,556.8000000119209]","./assets/img/canyon/memory/36.jpg","[""ArrowDown"",""ArrowRight""]","value training","canyon","30","{""ArrowUp,ArrowLeft"":23,""ArrowUp,ArrowRight"":10,""ArrowDown,ArrowLeft"":8,""ArrowDown,ArrowRight"":30}","true","ArrowDown,ArrowRight","false","","","revaluation","1","26","","",""
"html-keyboard-response","143","1478574","0.0-4.0-2.0-1.13","spark_pilot_2","7511","6","22","Female","","","","","","","null","<div style=""font-size:60px;"">+</div>","null","fixation","","","","","","","","","","","27","","",""
"revaluation","144","1484601","0.0-4.0-2.0-0.14","spark_pilot_2","7511","6","22","Female","","false","","","","","[896.1999999880791,550.6999999880791]","./assets/img/canyon/memory/37.jpg","[""ArrowUp"",""ArrowRight""]","value training","canyon","10","{""ArrowUp,ArrowLeft"":23,""ArrowUp,ArrowRight"":10,""ArrowDown,ArrowLeft"":8,""ArrowDown,ArrowRight"":30}","false","ArrowUp,ArrowRight","false","","","revaluation","1","28","","",""
"html-keyboard-response","145","1485113","0.0-4.0-2.0-1.14","spark_pilot_2","7511","6","22","Female","","","","","","","null","<div style=""font-size:60px;"">+</div>","null","fixation","","","","","","","","","","","29","","",""
"revaluation","146","1491135","0.0-4.0-2.0-0.15","spark_pilot_2","7511","6","22","Female","","false","","","","","[775.8000000119209,503.9000000357628]","./assets/img/canyon/memory/20.jpg","[""ArrowDown"",""ArrowLeft""]","value training","canyon","8","{""ArrowUp,ArrowLeft"":23,""ArrowUp,ArrowRight"":10,""ArrowDown,ArrowLeft"":8,""ArrowDown,ArrowRight"":30}","false","ArrowDown,ArrowLeft","false","","","revaluation","1","30","","",""
"html-keyboard-response","147","1491641","0.0-4.0-2.0-1.15","spark_pilot_2","7511","6","22","Female","","","","","","","null","<div style=""font-size:60px;"">+</div>","null","fixation","","","","","","","","","","","31","","",""
"revaluation","148","1497663","0.0-4.0-2.0-0.16","spark_pilot_2","7511","6","22","Female","","false","","","","","[921,541]","./assets/img/canyon/memory/40.jpg","[""ArrowUp"",""ArrowRight""]","value training","canyon","10","{""ArrowUp,ArrowLeft"":23,""ArrowUp,ArrowRight"":10,""ArrowDown,ArrowLeft"":8,""ArrowDown,ArrowRight"":30}","false","ArrowUp,ArrowRight","false","","","revaluation","1","32","","",""
"html-keyboard-response","149","1498169","0.0-4.0-2.0-1.16","spark_pilot_2","7511","6","22","Female","","","","","","","null","<div style=""font-size:60px;"">+</div>","null","fixation","","","","","","","","","","","33","","",""
"revaluation","150","1504191","0.0-4.0-2.0-0.17","spark_pilot_2","7511","6","22","Female","","false","","","","","[1444.5999999642372,489.69999998807907]","./assets/img/canyon/memory/24.jpg","[""ArrowDown"",""ArrowRight""]","value training","canyon","30","{""ArrowUp,ArrowLeft"":23,""ArrowUp,ArrowRight"":10,""ArrowDown,ArrowLeft"":8,""ArrowDown,ArrowRight"":30}","true","ArrowDown,ArrowRight","false","","","revaluation","1","34","","",""
"html-keyboard-response","151","1504698","0.0-4.0-2.0-1.17","spark_pilot_2","7511","6","22","Female","","","","","","","null","<div style=""font-size:60px;"">+</div>","null","fixation","","","","","","","","","","","35","","",""
"revaluation","152","1508714","0.0-4.0-2.0-0.18","spark_pilot_2","7511","6","22","Female","","false","","","","","[770.0999999642372]","./assets/img/canyon/catch/5.jpg","[""ArrowDown""]","value training","canyon","-10","{""ArrowUp,ArrowLeft"":23,""ArrowUp,ArrowRight"":10,""ArrowDown,ArrowLeft"":8,""ArrowDown,ArrowRight"":30}","false","ArrowDown","true","","","revaluation","1","36","","",""
"html-keyboard-response","153","1509215","0.0-4.0-2.0-1.18","spark_pilot_2","7511","6","22","Female","","","","","","","null","<div style=""font-size:60px;"">+</div>","null","fixation","","","","","","","","","","","37","","",""
"revaluation","154","1515242","0.0-4.0-2.0-0.19","spark_pilot_2","7511","6","22","Female","","false","","","","","[813.1999999880791,481.5]","./assets/img/canyon/memory/31.jpg","[""ArrowUp"",""ArrowRight""]","value training","canyon","10","{""ArrowUp,ArrowLeft"":23,""ArrowUp,ArrowRight"":10,""ArrowDown,ArrowLeft"":8,""ArrowDown,ArrowRight"":30}","false","ArrowUp,ArrowRight","false","","","revaluation","1","38","","",""
"html-keyboard-response","155","1515754","0.0-4.0-2.0-1.19","spark_pilot_2","7511","6","22","Female","","","","","","","null","<div style=""font-size:60px;"">+</div>","null","fixation","","","","","","","","","","","39","","",""
"revaluation","156","1521776","0.0-4.0-2.0-0.20","spark_pilot_2","7511","6","22","Female","","false","","","","","[864,460.5]","./assets/img/canyon/memory/1.jpg","[""ArrowUp"",""ArrowRight""]","value training","canyon","10","{""ArrowUp,ArrowLeft"":23,""ArrowUp,ArrowRight"":10,""ArrowDown,ArrowLeft"":8,""ArrowDown,ArrowRight"":30}","false","ArrowUp,ArrowRight","false","","","revaluation","1","40","","",""
"html-keyboard-response","157","1522282","0.0-4.0-2.0-1.20","spark_pilot_2","7511","6","22","Female","","","","","","","null","<div style=""font-size:60px;"">+</div>","null","fixation","","","","","","","","","","","41","","",""
"revaluation","158","1526299","0.0-4.0-2.0-0.21","spark_pilot_2","7511","6","22","Female","","false","","","","","[830.6999999880791]","./assets/img/canyon/catch/2.jpg","[""spaceBar""]","value training","canyon","0","{""ArrowUp,ArrowLeft"":23,""ArrowUp,ArrowRight"":10,""ArrowDown,ArrowLeft"":8,""ArrowDown,ArrowRight"":30}","true","spaceBar","true","","","revaluation","1","42","","",""
"html-keyboard-response","159","1526810","0.0-4.0-2.0-1.21","spark_pilot_2","7511","6","22","Female","","","","","","","null","<div style=""font-size:60px;"">+</div>","null","fixation","","","","","","","","","","","43","","",""
"revaluation","160","1532832","0.0-4.0-2.0-0.22","spark_pilot_2","7511","6","22","Female","","false","","","","","[1268.9000000357628,475.5999999642372]","./assets/img/canyon/memory/25.jpg","[""ArrowDown"",""ArrowRight""]","value training","canyon","30","{""ArrowUp,ArrowLeft"":23,""ArrowUp,ArrowRight"":10,""ArrowDown,ArrowLeft"":8,""ArrowDown,ArrowRight"":30}","true","ArrowDown,ArrowRight","false","","","revaluation","1","44","","",""
"html-keyboard-response","161","1533339","0.0-4.0-2.0-1.22","spark_pilot_2","7511","6","22","Female","","","","","","","null","<div style=""font-size:60px;"">+</div>","null","fixation","","","","","","","","","","","45","","",""
"revaluation","162","1539363","0.0-4.0-2.0-0.23","spark_pilot_2","7511","6","22","Female","","false","","","","","[977.3000000119209,353.2000000476837]","./assets/img/canyon/memory/0.jpg","[""ArrowUp"",""ArrowLeft""]","value training","canyon","23","{""ArrowUp,ArrowLeft"":23,""ArrowUp,ArrowRight"":10,""ArrowDown,ArrowLeft"":8,""ArrowDown,ArrowRight"":30}","false","ArrowUp,ArrowLeft","false","","","revaluation","1","46","","",""
"html-keyboard-response","163","1539872","0.0-4.0-2.0-1.23","spark_pilot_2","7511","6","22","Female","","","","","","","null","<div style=""font-size:60px;"">+</div>","null","fixation","","","","","","","","","","","47","","",""
"revaluation","164","1545899","0.0-4.0-2.0-0.24","spark_pilot_2","7511","6","22","Female","","false","","","","","[1477.800000011921,553.6000000238419]","./assets/img/canyon/memory/2.jpg","[""ArrowDown"",""ArrowRight""]","value training","canyon","30","{""ArrowUp,ArrowLeft"":23,""ArrowUp,ArrowRight"":10,""ArrowDown,ArrowLeft"":8,""ArrowDown,ArrowRight"":30}","true","ArrowDown,ArrowRight","false","","","revaluation","1","48","","",""
"html-keyboard-response","165","1546411","0.0-4.0-2.0-1.24","spark_pilot_2","7511","6","22","Female","","","","","","","null","<div style=""font-size:60px;"">+</div>","null","fixation","","","","","","","","","","","49","","",""
"revaluation","166","1552433","0.0-4.0-2.0-0.25","spark_pilot_2","7511","6","22","Female","","false","","","","","[1061.5999999642372,441.80000001192093]","./assets/img/canyon/memory/4.jpg","[""ArrowUp"",""ArrowRight""]","value training","canyon","10","{""ArrowUp,ArrowLeft"":23,""ArrowUp,ArrowRight"":10,""ArrowDown,ArrowLeft"":8,""ArrowDown,ArrowRight"":30}","false","ArrowUp,ArrowRight","false","","","revaluation","1","50","","",""
"html-keyboard-response","167","1552939","0.0-4.0-2.0-1.25","spark_pilot_2","7511","6","22","Female","","","","","","","null","<div style=""font-size:60px;"">+</div>","null","fixation","","","","","","","","","","","51","","",""
"revaluation","168","1558961","0.0-4.0-2.0-0.26","spark_pilot_2","7511","6","22","Female","","false","","","","","[757.8000000119209,491.89999997615814]","./assets/img/canyon/memory/19.jpg","[""ArrowDown"",""ArrowLeft""]","value training","canyon","8","{""ArrowUp,ArrowLeft"":23,""ArrowUp,ArrowRight"":10,""ArrowDown,ArrowLeft"":8,""ArrowDown,ArrowRight"":30}","false","ArrowDown,ArrowLeft","false","","","revaluation","1","52","","",""
"html-keyboard-response","169","1559467","0.0-4.0-2.0-1.26","spark_pilot_2","7511","6","22","Female","","","","","","","null","<div style=""font-size:60px;"">+</div>","null","fixation","","","","","","","","","","","53","","",""
"revaluation","170","1565489","0.0-4.0-2.0-0.27","spark_pilot_2","7511","6","22","Female","","false","","","","","[1031.800000011921,448.4000000357628]","./assets/img/canyon/memory/15.jpg","[""ArrowUp"",""ArrowRight""]","value training","canyon","10","{""ArrowUp,ArrowLeft"":23,""ArrowUp,ArrowRight"":10,""ArrowDown,ArrowLeft"":8,""ArrowDown,ArrowRight"":30}","false","ArrowUp,ArrowRight","false","","","revaluation","1","54","","",""
"html-keyboard-response","171","1565996","0.0-4.0-2.0-1.27","spark_pilot_2","7511","6","22","Female","","","","","","","null","<div style=""font-size:60px;"">+</div>","null","fixation","","","","","","","","","","","55","","",""
"revaluation","172","1572018","0.0-4.0-2.0-0.28","spark_pilot_2","7511","6","22","Female","","false","","","","","[1273.2999999523163,629.8999999761581]","./assets/img/canyon/memory/24.jpg","[""ArrowDown"",""ArrowRight""]","value training","canyon","30","{""ArrowUp,ArrowLeft"":23,""ArrowUp,ArrowRight"":10,""ArrowDown,ArrowLeft"":8,""ArrowDown,ArrowRight"":30}","true","ArrowDown,ArrowRight","false","","","revaluation","1","56","","",""
"html-keyboard-response","173","1572524","0.0-4.0-2.0-1.28","spark_pilot_2","7511","6","22","Female","","","","","","","null","<div style=""font-size:60px;"">+</div>","null","fixation","","","","","","","","","","","57","","",""
"revaluation","174","1578546","0.0-4.0-2.0-0.29","spark_pilot_2","7511","6","22","Female","","false","","","","","[1037.300000011921,435.89999997615814]","./assets/img/canyon/memory/26.jpg","[""ArrowUp"",""ArrowRight""]","value training","canyon","10","{""ArrowUp,ArrowLeft"":23,""ArrowUp,ArrowRight"":10,""ArrowDown,ArrowLeft"":8,""ArrowDown,ArrowRight"":30}","false","ArrowUp,ArrowRight","false","","","revaluation","1","58","","",""
"html-keyboard-response","175","1579052","0.0-4.0-2.0-1.29","spark_pilot_2","7511","6","22","Female","","","","","","","null","<div style=""font-size:60px;"">+</div>","null","fixation","","","","","","","","","","","59","","",""
"revaluation","176","1585074","0.0-4.0-2.0-0.30","spark_pilot_2","7511","6","22","Female","","false","","","","","[655.1999999880791,390.69999998807907]","./assets/img/canyon/memory/38.jpg","[""ArrowDown"",""ArrowRight""]","value training","canyon","30","{""ArrowUp,ArrowLeft"":23,""ArrowUp,ArrowRight"":10,""ArrowDown,ArrowLeft"":8,""ArrowDown,ArrowRight"":30}","true","ArrowDown,ArrowRight","false","","","revaluation","1","60","","",""
"html-keyboard-response","177","1585580","0.0-4.0-2.0-1.30","spark_pilot_2","7511","6","22","Female","","","","","","","null","<div style=""font-size:60px;"">+</div>","null","fixation","","","","","","","","","","","61","","",""
"revaluation","178","1591602","0.0-4.0-2.0-0.31","spark_pilot_2","7511","6","22","Female","","false","","","","","[663.5,859.6000000238419]","./assets/img/canyon/memory/19.jpg","[""ArrowUp"",""ArrowLeft""]","value training","canyon","23","{""ArrowUp,ArrowLeft"":23,""ArrowUp,ArrowRight"":10,""ArrowDown,ArrowLeft"":8,""ArrowDown,ArrowRight"":30}","false","ArrowUp,ArrowLeft","false","","","revaluation","1","62","","",""
"html-keyboard-response","179","1592108","0.0-4.0-2.0-1.31","spark_pilot_2","7511","6","22","Female","","","","","","","null","<div style=""font-size:60px;"">+</div>","null","fixation","","","","","","","","","","","63","","",""
"revaluation","180","1598130","0.0-4.0-2.0-0.32","spark_pilot_2","7511","6","22","Female","","false","","","","","[1221.3999999761581,497.10000002384186]","./assets/img/canyon/memory/37.jpg","[""ArrowDown"",""ArrowRight""]","value training","canyon","30","{""ArrowUp,ArrowLeft"":23,""ArrowUp,ArrowRight"":10,""ArrowDown,ArrowLeft"":8,""ArrowDown,ArrowRight"":30}","true","ArrowDown,ArrowRight","false","","","revaluation","1","64","","",""
"html-keyboard-response","181","1598636","0.0-4.0-2.0-1.32","spark_pilot_2","7511","6","22","Female","","","","","","","null","<div style=""font-size:60px;"">+</div>","null","fixation","","","","","","","","","","","65","","",""
"revaluation","182","1602653","0.0-4.0-2.0-0.33","spark_pilot_2","7511","6","22","Female","","false","","","","","[790.5]","./assets/img/canyon/catch/4.jpg","[""spaceBar""]","value training","canyon","0","{""ArrowUp,ArrowLeft"":23,""ArrowUp,ArrowRight"":10,""ArrowDown,ArrowLeft"":8,""ArrowDown,ArrowRight"":30}","true","spaceBar","true","","","revaluation","1","66","","",""
"html-keyboard-response","183","1603165","0.0-4.0-2.0-1.33","spark_pilot_2","7511","6","22","Female","","","","","","","null","<div style=""font-size:60px;"">+</div>","null","fixation","","","","","","","","","","","67","","",""
"revaluation","184","1609187","0.0-4.0-2.0-0.34","spark_pilot_2","7511","6","22","Female","","false","","","","","[896.1999999880791,613.5]","./assets/img/canyon/memory/15.jpg","[""ArrowUp"",""ArrowLeft""]","value training","canyon","23","{""ArrowUp,ArrowLeft"":23,""ArrowUp,ArrowRight"":10,""ArrowDown,ArrowLeft"":8,""ArrowDown,ArrowRight"":30}","false","ArrowUp,ArrowLeft","false","","","revaluation","1","68","","",""
"html-keyboard-response","185","1609693","0.0-4.0-2.0-1.34","spark_pilot_2","7511","6","22","Female","","","","","","","null","<div style=""font-size:60px;"">+</div>","null","fixation","","","","","","","","","","","69","","",""
"revaluation","186","1615715","0.0-4.0-2.0-0.35","spark_pilot_2","7511","6","22","Female","","false","","","","","[846,504]","./assets/img/canyon/memory/0.jpg","[""ArrowUp"",""ArrowRight""]","value training","canyon","10","{""ArrowUp,ArrowLeft"":23,""ArrowUp,ArrowRight"":10,""ArrowDown,ArrowLeft"":8,""ArrowDown,ArrowRight"":30}","false","ArrowUp,ArrowRight","false","","","revaluation","1","70","","",""
"html-keyboard-response","187","1616221","0.0-4.0-2.0-1.35","spark_pilot_2","7511","6","22","Female","","","","","","","null","<div style=""font-size:60px;"">+</div>","null","fixation","","","","","","","","","","","71","","",""
"revaluation","188","1622243","0.0-4.0-2.0-0.36","spark_pilot_2","7511","6","22","Female","","false","","","","","[937.1999999880791,567.9000000357628]","./assets/img/canyon/memory/21.jpg","[""ArrowDown"",""ArrowLeft""]","value training","canyon","8","{""ArrowUp,ArrowLeft"":23,""ArrowUp,ArrowRight"":10,""ArrowDown,ArrowLeft"":8,""ArrowDown,ArrowRight"":30}","false","ArrowDown,ArrowLeft","false","","","revaluation","1","72","","",""
"html-keyboard-response","189","1622749","0.0-4.0-2.0-1.36","spark_pilot_2","7511","6","22","Female","","","","","","","null","<div style=""font-size:60px;"">+</div>","null","fixation","","","","","","","","","","","73","","",""
"revaluation","190","1628774","0.0-4.0-2.0-0.37","spark_pilot_2","7511","6","22","Female","","false","","","","","[1104,619.4000000357628]","./assets/img/canyon/memory/25.jpg","[""ArrowUp"",""ArrowRight""]","value training","canyon","10","{""ArrowUp,ArrowLeft"":23,""ArrowUp,ArrowRight"":10,""ArrowDown,ArrowLeft"":8,""ArrowDown,ArrowRight"":30}","false","ArrowUp,ArrowRight","false","","","revaluation","1","74","","",""
"html-keyboard-response","191","1629283","0.0-4.0-2.0-1.37","spark_pilot_2","7511","6","22","Female","","","","","","","null","<div style=""font-size:60px;"">+</div>","null","fixation","","","","","","","","","","","75","","",""
"revaluation","192","1635310","0.0-4.0-2.0-0.38","spark_pilot_2","7511","6","22","Female","","false","","","","","[787.7999999523163,555.3999999761581]","./assets/img/canyon/memory/21.jpg","[""ArrowDown"",""ArrowRight""]","value training","canyon","30","{""ArrowUp,ArrowLeft"":23,""ArrowUp,ArrowRight"":10,""ArrowDown,ArrowLeft"":8,""ArrowDown,ArrowRight"":30}","true","ArrowDown,ArrowRight","false","","","revaluation","1","76","","",""
"html-keyboard-response","193","1635822","0.0-4.0-2.0-1.38","spark_pilot_2","7511","6","22","Female","","","","","","","null","<div style=""font-size:60px;"">+</div>","null","fixation","","","","","","","","","","","77","","",""
"revaluation","194","1639838","0.0-4.0-2.0-0.39","spark_pilot_2","7511","6","22","Female","","false","","","","","[673.5999999642372]","./assets/img/canyon/catch/0.jpg","[""spaceBar""]","value training","canyon","0","{""ArrowUp,ArrowLeft"":23,""ArrowUp,ArrowRight"":10,""ArrowDown,ArrowLeft"":8,""ArrowDown,ArrowRight"":30}","true","spaceBar","true","","","revaluation","1","78","","",""
"html-keyboard-response","195","1640350","0.0-4.0-2.0-1.39","spark_pilot_2","7511","6","22","Female","","","","","","","null","<div style=""font-size:60px;"">+</div>","null","fixation","","","","","","","","","","","79","","",""
"revaluation","196","1646375","0.0-4.0-2.0-0.40","spark_pilot_2","7511","6","22","Female","","false","","","","","[666.4000000357628,528.3000000119209]","./assets/img/canyon/memory/36.jpg","[""ArrowUp"",""ArrowRight""]","value training","canyon","10","{""ArrowUp,ArrowLeft"":23,""ArrowUp,ArrowRight"":10,""ArrowDown,ArrowLeft"":8,""ArrowDown,ArrowRight"":30}","false","ArrowUp,ArrowRight","false","","","revaluation","1","80","","",""
"html-keyboard-response","197","1646883","0.0-4.0-2.0-1.40","spark_pilot_2","7511","6","22","Female","","","","","","","null","<div style=""font-size:60px;"">+</div>","null","fixation","","","","","","","","","","","81","","",""
"revaluation","198","1652910","0.0-4.0-2.0-0.41","spark_pilot_2","7511","6","22","Female","","false","","","","","[491,506.19999998807907]","./assets/img/canyon/memory/30.jpg","[""ArrowUp"",""ArrowLeft""]","value training","canyon","23","{""ArrowUp,ArrowLeft"":23,""ArrowUp,ArrowRight"":10,""ArrowDown,ArrowLeft"":8,""ArrowDown,ArrowRight"":30}","false","ArrowUp,ArrowLeft","false","","","revaluation","1","82","","",""
"html-keyboard-response","199","1653422","0.0-4.0-2.0-1.41","spark_pilot_2","7511","6","22","Female","","","","","","","null","<div style=""font-size:60px;"">+</div>","null","fixation","","","","","","","","","","","83","","",""
"revaluation","200","1659444","0.0-4.0-2.0-0.42","spark_pilot_2","7511","6","22","Female","","false","","","","","[778.4000000357628,522.9000000357628]","./assets/img/canyon/memory/23.jpg","[""ArrowDown"",""ArrowRight""]","value training","canyon","30","{""ArrowUp,ArrowLeft"":23,""ArrowUp,ArrowRight"":10,""ArrowDown,ArrowLeft"":8,""ArrowDown,ArrowRight"":30}","true","ArrowDown,ArrowRight","false","","","revaluation","1","84","","",""
"html-keyboard-response","201","1659950","0.0-4.0-2.0-1.42","spark_pilot_2","7511","6","22","Female","","","","","","","null","<div style=""font-size:60px;"">+</div>","null","fixation","","","","","","","","","","","85","","",""
"revaluation","202","1665972","0.0-4.0-2.0-0.43","spark_pilot_2","7511","6","22","Female","","false","","","","","[795.8000000119209,615.1999999880791]","./assets/img/canyon/memory/16.jpg","[""ArrowDown"",""ArrowLeft""]","value training","canyon","8","{""ArrowUp,ArrowLeft"":23,""ArrowUp,ArrowRight"":10,""ArrowDown,ArrowLeft"":8,""ArrowDown,ArrowRight"":30}","false","ArrowDown,ArrowLeft","false","","","revaluation","1","86","","",""
"html-keyboard-response","203","1666479","0.0-4.0-2.0-1.43","spark_pilot_2","7511","6","22","Female","","","","","","","null","<div style=""font-size:60px;"">+</div>","null","fixation","","","","","","","","","","","87","","",""
"revaluation","204","1672500","0.0-4.0-2.0-0.44","spark_pilot_2","7511","6","22","Female","","false","","","","","[731.9000000357628,454.19999998807907]","./assets/img/canyon/memory/9.jpg","[""ArrowUp"",""ArrowRight""]","value training","canyon","10","{""ArrowUp,ArrowLeft"":23,""ArrowUp,ArrowRight"":10,""ArrowDown,ArrowLeft"":8,""ArrowDown,ArrowRight"":30}","false","ArrowUp,ArrowRight","false","","","revaluation","1","88","","",""
"html-keyboard-response","205","1673007","0.0-4.0-2.0-1.44","spark_pilot_2","7511","6","22","Female","","","","","","","null","<div style=""font-size:60px;"">+</div>","null","fixation","","","","","","","","","","","89","","",""
"revaluation","206","1679029","0.0-4.0-2.0-0.45","spark_pilot_2","7511","6","22","Female","","false","","","","","[655.4000000357628,1193.9000000357628]","./assets/img/canyon/memory/4.jpg","[""ArrowUp"",""ArrowRight""]","value training","canyon","10","{""ArrowUp,ArrowLeft"":23,""ArrowUp,ArrowRight"":10,""ArrowDown,ArrowLeft"":8,""ArrowDown,ArrowRight"":30}","false","ArrowUp,ArrowRight","false","","","revaluation","1","90","","",""
"html-keyboard-response","207","1679535","0.0-4.0-2.0-1.45","spark_pilot_2","7511","6","22","Female","","","","","","","null","<div style=""font-size:60px;"">+</div>","null","fixation","","","","","","","","","","","91","","",""
"revaluation","208","1685558","0.0-4.0-2.0-0.46","spark_pilot_2","7511","6","22","Female","","false","","","","","[875.9000000357628,388.10000002384186]","./assets/img/canyon/memory/20.jpg","[""ArrowUp"",""ArrowRight""]","value training","canyon","10","{""ArrowUp,ArrowLeft"":23,""ArrowUp,ArrowRight"":10,""ArrowDown,ArrowLeft"":8,""ArrowDown,ArrowRight"":30}","false","ArrowUp,ArrowRight","false","","","revaluation","1","92","","",""
"html-keyboard-response","209","1686063","0.0-4.0-2.0-1.46","spark_pilot_2","7511","6","22","Female","","","","","","","null","<div style=""font-size:60px;"">+</div>","null","fixation","","","","","","","","","","","93","","",""
"revaluation","210","1692085","0.0-4.0-2.0-0.47","spark_pilot_2","7511","6","22","Female","","false","","","","","[395.19999998807907,382.9000000357628]","./assets/img/canyon/memory/30.jpg","[""ArrowDown"",""ArrowRight""]","value training","canyon","30","{""ArrowUp,ArrowLeft"":23,""ArrowUp,ArrowRight"":10,""ArrowDown,ArrowLeft"":8,""ArrowDown,ArrowRight"":30}","true","ArrowDown,ArrowRight","false","","","revaluation","1","94","","",""
"html-keyboard-response","211","1692591","0.0-4.0-2.0-1.47","spark_pilot_2","7511","6","22","Female","","","","","","","null","<div style=""font-size:60px;"">+</div>","null","fixation","","","","","","","","","","","95","","",""
"revaluation","212","1698613","0.0-4.0-2.0-0.48","spark_pilot_2","7511","6","22","Female","","false","","","","","[402.7000000476837,412.60000002384186]","./assets/img/canyon/memory/38.jpg","[""ArrowDown"",""ArrowRight""]","value training","canyon","30","{""ArrowUp,ArrowLeft"":23,""ArrowUp,ArrowRight"":10,""ArrowDown,ArrowLeft"":8,""ArrowDown,ArrowRight"":30}","true","ArrowDown,ArrowRight","false","","","revaluation","1","96","","",""
"html-keyboard-response","213","1699120","0.0-4.0-2.0-1.48","spark_pilot_2","7511","6","22","Female","","","","","","","null","<div style=""font-size:60px;"">+</div>","null","fixation","","","","","","","","","","","97","","",""
"revaluation","214","1703136","0.0-4.0-2.0-0.49","spark_pilot_2","7511","6","22","Female","","false","","","","","[810]","./assets/img/canyon/catch/7.jpg","[""spaceBar""]","value training","canyon","0","{""ArrowUp,ArrowLeft"":23,""ArrowUp,ArrowRight"":10,""ArrowDown,ArrowLeft"":8,""ArrowDown,ArrowRight"":30}","true","spaceBar","true","","","revaluation","1","98","","",""
"html-keyboard-response","215","1703648","0.0-4.0-2.0-1.49","spark_pilot_2","7511","6","22","Female","","","","","","","null","<div style=""font-size:60px;"">+</div>","null","fixation","","","","","","","","","","","99","","",""
"learning-instructions","216","1718393","0.0-4.0-3.0-0.0","spark_pilot_2","7511","6","22","Female","","","","","","","1826","<p> Now, you will travel with a friend who will choose whether you go up or down first. </p>
            <p> On these turns, you will just see the animal that they found. You will still get to choose which chest to search for treasure.</p>","","instructions","","","","","","","","","","","","","",""
"revaluation","217","1722407","0.0-4.0-4.0-0.0","spark_pilot_2","7511","6","22","Female","","false","","","","","[731.5]","./assets/img/canyon/animals/giraffe.jpg","[""ArrowRight""]","revaluation","canyon","7","{""ArrowUp,ArrowLeft"":27,""ArrowUp,ArrowRight"":15,""ArrowDown,ArrowLeft"":21,""ArrowDown,ArrowRight"":7}","false","ArrowDown,ArrowRight","","","","revaluation","1","0","","",""
"html-keyboard-response","218","1722919","0.0-4.0-4.0-1.0","spark_pilot_2","7511","6","22","Female","","","","","","","null","<div style=""font-size:60px;"">+</div>","null","fixation","","","","","","","","","","","1","","",""
"revaluation","219","1726937","0.0-4.0-4.0-0.1","spark_pilot_2","7511","6","22","Female","","false","","","","","[530.5999999642372]","./assets/img/canyon/animals/giraffe.jpg","[""ArrowLeft""]","revaluation","canyon","21","{""ArrowUp,ArrowLeft"":27,""ArrowUp,ArrowRight"":15,""ArrowDown,ArrowLeft"":21,""ArrowDown,ArrowRight"":7}","true","ArrowDown,ArrowLeft","","","","revaluation","1","2","","",""
"html-keyboard-response","220","1727447","0.0-4.0-4.0-1.1","spark_pilot_2","7511","6","22","Female","","","","","","","null","<div style=""font-size:60px;"">+</div>","null","fixation","","","","","","","","","","","3","","",""
"revaluation","221","1731463","0.0-4.0-4.0-0.2","spark_pilot_2","7511","6","22","Female","","false","","","","","[619.1000000238419]","./assets/img/canyon/animals/giraffe.jpg","[""ArrowLeft""]","revaluation","canyon","21","{""ArrowUp,ArrowLeft"":27,""ArrowUp,ArrowRight"":15,""ArrowDown,ArrowLeft"":21,""ArrowDown,ArrowRight"":7}","true","ArrowDown,ArrowLeft","","","","revaluation","1","4","","",""
"html-keyboard-response","222","1731967","0.0-4.0-4.0-1.2","spark_pilot_2","7511","6","22","Female","","","","","","","null","<div style=""font-size:60px;"">+</div>","null","fixation","","","","","","","","","","","5","","",""
"revaluation","223","1735986","0.0-4.0-4.0-0.3","spark_pilot_2","7511","6","22","Female","","false","","","","","[577.5]","./assets/img/canyon/animals/lion.jpg","[""ArrowLeft""]","revaluation","canyon","27","{""ArrowUp,ArrowLeft"":27,""ArrowUp,ArrowRight"":15,""ArrowDown,ArrowLeft"":21,""ArrowDown,ArrowRight"":7}","true","ArrowUp,ArrowLeft","","","","revaluation","1","6","","",""
"html-keyboard-response","224","1736498","0.0-4.0-4.0-1.3","spark_pilot_2","7511","6","22","Female","","","","","","","null","<div style=""font-size:60px;"">+</div>","null","fixation","","","","","","","","","","","7","","",""
"revaluation","225","1740514","0.0-4.0-4.0-0.4","spark_pilot_2","7511","6","22","Female","","false","","","","","[505]","./assets/img/canyon/animals/lion.jpg","[""ArrowLeft""]","revaluation","canyon","27","{""ArrowUp,ArrowLeft"":27,""ArrowUp,ArrowRight"":15,""ArrowDown,ArrowLeft"":21,""ArrowDown,ArrowRight"":7}","true","ArrowUp,ArrowLeft","","","","revaluation","1","8","","",""
"html-keyboard-response","226","1741026","0.0-4.0-4.0-1.4","spark_pilot_2","7511","6","22","Female","","","","","","","null","<div style=""font-size:60px;"">+</div>","null","fixation","","","","","","","","","","","9","","",""
"revaluation","227","1745048","0.0-4.0-4.0-0.5","spark_pilot_2","7511","6","22","Female","","false","","","","","[422.69999998807907]","./assets/img/canyon/animals/giraffe.jpg","[""ArrowLeft""]","revaluation","canyon","21","{""ArrowUp,ArrowLeft"":27,""ArrowUp,ArrowRight"":15,""ArrowDown,ArrowLeft"":21,""ArrowDown,ArrowRight"":7}","true","ArrowDown,ArrowLeft","","","","revaluation","1","10","","",""
"html-keyboard-response","228","1745551","0.0-4.0-4.0-1.5","spark_pilot_2","7511","6","22","Female","","","","","","","null","<div style=""font-size:60px;"">+</div>","null","fixation","","","","","","","","","","","11","","",""
"revaluation","229","1749567","0.0-4.0-4.0-0.6","spark_pilot_2","7511","6","22","Female","","false","","","","","[523.7999999523163]","./assets/img/canyon/animals/lion.jpg","[""ArrowLeft""]","revaluation","canyon","27","{""ArrowUp,ArrowLeft"":27,""ArrowUp,ArrowRight"":15,""ArrowDown,ArrowLeft"":21,""ArrowDown,ArrowRight"":7}","true","ArrowUp,ArrowLeft","","","","revaluation","1","12","","",""
"html-keyboard-response","230","1750073","0.0-4.0-4.0-1.6","spark_pilot_2","7511","6","22","Female","","","","","","","null","<div style=""font-size:60px;"">+</div>","null","fixation","","","","","","","","","","","13","","",""
"revaluation","231","1754089","0.0-4.0-4.0-0.7","spark_pilot_2","7511","6","22","Female","","false","","","","","[591.5999999642372]","./assets/img/canyon/animals/lion.jpg","[""ArrowLeft""]","revaluation","canyon","27","{""ArrowUp,ArrowLeft"":27,""ArrowUp,ArrowRight"":15,""ArrowDown,ArrowLeft"":21,""ArrowDown,ArrowRight"":7}","true","ArrowUp,ArrowLeft","","","","revaluation","1","14","","",""
"html-keyboard-response","232","1754601","0.0-4.0-4.0-1.7","spark_pilot_2","7511","6","22","Female","","","","","","","null","<div style=""font-size:60px;"">+</div>","null","fixation","","","","","","","","","","","15","","",""
"revaluation","233","1758617","0.0-4.0-4.0-0.8","spark_pilot_2","7511","6","22","Female","","false","","","","","[474.69999998807907]","./assets/img/canyon/animals/lion.jpg","[""ArrowLeft""]","revaluation","canyon","27","{""ArrowUp,ArrowLeft"":27,""ArrowUp,ArrowRight"":15,""ArrowDown,ArrowLeft"":21,""ArrowDown,ArrowRight"":7}","true","ArrowUp,ArrowLeft","","","","revaluation","1","16","","",""
"html-keyboard-response","234","1759118","0.0-4.0-4.0-1.8","spark_pilot_2","7511","6","22","Female","","","","","","","null","<div style=""font-size:60px;"">+</div>","null","fixation","","","","","","","","","","","17","","",""
"revaluation","235","1763135","0.0-4.0-4.0-0.9","spark_pilot_2","7511","6","22","Female","","false","","","","","[475.89999997615814]","./assets/img/canyon/animals/giraffe.jpg","[""ArrowLeft""]","revaluation","canyon","21","{""ArrowUp,ArrowLeft"":27,""ArrowUp,ArrowRight"":15,""ArrowDown,ArrowLeft"":21,""ArrowDown,ArrowRight"":7}","true","ArrowDown,ArrowLeft","","","","revaluation","1","18","","",""
"html-keyboard-response","236","1763641","0.0-4.0-4.0-1.9","spark_pilot_2","7511","6","22","Female","","","","","","","null","<div style=""font-size:60px;"">+</div>","null","fixation","","","","","","","","","","","19","","",""
"revaluation","237","1767658","0.0-4.0-4.0-0.10","spark_pilot_2","7511","6","22","Female","","false","","","","","[390.39999997615814]","./assets/img/canyon/animals/lion.jpg","[""ArrowRight""]","revaluation","canyon","15","{""ArrowUp,ArrowLeft"":27,""ArrowUp,ArrowRight"":15,""ArrowDown,ArrowLeft"":21,""ArrowDown,ArrowRight"":7}","false","ArrowUp,ArrowRight","","","","revaluation","1","20","","",""
"html-keyboard-response","238","1768169","0.0-4.0-4.0-1.10","spark_pilot_2","7511","6","22","Female","","","","","","","null","<div style=""font-size:60px;"">+</div>","null","fixation","","","","","","","","","","","21","","",""
"revaluation","239","1772186","0.0-4.0-4.0-0.11","spark_pilot_2","7511","6","22","Female","","false","","","","","[489.80000001192093]","./assets/img/canyon/animals/lion.jpg","[""ArrowLeft""]","revaluation","canyon","27","{""ArrowUp,ArrowLeft"":27,""ArrowUp,ArrowRight"":15,""ArrowDown,ArrowLeft"":21,""ArrowDown,ArrowRight"":7}","true","ArrowUp,ArrowLeft","","","","revaluation","1","22","","",""
"html-keyboard-response","240","1772687","0.0-4.0-4.0-1.11","spark_pilot_2","7511","6","22","Female","","","","","","","null","<div style=""font-size:60px;"">+</div>","null","fixation","","","","","","","","","","","23","","",""
"revaluation","241","1776704","0.0-4.0-4.0-0.12","spark_pilot_2","7511","6","22","Female","","false","","","","","[448]","./assets/img/canyon/animals/lion.jpg","[""ArrowLeft""]","revaluation","canyon","27","{""ArrowUp,ArrowLeft"":27,""ArrowUp,ArrowRight"":15,""ArrowDown,ArrowLeft"":21,""ArrowDown,ArrowRight"":7}","true","ArrowUp,ArrowLeft","","","","revaluation","1","24","","",""
"html-keyboard-response","242","1777210","0.0-4.0-4.0-1.12","spark_pilot_2","7511","6","22","Female","","","","","","","null","<div style=""font-size:60px;"">+</div>","null","fixation","","","","","","","","","","","25","","",""
"revaluation","243","1781226","0.0-4.0-4.0-0.13","spark_pilot_2","7511","6","22","Female","","false","","","","","[618]","./assets/img/canyon/animals/lion.jpg","[""ArrowLeft""]","revaluation","canyon","27","{""ArrowUp,ArrowLeft"":27,""ArrowUp,ArrowRight"":15,""ArrowDown,ArrowLeft"":21,""ArrowDown,ArrowRight"":7}","true","ArrowUp,ArrowLeft","","","","revaluation","1","26","","",""
"html-keyboard-response","244","1781727","0.0-4.0-4.0-1.13","spark_pilot_2","7511","6","22","Female","","","","","","","null","<div style=""font-size:60px;"">+</div>","null","fixation","","","","","","","","","","","27","","",""
"revaluation","245","1785744","0.0-4.0-4.0-0.14","spark_pilot_2","7511","6","22","Female","","false","","","","","[1626.699999988079]","./assets/img/canyon/animals/giraffe.jpg","[""ArrowRight""]","revaluation","canyon","7","{""ArrowUp,ArrowLeft"":27,""ArrowUp,ArrowRight"":15,""ArrowDown,ArrowLeft"":21,""ArrowDown,ArrowRight"":7}","false","ArrowDown,ArrowRight","","","","revaluation","1","28","","",""
"html-keyboard-response","246","1786250","0.0-4.0-4.0-1.14","spark_pilot_2","7511","6","22","Female","","","","","","","null","<div style=""font-size:60px;"">+</div>","null","fixation","","","","","","","","","","","29","","",""
"revaluation","247","1790266","0.0-4.0-4.0-0.15","spark_pilot_2","7511","6","22","Female","","false","","","","","[502.30000001192093]","./assets/img/canyon/animals/giraffe.jpg","[""ArrowLeft""]","revaluation","canyon","21","{""ArrowUp,ArrowLeft"":27,""ArrowUp,ArrowRight"":15,""ArrowDown,ArrowLeft"":21,""ArrowDown,ArrowRight"":7}","true","ArrowDown,ArrowLeft","","","","revaluation","1","30","","",""
"html-keyboard-response","248","1790778","0.0-4.0-4.0-1.15","spark_pilot_2","7511","6","22","Female","","","","","","","null","<div style=""font-size:60px;"">+</div>","null","fixation","","","","","","","","","","","31","","",""
"revaluation","249","1794794","0.0-4.0-4.0-0.16","spark_pilot_2","7511","6","22","Female","","false","","","","","[849.5]","./assets/img/canyon/animals/giraffe.jpg","[""ArrowLeft""]","revaluation","canyon","21","{""ArrowUp,ArrowLeft"":27,""ArrowUp,ArrowRight"":15,""ArrowDown,ArrowLeft"":21,""ArrowDown,ArrowRight"":7}","true","ArrowDown,ArrowLeft","","","","revaluation","1","32","","",""
"html-keyboard-response","250","1795306","0.0-4.0-4.0-1.16","spark_pilot_2","7511","6","22","Female","","","","","","","null","<div style=""font-size:60px;"">+</div>","null","fixation","","","","","","","","","","","33","","",""
"revaluation","251","1799323","0.0-4.0-4.0-0.17","spark_pilot_2","7511","6","22","Female","","false","","","","","[531.6000000238419]","./assets/img/canyon/animals/giraffe.jpg","[""ArrowLeft""]","revaluation","canyon","21","{""ArrowUp,ArrowLeft"":27,""ArrowUp,ArrowRight"":15,""ArrowDown,ArrowLeft"":21,""ArrowDown,ArrowRight"":7}","true","ArrowDown,ArrowLeft","","","","revaluation","1","34","","",""
"html-keyboard-response","252","1799834","0.0-4.0-4.0-1.17","spark_pilot_2","7511","6","22","Female","","","","","","","null","<div style=""font-size:60px;"">+</div>","null","fixation","","","","","","","","","","","35","","",""
"learning-instructions","253","1812517","0.0-4.0-5.0-0.0","spark_pilot_2","7511","6","22","Female","","","","","","","1282.1000000238419","<p> Time to play the dot game! </p>
            <p> For one minute, click the red dots on the following screen as they appear. </p>
            <p><b> Don't look away, as you will earn bonus for clicking dots</b>. </p>","","instructions","","","","","","","","","","","","","",""
"revaluation","254","1872490","0.0-4.0-6.0-0.0","spark_pilot_2","7511","6","22","Female","","","","","","","[82,77,76,88,81,68,56]","","","rest","","70","","","","","0","60000","","","","","",""
"learning-instructions","255","2001254","0.0-4.0-7.0-0.0","spark_pilot_2","7511","6","22","Female","","","","","","","122625.19999998808","<p> You have almost finished this part of the game! </p>
            <p> We are going to ask you to make a few more choices. </p>","","instructions","","","","","","","","","","","","","",""
"learning-instructions","256","2016576","0.0-4.0-7.0-0.1","spark_pilot_2","7511","6","22","Female","","","","","","","1310.5999999642372","<p> First, you need to decide whether to go up or down. When you see each picture, use the arrow keys to make your choice. </p>
            <p><b>You will not see which animal you found, but try to get to the one that will give you the most treasure.</b></p>","","instructions","","","","","","","","","","","","","",""
"revaluation","257","2017383","0.0-4.0-8.0-0.0","spark_pilot_2","7511","6","22","Female","","false","","","","","[800]","./assets/img/canyon/test/2.jpg","[""ArrowUp""]","first stage test","canyon","0","{""ArrowUp,ArrowLeft"":27,""ArrowUp,ArrowRight"":15,""ArrowDown,ArrowLeft"":21,""ArrowDown,ArrowRight"":7}","true","ArrowUp","false","","","revaluation","1","","","",""
"html-keyboard-response","258","2017889","0.0-4.0-8.0-1.0","spark_pilot_2","7511","6","22","Female","","","","","","","null","<div style=""font-size:60px;"">+</div>","null","fixation","","","","","","","","","","","","","",""
"revaluation","259","2018648","0.0-4.0-8.0-0.1","spark_pilot_2","7511","6","22","Female","","false","","","","","[757]","./assets/img/canyon/test/1.jpg","[""ArrowDown""]","first stage test","canyon","0","{""ArrowUp,ArrowLeft"":27,""ArrowUp,ArrowRight"":15,""ArrowDown,ArrowLeft"":21,""ArrowDown,ArrowRight"":7}","false","ArrowDown","false","","","revaluation","1","","","",""
"html-keyboard-response","260","2019158","0.0-4.0-8.0-1.1","spark_pilot_2","7511","6","22","Female","","","","","","","null","<div style=""font-size:60px;"">+</div>","null","fixation","","","","","","","","","","","","","",""
"revaluation","261","2021239","0.0-4.0-8.0-0.2","spark_pilot_2","7511","6","22","Female","","false","","","","","[2078.599999964237]","./assets/img/canyon/test/0.jpg","[""ArrowUp""]","first stage test","canyon","0","{""ArrowUp,ArrowLeft"":27,""ArrowUp,ArrowRight"":15,""ArrowDown,ArrowLeft"":21,""ArrowDown,ArrowRight"":7}","true","ArrowUp","false","","","revaluation","1","","","",""
"html-keyboard-response","262","2021743","0.0-4.0-8.0-1.2","spark_pilot_2","7511","6","22","Female","","","","","","","null","<div style=""font-size:60px;"">+</div>","null","fixation","","","","","","","","","","","","","",""
"revaluation","263","2022311","0.0-4.0-8.0-0.3","spark_pilot_2","7511","6","22","Female","","false","","","","","[563.3000000119209]","./assets/img/canyon/test/3.jpg","[""ArrowUp""]","first stage test","canyon","0","{""ArrowUp,ArrowLeft"":27,""ArrowUp,ArrowRight"":15,""ArrowDown,ArrowLeft"":21,""ArrowDown,ArrowRight"":7}","true","ArrowUp","false","","","revaluation","1","","","",""
"html-keyboard-response","264","2022812","0.0-4.0-8.0-1.3","spark_pilot_2","7511","6","22","Female","","","","","","","null","<div style=""font-size:60px;"">+</div>","null","fixation","","","","","","","","","","","","","",""
"learning-instructions","265","2035166","0.0-4.0-9.0-0.0","spark_pilot_2","7511","6","22","Female","","","","","","","1009.3999999761581","<p> Now you will see the animals again and can search their chests for treasure. </p>
            <p> This time, you will not see how much treasure you earned, but you will earn more bonus money for making better choices. </p>","","instructions","","","","","","","","","","","","","",""
"revaluation","266","2036451","0.0-4.0-10.0-0.0","spark_pilot_2","7511","6","22","Female","","false","","","","","[1281.699999988079]","./assets/img/canyon/animals/lion.jpg","[""ArrowLeft""]","second stage test","canyon","0","{""ArrowUp,ArrowLeft"":27,""ArrowUp,ArrowRight"":15,""ArrowDown,ArrowLeft"":21,""ArrowDown,ArrowRight"":7}","true","ArrowUp,ArrowLeft","","","","revaluation","1","","","",""
"html-keyboard-response","267","2036958","0.0-4.0-10.0-1.0","spark_pilot_2","7511","6","22","Female","","","","","","","null","<div style=""font-size:60px;"">+</div>","null","fixation","","","","","","","","","","","","","",""
"revaluation","268","2037760","0.0-4.0-10.0-0.1","spark_pilot_2","7511","6","22","Female","","false","","","","","[798]","./assets/img/canyon/animals/lion.jpg","[""ArrowLeft""]","second stage test","canyon","0","{""ArrowUp,ArrowLeft"":27,""ArrowUp,ArrowRight"":15,""ArrowDown,ArrowLeft"":21,""ArrowDown,ArrowRight"":7}","true","ArrowUp,ArrowLeft","","","","revaluation","1","","","",""
"html-keyboard-response","269","2038262","0.0-4.0-10.0-1.1","spark_pilot_2","7511","6","22","Female","","","","","","","null","<div style=""font-size:60px;"">+</div>","null","fixation","","","","","","","","","","","","","",""
"revaluation","270","2038708","0.0-4.0-10.0-0.2","spark_pilot_2","7511","6","22","Female","","false","","","","","[443.39999997615814]","./assets/img/canyon/animals/lion.jpg","[""ArrowLeft""]","second stage test","canyon","0","{""ArrowUp,ArrowLeft"":27,""ArrowUp,ArrowRight"":15,""ArrowDown,ArrowLeft"":21,""ArrowDown,ArrowRight"":7}","true","ArrowUp,ArrowLeft","","","","revaluation","1","","","",""
"html-keyboard-response","271","2039213","0.0-4.0-10.0-1.2","spark_pilot_2","7511","6","22","Female","","","","","","","null","<div style=""font-size:60px;"">+</div>","null","fixation","","","","","","","","","","","","","",""
"revaluation","272","2039747","0.0-4.0-10.0-0.3","spark_pilot_2","7511","6","22","Female","","false","","","","","[530.4000000357628]","./assets/img/canyon/animals/lion.jpg","[""ArrowLeft""]","second stage test","canyon","0","{""ArrowUp,ArrowLeft"":27,""ArrowUp,ArrowRight"":15,""ArrowDown,ArrowLeft"":21,""ArrowDown,ArrowRight"":7}","true","ArrowUp,ArrowLeft","","","","revaluation","1","","","",""
"html-keyboard-response","273","2040256","0.0-4.0-10.0-1.3","spark_pilot_2","7511","6","22","Female","","","","","","","null","<div style=""font-size:60px;"">+</div>","null","fixation","","","","","","","","","","","","","",""
"revaluation","274","2042301","0.0-4.0-10.0-0.4","spark_pilot_2","7511","6","22","Female","","false","","","","","[2042.5]","./assets/img/canyon/animals/giraffe.jpg","[""ArrowLeft""]","second stage test","canyon","0","{""ArrowUp,ArrowLeft"":27,""ArrowUp,ArrowRight"":15,""ArrowDown,ArrowLeft"":21,""ArrowDown,ArrowRight"":7}","true","ArrowDown,ArrowLeft","","","","revaluation","1","","","",""
"html-keyboard-response","275","2042808","0.0-4.0-10.0-1.4","spark_pilot_2","7511","6","22","Female","","","","","","","null","<div style=""font-size:60px;"">+</div>","null","fixation","","","","","","","","","","","","","",""
"revaluation","276","2043335","0.0-4.0-10.0-0.5","spark_pilot_2","7511","6","22","Female","","false","","","","","[522.8000000119209]","./assets/img/canyon/animals/giraffe.jpg","[""ArrowLeft""]","second stage test","canyon","0","{""ArrowUp,ArrowLeft"":27,""ArrowUp,ArrowRight"":15,""ArrowDown,ArrowLeft"":21,""ArrowDown,ArrowRight"":7}","true","ArrowDown,ArrowLeft","","","","revaluation","1","","","",""
"html-keyboard-response","277","2043837","0.0-4.0-10.0-1.5","spark_pilot_2","7511","6","22","Female","","","","","","","null","<div style=""font-size:60px;"">+</div>","null","fixation","","","","","","","","","","","","","",""
"revaluation","278","2044295","0.0-4.0-10.0-0.6","spark_pilot_2","7511","6","22","Female","","false","","","","","[456.2000000476837]","./assets/img/canyon/animals/giraffe.jpg","[""ArrowLeft""]","second stage test","canyon","0","{""ArrowUp,ArrowLeft"":27,""ArrowUp,ArrowRight"":15,""ArrowDown,ArrowLeft"":21,""ArrowDown,ArrowRight"":7}","true","ArrowDown,ArrowLeft","","","","revaluation","1","","","",""
"html-keyboard-response","279","2044798","0.0-4.0-10.0-1.6","spark_pilot_2","7511","6","22","Female","","","","","","","null","<div style=""font-size:60px;"">+</div>","null","fixation","","","","","","","","","","","","","",""
"revaluation","280","2045164","0.0-4.0-10.0-0.7","spark_pilot_2","7511","6","22","Female","","false","","","","","[362.30000001192093]","./assets/img/canyon/animals/giraffe.jpg","[""ArrowLeft""]","second stage test","canyon","0","{""ArrowUp,ArrowLeft"":27,""ArrowUp,ArrowRight"":15,""ArrowDown,ArrowLeft"":21,""ArrowDown,ArrowRight"":7}","true","ArrowDown,ArrowLeft","","","","revaluation","1","","","",""
"html-keyboard-response","281","2045669","0.0-4.0-10.0-1.7","spark_pilot_2","7511","6","22","Female","","","","","","","null","<div style=""font-size:60px;"">+</div>","null","fixation","","","","","","","","","","","","","",""
"learning-instructions","282","2049439","0.0-4.0-0.1-0.2","spark_pilot_2","7511","6","22","Female","","","","","","","1052.8999999761581","<p> This time you are searching for treasure in the <b>ocean</b>.</p>","","instructions","","","","","","","","","","","","","",""
"learning-instructions","283","2067720","0.0-4.0-0.1-0.3","spark_pilot_2","7511","6","22","Female","","","","","","","1029.800000011921","<p><b>New</b> animals with <b>new</b> treasure chests live here. You need to explore to discover where the animal with the best treasure chest is.</p>
                    <p> Like before, once you figure out which animal has the chest with the most treasure, you should try to get to that animal and select that chest! </p>","","instructions","","","","","","","","","","","","","",""
"learning-instructions","284","2083521","0.0-4.0-1.1-0.1","spark_pilot_2","7511","6","22","Female","","","","","","","1070.300000011921","<p> Remember, when you see a picture of the place, use the up and down keys to <b>find an animal</b>.</p>
            <p> When you encounter an animal, you should use the left and right keys to <b>select a treasure chest</b>.</p>
            <p> Don't forget to look out for the robber! </p>","","instructions","","","","","","","","","","","","","",""
"revaluation","285","2089544","0.0-4.0-2.1-0.50","spark_pilot_2","7511","6","22","Female","","false","","","","","[846.2999999523163,820]","./assets/img/ocean/memory/19.jpg","[""ArrowUp"",""ArrowRight""]","value training","ocean","10","{""ArrowUp,ArrowLeft"":26,""ArrowUp,ArrowRight"":10,""ArrowDown,ArrowLeft"":5,""ArrowDown,ArrowRight"":17}","false","ArrowUp,ArrowRight","false","","","original","2","0","","",""
"html-keyboard-response","286","2090049","0.0-4.0-2.1-1.50","spark_pilot_2","7511","6","22","Female","","","","","","","null","<div style=""font-size:60px;"">+</div>","null","fixation","","","","","","","","","","","1","","",""
"revaluation","287","2096072","0.0-4.0-2.1-0.51","spark_pilot_2","7511","6","22","Female","","false","","","","","[788.7999999523163,498.80000001192093]","./assets/img/ocean/memory/37.jpg","[""ArrowUp"",""ArrowLeft""]","value training","ocean","26","{""ArrowUp,ArrowLeft"":26,""ArrowUp,ArrowRight"":10,""ArrowDown,ArrowLeft"":5,""ArrowDown,ArrowRight"":17}","true","ArrowUp,ArrowLeft","false","","","original","2","2","","",""
"html-keyboard-response","288","2096575","0.0-4.0-2.1-1.51","spark_pilot_2","7511","6","22","Female","","","","","","","null","<div style=""font-size:60px;"">+</div>","null","fixation","","","","","","","","","","","3","","",""
"revaluation","289","2102600","0.0-4.0-2.1-0.52","spark_pilot_2","7511","6","22","Female","","false","","","","","[465.2999999523163,425.60000002384186]","./assets/img/ocean/memory/23.jpg","[""ArrowDown"",""ArrowRight""]","value training","ocean","17","{""ArrowUp,ArrowLeft"":26,""ArrowUp,ArrowRight"":10,""ArrowDown,ArrowLeft"":5,""ArrowDown,ArrowRight"":17}","false","ArrowDown,ArrowRight","false","","","original","2","4","","",""
"html-keyboard-response","290","2103106","0.0-4.0-2.1-1.52","spark_pilot_2","7511","6","22","Female","","","","","","","null","<div style=""font-size:60px;"">+</div>","null","fixation","","","","","","","","","","","5","","",""
"revaluation","291","2109132","0.0-4.0-2.1-0.53","spark_pilot_2","7511","6","22","Female","","false","","","","","[511.60000002384186,424.39999997615814]","./assets/img/ocean/memory/23.jpg","[""ArrowDown"",""ArrowLeft""]","value training","ocean","5","{""ArrowUp,ArrowLeft"":26,""ArrowUp,ArrowRight"":10,""ArrowDown,ArrowLeft"":5,""ArrowDown,ArrowRight"":17}","false","ArrowDown,ArrowLeft","false","","","original","2","6","","",""
"html-keyboard-response","292","2109640","0.0-4.0-2.1-1.53","spark_pilot_2","7511","6","22","Female","","","","","","","null","<div style=""font-size:60px;"">+</div>","null","fixation","","","","","","","","","","","7","","",""
"revaluation","293","2113657","0.0-4.0-2.1-0.54","spark_pilot_2","7511","6","22","Female","","false","","","","","[913.8000000119209]","./assets/img/ocean/catch/1.jpg","[""ArrowUp""]","value training","ocean","-10","{""ArrowUp,ArrowLeft"":26,""ArrowUp,ArrowRight"":10,""ArrowDown,ArrowLeft"":5,""ArrowDown,ArrowRight"":17}","false","ArrowUp","true","","","original","2","8","","",""
"html-keyboard-response","294","2114164","0.0-4.0-2.1-1.54","spark_pilot_2","7511","6","22","Female","","","","","","","null","<div style=""font-size:60px;"">+</div>","null","fixation","","","","","","","","","","","9","","",""
"revaluation","295","2120196","0.0-4.0-2.1-0.55","spark_pilot_2","7511","6","22","Female","","false","","","","","[980.1999999880791,444.30000001192093]","./assets/img/ocean/memory/37.jpg","[""ArrowUp"",""ArrowLeft""]","value training","ocean","26","{""ArrowUp,ArrowLeft"":26,""ArrowUp,ArrowRight"":10,""ArrowDown,ArrowLeft"":5,""ArrowDown,ArrowRight"":17}","true","ArrowUp,ArrowLeft","false","","","original","2","10","","",""
"html-keyboard-response","296","2120708","0.0-4.0-2.1-1.55","spark_pilot_2","7511","6","22","Female","","","","","","","null","<div style=""font-size:60px;"">+</div>","null","fixation","","","","","","","","","","","11","","",""
"revaluation","297","2126740","0.0-4.0-2.1-0.56","spark_pilot_2","7511","6","22","Female","","false","","","","","[548.3000000119209,328.19999998807907]","./assets/img/ocean/memory/4.jpg","[""ArrowDown"",""ArrowRight""]","value training","ocean","17","{""ArrowUp,ArrowLeft"":26,""ArrowUp,ArrowRight"":10,""ArrowDown,ArrowLeft"":5,""ArrowDown,ArrowRight"":17}","false","ArrowDown,ArrowRight","false","","","original","2","12","","",""
"html-keyboard-response","298","2127252","0.0-4.0-2.1-1.56","spark_pilot_2","7511","6","22","Female","","","","","","","null","<div style=""font-size:60px;"">+</div>","null","fixation","","","","","","","","","","","13","","",""
"revaluation","299","2133285","0.0-4.0-2.1-0.57","spark_pilot_2","7511","6","22","Female","","false","","","","","[1647.800000011921,529.8000000119209]","./assets/img/ocean/memory/4.jpg","[""ArrowUp"",""ArrowLeft""]","value training","ocean","26","{""ArrowUp,ArrowLeft"":26,""ArrowUp,ArrowRight"":10,""ArrowDown,ArrowLeft"":5,""ArrowDown,ArrowRight"":17}","true","ArrowUp,ArrowLeft","false","","","original","2","14","","",""
"html-keyboard-response","300","2133796","0.0-4.0-2.1-1.57","spark_pilot_2","7511","6","22","Female","","","","","","","null","<div style=""font-size:60px;"">+</div>","null","fixation","","","","","","","","","","","15","","",""
"revaluation","301","2139829","0.0-4.0-2.1-0.58","spark_pilot_2","7511","6","22","Female","","false","","","","","[608.3000000119209,392.30000001192093]","./assets/img/ocean/memory/31.jpg","[""ArrowDown"",""ArrowRight""]","value training","ocean","17","{""ArrowUp,ArrowLeft"":26,""ArrowUp,ArrowRight"":10,""ArrowDown,ArrowLeft"":5,""ArrowDown,ArrowRight"":17}","false","ArrowDown,ArrowRight","false","","","original","2","16","","",""
"html-keyboard-response","302","2140340","0.0-4.0-2.1-1.58","spark_pilot_2","7511","6","22","Female","","","","","","","null","<div style=""font-size:60px;"">+</div>","null","fixation","","","","","","","","","","","17","","",""
"revaluation","303","2146373","0.0-4.0-2.1-0.59","spark_pilot_2","7511","6","22","Female","","false","","","","","[547.1999999880791,505.80000001192093]","./assets/img/ocean/memory/40.jpg","[""ArrowUp"",""ArrowLeft""]","value training","ocean","26","{""ArrowUp,ArrowLeft"":26,""ArrowUp,ArrowRight"":10,""ArrowDown,ArrowLeft"":5,""ArrowDown,ArrowRight"":17}","true","ArrowUp,ArrowLeft","false","","","original","2","18","","",""
"html-keyboard-response","304","2146885","0.0-4.0-2.1-1.59","spark_pilot_2","7511","6","22","Female","","","","","","","null","<div style=""font-size:60px;"">+</div>","null","fixation","","","","","","","","","","","19","","",""
