"trial_type","trial_index","time_elapsed","internal_node_id","task_version","subject_id","assigned_condition","age","gender","success","timeout","failed_images","failed_audio","failed_video","browser_interaction","rt","stimulus","response","task_part","environment","score","rewardMap","correct","fullState","isCatch","numberMissed","duration","condition","order","trial_num","key_press","ground_truth","bonus"
"pavlovia","0","675","0.0-0.0","spark_pilot_2","7317","1","12","Male","","","","","","","","","","","","","","","","","","","","","","","",""
"preload","1","31075","0.0-1.0","spark_pilot_2","7317","1","12","Male","true","false","[]","[]","[]","[{""event"":""fullscreenenter"",""trial"":2,""time"":40500}]","","","","","","","","","","","","","","","","","",""
"fullscreen","2","41487","0.0-2.0","spark_pilot_2","7317","1","12","Male","true","","","","","","","","","","","","","","","","","","","","","","",""
"audio-button-response","3","43591","0.0-3.0-0.0-0.0","spark_pilot_2","7317","1","12","Male","","","","","","","1971","./assets/audio/audiotest/turtle.mp3","2","audio_test","","","","","","","","","","","","","",""
"learning-instructions","4","52710","0.0-3.0-1.0-0.0","spark_pilot_2","7317","1","12","Male","","","","","","","2153.5","<p> Welcome! Please remember to stay in fullscreen mode and don't click away from the experiment. </p>","","instructions","","","","","","","","","","","","","",""
"learning-instructions","5","63549","0.0-3.0-1.0-0.1","spark_pilot_2","7317","1","12","Male","","","","","","","2444.8999996185303","<p> Today you will be playing a game to earn treasure. </p>
            <p> At the end of the experiment, you will earn a bonus based on how much treasure you find. </p>
            <img src='./assets/img/instructions/treasure.jpg' class='instructions-image'>","","instructions","","","","","","","","","","","","","",""
"learning-instructions","6","74405","0.0-3.0-1.0-0.2","spark_pilot_2","7317","1","12","Male","","","","","","","2609.9000005722046","<p> Animals have hidden treasure in treasure chests. </p>
            <p> You need to first find an animal and then choose which of their treasure chests to search. </p>
            <img src='./assets/img/space/animals/cat.jpg' class='instructions-image'>","","instructions","","","","","","","","","","","","","",""
"learning-instructions","7","92471","0.0-3.0-1.0-0.3","spark_pilot_2","7317","1","12","Male","","","","","","","4926.400000572205","<p> In each round, you will search for treasure in a different place. In the real game, there will be two rounds. </p>
            <p> You will begin with a separate, practice round where you will search for treasure in outer space. </p>
            <img src='./assets/img/space/0.jpg' class='instructions-image'>","","instructions","","","","","","","","","","","","","",""
"learning-instructions","8","105655","0.0-3.0-1.0-0.4","spark_pilot_2","7317","1","12","Male","","","","","","","1781.1000003814697","<p> On every turn, you will see a picture of the place that you are in, but the specific image may be different each time. </p>
            <p> For example, both of these images mean you are in outer space. </p>
            <img src='./assets/img/instructions/outerspace.jpg' class='instructions-image'>","","instructions","","","","","","","","","","","","","",""
"learning-instructions","9","115113","0.0-3.0-1.0-0.5","spark_pilot_2","7317","1","12","Male","","","","","","","1638.3000001907349","<p> You need to decide which direction to travel in. </p>
            <p> You can choose between going <b>up or down</b> by using the arrow keys. </p>
            <img src='./assets/img/instructions/updown.jpg' class='instructions-image'>","","instructions","","","","","","","","","","","","","",""
"learning-instructions","10","125499","0.0-3.0-1.0-0.6","spark_pilot_2","7317","1","12","Male","","","","","","","1594.8000001907349","<p> You will have <b>2 seconds</b> to make your choice. </p>
            <p> If you do not make a choice within 2 seconds, you will not find an animal or earn treasure. </p>
            <img src='./assets/img/instructions/2seconds.jpg' class='instructions-image'>","","instructions","","","","","","","","","","","","","",""
"learning-instructions","11","134221","0.0-3.0-1.0-0.7","spark_pilot_2","7317","1","12","Male","","","","","","","1707.1000003814697","<p> Let’s try practicing that now! </p>
            <p> When you see a picture of the place you are in, press the <b>up</b> key to travel up. </p>
            <img src='./assets/img/instructions/pressUp.jpg' class='instructions-image'>","","instructions","","","","","","","","","","","","","",""
"revaluation","12","138246","0.0-3.0-2.0-0.0","spark_pilot_2","7317","1","12","Male","","false","","","","","[1101.1999998092651]","./assets/img/space/0.jpg","[""ArrowUp""]","first stage practice","space","0","null","null","ArrowUp","false","","","","","","","",""
"html-keyboard-response","13","138759","0.0-3.0-2.0-1.0","spark_pilot_2","7317","1","12","Male","","","","","","","null","<div style=""font-size:60px;"">+</div>","null","fixation","","","","","","","","","","","","","",""
"revaluation","14","142779","0.0-3.0-2.0-0.1","spark_pilot_2","7317","1","12","Male","","true","","","","","[]","./assets/img/space/1.jpg","[]","first stage practice","space","-5","null","null","","false","","","","","","","",""
"html-keyboard-response","15","143288","0.0-3.0-2.0-1.1","spark_pilot_2","7317","1","12","Male","","","","","","","null","<div style=""font-size:60px;"">+</div>","null","fixation","","","","","","","","","","","","","",""
"revaluation","16","147304","0.0-3.0-2.0-0.2","spark_pilot_2","7317","1","12","Male","","false","","","","","[615.6999998092651]","./assets/img/space/2.jpg","[""ArrowUp""]","first stage practice","space","0","null","null","ArrowUp","false","","","","","","","",""
"html-keyboard-response","17","147808","0.0-3.0-2.0-1.2","spark_pilot_2","7317","1","12","Male","","","","","","","null","<div style=""font-size:60px;"">+</div>","null","fixation","","","","","","","","","","","","","",""
"learning-instructions","18","153284","0.0-3.0-3.0-0.0","spark_pilot_2","7317","1","12","Male","","","","","","","789.5","<p> Great job! Now try pressing the <b>down</b> key to travel down. </p>
            <img src='./assets/img/instructions/pressDown.jpg' class='instructions-image'>","","instructions","","","","","","","","","","","","","",""
"revaluation","19","157299","0.0-3.0-4.0-0.0","spark_pilot_2","7317","1","12","Male","","false","","","","","[892.3000001907349]","./assets/img/space/3.jpg","[""ArrowDown""]","first stage practice","space","0","null","null","ArrowDown","false","","","","","","","",""
"html-keyboard-response","20","157799","0.0-3.0-4.0-1.0","spark_pilot_2","7317","1","12","Male","","","","","","","null","<div style=""font-size:60px;"">+</div>","null","fixation","","","","","","","","","","","","","",""
"revaluation","21","161826","0.0-3.0-4.0-0.1","spark_pilot_2","7317","1","12","Male","","false","","","","","[920.5]","./assets/img/space/4.jpg","[""ArrowDown""]","first stage practice","space","0","null","null","ArrowDown","false","","","","","","","",""
"html-keyboard-response","22","162329","0.0-3.0-4.0-1.1","spark_pilot_2","7317","1","12","Male","","","","","","","null","<div style=""font-size:60px;"">+</div>","null","fixation","","","","","","","","","","","","","",""
"revaluation","23","166334","0.0-3.0-4.0-0.2","spark_pilot_2","7317","1","12","Male","","false","","","","","[838.6999998092651]","./assets/img/space/5.jpg","[""ArrowDown""]","first stage practice","space","0","null","null","ArrowDown","false","","","","","","","",""
"html-keyboard-response","24","166846","0.0-3.0-4.0-1.2","spark_pilot_2","7317","1","12","Male","","","","","","","null","<div style=""font-size:60px;"">+</div>","null","fixation","","","","","","","","","","","","","",""
"learning-instructions","25","177787","0.0-3.0-5.0-0.0","spark_pilot_2","7317","1","12","Male","","","","","","","1092.8000001907349","<p> The animals don’t move, so the animal in the upper part of a place will stay in the upper part of a place, and the animal in the lower part of a place will stay in the lower part of a place. </p>","","instructions","","","","","","","","","","","","","",""
"learning-instructions","26","189044","0.0-3.0-5.0-0.1","spark_pilot_2","7317","1","12","Male","","","","","","","2139.7000007629395","<p> Each animal has two treasure chests for you to choose from. </p>
            <p> The amount of treasure in each chest can range from <b> 0 to 40 pieces.</b></p>","","instructions","","","","","","","","","","","","","",""
"learning-instructions","27","201321","0.0-3.0-5.0-0.2","spark_pilot_2","7317","1","12","Male","","","","","","","1027.4000005722046","<p> You should decide which chest to search for treasure by using the <b>left</b> and <b>right</b> arrow keys. </p>
            <p><b> Pay attention to which animal is on the screen, as the animals have different treasure chests. </b></p>
            <img src='./assets/img/instructions/leftright.jpg' class='instructions-image'>","","instructions","","","","","","","","","","","","","",""
"learning-instructions","28","209499","0.0-3.0-5.0-0.3","spark_pilot_2","7317","1","12","Male","","","","","","","1825.5","<p> Let’s try practicing that now. </p>
            <p> When you see an animal, choose which chest to search for treasure. </p>
            <img src='./assets/img/instructions/chooseChest.jpg' class='instructions-image'>","","instructions","","","","","","","","","","","","","",""
"revaluation","29","213524","0.0-3.0-6.0-0.0","spark_pilot_2","7317","1","12","Male","","false","","","","","[925]","./assets/img/space/animals/rabbit.jpg","[""ArrowRight""]","second stage practice","space","23","{""ArrowUp,ArrowLeft"":3,""ArrowUp,ArrowRight"":36,""ArrowDown,ArrowLeft"":15,""ArrowDown,ArrowRight"":23}","true","ArrowDown,ArrowRight","","","","","","","","",""
"html-keyboard-response","30","214043","0.0-3.0-6.0-1.0","spark_pilot_2","7317","1","12","Male","","","","","","","null","<div style=""font-size:60px;"">+</div>","null","fixation","","","","","","","","","","","","","",""
"revaluation","31","218063","0.0-3.0-6.0-0.1","spark_pilot_2","7317","1","12","Male","","false","","","","","[1005.7999992370605]","./assets/img/space/animals/rabbit.jpg","[""ArrowRight""]","second stage practice","space","23","{""ArrowUp,ArrowLeft"":3,""ArrowUp,ArrowRight"":36,""ArrowDown,ArrowLeft"":15,""ArrowDown,ArrowRight"":23}","true","ArrowDown,ArrowRight","","","","","","","","",""
"html-keyboard-response","32","218583","0.0-3.0-6.0-1.1","spark_pilot_2","7317","1","12","Male","","","","","","","null","<div style=""font-size:60px;"">+</div>","null","fixation","","","","","","","","","","","","","",""
"revaluation","33","222603","0.0-3.0-6.0-0.2","spark_pilot_2","7317","1","12","Male","","false","","","","","[488.0999994277954]","./assets/img/space/animals/cat.jpg","[""ArrowLeft""]","second stage practice","space","3","{""ArrowUp,ArrowLeft"":3,""ArrowUp,ArrowRight"":36,""ArrowDown,ArrowLeft"":15,""ArrowDown,ArrowRight"":23}","false","ArrowUp,ArrowLeft","","","","","","","","",""
"html-keyboard-response","34","223112","0.0-3.0-6.0-1.2","spark_pilot_2","7317","1","12","Male","","","","","","","null","<div style=""font-size:60px;"">+</div>","null","fixation","","","","","","","","","","","","","",""
"revaluation","35","227123","0.0-3.0-6.0-0.3","spark_pilot_2","7317","1","12","Male","","false","","","","","[287.29999923706055]","./assets/img/space/animals/cat.jpg","[""ArrowRight""]","second stage practice","space","36","{""ArrowUp,ArrowLeft"":3,""ArrowUp,ArrowRight"":36,""ArrowDown,ArrowLeft"":15,""ArrowDown,ArrowRight"":23}","true","ArrowUp,ArrowRight","","","","","","","","",""
"html-keyboard-response","36","227642","0.0-3.0-6.0-1.3","spark_pilot_2","7317","1","12","Male","","","","","","","null","<div style=""font-size:60px;"">+</div>","null","fixation","","","","","","","","","","","","","",""
"learning-instructions","37","246585","0.0-3.0-7.0-0.0","spark_pilot_2","7317","1","12","Male","","","","","","","2150.8999996185303","<p> Great job. Now let’s try putting it together. </p>
            <p> On each turn, you will first see a picture to remind you of the place you are in, and you need to choose whether to go up or down. </p>
            <p> Then you will see an animal and choose which of its chests to search for treasure. </p>","","instructions","","","","","","","","","","","","","",""
"learning-instructions","38","256611","0.0-3.0-7.0-0.1","spark_pilot_2","7317","1","12","Male","","","","","","","1777.5","<p> When you choose whether to go up or down, try to go to the animal with the chest with the most treasure. </p>
            <p> Try practicing that now! </p>","","instructions","","","","","","","","","","","","","",""
"revaluation","39","262653","0.0-3.0-8.0-0.0","spark_pilot_2","7317","1","12","Male","","false","","","","","[900.7999992370605,626.6999998092651]","./assets/img/space/6.jpg","[""ArrowUp"",""ArrowRight""]","full practice","space","36","{""ArrowUp,ArrowLeft"":3,""ArrowUp,ArrowRight"":36,""ArrowDown,ArrowLeft"":15,""ArrowDown,ArrowRight"":23}","true","ArrowUp,ArrowRight","false","","","","","","","",""
"html-keyboard-response","40","263159","0.0-3.0-8.0-1.0","spark_pilot_2","7317","1","12","Male","","","","","","","null","<div style=""font-size:60px;"">+</div>","null","fixation","","","","","","","","","","","","","",""
"revaluation","41","269203","0.0-3.0-8.0-0.1","spark_pilot_2","7317","1","12","Male","","false","","","","","[992.8000001907349,368.3999996185303]","./assets/img/space/7.jpg","[""ArrowUp"",""ArrowRight""]","full practice","space","36","{""ArrowUp,ArrowLeft"":3,""ArrowUp,ArrowRight"":36,""ArrowDown,ArrowLeft"":15,""ArrowDown,ArrowRight"":23}","true","ArrowUp,ArrowRight","false","","","","","","","",""
"html-keyboard-response","42","269723","0.0-3.0-8.0-1.1","spark_pilot_2","7317","1","12","Male","","","","","","","null","<div style=""font-size:60px;"">+</div>","null","fixation","","","","","","","","","","","","","",""
"revaluation","43","275753","0.0-3.0-8.0-0.2","spark_pilot_2","7317","1","12","Male","","false","","","","","[1125.1000003814697,332.5999994277954]","./assets/img/space/8.jpg","[""ArrowUp"",""ArrowRight""]","full practice","space","36","{""ArrowUp,ArrowLeft"":3,""ArrowUp,ArrowRight"":36,""ArrowDown,ArrowLeft"":15,""ArrowDown,ArrowRight"":23}","true","ArrowUp,ArrowRight","false","","","","","","","",""
"html-keyboard-response","44","276263","0.0-3.0-8.0-1.2","spark_pilot_2","7317","1","12","Male","","","","","","","null","<div style=""font-size:60px;"">+</div>","null","fixation","","","","","","","","","","","","","",""
"revaluation","45","282295","0.0-3.0-8.0-0.3","spark_pilot_2","7317","1","12","Male","","false","","","","","[657,449]","./assets/img/space/9.jpg","[""ArrowUp"",""ArrowRight""]","full practice","space","36","{""ArrowUp,ArrowLeft"":3,""ArrowUp,ArrowRight"":36,""ArrowDown,ArrowLeft"":15,""ArrowDown,ArrowRight"":23}","true","ArrowUp,ArrowRight","false","","","","","","","",""
"html-keyboard-response","46","282813","0.0-3.0-8.0-1.3","spark_pilot_2","7317","1","12","Male","","","","","","","null","<div style=""font-size:60px;"">+</div>","null","fixation","","","","","","","","","","","","","",""
"revaluation","47","288826","0.0-3.0-8.0-0.4","spark_pilot_2","7317","1","12","Male","","false","","","","","[427.19999980926514,457.29999923706055]","./assets/img/space/10.jpg","[""ArrowUp"",""ArrowRight""]","full practice","space","36","{""ArrowUp,ArrowLeft"":3,""ArrowUp,ArrowRight"":36,""ArrowDown,ArrowLeft"":15,""ArrowDown,ArrowRight"":23}","true","ArrowUp,ArrowRight","false","","","","","","","",""
"html-keyboard-response","48","289327","0.0-3.0-8.0-1.4","spark_pilot_2","7317","1","12","Male","","","","","","","null","<div style=""font-size:60px;"">+</div>","null","fixation","","","","","","","","","","","","","",""
"learning-instructions","49","300545","0.0-3.0-9.0-0.0","spark_pilot_2","7317","1","12","Male","","","","","","","931.2000007629395","<p> One last thing: sometimes, you will see a robber. The robber can be anywhere in the picture. </p>
            <p> If you do not stop them, you will lose treasure. </p>
            <img src='./assets/img/instructions/robber.jpg' class='instructions-image'>","","instructions","","","","","","","","","","","","","",""
"learning-instructions","50","309371","0.0-3.0-9.0-0.1","spark_pilot_2","7317","1","12","Male","","","","","","","1677.8999996185303","<p> If you see the robber, you should <b>press the space bar</b> rather than using the arrow keys. </p>
            <p> Try practicing that now! </p>","","instructions","","","","","","","","","","","","","",""
"revaluation","51","313388","0.0-3.0-10.0-0.0","spark_pilot_2","7317","1","12","Male","","false","","","","","[645.4000005722046]","./assets/img/space/catch/0.jpg","[""spaceBar""]","catch practice","space","0","{""ArrowUp,ArrowLeft"":3,""ArrowUp,ArrowRight"":36,""ArrowDown,ArrowLeft"":15,""ArrowDown,ArrowRight"":23}","true","spaceBar","true","","","","","","","",""
"html-keyboard-response","52","313892","0.0-3.0-10.0-1.0","spark_pilot_2","7317","1","12","Male","","","","","","","null","<div style=""font-size:60px;"">+</div>","null","fixation","","","","","","","","","","","","","",""
"revaluation","53","317912","0.0-3.0-10.0-0.1","spark_pilot_2","7317","1","12","Male","","false","","","","","[531.8999996185303]","./assets/img/space/catch/1.jpg","[""spaceBar""]","catch practice","space","0","{""ArrowUp,ArrowLeft"":3,""ArrowUp,ArrowRight"":36,""ArrowDown,ArrowLeft"":15,""ArrowDown,ArrowRight"":23}","true","spaceBar","true","","","","","","","",""
"html-keyboard-response","54","318422","0.0-3.0-10.0-1.1","spark_pilot_2","7317","1","12","Male","","","","","","","null","<div style=""font-size:60px;"">+</div>","null","fixation","","","","","","","","","","","","","",""
"revaluation","55","322442","0.0-3.0-10.0-0.2","spark_pilot_2","7317","1","12","Male","","false","","","","","[433.3999996185303]","./assets/img/space/catch/2.jpg","[""spaceBar""]","catch practice","space","0","{""ArrowUp,ArrowLeft"":3,""ArrowUp,ArrowRight"":36,""ArrowDown,ArrowLeft"":15,""ArrowDown,ArrowRight"":23}","true","spaceBar","true","","","","","","","",""
"html-keyboard-response","56","322952","0.0-3.0-10.0-1.2","spark_pilot_2","7317","1","12","Male","","","","","","","null","<div style=""font-size:60px;"">+</div>","null","fixation","","","","","","","","","","","","","",""
"learning-instructions","57","338671","0.0-3.0-11.0-0.0","spark_pilot_2","7317","1","12","Male","","","","","","","2137.7999992370605","<p> After you explore a place to find treasure, it will be time to play a different game. </p>
            <p> During this game, red dots will appear on the screen and fall down slowly. </p>
            <p><b> You must click on them before they reach the bottom. </b></p>
            <img src='./assets/img/instructions/dotGame.jpg' class='instructions-image'>","","instructions","","","","","","","","","","","","","",""
"learning-instructions","58","345737","0.0-3.0-11.0-0.1","spark_pilot_2","7317","1","12","Male","","","","","","","1404.1999998092651","<p> For every dot you click, you will earn additional treasure. </p>
            <p> Let’s try practicing that now. </p>","","instructions","","","","","","","","","","","","","",""
"revaluation","59","360741","0.0-3.0-12.0-0.0","spark_pilot_2","7317","1","12","Male","","","","","","","[71,63]","","","rest practice","","20","","","","","0","15000","","","","","",""
"learning-instructions","60","367925","0.0-3.0-13.0-0.0-0.0","spark_pilot_2","7317","1","12","Male","","","","","","","1951.3000001907349","<p> Now, you will practice a shortened version of the game to get a sense of how it all fits together. </p>","","instructions","","","","","","","","","","","","","",""
"learning-instructions","61","372467","0.0-3.0-13.0-0.0-0.1","spark_pilot_2","7317","1","12","Male","","","","","","","1354","<p>This time you are searching for treasure in outer space.</p>","","instructions","","","","","","","","","","","","","",""
"learning-instructions","62","388047","0.0-3.0-13.0-1.0-0.0","spark_pilot_2","7317","1","12","Male","","","","","","","833.7999992370605","<p> Remember, when you see a picture of the place, use the up and down keys to <b>find an animal</b>.</p>
            <p> When you encounter an animal, you should use the left and right keys to <b>select a treasure chest</b>.</p>
            <p> Don't forget to look out for the robber! </p>","","instructions","","","","","","","","","","","","","",""
"revaluation","63","394082","0.0-3.0-13.0-2.0-0.0","spark_pilot_2","7317","1","12","Male","","false","","","","","[1624.8999996185303,370.5]","./assets/img/space/11.jpg","[""ArrowUp"",""ArrowRight""]","practice block","space","36","{""ArrowUp,ArrowLeft"":3,""ArrowUp,ArrowRight"":36,""ArrowDown,ArrowLeft"":15,""ArrowDown,ArrowRight"":23}","true","ArrowUp,ArrowRight","false","","","","","","","",""
"html-keyboard-response","64","394602","0.0-3.0-13.0-2.0-1.0","spark_pilot_2","7317","1","12","Male","","","","","","","null","<div style=""font-size:60px;"">+</div>","null","fixation","","","","","","","","","","","","","",""
"revaluation","65","400632","0.0-3.0-13.0-2.0-0.1","spark_pilot_2","7317","1","12","Male","","false","","","","","[1685.6999998092651,397.30000019073486]","./assets/img/space/12.jpg","[""ArrowDown"",""ArrowLeft""]","practice block","space","15","{""ArrowUp,ArrowLeft"":3,""ArrowUp,ArrowRight"":36,""ArrowDown,ArrowLeft"":15,""ArrowDown,ArrowRight"":23}","false","ArrowDown,ArrowLeft","false","","","","","","","",""
"html-keyboard-response","66","401142","0.0-3.0-13.0-2.0-1.1","spark_pilot_2","7317","1","12","Male","","","","","","","null","<div style=""font-size:60px;"">+</div>","null","fixation","","","","","","","","","","","","","",""
"revaluation","67","407202","0.0-3.0-13.0-2.0-0.2","spark_pilot_2","7317","1","12","Male","","false","","","","","[906.3999996185303,319.30000019073486]","./assets/img/space/13.jpg","[""ArrowUp"",""ArrowRight""]","practice block","space","36","{""ArrowUp,ArrowLeft"":3,""ArrowUp,ArrowRight"":36,""ArrowDown,ArrowLeft"":15,""ArrowDown,ArrowRight"":23}","true","ArrowUp,ArrowRight","false","","","","","","","",""
"html-keyboard-response","68","407722","0.0-3.0-13.0-2.0-1.2","spark_pilot_2","7317","1","12","Male","","","","","","","null","<div style=""font-size:60px;"">+</div>","null","fixation","","","","","","","","","","","","","",""
"revaluation","69","413754","0.0-3.0-13.0-2.0-0.3","spark_pilot_2","7317","1","12","Male","","false","","","","","[822.0999994277954,364.8999996185303]","./assets/img/space/14.jpg","[""ArrowUp"",""ArrowRight""]","practice block","space","36","{""ArrowUp,ArrowLeft"":3,""ArrowUp,ArrowRight"":36,""ArrowDown,ArrowLeft"":15,""ArrowDown,ArrowRight"":23}","true","ArrowUp,ArrowRight","false","","","","","","","",""
"html-keyboard-response","70","414262","0.0-3.0-13.0-2.0-1.3","spark_pilot_2","7317","1","12","Male","","","","","","","null","<div style=""font-size:60px;"">+</div>","null","fixation","","","","","","","","","","","","","",""
"revaluation","71","420283","0.0-3.0-13.0-2.0-0.4","spark_pilot_2","7317","1","12","Male","","false","","","","","[1154.1999998092651,375]","./assets/img/space/11.jpg","[""ArrowUp"",""ArrowRight""]","practice block","space","36","{""ArrowUp,ArrowLeft"":3,""ArrowUp,ArrowRight"":36,""ArrowDown,ArrowLeft"":15,""ArrowDown,ArrowRight"":23}","true","ArrowUp,ArrowRight","false","","","","","","","",""
"html-keyboard-response","72","420785","0.0-3.0-13.0-2.0-1.4","spark_pilot_2","7317","1","12","Male","","","","","","","null","<div style=""font-size:60px;"">+</div>","null","fixation","","","","","","","","","","","","","",""
"revaluation","73","426788","0.0-3.0-13.0-2.0-0.5","spark_pilot_2","7317","1","12","Male","","false","","","","","[975.3000001907349,382.69999980926514]","./assets/img/space/12.jpg","[""ArrowUp"",""ArrowRight""]","practice block","space","36","{""ArrowUp,ArrowLeft"":3,""ArrowUp,ArrowRight"":36,""ArrowDown,ArrowLeft"":15,""ArrowDown,ArrowRight"":23}","true","ArrowUp,ArrowRight","false","","","","","","","",""
"html-keyboard-response","74","427290","0.0-3.0-13.0-2.0-1.5","spark_pilot_2","7317","1","12","Male","","","","","","","null","<div style=""font-size:60px;"">+</div>","null","fixation","","","","","","","","","","","","","",""
"revaluation","75","433294","0.0-3.0-13.0-2.0-0.6","spark_pilot_2","7317","1","12","Male","","false","","","","","[1102,765]","./assets/img/space/13.jpg","[""ArrowUp"",""ArrowRight""]","practice block","space","36","{""ArrowUp,ArrowLeft"":3,""ArrowUp,ArrowRight"":36,""ArrowDown,ArrowLeft"":15,""ArrowDown,ArrowRight"":23}","true","ArrowUp,ArrowRight","false","","","","","","","",""
"html-keyboard-response","76","433795","0.0-3.0-13.0-2.0-1.6","spark_pilot_2","7317","1","12","Male","","","","","","","null","<div style=""font-size:60px;"">+</div>","null","fixation","","","","","","","","","","","","","",""
"revaluation","77","439798","0.0-3.0-13.0-2.0-0.7","spark_pilot_2","7317","1","12","Male","","false","","","","","[701.3000001907349,396.3999996185303]","./assets/img/space/14.jpg","[""ArrowUp"",""ArrowRight""]","practice block","space","36","{""ArrowUp,ArrowLeft"":3,""ArrowUp,ArrowRight"":36,""ArrowDown,ArrowLeft"":15,""ArrowDown,ArrowRight"":23}","true","ArrowUp,ArrowRight","false","","","","","","","",""
"html-keyboard-response","78","440299","0.0-3.0-13.0-2.0-1.7","spark_pilot_2","7317","1","12","Male","","","","","","","null","<div style=""font-size:60px;"">+</div>","null","fixation","","","","","","","","","","","","","",""
"revaluation","79","444303","0.0-3.0-13.0-2.0-0.8","spark_pilot_2","7317","1","12","Male","","false","","","","","[1196.3999996185303]","./assets/img/space/catch/3.jpg","[""spaceBar""]","practice block","space","0","{""ArrowUp,ArrowLeft"":3,""ArrowUp,ArrowRight"":36,""ArrowDown,ArrowLeft"":15,""ArrowDown,ArrowRight"":23}","true","spaceBar","true","","","","","","","",""
"html-keyboard-response","80","444805","0.0-3.0-13.0-2.0-1.8","spark_pilot_2","7317","1","12","Male","","","","","","","null","<div style=""font-size:60px;"">+</div>","null","fixation","","","","","","","","","","","","","",""
"learning-instructions","81","459795","0.0-3.0-13.0-3.0-0.0","spark_pilot_2","7317","1","12","Male","","","","","","","2030.5","<p> Now, you will travel with a friend who will choose whether you go up or down first. </p>
            <p> On these turns, you will just see the animal that they found. You will still get to choose which chest to search for treasure.</p>","","instructions","","","","","","","","","","","","","",""
"revaluation","82","463824","0.0-3.0-13.0-4.0-0.0","spark_pilot_2","7317","1","12","Male","","false","","","","","[1133]","./assets/img/space/animals/cat.jpg","[""ArrowRight""]","practice block","space","36","{""ArrowUp,ArrowLeft"":3,""ArrowUp,ArrowRight"":36,""ArrowDown,ArrowLeft"":15,""ArrowDown,ArrowRight"":23}","true","ArrowUp,ArrowRight","","","","","","","","",""
"html-keyboard-response","83","464333","0.0-3.0-13.0-4.0-1.0","spark_pilot_2","7317","1","12","Male","","","","","","","null","<div style=""font-size:60px;"">+</div>","null","fixation","","","","","","","","","","","","","",""
"revaluation","84","468363","0.0-3.0-13.0-4.0-0.1","spark_pilot_2","7317","1","12","Male","","false","","","","","[571.1999998092651]","./assets/img/space/animals/cat.jpg","[""ArrowRight""]","practice block","space","36","{""ArrowUp,ArrowLeft"":3,""ArrowUp,ArrowRight"":36,""ArrowDown,ArrowLeft"":15,""ArrowDown,ArrowRight"":23}","true","ArrowUp,ArrowRight","","","","","","","","",""
"html-keyboard-response","85","468869","0.0-3.0-13.0-4.0-1.1","spark_pilot_2","7317","1","12","Male","","","","","","","null","<div style=""font-size:60px;"">+</div>","null","fixation","","","","","","","","","","","","","",""
"revaluation","86","472888","0.0-3.0-13.0-4.0-0.2","spark_pilot_2","7317","1","12","Male","","false","","","","","[739]","./assets/img/space/animals/rabbit.jpg","[""ArrowRight""]","practice block","space","23","{""ArrowUp,ArrowLeft"":3,""ArrowUp,ArrowRight"":36,""ArrowDown,ArrowLeft"":15,""ArrowDown,ArrowRight"":23}","true","ArrowDown,ArrowRight","","","","","","","","",""
"html-keyboard-response","87","473403","0.0-3.0-13.0-4.0-1.2","spark_pilot_2","7317","1","12","Male","","","","","","","null","<div style=""font-size:60px;"">+</div>","null","fixation","","","","","","","","","","","","","",""
"revaluation","88","477423","0.0-3.0-13.0-4.0-0.3","spark_pilot_2","7317","1","12","Male","","false","","","","","[876.8999996185303]","./assets/img/space/animals/rabbit.jpg","[""ArrowRight""]","practice block","space","23","{""ArrowUp,ArrowLeft"":3,""ArrowUp,ArrowRight"":36,""ArrowDown,ArrowLeft"":15,""ArrowDown,ArrowRight"":23}","true","ArrowDown,ArrowRight","","","","","","","","",""
"html-keyboard-response","89","477933","0.0-3.0-13.0-4.0-1.3","spark_pilot_2","7317","1","12","Male","","","","","","","null","<div style=""font-size:60px;"">+</div>","null","fixation","","","","","","","","","","","","","",""
"learning-instructions","90","487187","0.0-3.0-13.0-5.0-0.0","spark_pilot_2","7317","1","12","Male","","","","","","","1892.5","<p> Time to play the dot game! </p>
            <p> For 15 seconds, click the red dots on the following screen as they appear. </p>","","instructions","","","","","","","","","","","","","",""
"revaluation","91","502188","0.0-3.0-13.0-6.0-0.0","spark_pilot_2","7317","1","12","Male","","","","","","","[59]","","","rest practice","","10","","","","","0","15000","","","","","",""
"learning-instructions","92","514017","0.0-3.0-13.0-7.0-0.0","spark_pilot_2","7317","1","12","Male","","","","","","","5522.10000038147","<p> You have almost finished this part of the game! </p>
            <p> We are going to ask you to make a few more choices. </p>","","instructions","","","","","","","","","","","","","",""
"learning-instructions","93","528797","0.0-3.0-13.0-7.0-0.1","spark_pilot_2","7317","1","12","Male","","","","","","","792.6000003814697","<p> First, you need to decide whether to go up or down. When you see each picture, use the arrow keys to make your choice. </p>
            <p><b>You will not see which animal you found, but try to get to the one that will give you the most treasure.</b></p>","","instructions","","","","","","","","","","","","","",""
"revaluation","94","529785","0.0-3.0-13.0-8.0","spark_pilot_2","7317","1","12","Male","","false","","","","","[987]","./assets/img/space/15.jpg","[""ArrowUp""]","practice block","space","0","{""ArrowUp,ArrowLeft"":3,""ArrowUp,ArrowRight"":36,""ArrowDown,ArrowLeft"":15,""ArrowDown,ArrowRight"":23}","true","ArrowUp","false","","","","","","","",""
"html-keyboard-response","95","530293","0.0-3.0-13.0-9.0","spark_pilot_2","7317","1","12","Male","","","","","","","null","<div style=""font-size:60px;"">+</div>","null","fixation","","","","","","","","","","","","","",""
"learning-instructions","96","543889","0.0-3.0-13.0-10.0-0.0","spark_pilot_2","7317","1","12","Male","","","","","","","2234.800000190735","<p> Now you will see the animals again and can search their chests for treasure. </p>
            <p> This time, you will not see how much treasure you earned, but you will earn more bonus money for making better choices. </p>","","instructions","","","","","","","","","","","","","",""
"revaluation","97","544753","0.0-3.0-13.0-11.0-0.0","spark_pilot_2","7317","1","12","Male","","false","","","","","[862.5]","./assets/img/space/animals/cat.jpg","[""ArrowRight""]","practice block","space","0","{""ArrowUp,ArrowLeft"":3,""ArrowUp,ArrowRight"":36,""ArrowDown,ArrowLeft"":15,""ArrowDown,ArrowRight"":23}","true","ArrowUp,ArrowRight","","","","","","","","",""
"html-keyboard-response","98","545273","0.0-3.0-13.0-11.0-1.0","spark_pilot_2","7317","1","12","Male","","","","","","","null","<div style=""font-size:60px;"">+</div>","null","fixation","","","","","","","","","","","","","",""
"revaluation","99","546345","0.0-3.0-13.0-11.0-0.1","spark_pilot_2","7317","1","12","Male","","false","","","","","[1069.9000005722046]","./assets/img/space/animals/rabbit.jpg","[""ArrowRight""]","practice block","space","0","{""ArrowUp,ArrowLeft"":3,""ArrowUp,ArrowRight"":36,""ArrowDown,ArrowLeft"":15,""ArrowDown,ArrowRight"":23}","true","ArrowDown,ArrowRight","","","","","","","","",""
"html-keyboard-response","100","546863","0.0-3.0-13.0-11.0-1.1","spark_pilot_2","7317","1","12","Male","","","","","","","null","<div style=""font-size:60px;"">+</div>","null","fixation","","","","","","","","","","","","","",""
"learning-instructions","101","552919","0.0-3.0-14.0-0.0","spark_pilot_2","7317","1","12","Male","","","","","","","1485.0999994277954","<p> Before you start, we're going to ask you a few questions about how the game works. </p>","","instructions","","","","","","","","","","","","","",""
"comp-q","102","559115","0.0-3.0-15.0-0.0-0.0","spark_pilot_2","7317","1","12","Male","","","","","","","629.8000001907349","<p> <b> True or False? </b> </p>
            <p> There can be 50 pieces of treasure in a given animal's chest. </p>","1","comp_question","","","","true","","","","","","","","","",""
"comp-q","103","566828","0.0-3.0-15.0-0.0-1.0","spark_pilot_2","7317","1","12","Male","","","","","","","1064.3999996185303","<p> <b> That's right! </b> The amount of treasure in each chest can range from 0 to 40 pieces. </p>","0","comp_answer","","","","","","","","","","","","","",""
"comp-q","104","574519","0.0-3.0-15.0-0.1-0.1","spark_pilot_2","7317","1","12","Male","","","","","","","584.8000001907349","<p> <b> True or False? </b> </p><p> In this game, all animals have the same amount of treasure in their left and right chests. </p>","1","comp_question","","","","true","","","","","","","","","",""
"comp-q","105","580961","0.0-3.0-15.0-0.1-1.1","spark_pilot_2","7317","1","12","Male","","","","","","","1227","<p> <b> That's right! </b> Animals have different amounts of treasure in their treasure chests. </p>","0","comp_answer","","","","","","","","","","","","","",""
"comp-q","106","588135","0.0-3.0-15.0-0.2-0.2","spark_pilot_2","7317","1","12","Male","","","","","","","1331","<p> <b> True or False? </b> </p><p> The same animal will always be there if you go up in the same place. </p>","0","comp_question","","","","true","","","","","","","","","",""
"comp-q","107","596397","0.0-3.0-15.0-0.2-1.2","spark_pilot_2","7317","1","12","Male","","","","","","","1822.3999996185303","<p> <b> That's right! </b> One animal lives in the upper part and one lives in the lower part of every place. </p>","0","comp_answer","","","","","","","","","","","","","",""
"comp-q","108","602326","0.0-3.0-15.0-0.3-0.3","spark_pilot_2","7317","1","12","Male","","","","","","","422.80000019073486","<p> <b> True or False? </b> </p><p> If you see a different picture, it means you are in a new place. </p>","1","comp_question","","","","true","","","","","","","","","",""
"comp-q","109","614573","0.0-3.0-15.0-0.3-1.3","spark_pilot_2","7317","1","12","Male","","","","","","","1028.5","<p> <b> That's right! </b> Lots of different images may show the same place. For example,  you may see three different images that all remind you that you are in outer space. </p>","0","comp_answer","","","","","","","","","","","","","",""
"learning-instructions","110","625527","0.0-3.0-16.0-0.0","spark_pilot_2","7317","1","12","Male","","","","","","","1112.8999996185303","<p> Good job. Remember to do your best because the amount of treasure you earn will be converted into bonus money. </p>
            <p> It’s time to start the real game! </p>","","instructions","","","","","","","","","","","","","",""
"learning-instructions","111","630077","0.0-4.0-0.0-0.0","spark_pilot_2","7317","1","12","Male","","","","","","","1852.3999996185303","<p> This time you are searching for treasure in the <b>ocean</b>.</p>","","instructions","","","","","","","","","","","","","",""
"learning-instructions","112","651525","0.0-4.0-0.0-0.1","spark_pilot_2","7317","1","12","Male","","","","","","","4180.89999961853","<p><b>New</b> animals with <b>new</b> treasure chests live here. You need to explore to discover where the animal with the best treasure chest is.</p>
                    <p> Like before, once you figure out which animal has the chest with the most treasure, you should try to get to that animal and select that chest! </p>","","instructions","","","","","","","","","","","","","",""
"learning-instructions","113","668866","0.0-4.0-1.0-0.0","spark_pilot_2","7317","1","12","Male","","","","","","","2612.199999809265","<p> Remember, when you see a picture of the place, use the up and down keys to <b>find an animal</b>.</p>
            <p> When you encounter an animal, you should use the left and right keys to <b>select a treasure chest</b>.</p>
            <p> Don't forget to look out for the robber! </p>","","instructions","","","","","","","","","","","","","",""
"revaluation","114","674913","0.0-4.0-2.0-0.0","spark_pilot_2","7317","1","12","Male","","false","","","","","[877,464.19999980926514]","./assets/img/ocean/memory/1.jpg","[""ArrowUp"",""ArrowRight""]","value training","ocean","10","{""ArrowUp,ArrowLeft"":26,""ArrowUp,ArrowRight"":10,""ArrowDown,ArrowLeft"":5,""ArrowDown,ArrowRight"":17}","false","ArrowUp,ArrowRight","false","","","original","1","0","","",""
"html-keyboard-response","115","675432","0.0-4.0-2.0-1.0","spark_pilot_2","7317","1","12","Male","","","","","","","null","<div style=""font-size:60px;"">+</div>","null","fixation","","","","","","","","","","","1","","",""
"revaluation","116","681463","0.0-4.0-2.0-0.1","spark_pilot_2","7317","1","12","Male","","false","","","","","[326.5999994277954,518.3000001907349]","./assets/img/ocean/memory/17.jpg","[""ArrowDown"",""ArrowLeft""]","value training","ocean","5","{""ArrowUp,ArrowLeft"":26,""ArrowUp,ArrowRight"":10,""ArrowDown,ArrowLeft"":5,""ArrowDown,ArrowRight"":17}","false","ArrowDown,ArrowLeft","false","","","original","1","2","","",""
"html-keyboard-response","117","681972","0.0-4.0-2.0-1.1","spark_pilot_2","7317","1","12","Male","","","","","","","null","<div style=""font-size:60px;"">+</div>","null","fixation","","","","","","","","","","","3","","",""
"revaluation","118","688032","0.0-4.0-2.0-0.2","spark_pilot_2","7317","1","12","Male","","false","","","","","[810.6000003814697,321.19999980926514]","./assets/img/ocean/memory/32.jpg","[""ArrowUp"",""ArrowLeft""]","value training","ocean","26","{""ArrowUp,ArrowLeft"":26,""ArrowUp,ArrowRight"":10,""ArrowDown,ArrowLeft"":5,""ArrowDown,ArrowRight"":17}","true","ArrowUp,ArrowLeft","false","","","original","1","4","","",""
"html-keyboard-response","119","688544","0.0-4.0-2.0-1.2","spark_pilot_2","7317","1","12","Male","","","","","","","null","<div style=""font-size:60px;"">+</div>","null","fixation","","","","","","","","","","","5","","",""
"revaluation","120","694593","0.0-4.0-2.0-0.3","spark_pilot_2","7317","1","12","Male","","false","","","","","[487.80000019073486,380.20000076293945]","./assets/img/ocean/memory/36.jpg","[""ArrowDown"",""ArrowRight""]","value training","ocean","17","{""ArrowUp,ArrowLeft"":26,""ArrowUp,ArrowRight"":10,""ArrowDown,ArrowLeft"":5,""ArrowDown,ArrowRight"":17}","false","ArrowDown,ArrowRight","false","","","original","1","6","","",""
"html-keyboard-response","121","695112","0.0-4.0-2.0-1.3","spark_pilot_2","7317","1","12","Male","","","","","","","null","<div style=""font-size:60px;"">+</div>","null","fixation","","","","","","","","","","","7","","",""
"revaluation","122","701117","0.0-4.0-2.0-0.4","spark_pilot_2","7317","1","12","Male","","false","","","","","[382.80000019073486,294]","./assets/img/ocean/memory/0.jpg","[""ArrowUp"",""ArrowLeft""]","value training","ocean","26","{""ArrowUp,ArrowLeft"":26,""ArrowUp,ArrowRight"":10,""ArrowDown,ArrowLeft"":5,""ArrowDown,ArrowRight"":17}","true","ArrowUp,ArrowLeft","false","","","original","1","8","","",""
"html-keyboard-response","123","701618","0.0-4.0-2.0-1.4","spark_pilot_2","7317","1","12","Male","","","","","","","null","<div style=""font-size:60px;"">+</div>","null","fixation","","","","","","","","","","","9","","",""
"revaluation","124","707622","0.0-4.0-2.0-0.5","spark_pilot_2","7317","1","12","Male","","false","","","","","[750.8999996185303,381.5]","./assets/img/ocean/memory/2.jpg","[""ArrowUp"",""ArrowLeft""]","value training","ocean","26","{""ArrowUp,ArrowLeft"":26,""ArrowUp,ArrowRight"":10,""ArrowDown,ArrowLeft"":5,""ArrowDown,ArrowRight"":17}","true","ArrowUp,ArrowLeft","false","","","original","1","10","","",""
"html-keyboard-response","125","708123","0.0-4.0-2.0-1.5","spark_pilot_2","7317","1","12","Male","","","","","","","null","<div style=""font-size:60px;"">+</div>","null","fixation","","","","","","","","","","","11","","",""
"revaluation","126","714126","0.0-4.0-2.0-0.6","spark_pilot_2","7317","1","12","Male","","false","","","","","[740.4000005722046,388.6000003814697]","./assets/img/ocean/memory/34.jpg","[""ArrowUp"",""ArrowLeft""]","value training","ocean","26","{""ArrowUp,ArrowLeft"":26,""ArrowUp,ArrowRight"":10,""ArrowDown,ArrowLeft"":5,""ArrowDown,ArrowRight"":17}","true","ArrowUp,ArrowLeft","false","","","original","1","12","","",""
"html-keyboard-response","127","714627","0.0-4.0-2.0-1.6","spark_pilot_2","7317","1","12","Male","","","","","","","null","<div style=""font-size:60px;"">+</div>","null","fixation","","","","","","","","","","","13","","",""
"revaluation","128","720630","0.0-4.0-2.0-0.7","spark_pilot_2","7317","1","12","Male","","false","","","","","[700.5999994277954,396]","./assets/img/ocean/memory/25.jpg","[""ArrowUp"",""ArrowLeft""]","value training","ocean","26","{""ArrowUp,ArrowLeft"":26,""ArrowUp,ArrowRight"":10,""ArrowDown,ArrowLeft"":5,""ArrowDown,ArrowRight"":17}","true","ArrowUp,ArrowLeft","false","","","original","1","14","","",""
"html-keyboard-response","129","721131","0.0-4.0-2.0-1.7","spark_pilot_2","7317","1","12","Male","","","","","","","null","<div style=""font-size:60px;"">+</div>","null","fixation","","","","","","","","","","","15","","",""
"revaluation","130","727135","0.0-4.0-2.0-0.8","spark_pilot_2","7317","1","12","Male","","false","","","","","[508.70000076293945,379.69999980926514]","./assets/img/ocean/memory/29.jpg","[""ArrowUp"",""ArrowLeft""]","value training","ocean","26","{""ArrowUp,ArrowLeft"":26,""ArrowUp,ArrowRight"":10,""ArrowDown,ArrowLeft"":5,""ArrowDown,ArrowRight"":17}","true","ArrowUp,ArrowLeft","false","","","original","1","16","","",""
"html-keyboard-response","131","727635","0.0-4.0-2.0-1.8","spark_pilot_2","7317","1","12","Male","","","","","","","null","<div style=""font-size:60px;"">+</div>","null","fixation","","","","","","","","","","","17","","",""
"revaluation","132","733639","0.0-4.0-2.0-0.9","spark_pilot_2","7317","1","12","Male","","false","","","","","[901.8000001907349,756.1999998092651]","./assets/img/ocean/memory/31.jpg","[""ArrowUp"",""ArrowLeft""]","value training","ocean","26","{""ArrowUp,ArrowLeft"":26,""ArrowUp,ArrowRight"":10,""ArrowDown,ArrowLeft"":5,""ArrowDown,ArrowRight"":17}","true","ArrowUp,ArrowLeft","false","","","original","1","18","","",""
"html-keyboard-response","133","734140","0.0-4.0-2.0-1.9","spark_pilot_2","7317","1","12","Male","","","","","","","null","<div style=""font-size:60px;"">+</div>","null","fixation","","","","","","","","","","","19","","",""
"revaluation","134","740143","0.0-4.0-2.0-0.10","spark_pilot_2","7317","1","12","Male","","false","","","","","[651.1000003814697,490.5]","./assets/img/ocean/memory/32.jpg","[""ArrowUp"",""ArrowLeft""]","value training","ocean","26","{""ArrowUp,ArrowLeft"":26,""ArrowUp,ArrowRight"":10,""ArrowDown,ArrowLeft"":5,""ArrowDown,ArrowRight"":17}","true","ArrowUp,ArrowLeft","false","","","original","1","20","","",""
"html-keyboard-response","135","740646","0.0-4.0-2.0-1.10","spark_pilot_2","7317","1","12","Male","","","","","","","null","<div style=""font-size:60px;"">+</div>","null","fixation","","","","","","","","","","","21","","",""
"revaluation","136","746648","0.0-4.0-2.0-0.11","spark_pilot_2","7317","1","12","Male","","false","","","","","[457,625.8999996185303]","./assets/img/ocean/memory/16.jpg","[""ArrowUp"",""ArrowLeft""]","value training","ocean","26","{""ArrowUp,ArrowLeft"":26,""ArrowUp,ArrowRight"":10,""ArrowDown,ArrowLeft"":5,""ArrowDown,ArrowRight"":17}","true","ArrowUp,ArrowLeft","false","","","original","1","22","","",""
"html-keyboard-response","137","747150","0.0-4.0-2.0-1.11","spark_pilot_2","7317","1","12","Male","","","","","","","null","<div style=""font-size:60px;"">+</div>","null","fixation","","","","","","","","","","","23","","",""
"revaluation","138","753153","0.0-4.0-2.0-0.12","spark_pilot_2","7317","1","12","Male","","false","","","","","[585.3000001907349,401.19999980926514]","./assets/img/ocean/memory/25.jpg","[""ArrowUp"",""ArrowLeft""]","value training","ocean","26","{""ArrowUp,ArrowLeft"":26,""ArrowUp,ArrowRight"":10,""ArrowDown,ArrowLeft"":5,""ArrowDown,ArrowRight"":17}","true","ArrowUp,ArrowLeft","false","","","original","1","24","","",""
"html-keyboard-response","139","753654","0.0-4.0-2.0-1.12","spark_pilot_2","7317","1","12","Male","","","","","","","null","<div style=""font-size:60px;"">+</div>","null","fixation","","","","","","","","","","","25","","",""
"revaluation","140","759657","0.0-4.0-2.0-0.13","spark_pilot_2","7317","1","12","Male","","false","","","","","[1009.5,544.3000001907349]","./assets/img/ocean/memory/24.jpg","[""ArrowUp"",""ArrowLeft""]","value training","ocean","26","{""ArrowUp,ArrowLeft"":26,""ArrowUp,ArrowRight"":10,""ArrowDown,ArrowLeft"":5,""ArrowDown,ArrowRight"":17}","true","ArrowUp,ArrowLeft","false","","","original","1","26","","",""
"html-keyboard-response","141","760158","0.0-4.0-2.0-1.13","spark_pilot_2","7317","1","12","Male","","","","","","","null","<div style=""font-size:60px;"">+</div>","null","fixation","","","","","","","","","","","27","","",""
"revaluation","142","766162","0.0-4.0-2.0-0.14","spark_pilot_2","7317","1","12","Male","","false","","","","","[561.3999996185303,432.30000019073486]","./assets/img/ocean/memory/26.jpg","[""ArrowUp"",""ArrowLeft""]","value training","ocean","26","{""ArrowUp,ArrowLeft"":26,""ArrowUp,ArrowRight"":10,""ArrowDown,ArrowLeft"":5,""ArrowDown,ArrowRight"":17}","true","ArrowUp,ArrowLeft","false","","","original","1","28","","",""
"html-keyboard-response","143","766663","0.0-4.0-2.0-1.14","spark_pilot_2","7317","1","12","Male","","","","","","","null","<div style=""font-size:60px;"">+</div>","null","fixation","","","","","","","","","","","29","","",""
"revaluation","144","772667","0.0-4.0-2.0-0.15","spark_pilot_2","7317","1","12","Male","","false","","","","","[600.3000001907349,966.3999996185303]","./assets/img/ocean/memory/3.jpg","[""ArrowUp"",""ArrowLeft""]","value training","ocean","26","{""ArrowUp,ArrowLeft"":26,""ArrowUp,ArrowRight"":10,""ArrowDown,ArrowLeft"":5,""ArrowDown,ArrowRight"":17}","true","ArrowUp,ArrowLeft","false","","","original","1","30","","",""
"html-keyboard-response","145","773168","0.0-4.0-2.0-1.15","spark_pilot_2","7317","1","12","Male","","","","","","","null","<div style=""font-size:60px;"">+</div>","null","fixation","","","","","","","","","","","31","","",""
"revaluation","146","777172","0.0-4.0-2.0-0.16","spark_pilot_2","7317","1","12","Male","","false","","","","","[974.3000001907349]","./assets/img/ocean/catch/6.jpg","[""spaceBar""]","value training","ocean","0","{""ArrowUp,ArrowLeft"":26,""ArrowUp,ArrowRight"":10,""ArrowDown,ArrowLeft"":5,""ArrowDown,ArrowRight"":17}","true","spaceBar","true","","","original","1","32","","",""
"html-keyboard-response","147","777673","0.0-4.0-2.0-1.16","spark_pilot_2","7317","1","12","Male","","","","","","","null","<div style=""font-size:60px;"">+</div>","null","fixation","","","","","","","","","","","33","","",""
"revaluation","148","781676","0.0-4.0-2.0-0.17","spark_pilot_2","7317","1","12","Male","","false","","","","","[606.5]","./assets/img/ocean/catch/3.jpg","[""spaceBar""]","value training","ocean","0","{""ArrowUp,ArrowLeft"":26,""ArrowUp,ArrowRight"":10,""ArrowDown,ArrowLeft"":5,""ArrowDown,ArrowRight"":17}","true","spaceBar","true","","","original","1","34","","",""
"html-keyboard-response","149","782176","0.0-4.0-2.0-1.17","spark_pilot_2","7317","1","12","Male","","","","","","","null","<div style=""font-size:60px;"">+</div>","null","fixation","","","","","","","","","","","35","","",""
"revaluation","150","788179","0.0-4.0-2.0-0.18","spark_pilot_2","7317","1","12","Male","","false","","","","","[702.7999992370605,566.3000001907349]","./assets/img/ocean/memory/39.jpg","[""ArrowUp"",""ArrowLeft""]","value training","ocean","26","{""ArrowUp,ArrowLeft"":26,""ArrowUp,ArrowRight"":10,""ArrowDown,ArrowLeft"":5,""ArrowDown,ArrowRight"":17}","true","ArrowUp,ArrowLeft","false","","","original","1","36","","",""
"html-keyboard-response","151","788680","0.0-4.0-2.0-1.18","spark_pilot_2","7317","1","12","Male","","","","","","","null","<div style=""font-size:60px;"">+</div>","null","fixation","","","","","","","","","","","37","","",""
"revaluation","152","792683","0.0-4.0-2.0-0.19","spark_pilot_2","7317","1","12","Male","","false","","","","","[766.8999996185303]","./assets/img/ocean/catch/4.jpg","[""spaceBar""]","value training","ocean","0","{""ArrowUp,ArrowLeft"":26,""ArrowUp,ArrowRight"":10,""ArrowDown,ArrowLeft"":5,""ArrowDown,ArrowRight"":17}","true","spaceBar","true","","","original","1","38","","",""
"html-keyboard-response","153","793185","0.0-4.0-2.0-1.19","spark_pilot_2","7317","1","12","Male","","","","","","","null","<div style=""font-size:60px;"">+</div>","null","fixation","","","","","","","","","","","39","","",""
"revaluation","154","799189","0.0-4.0-2.0-0.20","spark_pilot_2","7317","1","12","Male","","false","","","","","[757.9000005722046,405.6000003814697]","./assets/img/ocean/memory/17.jpg","[""ArrowUp"",""ArrowLeft""]","value training","ocean","26","{""ArrowUp,ArrowLeft"":26,""ArrowUp,ArrowRight"":10,""ArrowDown,ArrowLeft"":5,""ArrowDown,ArrowRight"":17}","true","ArrowUp,ArrowLeft","false","","","original","1","40","","",""
"html-keyboard-response","155","799690","0.0-4.0-2.0-1.20","spark_pilot_2","7317","1","12","Male","","","","","","","null","<div style=""font-size:60px;"">+</div>","null","fixation","","","","","","","","","","","41","","",""
"revaluation","156","805692","0.0-4.0-2.0-0.21","spark_pilot_2","7317","1","12","Male","","false","","","","","[604.8000001907349,436]","./assets/img/ocean/memory/26.jpg","[""ArrowUp"",""ArrowLeft""]","value training","ocean","26","{""ArrowUp,ArrowLeft"":26,""ArrowUp,ArrowRight"":10,""ArrowDown,ArrowLeft"":5,""ArrowDown,ArrowRight"":17}","true","ArrowUp,ArrowLeft","false","","","original","1","42","","",""
"html-keyboard-response","157","806193","0.0-4.0-2.0-1.21","spark_pilot_2","7317","1","12","Male","","","","","","","null","<div style=""font-size:60px;"">+</div>","null","fixation","","","","","","","","","","","43","","",""
"revaluation","158","812196","0.0-4.0-2.0-0.22","spark_pilot_2","7317","1","12","Male","","false","","","","","[814.0999994277954,372.29999923706055]","./assets/img/ocean/memory/1.jpg","[""ArrowUp"",""ArrowLeft""]","value training","ocean","26","{""ArrowUp,ArrowLeft"":26,""ArrowUp,ArrowRight"":10,""ArrowDown,ArrowLeft"":5,""ArrowDown,ArrowRight"":17}","true","ArrowUp,ArrowLeft","false","","","original","1","44","","",""
"html-keyboard-response","159","812697","0.0-4.0-2.0-1.22","spark_pilot_2","7317","1","12","Male","","","","","","","null","<div style=""font-size:60px;"">+</div>","null","fixation","","","","","","","","","","","45","","",""
"revaluation","160","818700","0.0-4.0-2.0-0.23","spark_pilot_2","7317","1","12","Male","","false","","","","","[846.1000003814697,460.8999996185303]","./assets/img/ocean/memory/24.jpg","[""ArrowUp"",""ArrowLeft""]","value training","ocean","26","{""ArrowUp,ArrowLeft"":26,""ArrowUp,ArrowRight"":10,""ArrowDown,ArrowLeft"":5,""ArrowDown,ArrowRight"":17}","true","ArrowUp,ArrowLeft","false","","","original","1","46","","",""
"html-keyboard-response","161","819201","0.0-4.0-2.0-1.23","spark_pilot_2","7317","1","12","Male","","","","","","","null","<div style=""font-size:60px;"">+</div>","null","fixation","","","","","","","","","","","47","","",""
"revaluation","162","825207","0.0-4.0-2.0-0.24","spark_pilot_2","7317","1","12","Male","","false","","","","","[964.9000005722046,476.30000019073486]","./assets/img/ocean/memory/14.jpg","[""ArrowUp"",""ArrowLeft""]","value training","ocean","26","{""ArrowUp,ArrowLeft"":26,""ArrowUp,ArrowRight"":10,""ArrowDown,ArrowLeft"":5,""ArrowDown,ArrowRight"":17}","true","ArrowUp,ArrowLeft","false","","","original","1","48","","",""
"html-keyboard-response","163","825708","0.0-4.0-2.0-1.24","spark_pilot_2","7317","1","12","Male","","","","","","","null","<div style=""font-size:60px;"">+</div>","null","fixation","","","","","","","","","","","49","","",""
"revaluation","164","831712","0.0-4.0-2.0-0.25","spark_pilot_2","7317","1","12","Male","","false","","","","","[587,410.19999980926514]","./assets/img/ocean/memory/12.jpg","[""ArrowUp"",""ArrowLeft""]","value training","ocean","26","{""ArrowUp,ArrowLeft"":26,""ArrowUp,ArrowRight"":10,""ArrowDown,ArrowLeft"":5,""ArrowDown,ArrowRight"":17}","true","ArrowUp,ArrowLeft","false","","","original","1","50","","",""
"html-keyboard-response","165","832214","0.0-4.0-2.0-1.25","spark_pilot_2","7317","1","12","Male","","","","","","","null","<div style=""font-size:60px;"">+</div>","null","fixation","","","","","","","","","","","51","","",""
"revaluation","166","838217","0.0-4.0-2.0-0.26","spark_pilot_2","7317","1","12","Male","","false","","","","","[1017.6999998092651,568.5]","./assets/img/ocean/memory/14.jpg","[""ArrowUp"",""ArrowLeft""]","value training","ocean","26","{""ArrowUp,ArrowLeft"":26,""ArrowUp,ArrowRight"":10,""ArrowDown,ArrowLeft"":5,""ArrowDown,ArrowRight"":17}","true","ArrowUp,ArrowLeft","false","","","original","1","52","","",""
"html-keyboard-response","167","838718","0.0-4.0-2.0-1.26","spark_pilot_2","7317","1","12","Male","","","","","","","null","<div style=""font-size:60px;"">+</div>","null","fixation","","","","","","","","","","","53","","",""
"revaluation","168","842720","0.0-4.0-2.0-0.27","spark_pilot_2","7317","1","12","Male","","false","","","","","[832.6999998092651]","./assets/img/ocean/catch/5.jpg","[""spaceBar""]","value training","ocean","0","{""ArrowUp,ArrowLeft"":26,""ArrowUp,ArrowRight"":10,""ArrowDown,ArrowLeft"":5,""ArrowDown,ArrowRight"":17}","true","spaceBar","true","","","original","1","54","","",""
"html-keyboard-response","169","843222","0.0-4.0-2.0-1.27","spark_pilot_2","7317","1","12","Male","","","","","","","null","<div style=""font-size:60px;"">+</div>","null","fixation","","","","","","","","","","","55","","",""
"revaluation","170","849227","0.0-4.0-2.0-0.28","spark_pilot_2","7317","1","12","Male","","false","","","","","[665.1999998092651,568.1999998092651]","./assets/img/ocean/memory/12.jpg","[""ArrowUp"",""ArrowLeft""]","value training","ocean","26","{""ArrowUp,ArrowLeft"":26,""ArrowUp,ArrowRight"":10,""ArrowDown,ArrowLeft"":5,""ArrowDown,ArrowRight"":17}","true","ArrowUp,ArrowLeft","false","","","original","1","56","","",""
"html-keyboard-response","171","849727","0.0-4.0-2.0-1.28","spark_pilot_2","7317","1","12","Male","","","","","","","null","<div style=""font-size:60px;"">+</div>","null","fixation","","","","","","","","","","","57","","",""
"revaluation","172","855731","0.0-4.0-2.0-0.29","spark_pilot_2","7317","1","12","Male","","false","","","","","[815.1999998092651,542.9000005722046]","./assets/img/ocean/memory/31.jpg","[""ArrowUp"",""ArrowLeft""]","value training","ocean","26","{""ArrowUp,ArrowLeft"":26,""ArrowUp,ArrowRight"":10,""ArrowDown,ArrowLeft"":5,""ArrowDown,ArrowRight"":17}","true","ArrowUp,ArrowLeft","false","","","original","1","58","","",""
"html-keyboard-response","173","856232","0.0-4.0-2.0-1.29","spark_pilot_2","7317","1","12","Male","","","","","","","null","<div style=""font-size:60px;"">+</div>","null","fixation","","","","","","","","","","","59","","",""
"revaluation","174","862237","0.0-4.0-2.0-0.30","spark_pilot_2","7317","1","12","Male","","false","","","","","[662,452.5]","./assets/img/ocean/memory/29.jpg","[""ArrowUp"",""ArrowLeft""]","value training","ocean","26","{""ArrowUp,ArrowLeft"":26,""ArrowUp,ArrowRight"":10,""ArrowDown,ArrowLeft"":5,""ArrowDown,ArrowRight"":17}","true","ArrowUp,ArrowLeft","false","","","original","1","60","","",""
"html-keyboard-response","175","862738","0.0-4.0-2.0-1.30","spark_pilot_2","7317","1","12","Male","","","","","","","null","<div style=""font-size:60px;"">+</div>","null","fixation","","","","","","","","","","","61","","",""
"revaluation","176","868742","0.0-4.0-2.0-0.31","spark_pilot_2","7317","1","12","Male","","false","","","","","[589.2000007629395,412.80000019073486]","./assets/img/ocean/memory/36.jpg","[""ArrowUp"",""ArrowLeft""]","value training","ocean","26","{""ArrowUp,ArrowLeft"":26,""ArrowUp,ArrowRight"":10,""ArrowDown,ArrowLeft"":5,""ArrowDown,ArrowRight"":17}","true","ArrowUp,ArrowLeft","false","","","original","1","62","","",""
"html-keyboard-response","177","869243","0.0-4.0-2.0-1.31","spark_pilot_2","7317","1","12","Male","","","","","","","null","<div style=""font-size:60px;"">+</div>","null","fixation","","","","","","","","","","","63","","",""
"revaluation","178","873245","0.0-4.0-2.0-0.32","spark_pilot_2","7317","1","12","Male","","false","","","","","[588.3999996185303]","./assets/img/ocean/catch/0.jpg","[""spaceBar""]","value training","ocean","0","{""ArrowUp,ArrowLeft"":26,""ArrowUp,ArrowRight"":10,""ArrowDown,ArrowLeft"":5,""ArrowDown,ArrowRight"":17}","true","spaceBar","true","","","original","1","64","","",""
"html-keyboard-response","179","873746","0.0-4.0-2.0-1.32","spark_pilot_2","7317","1","12","Male","","","","","","","null","<div style=""font-size:60px;"">+</div>","null","fixation","","","","","","","","","","","65","","",""
"revaluation","180","879750","0.0-4.0-2.0-0.33","spark_pilot_2","7317","1","12","Male","","false","","","","","[1012.8999996185303,540.3000001907349]","./assets/img/ocean/memory/9.jpg","[""ArrowUp"",""ArrowLeft""]","value training","ocean","26","{""ArrowUp,ArrowLeft"":26,""ArrowUp,ArrowRight"":10,""ArrowDown,ArrowLeft"":5,""ArrowDown,ArrowRight"":17}","true","ArrowUp,ArrowLeft","false","","","original","1","66","","",""
"html-keyboard-response","181","880251","0.0-4.0-2.0-1.33","spark_pilot_2","7317","1","12","Male","","","","","","","null","<div style=""font-size:60px;"">+</div>","null","fixation","","","","","","","","","","","67","","",""
"revaluation","182","886255","0.0-4.0-2.0-0.34","spark_pilot_2","7317","1","12","Male","","false","","","","","[996.8999996185303,411.19999980926514]","./assets/img/ocean/memory/20.jpg","[""ArrowUp"",""ArrowLeft""]","value training","ocean","26","{""ArrowUp,ArrowLeft"":26,""ArrowUp,ArrowRight"":10,""ArrowDown,ArrowLeft"":5,""ArrowDown,ArrowRight"":17}","true","ArrowUp,ArrowLeft","false","","","original","1","68","","",""
"html-keyboard-response","183","886756","0.0-4.0-2.0-1.34","spark_pilot_2","7317","1","12","Male","","","","","","","null","<div style=""font-size:60px;"">+</div>","null","fixation","","","","","","","","","","","69","","",""
"revaluation","184","892759","0.0-4.0-2.0-0.35","spark_pilot_2","7317","1","12","Male","","false","","","","","[828.3000001907349,436.3999996185303]","./assets/img/ocean/memory/0.jpg","[""ArrowUp"",""ArrowLeft""]","value training","ocean","26","{""ArrowUp,ArrowLeft"":26,""ArrowUp,ArrowRight"":10,""ArrowDown,ArrowLeft"":5,""ArrowDown,ArrowRight"":17}","true","ArrowUp,ArrowLeft","false","","","original","1","70","","",""
"html-keyboard-response","185","893260","0.0-4.0-2.0-1.35","spark_pilot_2","7317","1","12","Male","","","","","","","null","<div style=""font-size:60px;"">+</div>","null","fixation","","","","","","","","","","","71","","",""
"revaluation","186","897264","0.0-4.0-2.0-0.36","spark_pilot_2","7317","1","12","Male","","false","","","","","[730.5]","./assets/img/ocean/catch/1.jpg","[""spaceBar""]","value training","ocean","0","{""ArrowUp,ArrowLeft"":26,""ArrowUp,ArrowRight"":10,""ArrowDown,ArrowLeft"":5,""ArrowDown,ArrowRight"":17}","true","spaceBar","true","","","original","1","72","","",""
"html-keyboard-response","187","897765","0.0-4.0-2.0-1.36","spark_pilot_2","7317","1","12","Male","","","","","","","null","<div style=""font-size:60px;"">+</div>","null","fixation","","","","","","","","","","","73","","",""
"revaluation","188","903769","0.0-4.0-2.0-0.37","spark_pilot_2","7317","1","12","Male","","false","","","","","[634,465.30000019073486]","./assets/img/ocean/memory/6.jpg","[""ArrowUp"",""ArrowLeft""]","value training","ocean","26","{""ArrowUp,ArrowLeft"":26,""ArrowUp,ArrowRight"":10,""ArrowDown,ArrowLeft"":5,""ArrowDown,ArrowRight"":17}","true","ArrowUp,ArrowLeft","false","","","original","1","74","","",""
"html-keyboard-response","189","904269","0.0-4.0-2.0-1.37","spark_pilot_2","7317","1","12","Male","","","","","","","null","<div style=""font-size:60px;"">+</div>","null","fixation","","","","","","","","","","","75","","",""
"revaluation","190","910273","0.0-4.0-2.0-0.38","spark_pilot_2","7317","1","12","Male","","false","","","","","[858.3000001907349,401.3999996185303]","./assets/img/ocean/memory/7.jpg","[""ArrowUp"",""ArrowLeft""]","value training","ocean","26","{""ArrowUp,ArrowLeft"":26,""ArrowUp,ArrowRight"":10,""ArrowDown,ArrowLeft"":5,""ArrowDown,ArrowRight"":17}","true","ArrowUp,ArrowLeft","false","","","original","1","76","","",""
"html-keyboard-response","191","910776","0.0-4.0-2.0-1.38","spark_pilot_2","7317","1","12","Male","","","","","","","null","<div style=""font-size:60px;"">+</div>","null","fixation","","","","","","","","","","","77","","",""
"revaluation","192","916780","0.0-4.0-2.0-0.39","spark_pilot_2","7317","1","12","Male","","false","","","","","[871.8999996185303,438.80000019073486]","./assets/img/ocean/memory/2.jpg","[""ArrowUp"",""ArrowLeft""]","value training","ocean","26","{""ArrowUp,ArrowLeft"":26,""ArrowUp,ArrowRight"":10,""ArrowDown,ArrowLeft"":5,""ArrowDown,ArrowRight"":17}","true","ArrowUp,ArrowLeft","false","","","original","1","78","","",""
"html-keyboard-response","193","917280","0.0-4.0-2.0-1.39","spark_pilot_2","7317","1","12","Male","","","","","","","null","<div style=""font-size:60px;"">+</div>","null","fixation","","","","","","","","","","","79","","",""
"revaluation","194","921284","0.0-4.0-2.0-0.40","spark_pilot_2","7317","1","12","Male","","false","","","","","[488.1000003814697]","./assets/img/ocean/catch/2.jpg","[""spaceBar""]","value training","ocean","0","{""ArrowUp,ArrowLeft"":26,""ArrowUp,ArrowRight"":10,""ArrowDown,ArrowLeft"":5,""ArrowDown,ArrowRight"":17}","true","spaceBar","true","","","original","1","80","","",""
"html-keyboard-response","195","921784","0.0-4.0-2.0-1.40","spark_pilot_2","7317","1","12","Male","","","","","","","null","<div style=""font-size:60px;"">+</div>","null","fixation","","","","","","","","","","","81","","",""
"revaluation","196","927787","0.0-4.0-2.0-0.41","spark_pilot_2","7317","1","12","Male","","false","","","","","[671.1000003814697,310.19999980926514]","./assets/img/ocean/memory/16.jpg","[""ArrowUp"",""ArrowLeft""]","value training","ocean","26","{""ArrowUp,ArrowLeft"":26,""ArrowUp,ArrowRight"":10,""ArrowDown,ArrowLeft"":5,""ArrowDown,ArrowRight"":17}","true","ArrowUp,ArrowLeft","false","","","original","1","82","","",""
"html-keyboard-response","197","928288","0.0-4.0-2.0-1.41","spark_pilot_2","7317","1","12","Male","","","","","","","null","<div style=""font-size:60px;"">+</div>","null","fixation","","","","","","","","","","","83","","",""
"revaluation","198","934292","0.0-4.0-2.0-0.42","spark_pilot_2","7317","1","12","Male","","false","","","","","[1103.2000007629395,437.5]","./assets/img/ocean/memory/9.jpg","[""ArrowUp"",""ArrowLeft""]","value training","ocean","26","{""ArrowUp,ArrowLeft"":26,""ArrowUp,ArrowRight"":10,""ArrowDown,ArrowLeft"":5,""ArrowDown,ArrowRight"":17}","true","ArrowUp,ArrowLeft","false","","","original","1","84","","",""
"html-keyboard-response","199","934793","0.0-4.0-2.0-1.42","spark_pilot_2","7317","1","12","Male","","","","","","","null","<div style=""font-size:60px;"">+</div>","null","fixation","","","","","","","","","","","85","","",""
"revaluation","200","940797","0.0-4.0-2.0-0.43","spark_pilot_2","7317","1","12","Male","","false","","","","","[927,477.6000003814697]","./assets/img/ocean/memory/20.jpg","[""ArrowUp"",""ArrowLeft""]","value training","ocean","26","{""ArrowUp,ArrowLeft"":26,""ArrowUp,ArrowRight"":10,""ArrowDown,ArrowLeft"":5,""ArrowDown,ArrowRight"":17}","true","ArrowUp,ArrowLeft","false","","","original","1","86","","",""
"html-keyboard-response","201","941298","0.0-4.0-2.0-1.43","spark_pilot_2","7317","1","12","Male","","","","","","","null","<div style=""font-size:60px;"">+</div>","null","fixation","","","","","","","","","","","87","","",""
"revaluation","202","947301","0.0-4.0-2.0-0.44","spark_pilot_2","7317","1","12","Male","","false","","","","","[676.7999992370605,756.1999998092651]","./assets/img/ocean/memory/34.jpg","[""ArrowUp"",""ArrowLeft""]","value training","ocean","26","{""ArrowUp,ArrowLeft"":26,""ArrowUp,ArrowRight"":10,""ArrowDown,ArrowLeft"":5,""ArrowDown,ArrowRight"":17}","true","ArrowUp,ArrowLeft","false","","","original","1","88","","",""
"html-keyboard-response","203","947802","0.0-4.0-2.0-1.44","spark_pilot_2","7317","1","12","Male","","","","","","","null","<div style=""font-size:60px;"">+</div>","null","fixation","","","","","","","","","","","89","","",""
"revaluation","204","953809","0.0-4.0-2.0-0.45","spark_pilot_2","7317","1","12","Male","","false","","","","","[621.6000003814697,1073.6999998092651]","./assets/img/ocean/memory/3.jpg","[""ArrowUp"",""ArrowLeft""]","value training","ocean","26","{""ArrowUp,ArrowLeft"":26,""ArrowUp,ArrowRight"":10,""ArrowDown,ArrowLeft"":5,""ArrowDown,ArrowRight"":17}","true","ArrowUp,ArrowLeft","false","","","original","1","90","","",""
"html-keyboard-response","205","954310","0.0-4.0-2.0-1.45","spark_pilot_2","7317","1","12","Male","","","","","","","null","<div style=""font-size:60px;"">+</div>","null","fixation","","","","","","","","","","","91","","",""
"revaluation","206","960326","0.0-4.0-2.0-0.46","spark_pilot_2","7317","1","12","Male","","false","","","","","[794,709.3000001907349]","./assets/img/ocean/memory/7.jpg","[""ArrowUp"",""ArrowLeft""]","value training","ocean","26","{""ArrowUp,ArrowLeft"":26,""ArrowUp,ArrowRight"":10,""ArrowDown,ArrowLeft"":5,""ArrowDown,ArrowRight"":17}","true","ArrowUp,ArrowLeft","false","","","original","1","92","","",""
"html-keyboard-response","207","960827","0.0-4.0-2.0-1.46","spark_pilot_2","7317","1","12","Male","","","","","","","null","<div style=""font-size:60px;"">+</div>","null","fixation","","","","","","","","","","","93","","",""
"revaluation","208","966831","0.0-4.0-2.0-0.47","spark_pilot_2","7317","1","12","Male","","false","","","","","[852.5,595.3999996185303]","./assets/img/ocean/memory/39.jpg","[""ArrowUp"",""ArrowLeft""]","value training","ocean","26","{""ArrowUp,ArrowLeft"":26,""ArrowUp,ArrowRight"":10,""ArrowDown,ArrowLeft"":5,""ArrowDown,ArrowRight"":17}","true","ArrowUp,ArrowLeft","false","","","original","1","94","","",""
"html-keyboard-response","209","967332","0.0-4.0-2.0-1.47","spark_pilot_2","7317","1","12","Male","","","","","","","null","<div style=""font-size:60px;"">+</div>","null","fixation","","","","","","","","","","","95","","",""
"revaluation","210","973336","0.0-4.0-2.0-0.48","spark_pilot_2","7317","1","12","Male","","false","","","","","[611.6000003814697,619]","./assets/img/ocean/memory/6.jpg","[""ArrowUp"",""ArrowLeft""]","value training","ocean","26","{""ArrowUp,ArrowLeft"":26,""ArrowUp,ArrowRight"":10,""ArrowDown,ArrowLeft"":5,""ArrowDown,ArrowRight"":17}","true","ArrowUp,ArrowLeft","false","","","original","1","96","","",""
"html-keyboard-response","211","973837","0.0-4.0-2.0-1.48","spark_pilot_2","7317","1","12","Male","","","","","","","null","<div style=""font-size:60px;"">+</div>","null","fixation","","","","","","","","","","","97","","",""
"revaluation","212","977839","0.0-4.0-2.0-0.49","spark_pilot_2","7317","1","12","Male","","false","","","","","[1090.9000005722046]","./assets/img/ocean/catch/7.jpg","[""spaceBar""]","value training","ocean","0","{""ArrowUp,ArrowLeft"":26,""ArrowUp,ArrowRight"":10,""ArrowDown,ArrowLeft"":5,""ArrowDown,ArrowRight"":17}","true","spaceBar","true","","","original","1","98","","",""
"html-keyboard-response","213","978340","0.0-4.0-2.0-1.49","spark_pilot_2","7317","1","12","Male","","","","","","","null","<div style=""font-size:60px;"">+</div>","null","fixation","","","","","","","","","","","99","","",""
"learning-instructions","214","994104","0.0-4.0-3.0-0.0","spark_pilot_2","7317","1","12","Male","","","","","","","2827.8999996185303","<p> Now, you will travel with a friend who will choose whether you go up or down first. </p>
            <p> On these turns, you will just see the animal that they found. You will still get to choose which chest to search for treasure.</p>","","instructions","","","","","","","","","","","","","",""
"revaluation","215","998124","0.0-4.0-4.0-0.0","spark_pilot_2","7317","1","12","Male","","false","","","","","[1399]","./assets/img/ocean/animals/octopus.jpg","[""ArrowRight""]","revaluation","ocean","17","{""ArrowUp,ArrowLeft"":26,""ArrowUp,ArrowRight"":10,""ArrowDown,ArrowLeft"":5,""ArrowDown,ArrowRight"":17}","true","ArrowDown,ArrowRight","","","","original","1","0","","",""
"html-keyboard-response","216","998644","0.0-4.0-4.0-1.0","spark_pilot_2","7317","1","12","Male","","","","","","","null","<div style=""font-size:60px;"">+</div>","null","fixation","","","","","","","","","","","1","","",""
"revaluation","217","1002685","0.0-4.0-4.0-0.1","spark_pilot_2","7317","1","12","Male","","false","","","","","[569.4000005722046]","./assets/img/ocean/animals/octopus.jpg","[""ArrowRight""]","revaluation","ocean","17","{""ArrowUp,ArrowLeft"":26,""ArrowUp,ArrowRight"":10,""ArrowDown,ArrowLeft"":5,""ArrowDown,ArrowRight"":17}","true","ArrowDown,ArrowRight","","","","original","1","2","","",""
"html-keyboard-response","218","1003189","0.0-4.0-4.0-1.1","spark_pilot_2","7317","1","12","Male","","","","","","","null","<div style=""font-size:60px;"">+</div>","null","fixation","","","","","","","","","","","3","","",""
"revaluation","219","1007214","0.0-4.0-4.0-0.2","spark_pilot_2","7317","1","12","Male","","false","","","","","[569.3000001907349]","./assets/img/ocean/animals/octopus.jpg","[""ArrowRight""]","revaluation","ocean","17","{""ArrowUp,ArrowLeft"":26,""ArrowUp,ArrowRight"":10,""ArrowDown,ArrowLeft"":5,""ArrowDown,ArrowRight"":17}","true","ArrowDown,ArrowRight","","","","original","1","4","","",""
"html-keyboard-response","220","1007724","0.0-4.0-4.0-1.2","spark_pilot_2","7317","1","12","Male","","","","","","","null","<div style=""font-size:60px;"">+</div>","null","fixation","","","","","","","","","","","5","","",""
"revaluation","221","1011757","0.0-4.0-4.0-0.3","spark_pilot_2","7317","1","12","Male","","false","","","","","[649.8000001907349]","./assets/img/ocean/animals/seahorse.jpg","[""ArrowLeft""]","revaluation","ocean","26","{""ArrowUp,ArrowLeft"":26,""ArrowUp,ArrowRight"":10,""ArrowDown,ArrowLeft"":5,""ArrowDown,ArrowRight"":17}","true","ArrowUp,ArrowLeft","","","","original","1","6","","",""
"html-keyboard-response","222","1012264","0.0-4.0-4.0-1.3","spark_pilot_2","7317","1","12","Male","","","","","","","null","<div style=""font-size:60px;"">+</div>","null","fixation","","","","","","","","","","","7","","",""
"revaluation","223","1016294","0.0-4.0-4.0-0.4","spark_pilot_2","7317","1","12","Male","","false","","","","","[558.6000003814697]","./assets/img/ocean/animals/octopus.jpg","[""ArrowRight""]","revaluation","ocean","17","{""ArrowUp,ArrowLeft"":26,""ArrowUp,ArrowRight"":10,""ArrowDown,ArrowLeft"":5,""ArrowDown,ArrowRight"":17}","true","ArrowDown,ArrowRight","","","","original","1","8","","",""
"html-keyboard-response","224","1016800","0.0-4.0-4.0-1.4","spark_pilot_2","7317","1","12","Male","","","","","","","null","<div style=""font-size:60px;"">+</div>","null","fixation","","","","","","","","","","","9","","",""
"revaluation","225","1020825","0.0-4.0-4.0-0.5","spark_pilot_2","7317","1","12","Male","","false","","","","","[734.6000003814697]","./assets/img/ocean/animals/octopus.jpg","[""ArrowRight""]","revaluation","ocean","17","{""ArrowUp,ArrowLeft"":26,""ArrowUp,ArrowRight"":10,""ArrowDown,ArrowLeft"":5,""ArrowDown,ArrowRight"":17}","true","ArrowDown,ArrowRight","","","","original","1","10","","",""
"html-keyboard-response","226","1021336","0.0-4.0-4.0-1.5","spark_pilot_2","7317","1","12","Male","","","","","","","null","<div style=""font-size:60px;"">+</div>","null","fixation","","","","","","","","","","","11","","",""
"revaluation","227","1025339","0.0-4.0-4.0-0.6","spark_pilot_2","7317","1","12","Male","","false","","","","","[630.6999998092651]","./assets/img/ocean/animals/octopus.jpg","[""ArrowRight""]","revaluation","ocean","17","{""ArrowUp,ArrowLeft"":26,""ArrowUp,ArrowRight"":10,""ArrowDown,ArrowLeft"":5,""ArrowDown,ArrowRight"":17}","true","ArrowDown,ArrowRight","","","","original","1","12","","",""
"html-keyboard-response","228","1025839","0.0-4.0-4.0-1.6","spark_pilot_2","7317","1","12","Male","","","","","","","null","<div style=""font-size:60px;"">+</div>","null","fixation","","","","","","","","","","","13","","",""
"revaluation","229","1029842","0.0-4.0-4.0-0.7","spark_pilot_2","7317","1","12","Male","","false","","","","","[527.4000005722046]","./assets/img/ocean/animals/octopus.jpg","[""ArrowRight""]","revaluation","ocean","17","{""ArrowUp,ArrowLeft"":26,""ArrowUp,ArrowRight"":10,""ArrowDown,ArrowLeft"":5,""ArrowDown,ArrowRight"":17}","true","ArrowDown,ArrowRight","","","","original","1","14","","",""
"html-keyboard-response","230","1030356","0.0-4.0-4.0-1.7","spark_pilot_2","7317","1","12","Male","","","","","","","null","<div style=""font-size:60px;"">+</div>","null","fixation","","","","","","","","","","","15","","",""
"revaluation","231","1034360","0.0-4.0-4.0-0.8","spark_pilot_2","7317","1","12","Male","","false","","","","","[563.0999994277954]","./assets/img/ocean/animals/seahorse.jpg","[""ArrowLeft""]","revaluation","ocean","26","{""ArrowUp,ArrowLeft"":26,""ArrowUp,ArrowRight"":10,""ArrowDown,ArrowLeft"":5,""ArrowDown,ArrowRight"":17}","true","ArrowUp,ArrowLeft","","","","original","1","16","","",""
"html-keyboard-response","232","1034861","0.0-4.0-4.0-1.8","spark_pilot_2","7317","1","12","Male","","","","","","","null","<div style=""font-size:60px;"">+</div>","null","fixation","","","","","","","","","","","17","","",""
"revaluation","233","1038865","0.0-4.0-4.0-0.9","spark_pilot_2","7317","1","12","Male","","false","","","","","[537.6000003814697]","./assets/img/ocean/animals/seahorse.jpg","[""ArrowLeft""]","revaluation","ocean","26","{""ArrowUp,ArrowLeft"":26,""ArrowUp,ArrowRight"":10,""ArrowDown,ArrowLeft"":5,""ArrowDown,ArrowRight"":17}","true","ArrowUp,ArrowLeft","","","","original","1","18","","",""
"html-keyboard-response","234","1039368","0.0-4.0-4.0-1.9","spark_pilot_2","7317","1","12","Male","","","","","","","null","<div style=""font-size:60px;"">+</div>","null","fixation","","","","","","","","","","","19","","",""
"revaluation","235","1043371","0.0-4.0-4.0-0.10","spark_pilot_2","7317","1","12","Male","","false","","","","","[510.80000019073486]","./assets/img/ocean/animals/octopus.jpg","[""ArrowRight""]","revaluation","ocean","17","{""ArrowUp,ArrowLeft"":26,""ArrowUp,ArrowRight"":10,""ArrowDown,ArrowLeft"":5,""ArrowDown,ArrowRight"":17}","true","ArrowDown,ArrowRight","","","","original","1","20","","",""
"html-keyboard-response","236","1043873","0.0-4.0-4.0-1.10","spark_pilot_2","7317","1","12","Male","","","","","","","null","<div style=""font-size:60px;"">+</div>","null","fixation","","","","","","","","","","","21","","",""
"revaluation","237","1047877","0.0-4.0-4.0-0.11","spark_pilot_2","7317","1","12","Male","","false","","","","","[549.1000003814697]","./assets/img/ocean/animals/seahorse.jpg","[""ArrowLeft""]","revaluation","ocean","26","{""ArrowUp,ArrowLeft"":26,""ArrowUp,ArrowRight"":10,""ArrowDown,ArrowLeft"":5,""ArrowDown,ArrowRight"":17}","true","ArrowUp,ArrowLeft","","","","original","1","22","","",""
"html-keyboard-response","238","1048377","0.0-4.0-4.0-1.11","spark_pilot_2","7317","1","12","Male","","","","","","","null","<div style=""font-size:60px;"">+</div>","null","fixation","","","","","","","","","","","23","","",""
"revaluation","239","1052381","0.0-4.0-4.0-0.12","spark_pilot_2","7317","1","12","Male","","false","","","","","[1044.6999998092651]","./assets/img/ocean/animals/octopus.jpg","[""ArrowRight""]","revaluation","ocean","17","{""ArrowUp,ArrowLeft"":26,""ArrowUp,ArrowRight"":10,""ArrowDown,ArrowLeft"":5,""ArrowDown,ArrowRight"":17}","true","ArrowDown,ArrowRight","","","","original","1","24","","",""
"html-keyboard-response","240","1052882","0.0-4.0-4.0-1.12","spark_pilot_2","7317","1","12","Male","","","","","","","null","<div style=""font-size:60px;"">+</div>","null","fixation","","","","","","","","","","","25","","",""
"revaluation","241","1056884","0.0-4.0-4.0-0.13","spark_pilot_2","7317","1","12","Male","","false","","","","","[748.8000001907349]","./assets/img/ocean/animals/seahorse.jpg","[""ArrowLeft""]","revaluation","ocean","26","{""ArrowUp,ArrowLeft"":26,""ArrowUp,ArrowRight"":10,""ArrowDown,ArrowLeft"":5,""ArrowDown,ArrowRight"":17}","true","ArrowUp,ArrowLeft","","","","original","1","26","","",""
"html-keyboard-response","242","1057386","0.0-4.0-4.0-1.13","spark_pilot_2","7317","1","12","Male","","","","","","","null","<div style=""font-size:60px;"">+</div>","null","fixation","","","","","","","","","","","27","","",""
"revaluation","243","1061389","0.0-4.0-4.0-0.14","spark_pilot_2","7317","1","12","Male","","false","","","","","[781.2999992370605]","./assets/img/ocean/animals/seahorse.jpg","[""ArrowLeft""]","revaluation","ocean","26","{""ArrowUp,ArrowLeft"":26,""ArrowUp,ArrowRight"":10,""ArrowDown,ArrowLeft"":5,""ArrowDown,ArrowRight"":17}","true","ArrowUp,ArrowLeft","","","","original","1","28","","",""
"html-keyboard-response","244","1061890","0.0-4.0-4.0-1.14","spark_pilot_2","7317","1","12","Male","","","","","","","null","<div style=""font-size:60px;"">+</div>","null","fixation","","","","","","","","","","","29","","",""
"revaluation","245","1065892","0.0-4.0-4.0-0.15","spark_pilot_2","7317","1","12","Male","","false","","","","","[685.4000005722046]","./assets/img/ocean/animals/seahorse.jpg","[""ArrowLeft""]","revaluation","ocean","26","{""ArrowUp,ArrowLeft"":26,""ArrowUp,ArrowRight"":10,""ArrowDown,ArrowLeft"":5,""ArrowDown,ArrowRight"":17}","true","ArrowUp,ArrowLeft","","","","original","1","30","","",""
"html-keyboard-response","246","1066393","0.0-4.0-4.0-1.15","spark_pilot_2","7317","1","12","Male","","","","","","","null","<div style=""font-size:60px;"">+</div>","null","fixation","","","","","","","","","","","31","","",""
"revaluation","247","1070397","0.0-4.0-4.0-0.16","spark_pilot_2","7317","1","12","Male","","false","","","","","[566.0999994277954]","./assets/img/ocean/animals/seahorse.jpg","[""ArrowLeft""]","revaluation","ocean","26","{""ArrowUp,ArrowLeft"":26,""ArrowUp,ArrowRight"":10,""ArrowDown,ArrowLeft"":5,""ArrowDown,ArrowRight"":17}","true","ArrowUp,ArrowLeft","","","","original","1","32","","",""
"html-keyboard-response","248","1070897","0.0-4.0-4.0-1.16","spark_pilot_2","7317","1","12","Male","","","","","","","null","<div style=""font-size:60px;"">+</div>","null","fixation","","","","","","","","","","","33","","",""
"revaluation","249","1074900","0.0-4.0-4.0-0.17","spark_pilot_2","7317","1","12","Male","","false","","","","","[798]","./assets/img/ocean/animals/seahorse.jpg","[""ArrowLeft""]","revaluation","ocean","26","{""ArrowUp,ArrowLeft"":26,""ArrowUp,ArrowRight"":10,""ArrowDown,ArrowLeft"":5,""ArrowDown,ArrowRight"":17}","true","ArrowUp,ArrowLeft","","","","original","1","34","","",""
"html-keyboard-response","250","1075401","0.0-4.0-4.0-1.17","spark_pilot_2","7317","1","12","Male","","","","","","","null","<div style=""font-size:60px;"">+</div>","null","fixation","","","","","","","","","","","35","","",""
"learning-instructions","251","1088502","0.0-4.0-5.0-0.0","spark_pilot_2","7317","1","12","Male","","","","","","","1526.5","<p> Time to play the dot game! </p>
            <p> For one minute, click the red dots on the following screen as they appear. </p>
            <p><b> Don't look away, as you will earn bonus for clicking dots</b>. </p>","","instructions","","","","","","","","","","","","","",""
"revaluation","252","1148504","0.0-4.0-6.0-0.0","spark_pilot_2","7317","1","12","Male","","","","","","","[71,68,79,59,63,107,79]","","","rest","","70","","","","","0","60000","","","","","",""
"learning-instructions","253","1157781","0.0-4.0-7.0-0.0","spark_pilot_2","7317","1","12","Male","","","","","","","3127.5","<p> You have almost finished this part of the game! </p>
            <p> We are going to ask you to make a few more choices. </p>","","instructions","","","","","","","","","","","","","",""
"learning-instructions","254","1173586","0.0-4.0-7.0-0.1","spark_pilot_2","7317","1","12","Male","","","","","","","1831.5","<p> First, you need to decide whether to go up or down. When you see each picture, use the arrow keys to make your choice. </p>
            <p><b>You will not see which animal you found, but try to get to the one that will give you the most treasure.</b></p>","","instructions","","","","","","","","","","","","","",""
"revaluation","255","1174592","0.0-4.0-8.0-0.0","spark_pilot_2","7317","1","12","Male","","false","","","","","[1005.3000001907349]","./assets/img/ocean/test/2.jpg","[""ArrowUp""]","first stage test","ocean","0","{""ArrowUp,ArrowLeft"":26,""ArrowUp,ArrowRight"":10,""ArrowDown,ArrowLeft"":5,""ArrowDown,ArrowRight"":17}","true","ArrowUp","false","","","original","1","","","",""
"html-keyboard-response","256","1175103","0.0-4.0-8.0-1.0","spark_pilot_2","7317","1","12","Male","","","","","","","null","<div style=""font-size:60px;"">+</div>","null","fixation","","","","","","","","","","","","","",""
"revaluation","257","1176472","0.0-4.0-8.0-0.1","spark_pilot_2","7317","1","12","Male","","false","","","","","[1367.1000003814697]","./assets/img/ocean/test/0.jpg","[""ArrowUp""]","first stage test","ocean","0","{""ArrowUp,ArrowLeft"":26,""ArrowUp,ArrowRight"":10,""ArrowDown,ArrowLeft"":5,""ArrowDown,ArrowRight"":17}","true","ArrowUp","false","","","original","1","","","",""
"html-keyboard-response","258","1176983","0.0-4.0-8.0-1.1","spark_pilot_2","7317","1","12","Male","","","","","","","null","<div style=""font-size:60px;"">+</div>","null","fixation","","","","","","","","","","","","","",""
"revaluation","259","1178040","0.0-4.0-8.0-0.2","spark_pilot_2","7317","1","12","Male","","false","","","","","[1055]","./assets/img/ocean/test/1.jpg","[""ArrowUp""]","first stage test","ocean","0","{""ArrowUp,ArrowLeft"":26,""ArrowUp,ArrowRight"":10,""ArrowDown,ArrowLeft"":5,""ArrowDown,ArrowRight"":17}","true","ArrowUp","false","","","original","1","","","",""
"html-keyboard-response","260","1178543","0.0-4.0-8.0-1.2","spark_pilot_2","7317","1","12","Male","","","","","","","null","<div style=""font-size:60px;"">+</div>","null","fixation","","","","","","","","","","","","","",""
"revaluation","261","1179064","0.0-4.0-8.0-0.3","spark_pilot_2","7317","1","12","Male","","false","","","","","[519]","./assets/img/ocean/test/3.jpg","[""ArrowUp""]","first stage test","ocean","0","{""ArrowUp,ArrowLeft"":26,""ArrowUp,ArrowRight"":10,""ArrowDown,ArrowLeft"":5,""ArrowDown,ArrowRight"":17}","true","ArrowUp","false","","","original","1","","","",""
"html-keyboard-response","262","1179573","0.0-4.0-8.0-1.3","spark_pilot_2","7317","1","12","Male","","","","","","","null","<div style=""font-size:60px;"">+</div>","null","fixation","","","","","","","","","","","","","",""
"learning-instructions","263","1192934","0.0-4.0-9.0-0.0","spark_pilot_2","7317","1","12","Male","","","","","","","2019.3999996185303","<p> Now you will see the animals again and can search their chests for treasure. </p>
            <p> This time, you will not see how much treasure you earned, but you will earn more bonus money for making better choices. </p>","","instructions","","","","","","","","","","","","","",""
"revaluation","264","1194000","0.0-4.0-10.0-0.0","spark_pilot_2","7317","1","12","Male","","false","","","","","[1064.8000001907349]","./assets/img/ocean/animals/seahorse.jpg","[""ArrowLeft""]","second stage test","ocean","0","{""ArrowUp,ArrowLeft"":26,""ArrowUp,ArrowRight"":10,""ArrowDown,ArrowLeft"":5,""ArrowDown,ArrowRight"":17}","true","ArrowUp,ArrowLeft","","","","original","1","","","",""
"html-keyboard-response","265","1194513","0.0-4.0-10.0-1.0","spark_pilot_2","7317","1","12","Male","","","","","","","null","<div style=""font-size:60px;"">+</div>","null","fixation","","","","","","","","","","","","","",""
"revaluation","266","1194936","0.0-4.0-10.0-0.1","spark_pilot_2","7317","1","12","Male","","false","","","","","[421]","./assets/img/ocean/animals/seahorse.jpg","[""ArrowLeft""]","second stage test","ocean","0","{""ArrowUp,ArrowLeft"":26,""ArrowUp,ArrowRight"":10,""ArrowDown,ArrowLeft"":5,""ArrowDown,ArrowRight"":17}","true","ArrowUp,ArrowLeft","","","","original","1","","","",""
"html-keyboard-response","267","1195453","0.0-4.0-10.0-1.1","spark_pilot_2","7317","1","12","Male","","","","","","","null","<div style=""font-size:60px;"">+</div>","null","fixation","","","","","","","","","","","","","",""
"revaluation","268","1196056","0.0-4.0-10.0-0.2","spark_pilot_2","7317","1","12","Male","","false","","","","","[601.4000005722046]","./assets/img/ocean/animals/seahorse.jpg","[""ArrowLeft""]","second stage test","ocean","0","{""ArrowUp,ArrowLeft"":26,""ArrowUp,ArrowRight"":10,""ArrowDown,ArrowLeft"":5,""ArrowDown,ArrowRight"":17}","true","ArrowUp,ArrowLeft","","","","original","1","","","",""
"html-keyboard-response","269","1196569","0.0-4.0-10.0-1.2","spark_pilot_2","7317","1","12","Male","","","","","","","null","<div style=""font-size:60px;"">+</div>","null","fixation","","","","","","","","","","","","","",""
"revaluation","270","1197048","0.0-4.0-10.0-0.3","spark_pilot_2","7317","1","12","Male","","false","","","","","[476.6000003814697]","./assets/img/ocean/animals/seahorse.jpg","[""ArrowLeft""]","second stage test","ocean","0","{""ArrowUp,ArrowLeft"":26,""ArrowUp,ArrowRight"":10,""ArrowDown,ArrowLeft"":5,""ArrowDown,ArrowRight"":17}","true","ArrowUp,ArrowLeft","","","","original","1","","","",""
"html-keyboard-response","271","1197553","0.0-4.0-10.0-1.3","spark_pilot_2","7317","1","12","Male","","","","","","","null","<div style=""font-size:60px;"">+</div>","null","fixation","","","","","","","","","","","","","",""
"revaluation","272","1198280","0.0-4.0-10.0-0.4","spark_pilot_2","7317","1","12","Male","","false","","","","","[725.3000001907349]","./assets/img/ocean/animals/octopus.jpg","[""ArrowRight""]","second stage test","ocean","0","{""ArrowUp,ArrowLeft"":26,""ArrowUp,ArrowRight"":10,""ArrowDown,ArrowLeft"":5,""ArrowDown,ArrowRight"":17}","true","ArrowDown,ArrowRight","","","","original","1","","","",""
"html-keyboard-response","273","1198783","0.0-4.0-10.0-1.4","spark_pilot_2","7317","1","12","Male","","","","","","","null","<div style=""font-size:60px;"">+</div>","null","fixation","","","","","","","","","","","","","",""
"revaluation","274","1199656","0.0-4.0-10.0-0.5","spark_pilot_2","7317","1","12","Male","","false","","","","","[871.1999998092651]","./assets/img/ocean/animals/octopus.jpg","[""ArrowRight""]","second stage test","ocean","0","{""ArrowUp,ArrowLeft"":26,""ArrowUp,ArrowRight"":10,""ArrowDown,ArrowLeft"":5,""ArrowDown,ArrowRight"":17}","true","ArrowDown,ArrowRight","","","","original","1","","","",""
"html-keyboard-response","275","1200163","0.0-4.0-10.0-1.5","spark_pilot_2","7317","1","12","Male","","","","","","","null","<div style=""font-size:60px;"">+</div>","null","fixation","","","","","","","","","","","","","",""
"revaluation","276","1200705","0.0-4.0-10.0-0.6","spark_pilot_2","7317","1","12","Male","","false","","","","","[540.3000001907349]","./assets/img/ocean/animals/octopus.jpg","[""ArrowRight""]","second stage test","ocean","0","{""ArrowUp,ArrowLeft"":26,""ArrowUp,ArrowRight"":10,""ArrowDown,ArrowLeft"":5,""ArrowDown,ArrowRight"":17}","true","ArrowDown,ArrowRight","","","","original","1","","","",""
"html-keyboard-response","277","1201223","0.0-4.0-10.0-1.6","spark_pilot_2","7317","1","12","Male","","","","","","","null","<div style=""font-size:60px;"">+</div>","null","fixation","","","","","","","","","","","","","",""
"revaluation","278","1201640","0.0-4.0-10.0-0.7","spark_pilot_2","7317","1","12","Male","","false","","","","","[415.30000019073486]","./assets/img/ocean/animals/octopus.jpg","[""ArrowRight""]","second stage test","ocean","0","{""ArrowUp,ArrowLeft"":26,""ArrowUp,ArrowRight"":10,""ArrowDown,ArrowLeft"":5,""ArrowDown,ArrowRight"":17}","true","ArrowDown,ArrowRight","","","","original","1","","","",""
"html-keyboard-response","279","1202143","0.0-4.0-10.0-1.7","spark_pilot_2","7317","1","12","Male","","","","","","","null","<div style=""font-size:60px;"">+</div>","null","fixation","","","","","","","","","","","","","",""
"learning-instructions","280","1207798","0.0-4.0-0.1-0.2","spark_pilot_2","7317","1","12","Male","","","","","","","2883.300000190735","<p> This time you are searching for treasure in the <b>canyon</b>.</p>","","instructions","","","","","","","","","","","","","",""
"learning-instructions","281","1227156","0.0-4.0-0.1-0.3","spark_pilot_2","7317","1","12","Male","","","","","","","2110.800000190735","<p><b>New</b> animals with <b>new</b> treasure chests live here. You need to explore to discover where the animal with the best treasure chest is.</p>
                    <p> Like before, once you figure out which animal has the chest with the most treasure, you should try to get to that animal and select that chest! </p>","","instructions","","","","","","","","","","","","","",""
"learning-instructions","282","1249239","0.0-4.0-1.1-0.1","spark_pilot_2","7317","1","12","Male","","","","","","","7355.699999809265","<p> Remember, when you see a picture of the place, use the up and down keys to <b>find an animal</b>.</p>
            <p> When you encounter an animal, you should use the left and right keys to <b>select a treasure chest</b>.</p>
            <p> Don't forget to look out for the robber! </p>","","instructions","","","","","","","","","","","","","",""
"revaluation","283","1255283","0.0-4.0-2.1-0.50","spark_pilot_2","7317","1","12","Male","","false","","","","","[1191.3000001907349,675]","./assets/img/canyon/memory/31.jpg","[""ArrowUp"",""ArrowRight""]","value training","canyon","10","{""ArrowUp,ArrowLeft"":23,""ArrowUp,ArrowRight"":10,""ArrowDown,ArrowLeft"":8,""ArrowDown,ArrowRight"":30}","false","ArrowUp,ArrowRight","false","","","revaluation","2","0","","",""
"html-keyboard-response","284","1255791","0.0-4.0-2.1-1.50","spark_pilot_2","7317","1","12","Male","","","","","","","null","<div style=""font-size:60px;"">+</div>","null","fixation","","","","","","","","","","","1","","",""
"revaluation","285","1261843","0.0-4.0-2.1-0.51","spark_pilot_2","7317","1","12","Male","","false","","","","","[327.9000005722046,370.6000003814697]","./assets/img/canyon/memory/17.jpg","[""ArrowDown"",""ArrowLeft""]","value training","canyon","8","{""ArrowUp,ArrowLeft"":23,""ArrowUp,ArrowRight"":10,""ArrowDown,ArrowLeft"":8,""ArrowDown,ArrowRight"":30}","false","ArrowDown,ArrowLeft","false","","","revaluation","2","2","","",""
"html-keyboard-response","286","1262362","0.0-4.0-2.1-1.51","spark_pilot_2","7317","1","12","Male","","","","","","","null","<div style=""font-size:60px;"">+</div>","null","fixation","","","","","","","","","","","3","","",""
"revaluation","287","1266399","0.0-4.0-2.1-0.52","spark_pilot_2","7317","1","12","Male","","false","","","","","[395.30000019073486]","./assets/img/canyon/catch/5.jpg","[""ArrowUp""]","value training","canyon","-10","{""ArrowUp,ArrowLeft"":23,""ArrowUp,ArrowRight"":10,""ArrowDown,ArrowLeft"":8,""ArrowDown,ArrowRight"":30}","false","ArrowUp","true","","","revaluation","2","4","","",""
"html-keyboard-response","288","1266913","0.0-4.0-2.1-1.52","spark_pilot_2","7317","1","12","Male","","","","","","","null","<div style=""font-size:60px;"">+</div>","null","fixation","","","","","","","","","","","5","","",""
"revaluation","289","1272936","0.0-4.0-2.1-0.53","spark_pilot_2","7317","1","12","Male","","false","","","","","[429.30000019073486,410.9000005722046]","./assets/img/canyon/memory/39.jpg","[""ArrowUp"",""ArrowLeft""]","value training","canyon","23","{""ArrowUp,ArrowLeft"":23,""ArrowUp,ArrowRight"":10,""ArrowDown,ArrowLeft"":8,""ArrowDown,ArrowRight"":30}","false","ArrowUp,ArrowLeft","false","","","revaluation","2","6","","",""
"html-keyboard-response","290","1273438","0.0-4.0-2.1-1.53","spark_pilot_2","7317","1","12","Male","","","","","","","null","<div style=""font-size:60px;"">+</div>","null","fixation","","","","","","","","","","","7","","",""
"revaluation","291","1279441","0.0-4.0-2.1-0.54","spark_pilot_2","7317","1","12","Male","","false","","","","","[431.69999980926514,335.29999923706055]","./assets/img/canyon/memory/14.jpg","[""ArrowDown"",""ArrowRight""]","value training","canyon","30","{""ArrowUp,ArrowLeft"":23,""ArrowUp,ArrowRight"":10,""ArrowDown,ArrowLeft"":8,""ArrowDown,ArrowRight"":30}","true","ArrowDown,ArrowRight","false","","","revaluation","2","8","","",""
"html-keyboard-response","292","1279943","0.0-4.0-2.1-1.54","spark_pilot_2","7317","1","12","Male","","","","","","","null","<div style=""font-size:60px;"">+</div>","null","fixation","","","","","","","","","","","9","","",""
"revaluation","293","1285946","0.0-4.0-2.1-0.55","spark_pilot_2","7317","1","12","Male","","false","","","","","[368,350.6000003814697]","./assets/img/canyon/memory/14.jpg","[""ArrowDown"",""ArrowRight""]","value training","canyon","30","{""ArrowUp,ArrowLeft"":23,""ArrowUp,ArrowRight"":10,""ArrowDown,ArrowLeft"":8,""ArrowDown,ArrowRight"":30}","true","ArrowDown,ArrowRight","false","","","revaluation","2","10","","",""
"html-keyboard-response","294","1286447","0.0-4.0-2.1-1.55","spark_pilot_2","7317","1","12","Male","","","","","","","null","<div style=""font-size:60px;"">+</div>","null","fixation","","","","","","","","","","","11","","",""
"revaluation","295","1292450","0.0-4.0-2.1-0.56","spark_pilot_2","7317","1","12","Male","","false","","","","","[536,343.9000005722046]","./assets/img/canyon/memory/39.jpg","[""ArrowDown"",""ArrowRight""]","value training","canyon","30","{""ArrowUp,ArrowLeft"":23,""ArrowUp,ArrowRight"":10,""ArrowDown,ArrowLeft"":8,""ArrowDown,ArrowRight"":30}","true","ArrowDown,ArrowRight","false","","","revaluation","2","12","","",""
"html-keyboard-response","296","1292951","0.0-4.0-2.1-1.56","spark_pilot_2","7317","1","12","Male","","","","","","","null","<div style=""font-size:60px;"">+</div>","null","fixation","","","","","","","","","","","13","","",""
"revaluation","297","1298954","0.0-4.0-2.1-0.57","spark_pilot_2","7317","1","12","Male","","false","","","","","[607.1999998092651,470.30000019073486]","./assets/img/canyon/memory/25.jpg","[""ArrowDown"",""ArrowRight""]","value training","canyon","30","{""ArrowUp,ArrowLeft"":23,""ArrowUp,ArrowRight"":10,""ArrowDown,ArrowLeft"":8,""ArrowDown,ArrowRight"":30}","true","ArrowDown,ArrowRight","false","","","revaluation","2","14","","",""
"html-keyboard-response","298","1299455","0.0-4.0-2.1-1.57","spark_pilot_2","7317","1","12","Male","","","","","","","null","<div style=""font-size:60px;"">+</div>","null","fixation","","","","","","","","","","","15","","",""
"revaluation","299","1305460","0.0-4.0-2.1-0.58","spark_pilot_2","7317","1","12","Male","","false","","","","","[767.3999996185303,702.4000005722046]","./assets/img/canyon/memory/26.jpg","[""ArrowDown"",""ArrowRight""]","value training","canyon","30","{""ArrowUp,ArrowLeft"":23,""ArrowUp,ArrowRight"":10,""ArrowDown,ArrowLeft"":8,""ArrowDown,ArrowRight"":30}","true","ArrowDown,ArrowRight","false","","","revaluation","2","16","","",""
"html-keyboard-response","300","1305961","0.0-4.0-2.1-1.58","spark_pilot_2","7317","1","12","Male","","","","","","","null","<div style=""font-size:60px;"">+</div>","null","fixation","","","","","","","","","","","17","","",""
"revaluation","301","1311965","0.0-4.0-2.1-0.59","spark_pilot_2","7317","1","12","Male","","false","","","","","[693.6000003814697,468.5]","./assets/img/canyon/memory/2.jpg","[""ArrowDown"",""ArrowRight""]","value training","canyon","30","{""ArrowUp,ArrowLeft"":23,""ArrowUp,ArrowRight"":10,""ArrowDown,ArrowLeft"":8,""ArrowDown,ArrowRight"":30}","true","ArrowDown,ArrowRight","false","","","revaluation","2","18","","",""
"html-keyboard-response","302","1312467","0.0-4.0-2.1-1.59","spark_pilot_2","7317","1","12","Male","","","","","","","null","<div style=""font-size:60px;"">+</div>","null","fixation","","","","","","","","","","","19","","",""
"revaluation","303","1318471","0.0-4.0-2.1-0.60","spark_pilot_2","7317","1","12","Male","","false","","","","","[579,378]","./assets/img/canyon/memory/3.jpg","[""ArrowDown"",""ArrowRight""]","value training","canyon","30","{""ArrowUp,ArrowLeft"":23,""ArrowUp,ArrowRight"":10,""ArrowDown,ArrowLeft"":8,""ArrowDown,ArrowRight"":30}","true","ArrowDown,ArrowRight","false","","","revaluation","2","20","","",""
"html-keyboard-response","304","1318972","0.0-4.0-2.1-1.60","spark_pilot_2","7317","1","12","Male","","","","","","","null","<div style=""font-size:60px;"">+</div>","null","fixation","","","","","","","","","","","21","","",""
"revaluation","305","1324975","0.0-4.0-2.1-0.61","spark_pilot_2","7317","1","12","Male","","false","","","","","[931.5,473.69999980926514]","./assets/img/canyon/memory/29.jpg","[""ArrowDown"",""ArrowRight""]","value training","canyon","30","{""ArrowUp,ArrowLeft"":23,""ArrowUp,ArrowRight"":10,""ArrowDown,ArrowLeft"":8,""ArrowDown,ArrowRight"":30}","true","ArrowDown,ArrowRight","false","","","revaluation","2","22","","",""
"html-keyboard-response","306","1325476","0.0-4.0-2.1-1.61","spark_pilot_2","7317","1","12","Male","","","","","","","null","<div style=""font-size:60px;"">+</div>","null","fixation","","","","","","","","","","","23","","",""
"revaluation","307","1331479","0.0-4.0-2.1-0.62","spark_pilot_2","7317","1","12","Male","","false","","","","","[610.8999996185303,585.8000001907349]","./assets/img/canyon/memory/34.jpg","[""ArrowDown"",""ArrowRight""]","value training","canyon","30","{""ArrowUp,ArrowLeft"":23,""ArrowUp,ArrowRight"":10,""ArrowDown,ArrowLeft"":8,""ArrowDown,ArrowRight"":30}","true","ArrowDown,ArrowRight","false","","","revaluation","2","24","","",""
"html-keyboard-response","308","1331981","0.0-4.0-2.1-1.62","spark_pilot_2","7317","1","12","Male","","","","","","","null","<div style=""font-size:60px;"">+</div>","null","fixation","","","","","","","","","","","25","","",""
