"trial_type","trial_index","time_elapsed","internal_node_id","task_version","subject_id","assigned_condition","age","gender","success","timeout","failed_images","failed_audio","failed_video","browser_interaction","rt","stimulus","response","task_part","environment","score","rewardMap","correct","fullState","isCatch","numberMissed","duration","condition","order","trial_num","key_press","ground_truth","bonus"
"pavlovia","0","1035","0.0-0.0","spark_pilot_2","8152","3","7","Male","","","","","","","","","","","","","","","","","","","","","","","",""
"preload","1","9237","0.0-1.0","spark_pilot_2","8152","3","7","Male","true","false","[]","[]","[]","[{""event"":""fullscreenenter"",""trial"":2,""time"":13664},{""event"":""blur"",""trial"":491,""time"":1937198},{""event"":""focus"",""trial"":491,""time"":1937199},{""event"":""fullscreenexit"",""trial"":491,""time"":1937218},{""event"":""blur"",""trial"":581,""time"":2087584},{""event"":""focus"",""trial"":581,""time"":2093433},{""event"":""focus"",""trial"":581,""time"":2093433},{""event"":""blur"",""trial"":621,""time"":2163318},{""event"":""focus"",""trial"":621,""time"":2165305},{""event"":""focus"",""trial"":621,""time"":2165305}]","","","","","","","","","","","","","","","","","",""
"fullscreen","2","14650","0.0-2.0","spark_pilot_2","8152","3","7","Male","true","","","","","","","","","","","","","","","","","","","","","","",""
"audio-button-response","3","18485","0.0-3.0-0.0-0.0","spark_pilot_2","8152","3","7","Male","","","","","","","3733","./assets/audio/audiotest/turtle.mp3","2","audio_test","","","","","","","","","","","","","",""
"learning-instructions","4","27806","0.0-3.0-1.0-0.0","spark_pilot_2","8152","3","7","Male","","","","","","","2338.4000000000233","<p> Welcome! Please remember to stay in fullscreen mode and don't click away from the experiment. </p>","","instructions","","","","","","","","","","","","","",""
"learning-instructions","5","38389","0.0-3.0-1.0-0.1","spark_pilot_2","8152","3","7","Male","","","","","","","2168.5","<p> Today you will be playing a game to earn treasure. </p>
            <p> At the end of the experiment, you will earn a bonus based on how much treasure you find. </p>
            <img src='./assets/img/instructions/treasure.jpg' class='instructions-image'>","","instructions","","","","","","","","","","","","","",""
"learning-instructions","6","48046","0.0-3.0-1.0-0.2","spark_pilot_2","8152","3","7","Male","","","","","","","1393.9000000000233","<p> Animals have hidden treasure in treasure chests. </p>
            <p> You need to first find an animal and then choose which of their treasure chests to search. </p>
            <img src='./assets/img/space/animals/cat.jpg' class='instructions-image'>","","instructions","","","","","","","","","","","","","",""
"learning-instructions","7","61974","0.0-3.0-1.0-0.3","spark_pilot_2","8152","3","7","Male","","","","","","","762.1000000000349","<p> In each round, you will search for treasure in a different place. In the real game, there will be two rounds. </p>
            <p> You will begin with a separate, practice round where you will search for treasure in outer space. </p>
            <img src='./assets/img/space/0.jpg' class='instructions-image'>","","instructions","","","","","","","","","","","","","",""
"learning-instructions","8","74646","0.0-3.0-1.0-0.4","spark_pilot_2","8152","3","7","Male","","","","","","","1253.2000000000116","<p> On every turn, you will see a picture of the place that you are in, but the specific image may be different each time. </p>
            <p> For example, both of these images mean you are in outer space. </p>
            <img src='./assets/img/instructions/outerspace.jpg' class='instructions-image'>","","instructions","","","","","","","","","","","","","",""
"learning-instructions","9","83912","0.0-3.0-1.0-0.5","spark_pilot_2","8152","3","7","Male","","","","","","","1428.600000000035","<p> You need to decide which direction to travel in. </p>
            <p> You can choose between going <b>up or down</b> by using the arrow keys. </p>
            <img src='./assets/img/instructions/updown.jpg' class='instructions-image'>","","instructions","","","","","","","","","","","","","",""
"learning-instructions","10","94045","0.0-3.0-1.0-0.6","spark_pilot_2","8152","3","7","Male","","","","","","","1313.0999999999767","<p> You will have <b>2 seconds</b> to make your choice. </p>
            <p> If you do not make a choice within 2 seconds, you will not find an animal or earn treasure. </p>
            <img src='./assets/img/instructions/2seconds.jpg' class='instructions-image'>","","instructions","","","","","","","","","","","","","",""
"learning-instructions","11","102386","0.0-3.0-1.0-0.7","spark_pilot_2","8152","3","7","Male","","","","","","","1291.2999999999884","<p> Let’s try practicing that now! </p>
            <p> When you see a picture of the place you are in, press the <b>up</b> key to travel up. </p>
            <img src='./assets/img/instructions/pressUp.jpg' class='instructions-image'>","","instructions","","","","","","","","","","","","","",""
"revaluation","12","106412","0.0-3.0-2.0-0.0","spark_pilot_2","8152","3","7","Male","","false","","","","","[1240.2000000000116]","./assets/img/space/0.jpg","[""ArrowUp""]","first stage practice","space","0","null","null","ArrowUp","false","","","","","","","",""
"html-keyboard-response","13","106915","0.0-3.0-2.0-1.0","spark_pilot_2","8152","3","7","Male","","","","","","","null","<div style=""font-size:60px;"">+</div>","null","fixation","","","","","","","","","","","","","",""
"revaluation","14","110931","0.0-3.0-2.0-0.1","spark_pilot_2","8152","3","7","Male","","false","","","","","[1900.2999999999884]","./assets/img/space/1.jpg","[""ArrowUp""]","first stage practice","space","0","null","null","ArrowUp","false","","","","","","","",""
"html-keyboard-response","15","111434","0.0-3.0-2.0-1.1","spark_pilot_2","8152","3","7","Male","","","","","","","null","<div style=""font-size:60px;"">+</div>","null","fixation","","","","","","","","","","","","","",""
"revaluation","16","115451","0.0-3.0-2.0-0.2","spark_pilot_2","8152","3","7","Male","","false","","","","","[826.0999999999767]","./assets/img/space/2.jpg","[""ArrowUp""]","first stage practice","space","0","null","null","ArrowUp","false","","","","","","","",""
"html-keyboard-response","17","115954","0.0-3.0-2.0-1.2","spark_pilot_2","8152","3","7","Male","","","","","","","null","<div style=""font-size:60px;"">+</div>","null","fixation","","","","","","","","","","","","","",""
"learning-instructions","18","122100","0.0-3.0-3.0-0.0","spark_pilot_2","8152","3","7","Male","","","","","","","1443.2999999999884","<p> Great job! Now try pressing the <b>down</b> key to travel down. </p>
            <img src='./assets/img/instructions/pressDown.jpg' class='instructions-image'>","","instructions","","","","","","","","","","","","","",""
"revaluation","19","126115","0.0-3.0-4.0-0.0","spark_pilot_2","8152","3","7","Male","","false","","","","","[763]","./assets/img/space/3.jpg","[""ArrowDown""]","first stage practice","space","0","null","null","ArrowDown","false","","","","","","","",""
"html-keyboard-response","20","126618","0.0-3.0-4.0-1.0","spark_pilot_2","8152","3","7","Male","","","","","","","null","<div style=""font-size:60px;"">+</div>","null","fixation","","","","","","","","","","","","","",""
"revaluation","21","130635","0.0-3.0-4.0-0.1","spark_pilot_2","8152","3","7","Male","","false","","","","","[455.30000000004657]","./assets/img/space/4.jpg","[""ArrowDown""]","first stage practice","space","0","null","null","ArrowDown","false","","","","","","","",""
"html-keyboard-response","22","131138","0.0-3.0-4.0-1.1","spark_pilot_2","8152","3","7","Male","","","","","","","null","<div style=""font-size:60px;"">+</div>","null","fixation","","","","","","","","","","","","","",""
"revaluation","23","135155","0.0-3.0-4.0-0.2","spark_pilot_2","8152","3","7","Male","","false","","","","","[219.60000000003492]","./assets/img/space/5.jpg","[""ArrowDown""]","first stage practice","space","0","null","null","ArrowDown","false","","","","","","","",""
"html-keyboard-response","24","135658","0.0-3.0-4.0-1.2","spark_pilot_2","8152","3","7","Male","","","","","","","null","<div style=""font-size:60px;"">+</div>","null","fixation","","","","","","","","","","","","","",""
"learning-instructions","25","146555","0.0-3.0-5.0-0.0","spark_pilot_2","8152","3","7","Male","","","","","","","1035.100000000035","<p> The animals don’t move, so the animal in the upper part of a place will stay in the upper part of a place, and the animal in the lower part of a place will stay in the lower part of a place. </p>","","instructions","","","","","","","","","","","","","",""
"learning-instructions","26","156605","0.0-3.0-5.0-0.1","spark_pilot_2","8152","3","7","Male","","","","","","","908.6000000000349","<p> Each animal has two treasure chests for you to choose from. </p>
            <p> The amount of treasure in each chest can range from <b> 0 to 40 pieces.</b></p>","","instructions","","","","","","","","","","","","","",""
"learning-instructions","27","168926","0.0-3.0-5.0-0.2","spark_pilot_2","8152","3","7","Male","","","","","","","1122.5","<p> You should decide which chest to search for treasure by using the <b>left</b> and <b>right</b> arrow keys. </p>
            <p><b> Pay attention to which animal is on the screen, as the animals have different treasure chests. </b></p>
            <img src='./assets/img/instructions/leftright.jpg' class='instructions-image'>","","instructions","","","","","","","","","","","","","",""
"learning-instructions","28","176838","0.0-3.0-5.0-0.3","spark_pilot_2","8152","3","7","Male","","","","","","","1536.5","<p> Let’s try practicing that now. </p>
            <p> When you see an animal, choose which chest to search for treasure. </p>
            <img src='./assets/img/instructions/chooseChest.jpg' class='instructions-image'>","","instructions","","","","","","","","","","","","","",""
"revaluation","29","180851","0.0-3.0-6.0-0.0","spark_pilot_2","8152","3","7","Male","","false","","","","","[930.5999999999767]","./assets/img/space/animals/cat.jpg","[""ArrowRight""]","second stage practice","space","36","{""ArrowUp,ArrowLeft"":3,""ArrowUp,ArrowRight"":36,""ArrowDown,ArrowLeft"":15,""ArrowDown,ArrowRight"":23}","true","ArrowUp,ArrowRight","","","","","","","","",""
"html-keyboard-response","30","181354","0.0-3.0-6.0-1.0","spark_pilot_2","8152","3","7","Male","","","","","","","null","<div style=""font-size:60px;"">+</div>","null","fixation","","","","","","","","","","","","","",""
"revaluation","31","185371","0.0-3.0-6.0-0.1","spark_pilot_2","8152","3","7","Male","","false","","","","","[503.3999999999651]","./assets/img/space/animals/rabbit.jpg","[""ArrowLeft""]","second stage practice","space","15","{""ArrowUp,ArrowLeft"":3,""ArrowUp,ArrowRight"":36,""ArrowDown,ArrowLeft"":15,""ArrowDown,ArrowRight"":23}","false","ArrowDown,ArrowLeft","","","","","","","","",""
"html-keyboard-response","32","185874","0.0-3.0-6.0-1.1","spark_pilot_2","8152","3","7","Male","","","","","","","null","<div style=""font-size:60px;"">+</div>","null","fixation","","","","","","","","","","","","","",""
"revaluation","33","189891","0.0-3.0-6.0-0.2","spark_pilot_2","8152","3","7","Male","","false","","","","","[450.9000000000233]","./assets/img/space/animals/cat.jpg","[""ArrowLeft""]","second stage practice","space","3","{""ArrowUp,ArrowLeft"":3,""ArrowUp,ArrowRight"":36,""ArrowDown,ArrowLeft"":15,""ArrowDown,ArrowRight"":23}","false","ArrowUp,ArrowLeft","","","","","","","","",""
"html-keyboard-response","34","190394","0.0-3.0-6.0-1.2","spark_pilot_2","8152","3","7","Male","","","","","","","null","<div style=""font-size:60px;"">+</div>","null","fixation","","","","","","","","","","","","","",""
"revaluation","35","194411","0.0-3.0-6.0-0.3","spark_pilot_2","8152","3","7","Male","","false","","","","","[313.30000000004657]","./assets/img/space/animals/rabbit.jpg","[""ArrowRight""]","second stage practice","space","23","{""ArrowUp,ArrowLeft"":3,""ArrowUp,ArrowRight"":36,""ArrowDown,ArrowLeft"":15,""ArrowDown,ArrowRight"":23}","true","ArrowDown,ArrowRight","","","","","","","","",""
"html-keyboard-response","36","194914","0.0-3.0-6.0-1.3","spark_pilot_2","8152","3","7","Male","","","","","","","null","<div style=""font-size:60px;"">+</div>","null","fixation","","","","","","","","","","","","","",""
"learning-instructions","37","214065","0.0-3.0-7.0-0.0","spark_pilot_2","8152","3","7","Male","","","","","","","2316","<p> Great job. Now let’s try putting it together. </p>
            <p> On each turn, you will first see a picture to remind you of the place you are in, and you need to choose whether to go up or down. </p>
            <p> Then you will see an animal and choose which of its chests to search for treasure. </p>","","instructions","","","","","","","","","","","","","",""
"learning-instructions","38","223214","0.0-3.0-7.0-0.1","spark_pilot_2","8152","3","7","Male","","","","","","","882.8000000000466","<p> When you choose whether to go up or down, try to go to the animal with the chest with the most treasure. </p>
            <p> Try practicing that now! </p>","","instructions","","","","","","","","","","","","","",""
"revaluation","39","229235","0.0-3.0-8.0-0.0","spark_pilot_2","8152","3","7","Male","","false","","","","","[857.7000000000698,722.9000000000233]","./assets/img/space/6.jpg","[""ArrowUp"",""ArrowLeft""]","full practice","space","3","{""ArrowUp,ArrowLeft"":3,""ArrowUp,ArrowRight"":36,""ArrowDown,ArrowLeft"":15,""ArrowDown,ArrowRight"":23}","false","ArrowUp,ArrowLeft","false","","","","","","","",""
"html-keyboard-response","40","229738","0.0-3.0-8.0-1.0","spark_pilot_2","8152","3","7","Male","","","","","","","null","<div style=""font-size:60px;"">+</div>","null","fixation","","","","","","","","","","","","","",""
"revaluation","41","235763","0.0-3.0-8.0-0.1","spark_pilot_2","8152","3","7","Male","","false","","","","","[1129.2000000000698,861.6999999999534]","./assets/img/space/7.jpg","[""ArrowDown"",""ArrowRight""]","full practice","space","23","{""ArrowUp,ArrowLeft"":3,""ArrowUp,ArrowRight"":36,""ArrowDown,ArrowLeft"":15,""ArrowDown,ArrowRight"":23}","false","ArrowDown,ArrowRight","false","","","","","","","",""
"html-keyboard-response","42","236266","0.0-3.0-8.0-1.1","spark_pilot_2","8152","3","7","Male","","","","","","","null","<div style=""font-size:60px;"">+</div>","null","fixation","","","","","","","","","","","","","",""
"revaluation","43","242291","0.0-3.0-8.0-0.2","spark_pilot_2","8152","3","7","Male","","false","","","","","[1041.6999999999534,790.9000000000233]","./assets/img/space/8.jpg","[""ArrowUp"",""ArrowLeft""]","full practice","space","3","{""ArrowUp,ArrowLeft"":3,""ArrowUp,ArrowRight"":36,""ArrowDown,ArrowLeft"":15,""ArrowDown,ArrowRight"":23}","false","ArrowUp,ArrowLeft","false","","","","","","","",""
"html-keyboard-response","44","242794","0.0-3.0-8.0-1.2","spark_pilot_2","8152","3","7","Male","","","","","","","null","<div style=""font-size:60px;"">+</div>","null","fixation","","","","","","","","","","","","","",""
"revaluation","45","248819","0.0-3.0-8.0-0.3","spark_pilot_2","8152","3","7","Male","","false","","","","","[1085.3000000000466,1195.4000000000233]","./assets/img/space/9.jpg","[""ArrowDown"",""ArrowRight""]","full practice","space","23","{""ArrowUp,ArrowLeft"":3,""ArrowUp,ArrowRight"":36,""ArrowDown,ArrowLeft"":15,""ArrowDown,ArrowRight"":23}","false","ArrowDown,ArrowRight","false","","","","","","","",""
"html-keyboard-response","46","249322","0.0-3.0-8.0-1.3","spark_pilot_2","8152","3","7","Male","","","","","","","null","<div style=""font-size:60px;"">+</div>","null","fixation","","","","","","","","","","","","","",""
"revaluation","47","255347","0.0-3.0-8.0-0.4","spark_pilot_2","8152","3","7","Male","","false","","","","","[847.7999999999302,677.3000000000466]","./assets/img/space/10.jpg","[""ArrowUp"",""ArrowRight""]","full practice","space","36","{""ArrowUp,ArrowLeft"":3,""ArrowUp,ArrowRight"":36,""ArrowDown,ArrowLeft"":15,""ArrowDown,ArrowRight"":23}","true","ArrowUp,ArrowRight","false","","","","","","","",""
"html-keyboard-response","48","255850","0.0-3.0-8.0-1.4","spark_pilot_2","8152","3","7","Male","","","","","","","null","<div style=""font-size:60px;"">+</div>","null","fixation","","","","","","","","","","","","","",""
"learning-instructions","49","267555","0.0-3.0-9.0-0.0","spark_pilot_2","8152","3","7","Male","","","","","","","1390.9000000000233","<p> One last thing: sometimes, you will see a robber. The robber can be anywhere in the picture. </p>
            <p> If you do not stop them, you will lose treasure. </p>
            <img src='./assets/img/instructions/robber.jpg' class='instructions-image'>","","instructions","","","","","","","","","","","","","",""
"learning-instructions","50","275732","0.0-3.0-9.0-0.1","spark_pilot_2","8152","3","7","Male","","","","","","","1003.0999999999767","<p> If you see the robber, you should <b>press the space bar</b> rather than using the arrow keys. </p>
            <p> Try practicing that now! </p>","","instructions","","","","","","","","","","","","","",""
"revaluation","51","279747","0.0-3.0-10.0-0.0","spark_pilot_2","8152","3","7","Male","","false","","","","","[888.3000000000466]","./assets/img/space/catch/0.jpg","[""spaceBar""]","catch practice","space","0","{""ArrowUp,ArrowLeft"":3,""ArrowUp,ArrowRight"":36,""ArrowDown,ArrowLeft"":15,""ArrowDown,ArrowRight"":23}","true","spaceBar","true","","","","","","","",""
"html-keyboard-response","52","280250","0.0-3.0-10.0-1.0","spark_pilot_2","8152","3","7","Male","","","","","","","null","<div style=""font-size:60px;"">+</div>","null","fixation","","","","","","","","","","","","","",""
"revaluation","53","284267","0.0-3.0-10.0-0.1","spark_pilot_2","8152","3","7","Male","","false","","","","","[536.5]","./assets/img/space/catch/1.jpg","[""spaceBar""]","catch practice","space","0","{""ArrowUp,ArrowLeft"":3,""ArrowUp,ArrowRight"":36,""ArrowDown,ArrowLeft"":15,""ArrowDown,ArrowRight"":23}","true","spaceBar","true","","","","","","","",""
"html-keyboard-response","54","284770","0.0-3.0-10.0-1.1","spark_pilot_2","8152","3","7","Male","","","","","","","null","<div style=""font-size:60px;"">+</div>","null","fixation","","","","","","","","","","","","","",""
"revaluation","55","288787","0.0-3.0-10.0-0.2","spark_pilot_2","8152","3","7","Male","","false","","","","","[404.5]","./assets/img/space/catch/2.jpg","[""spaceBar""]","catch practice","space","0","{""ArrowUp,ArrowLeft"":3,""ArrowUp,ArrowRight"":36,""ArrowDown,ArrowLeft"":15,""ArrowDown,ArrowRight"":23}","true","spaceBar","true","","","","","","","",""
"html-keyboard-response","56","289288","0.0-3.0-10.0-1.2","spark_pilot_2","8152","3","7","Male","","","","","","","null","<div style=""font-size:60px;"">+</div>","null","fixation","","","","","","","","","","","","","",""
"learning-instructions","57","304219","0.0-3.0-11.0-0.0","spark_pilot_2","8152","3","7","Male","","","","","","","1330.0999999999767","<p> After you explore a place to find treasure, it will be time to play a different game. </p>
            <p> During this game, red dots will appear on the screen and fall down slowly. </p>
            <p><b> You must click on them before they reach the bottom. </b></p>
            <img src='./assets/img/instructions/dotGame.jpg' class='instructions-image'>","","instructions","","","","","","","","","","","","","",""
"learning-instructions","58","311438","0.0-3.0-11.0-0.1","spark_pilot_2","8152","3","7","Male","","","","","","","1499.1999999999534","<p> For every dot you click, you will earn additional treasure. </p>
            <p> Let’s try practicing that now. </p>","","instructions","","","","","","","","","","","","","",""
"revaluation","59","326454","0.0-3.0-12.0-0.0","spark_pilot_2","8152","3","7","Male","","","","","","","[93]","","","rest practice","","10","","","","","0","15000","","","","","",""
"learning-instructions","60","333247","0.0-3.0-13.0-0.0-0.0","spark_pilot_2","8152","3","7","Male","","","","","","","1514.9000000000233","<p> Now, you will practice a shortened version of the game to get a sense of how it all fits together. </p>","","instructions","","","","","","","","","","","","","",""
"learning-instructions","61","338149","0.0-3.0-13.0-0.0-0.1","spark_pilot_2","8152","3","7","Male","","","","","","","1714.6000000000931","<p>This time you are searching for treasure in outer space.</p>","","instructions","","","","","","","","","","","","","",""
"learning-instructions","62","353873","0.0-3.0-13.0-1.0-0.0","spark_pilot_2","8152","3","7","Male","","","","","","","947.5999999999767","<p> Remember, when you see a picture of the place, use the up and down keys to <b>find an animal</b>.</p>
            <p> When you encounter an animal, you should use the left and right keys to <b>select a treasure chest</b>.</p>
            <p> Don't forget to look out for the robber! </p>","","instructions","","","","","","","","","","","","","",""
"revaluation","63","359899","0.0-3.0-13.0-2.0-0.0","spark_pilot_2","8152","3","7","Male","","false","","","","","[950.5,769.3000000000466]","./assets/img/space/11.jpg","[""ArrowUp"",""ArrowRight""]","practice block","space","36","{""ArrowUp,ArrowLeft"":3,""ArrowUp,ArrowRight"":36,""ArrowDown,ArrowLeft"":15,""ArrowDown,ArrowRight"":23}","true","ArrowUp,ArrowRight","false","","","","","","","",""
"html-keyboard-response","64","360402","0.0-3.0-13.0-2.0-1.0","spark_pilot_2","8152","3","7","Male","","","","","","","null","<div style=""font-size:60px;"">+</div>","null","fixation","","","","","","","","","","","","","",""
"revaluation","65","366427","0.0-3.0-13.0-2.0-0.1","spark_pilot_2","8152","3","7","Male","","false","","","","","[716.8000000000466,752.5]","./assets/img/space/12.jpg","[""ArrowUp"",""ArrowRight""]","practice block","space","36","{""ArrowUp,ArrowLeft"":3,""ArrowUp,ArrowRight"":36,""ArrowDown,ArrowLeft"":15,""ArrowDown,ArrowRight"":23}","true","ArrowUp,ArrowRight","false","","","","","","","",""
"html-keyboard-response","66","366930","0.0-3.0-13.0-2.0-1.1","spark_pilot_2","8152","3","7","Male","","","","","","","null","<div style=""font-size:60px;"">+</div>","null","fixation","","","","","","","","","","","","","",""
"revaluation","67","372955","0.0-3.0-13.0-2.0-0.2","spark_pilot_2","8152","3","7","Male","","false","","","","","[1280.7999999999302,1051.9000000000233]","./assets/img/space/13.jpg","[""ArrowUp"",""ArrowRight""]","practice block","space","36","{""ArrowUp,ArrowLeft"":3,""ArrowUp,ArrowRight"":36,""ArrowDown,ArrowLeft"":15,""ArrowDown,ArrowRight"":23}","true","ArrowUp,ArrowRight","false","","","","","","","",""
"html-keyboard-response","68","373458","0.0-3.0-13.0-2.0-1.2","spark_pilot_2","8152","3","7","Male","","","","","","","null","<div style=""font-size:60px;"">+</div>","null","fixation","","","","","","","","","","","","","",""
"revaluation","69","379483","0.0-3.0-13.0-2.0-0.3","spark_pilot_2","8152","3","7","Male","","false","","","","","[538.0999999999767,179.69999999995343]","./assets/img/space/14.jpg","[""ArrowUp"",""ArrowRight""]","practice block","space","36","{""ArrowUp,ArrowLeft"":3,""ArrowUp,ArrowRight"":36,""ArrowDown,ArrowLeft"":15,""ArrowDown,ArrowRight"":23}","true","ArrowUp,ArrowRight","false","","","","","","","",""
"html-keyboard-response","70","379986","0.0-3.0-13.0-2.0-1.3","spark_pilot_2","8152","3","7","Male","","","","","","","null","<div style=""font-size:60px;"">+</div>","null","fixation","","","","","","","","","","","","","",""
"revaluation","71","386011","0.0-3.0-13.0-2.0-0.4","spark_pilot_2","8152","3","7","Male","","false","","","","","[477.60000000009313,583.6999999999534]","./assets/img/space/11.jpg","[""ArrowUp"",""ArrowRight""]","practice block","space","36","{""ArrowUp,ArrowLeft"":3,""ArrowUp,ArrowRight"":36,""ArrowDown,ArrowLeft"":15,""ArrowDown,ArrowRight"":23}","true","ArrowUp,ArrowRight","false","","","","","","","",""
"html-keyboard-response","72","386514","0.0-3.0-13.0-2.0-1.4","spark_pilot_2","8152","3","7","Male","","","","","","","null","<div style=""font-size:60px;"">+</div>","null","fixation","","","","","","","","","","","","","",""
"revaluation","73","392540","0.0-3.0-13.0-2.0-0.5","spark_pilot_2","8152","3","7","Male","","false","","","","","[1916.8000000000466,937.9000000000233]","./assets/img/space/12.jpg","[""ArrowUp"",""ArrowRight""]","practice block","space","36","{""ArrowUp,ArrowLeft"":3,""ArrowUp,ArrowRight"":36,""ArrowDown,ArrowLeft"":15,""ArrowDown,ArrowRight"":23}","true","ArrowUp,ArrowRight","false","","","","","","","",""
"html-keyboard-response","74","393042","0.0-3.0-13.0-2.0-1.5","spark_pilot_2","8152","3","7","Male","","","","","","","null","<div style=""font-size:60px;"">+</div>","null","fixation","","","","","","","","","","","","","",""
"revaluation","75","399067","0.0-3.0-13.0-2.0-0.6","spark_pilot_2","8152","3","7","Male","","false","","","","","[563.3999999999069,509.30000000004657]","./assets/img/space/13.jpg","[""ArrowUp"",""ArrowRight""]","practice block","space","36","{""ArrowUp,ArrowLeft"":3,""ArrowUp,ArrowRight"":36,""ArrowDown,ArrowLeft"":15,""ArrowDown,ArrowRight"":23}","true","ArrowUp,ArrowRight","false","","","","","","","",""
"html-keyboard-response","76","399570","0.0-3.0-13.0-2.0-1.6","spark_pilot_2","8152","3","7","Male","","","","","","","null","<div style=""font-size:60px;"">+</div>","null","fixation","","","","","","","","","","","","","",""
"revaluation","77","405595","0.0-3.0-13.0-2.0-0.7","spark_pilot_2","8152","3","7","Male","","false","","","","","[521.9000000000233,316.5]","./assets/img/space/14.jpg","[""ArrowUp"",""ArrowRight""]","practice block","space","36","{""ArrowUp,ArrowLeft"":3,""ArrowUp,ArrowRight"":36,""ArrowDown,ArrowLeft"":15,""ArrowDown,ArrowRight"":23}","true","ArrowUp,ArrowRight","false","","","","","","","",""
"html-keyboard-response","78","406098","0.0-3.0-13.0-2.0-1.7","spark_pilot_2","8152","3","7","Male","","","","","","","null","<div style=""font-size:60px;"">+</div>","null","fixation","","","","","","","","","","","","","",""
"revaluation","79","410115","0.0-3.0-13.0-2.0-0.8","spark_pilot_2","8152","3","7","Male","","false","","","","","[1132.6999999999534]","./assets/img/space/catch/3.jpg","[""spaceBar""]","practice block","space","0","{""ArrowUp,ArrowLeft"":3,""ArrowUp,ArrowRight"":36,""ArrowDown,ArrowLeft"":15,""ArrowDown,ArrowRight"":23}","true","spaceBar","true","","","","","","","",""
"html-keyboard-response","80","410618","0.0-3.0-13.0-2.0-1.8","spark_pilot_2","8152","3","7","Male","","","","","","","null","<div style=""font-size:60px;"">+</div>","null","fixation","","","","","","","","","","","","","",""
"learning-instructions","81","425291","0.0-3.0-13.0-3.0-0.0","spark_pilot_2","8152","3","7","Male","","","","","","","1660.0999999999767","<p> Now, you will travel with a friend who will choose whether you go up or down first. </p>
            <p> On these turns, you will just see the animal that they found. You will still get to choose which chest to search for treasure.</p>","","instructions","","","","","","","","","","","","","",""
"revaluation","82","429307","0.0-3.0-13.0-4.0-0.0","spark_pilot_2","8152","3","7","Male","","false","","","","","[1193.6999999999534]","./assets/img/space/animals/cat.jpg","[""ArrowRight""]","practice block","space","36","{""ArrowUp,ArrowLeft"":3,""ArrowUp,ArrowRight"":36,""ArrowDown,ArrowLeft"":15,""ArrowDown,ArrowRight"":23}","true","ArrowUp,ArrowRight","","","","","","","","",""
"html-keyboard-response","83","429810","0.0-3.0-13.0-4.0-1.0","spark_pilot_2","8152","3","7","Male","","","","","","","null","<div style=""font-size:60px;"">+</div>","null","fixation","","","","","","","","","","","","","",""
"revaluation","84","433827","0.0-3.0-13.0-4.0-0.1","spark_pilot_2","8152","3","7","Male","","false","","","","","[531.5999999999767]","./assets/img/space/animals/rabbit.jpg","[""ArrowRight""]","practice block","space","23","{""ArrowUp,ArrowLeft"":3,""ArrowUp,ArrowRight"":36,""ArrowDown,ArrowLeft"":15,""ArrowDown,ArrowRight"":23}","true","ArrowDown,ArrowRight","","","","","","","","",""
"html-keyboard-response","85","434330","0.0-3.0-13.0-4.0-1.1","spark_pilot_2","8152","3","7","Male","","","","","","","null","<div style=""font-size:60px;"">+</div>","null","fixation","","","","","","","","","","","","","",""
"revaluation","86","438346","0.0-3.0-13.0-4.0-0.2","spark_pilot_2","8152","3","7","Male","","false","","","","","[960.2000000000698]","./assets/img/space/animals/rabbit.jpg","[""ArrowRight""]","practice block","space","23","{""ArrowUp,ArrowLeft"":3,""ArrowUp,ArrowRight"":36,""ArrowDown,ArrowLeft"":15,""ArrowDown,ArrowRight"":23}","true","ArrowDown,ArrowRight","","","","","","","","",""
"html-keyboard-response","87","438850","0.0-3.0-13.0-4.0-1.2","spark_pilot_2","8152","3","7","Male","","","","","","","null","<div style=""font-size:60px;"">+</div>","null","fixation","","","","","","","","","","","","","",""
"revaluation","88","442866","0.0-3.0-13.0-4.0-0.3","spark_pilot_2","8152","3","7","Male","","false","","","","","[553.5]","./assets/img/space/animals/cat.jpg","[""ArrowLeft""]","practice block","space","3","{""ArrowUp,ArrowLeft"":3,""ArrowUp,ArrowRight"":36,""ArrowDown,ArrowLeft"":15,""ArrowDown,ArrowRight"":23}","false","ArrowUp,ArrowLeft","","","","","","","","",""
"html-keyboard-response","89","443370","0.0-3.0-13.0-4.0-1.3","spark_pilot_2","8152","3","7","Male","","","","","","","null","<div style=""font-size:60px;"">+</div>","null","fixation","","","","","","","","","","","","","",""
"learning-instructions","90","452607","0.0-3.0-13.0-5.0-0.0","spark_pilot_2","8152","3","7","Male","","","","","","","1861.5999999999767","<p> Time to play the dot game! </p>
            <p> For 15 seconds, click the red dots on the following screen as they appear. </p>","","instructions","","","","","","","","","","","","","",""
"revaluation","91","467611","0.0-3.0-13.0-6.0-0.0","spark_pilot_2","8152","3","7","Male","","","","","","","[104]","","","rest practice","","10","","","","","0","15000","","","","","",""
"learning-instructions","92","474624","0.0-3.0-13.0-7.0-0.0","spark_pilot_2","8152","3","7","Male","","","","","","","891.6999999999534","<p> You have almost finished this part of the game! </p>
            <p> We are going to ask you to make a few more choices. </p>","","instructions","","","","","","","","","","","","","",""
"learning-instructions","93","502942","0.0-3.0-13.0-7.0-0.1","spark_pilot_2","8152","3","7","Male","","","","","","","14297.79999999993","<p> First, you need to decide whether to go up or down. When you see each picture, use the arrow keys to make your choice. </p>
            <p><b>You will not see which animal you found, but try to get to the one that will give you the most treasure.</b></p>","","instructions","","","","","","","","","","","","","",""
"revaluation","94","505460","0.0-3.0-13.0-8.0","spark_pilot_2","8152","3","7","Male","","false","","","","","[2514.5999999999767]","./assets/img/space/15.jpg","[""ArrowDown""]","practice block","space","0","{""ArrowUp,ArrowLeft"":3,""ArrowUp,ArrowRight"":36,""ArrowDown,ArrowLeft"":15,""ArrowDown,ArrowRight"":23}","false","ArrowDown","false","","","","","","","",""
"html-keyboard-response","95","505962","0.0-3.0-13.0-9.0","spark_pilot_2","8152","3","7","Male","","","","","","","null","<div style=""font-size:60px;"">+</div>","null","fixation","","","","","","","","","","","","","",""
"learning-instructions","96","518909","0.0-3.0-13.0-10.0-0.0","spark_pilot_2","8152","3","7","Male","","","","","","","1560.3000000000466","<p> Now you will see the animals again and can search their chests for treasure. </p>
            <p> This time, you will not see how much treasure you earned, but you will earn more bonus money for making better choices. </p>","","instructions","","","","","","","","","","","","","",""
"revaluation","97","519934","0.0-3.0-13.0-11.0-0.0","spark_pilot_2","8152","3","7","Male","","false","","","","","[1021.3000000000466]","./assets/img/space/animals/cat.jpg","[""ArrowRight""]","practice block","space","0","{""ArrowUp,ArrowLeft"":3,""ArrowUp,ArrowRight"":36,""ArrowDown,ArrowLeft"":15,""ArrowDown,ArrowRight"":23}","true","ArrowUp,ArrowRight","","","","","","","","",""
"html-keyboard-response","98","520442","0.0-3.0-13.0-11.0-1.0","spark_pilot_2","8152","3","7","Male","","","","","","","null","<div style=""font-size:60px;"">+</div>","null","fixation","","","","","","","","","","","","","",""
"revaluation","99","521350","0.0-3.0-13.0-11.0-0.1","spark_pilot_2","8152","3","7","Male","","false","","","","","[903.8000000000466]","./assets/img/space/animals/rabbit.jpg","[""ArrowRight""]","practice block","space","0","{""ArrowUp,ArrowLeft"":3,""ArrowUp,ArrowRight"":36,""ArrowDown,ArrowLeft"":15,""ArrowDown,ArrowRight"":23}","true","ArrowDown,ArrowRight","","","","","","","","",""
"html-keyboard-response","100","521858","0.0-3.0-13.0-11.0-1.1","spark_pilot_2","8152","3","7","Male","","","","","","","null","<div style=""font-size:60px;"">+</div>","null","fixation","","","","","","","","","","","","","",""
"learning-instructions","101","528570","0.0-3.0-14.0-0.0","spark_pilot_2","8152","3","7","Male","","","","","","","2123.1999999999534","<p> Before you start, we're going to ask you a few questions about how the game works. </p>","","instructions","","","","","","","","","","","","","",""
"comp-q","102","536713","0.0-3.0-15.0-0.0-0.0","spark_pilot_2","8152","3","7","Male","","","","","","","2550.70000000007","<p> <b> True or False? </b> </p>
            <p> There can be 50 pieces of treasure in a given animal's chest. </p>","1","comp_question","","","","true","","","","","","","","","",""
"comp-q","103","545790","0.0-3.0-15.0-0.0-1.0","spark_pilot_2","8152","3","7","Male","","","","","","","2414.9000000000233","<p> <b> That's right! </b> The amount of treasure in each chest can range from 0 to 40 pieces. </p>","0","comp_answer","","","","","","","","","","","","","",""
"comp-q","104","555030","0.0-3.0-15.0-0.1-0.1","spark_pilot_2","8152","3","7","Male","","","","","","","2118.6999999999534","<p> <b> True or False? </b> </p><p> In this game, all animals have the same amount of treasure in their left and right chests. </p>","1","comp_question","","","","true","","","","","","","","","",""
"comp-q","105","562982","0.0-3.0-15.0-0.1-1.1","spark_pilot_2","8152","3","7","Male","","","","","","","2710.9000000000233","<p> <b> That's right! </b> Animals have different amounts of treasure in their treasure chests. </p>","0","comp_answer","","","","","","","","","","","","","",""
"comp-q","106","572527","0.0-3.0-15.0-0.2-0.2","spark_pilot_2","8152","3","7","Male","","","","","","","3701.5999999999767","<p> <b> True or False? </b> </p><p> The same animal will always be there if you go up in the same place. </p>","1","comp_question","","","","false","","","","","","","","","",""
"comp-q","107","582166","0.0-3.0-15.0-0.2-1.2","spark_pilot_2","8152","3","7","Male","","","","","","","3335.29999999993","<p> <b>Incorrect.</b> One animal lives in the upper part and one lives in the lower part of every place. </p>","0","comp_answer","","","","","","","","","","","","","",""
"comp-q","108","589854","0.0-3.0-15.0-0.3-0.3","spark_pilot_2","8152","3","7","Male","","","","","","","1871","<p> <b> True or False? </b> </p><p> The same animal will always be there if you go up in the same place. </p>","0","comp_question","","","","true","","","","","","","","","",""
"comp-q","109","599669","0.0-3.0-15.0-0.3-1.3","spark_pilot_2","8152","3","7","Male","","","","","","","3366.4000000000233","<p> <b> That's right! </b> One animal lives in the upper part and one lives in the lower part of every place. </p>","0","comp_answer","","","","","","","","","","","","","",""
"comp-q","110","606623","0.0-3.0-15.0-0.4-0.4","spark_pilot_2","8152","3","7","Male","","","","","","","1424","<p> <b> True or False? </b> </p><p> If you see a different picture, it means you are in a new place. </p>","1","comp_question","","","","true","","","","","","","","","",""
"comp-q","111","621822","0.0-3.0-15.0-0.4-1.4","spark_pilot_2","8152","3","7","Male","","","","","","","3907.9000000000233","<p> <b> That's right! </b> Lots of different images may show the same place. For example,  you may see three different images that all remind you that you are in outer space. </p>","0","comp_answer","","","","","","","","","","","","","",""
"learning-instructions","112","635062","0.0-3.0-16.0-0.0","spark_pilot_2","8152","3","7","Male","","","","","","","3377","<p> Good job. Remember to do your best because the amount of treasure you earn will be converted into bonus money. </p>
            <p> It’s time to start the real game! </p>","","instructions","","","","","","","","","","","","","",""
"learning-instructions","113","645494","0.0-4.0-0.0-0.0","spark_pilot_2","8152","3","7","Male","","","","","","","7719.800000000047","<p> This time you are searching for treasure in the <b>ocean</b>.</p>","","instructions","","","","","","","","","","","","","",""
"learning-instructions","114","663917","0.0-4.0-0.0-0.1","spark_pilot_2","8152","3","7","Male","","","","","","","1096.7000000000698","<p><b>New</b> animals with <b>new</b> treasure chests live here. You need to explore to discover where the animal with the best treasure chest is.</p>
                    <p> Like before, once you figure out which animal has the chest with the most treasure, you should try to get to that animal and select that chest! </p>","","instructions","","","","","","","","","","","","","",""
"learning-instructions","115","680019","0.0-4.0-1.0-0.0","spark_pilot_2","8152","3","7","Male","","","","","","","1369.9000000000233","<p> Remember, when you see a picture of the place, use the up and down keys to <b>find an animal</b>.</p>
            <p> When you encounter an animal, you should use the left and right keys to <b>select a treasure chest</b>.</p>
            <p> Don't forget to look out for the robber! </p>","","instructions","","","","","","","","","","","","","",""
"revaluation","116","686043","0.0-4.0-2.0-0.0","spark_pilot_2","8152","3","7","Male","","false","","","","","[1044.6999999999534,1120.2000000000698]","./assets/img/ocean/memory/26.jpg","[""ArrowUp"",""ArrowRight""]","value training","ocean","10","{""ArrowUp,ArrowLeft"":23,""ArrowUp,ArrowRight"":10,""ArrowDown,ArrowLeft"":8,""ArrowDown,ArrowRight"":30}","false","ArrowUp,ArrowRight","false","","","original","1","0","","",""
"html-keyboard-response","117","686554","0.0-4.0-2.0-1.0","spark_pilot_2","8152","3","7","Male","","","","","","","null","<div style=""font-size:60px;"">+</div>","null","fixation","","","","","","","","","","","1","","",""
"revaluation","118","692579","0.0-4.0-2.0-0.1","spark_pilot_2","8152","3","7","Male","","false","","","","","[1119.6999999999534,613.3000000000466]","./assets/img/ocean/memory/40.jpg","[""ArrowDown"",""ArrowLeft""]","value training","ocean","8","{""ArrowUp,ArrowLeft"":23,""ArrowUp,ArrowRight"":10,""ArrowDown,ArrowLeft"":8,""ArrowDown,ArrowRight"":30}","false","ArrowDown,ArrowLeft","false","","","original","1","2","","",""
"html-keyboard-response","119","693082","0.0-4.0-2.0-1.1","spark_pilot_2","8152","3","7","Male","","","","","","","null","<div style=""font-size:60px;"">+</div>","null","fixation","","","","","","","","","","","3","","",""
"revaluation","120","699107","0.0-4.0-2.0-0.2","spark_pilot_2","8152","3","7","Male","","false","","","","","[604.4000000000233,531.4000000000233]","./assets/img/ocean/memory/4.jpg","[""ArrowUp"",""ArrowRight""]","value training","ocean","10","{""ArrowUp,ArrowLeft"":23,""ArrowUp,ArrowRight"":10,""ArrowDown,ArrowLeft"":8,""ArrowDown,ArrowRight"":30}","false","ArrowUp,ArrowRight","false","","","original","1","4","","",""
"html-keyboard-response","121","699610","0.0-4.0-2.0-1.2","spark_pilot_2","8152","3","7","Male","","","","","","","null","<div style=""font-size:60px;"">+</div>","null","fixation","","","","","","","","","","","5","","",""
"revaluation","122","705635","0.0-4.0-2.0-0.3","spark_pilot_2","8152","3","7","Male","","false","","","","","[809.5,871.2999999999302]","./assets/img/ocean/memory/1.jpg","[""ArrowUp"",""ArrowLeft""]","value training","ocean","23","{""ArrowUp,ArrowLeft"":23,""ArrowUp,ArrowRight"":10,""ArrowDown,ArrowLeft"":8,""ArrowDown,ArrowRight"":30}","false","ArrowUp,ArrowLeft","false","","","original","1","6","","",""
"html-keyboard-response","123","706138","0.0-4.0-2.0-1.3","spark_pilot_2","8152","3","7","Male","","","","","","","null","<div style=""font-size:60px;"">+</div>","null","fixation","","","","","","","","","","","7","","",""
"revaluation","124","712163","0.0-4.0-2.0-0.4","spark_pilot_2","8152","3","7","Male","","false","","","","","[687,665.5999999999767]","./assets/img/ocean/memory/3.jpg","[""ArrowDown"",""ArrowLeft""]","value training","ocean","8","{""ArrowUp,ArrowLeft"":23,""ArrowUp,ArrowRight"":10,""ArrowDown,ArrowLeft"":8,""ArrowDown,ArrowRight"":30}","false","ArrowDown,ArrowLeft","false","","","original","1","8","","",""
"html-keyboard-response","125","712666","0.0-4.0-2.0-1.4","spark_pilot_2","8152","3","7","Male","","","","","","","null","<div style=""font-size:60px;"">+</div>","null","fixation","","","","","","","","","","","9","","",""
"revaluation","126","718692","0.0-4.0-2.0-0.5","spark_pilot_2","8152","3","7","Male","","false","","","","","[1433.8999999999069,960.5]","./assets/img/ocean/memory/27.jpg","[""ArrowUp"",""ArrowRight""]","value training","ocean","10","{""ArrowUp,ArrowLeft"":23,""ArrowUp,ArrowRight"":10,""ArrowDown,ArrowLeft"":8,""ArrowDown,ArrowRight"":30}","false","ArrowUp,ArrowRight","false","","","original","1","10","","",""
"html-keyboard-response","127","719195","0.0-4.0-2.0-1.5","spark_pilot_2","8152","3","7","Male","","","","","","","null","<div style=""font-size:60px;"">+</div>","null","fixation","","","","","","","","","","","11","","",""
"revaluation","128","723210","0.0-4.0-2.0-0.6","spark_pilot_2","8152","3","7","Male","","false","","","","","[967]","./assets/img/ocean/catch/7.jpg","[""ArrowDown""]","value training","ocean","-10","{""ArrowUp,ArrowLeft"":23,""ArrowUp,ArrowRight"":10,""ArrowDown,ArrowLeft"":8,""ArrowDown,ArrowRight"":30}","false","ArrowDown","true","","","original","1","12","","",""
"html-keyboard-response","129","723714","0.0-4.0-2.0-1.6","spark_pilot_2","8152","3","7","Male","","","","","","","null","<div style=""font-size:60px;"">+</div>","null","fixation","","","","","","","","","","","13","","",""
"revaluation","130","727730","0.0-4.0-2.0-0.7","spark_pilot_2","8152","3","7","Male","","false","","","","","[1213]","./assets/img/ocean/catch/4.jpg","[""spaceBar""]","value training","ocean","0","{""ArrowUp,ArrowLeft"":23,""ArrowUp,ArrowRight"":10,""ArrowDown,ArrowLeft"":8,""ArrowDown,ArrowRight"":30}","true","spaceBar","true","","","original","1","14","","",""
"html-keyboard-response","131","728234","0.0-4.0-2.0-1.7","spark_pilot_2","8152","3","7","Male","","","","","","","null","<div style=""font-size:60px;"">+</div>","null","fixation","","","","","","","","","","","15","","",""
"revaluation","132","734259","0.0-4.0-2.0-0.8","spark_pilot_2","8152","3","7","Male","","false","","","","","[1540,1462.3999999999069]","./assets/img/ocean/memory/7.jpg","[""ArrowDown"",""ArrowRight""]","value training","ocean","30","{""ArrowUp,ArrowLeft"":23,""ArrowUp,ArrowRight"":10,""ArrowDown,ArrowLeft"":8,""ArrowDown,ArrowRight"":30}","true","ArrowDown,ArrowRight","false","","","original","1","16","","",""
"html-keyboard-response","133","734762","0.0-4.0-2.0-1.8","spark_pilot_2","8152","3","7","Male","","","","","","","null","<div style=""font-size:60px;"">+</div>","null","fixation","","","","","","","","","","","17","","",""
"revaluation","134","740787","0.0-4.0-2.0-0.9","spark_pilot_2","8152","3","7","Male","","false","","","","","[1537.3000000000466,1676.3000000000466]","./assets/img/ocean/memory/21.jpg","[""ArrowUp"",""ArrowLeft""]","value training","ocean","23","{""ArrowUp,ArrowLeft"":23,""ArrowUp,ArrowRight"":10,""ArrowDown,ArrowLeft"":8,""ArrowDown,ArrowRight"":30}","false","ArrowUp,ArrowLeft","false","","","original","1","18","","",""
"html-keyboard-response","135","741291","0.0-4.0-2.0-1.9","spark_pilot_2","8152","3","7","Male","","","","","","","null","<div style=""font-size:60px;"">+</div>","null","fixation","","","","","","","","","","","19","","",""
"revaluation","136","747314","0.0-4.0-2.0-0.10","spark_pilot_2","8152","3","7","Male","","false","","","","","[1416.6000000000931,384.89999999990687]","./assets/img/ocean/memory/1.jpg","[""ArrowDown"",""ArrowLeft""]","value training","ocean","8","{""ArrowUp,ArrowLeft"":23,""ArrowUp,ArrowRight"":10,""ArrowDown,ArrowLeft"":8,""ArrowDown,ArrowRight"":30}","false","ArrowDown,ArrowLeft","false","","","original","1","20","","",""
"html-keyboard-response","137","747818","0.0-4.0-2.0-1.10","spark_pilot_2","8152","3","7","Male","","","","","","","null","<div style=""font-size:60px;"">+</div>","null","fixation","","","","","","","","","","","21","","",""
"revaluation","138","751835","0.0-4.0-2.0-0.11","spark_pilot_2","8152","3","7","Male","","false","","","","","[1324.1999999999534]","./assets/img/ocean/catch/2.jpg","[""spaceBar""]","value training","ocean","0","{""ArrowUp,ArrowLeft"":23,""ArrowUp,ArrowRight"":10,""ArrowDown,ArrowLeft"":8,""ArrowDown,ArrowRight"":30}","true","spaceBar","true","","","original","1","22","","",""
"html-keyboard-response","139","752338","0.0-4.0-2.0-1.11","spark_pilot_2","8152","3","7","Male","","","","","","","null","<div style=""font-size:60px;"">+</div>","null","fixation","","","","","","","","","","","23","","",""
"revaluation","140","758363","0.0-4.0-2.0-0.12","spark_pilot_2","8152","3","7","Male","","false","","","","","[1171.1000000000931,585.3999999999069]","./assets/img/ocean/memory/4.jpg","[""ArrowDown"",""ArrowRight""]","value training","ocean","30","{""ArrowUp,ArrowLeft"":23,""ArrowUp,ArrowRight"":10,""ArrowDown,ArrowLeft"":8,""ArrowDown,ArrowRight"":30}","true","ArrowDown,ArrowRight","false","","","original","1","24","","",""
"html-keyboard-response","141","758866","0.0-4.0-2.0-1.12","spark_pilot_2","8152","3","7","Male","","","","","","","null","<div style=""font-size:60px;"">+</div>","null","fixation","","","","","","","","","","","25","","",""
"revaluation","142","764890","0.0-4.0-2.0-0.13","spark_pilot_2","8152","3","7","Male","","false","","","","","[1188.3000000000466,489.19999999995343]","./assets/img/ocean/memory/13.jpg","[""ArrowDown"",""ArrowRight""]","value training","ocean","30","{""ArrowUp,ArrowLeft"":23,""ArrowUp,ArrowRight"":10,""ArrowDown,ArrowLeft"":8,""ArrowDown,ArrowRight"":30}","true","ArrowDown,ArrowRight","false","","","original","1","26","","",""
"html-keyboard-response","143","765394","0.0-4.0-2.0-1.13","spark_pilot_2","8152","3","7","Male","","","","","","","null","<div style=""font-size:60px;"">+</div>","null","fixation","","","","","","","","","","","27","","",""
"revaluation","144","769411","0.0-4.0-2.0-0.14","spark_pilot_2","8152","3","7","Male","","false","","","","","[841.5]","./assets/img/ocean/catch/5.jpg","[""spaceBar""]","value training","ocean","0","{""ArrowUp,ArrowLeft"":23,""ArrowUp,ArrowRight"":10,""ArrowDown,ArrowLeft"":8,""ArrowDown,ArrowRight"":30}","true","spaceBar","true","","","original","1","28","","",""
"html-keyboard-response","145","769914","0.0-4.0-2.0-1.14","spark_pilot_2","8152","3","7","Male","","","","","","","null","<div style=""font-size:60px;"">+</div>","null","fixation","","","","","","","","","","","29","","",""
"revaluation","146","775939","0.0-4.0-2.0-0.15","spark_pilot_2","8152","3","7","Male","","false","","","","","[1124.8000000000466,806.3999999999069]","./assets/img/ocean/memory/26.jpg","[""ArrowDown"",""ArrowRight""]","value training","ocean","30","{""ArrowUp,ArrowLeft"":23,""ArrowUp,ArrowRight"":10,""ArrowDown,ArrowLeft"":8,""ArrowDown,ArrowRight"":30}","true","ArrowDown,ArrowRight","false","","","original","1","30","","",""
"html-keyboard-response","147","776442","0.0-4.0-2.0-1.15","spark_pilot_2","8152","3","7","Male","","","","","","","null","<div style=""font-size:60px;"">+</div>","null","fixation","","","","","","","","","","","31","","",""
"revaluation","148","782467","0.0-4.0-2.0-0.16","spark_pilot_2","8152","3","7","Male","","false","","","","","[693.1999999999534,450.89999999990687]","./assets/img/ocean/memory/22.jpg","[""ArrowDown"",""ArrowRight""]","value training","ocean","30","{""ArrowUp,ArrowLeft"":23,""ArrowUp,ArrowRight"":10,""ArrowDown,ArrowLeft"":8,""ArrowDown,ArrowRight"":30}","true","ArrowDown,ArrowRight","false","","","original","1","32","","",""
"html-keyboard-response","149","782970","0.0-4.0-2.0-1.16","spark_pilot_2","8152","3","7","Male","","","","","","","null","<div style=""font-size:60px;"">+</div>","null","fixation","","","","","","","","","","","33","","",""
"revaluation","150","788995","0.0-4.0-2.0-0.17","spark_pilot_2","8152","3","7","Male","","false","","","","","[952.0999999998603,474.30000000004657]","./assets/img/ocean/memory/22.jpg","[""ArrowDown"",""ArrowRight""]","value training","ocean","30","{""ArrowUp,ArrowLeft"":23,""ArrowUp,ArrowRight"":10,""ArrowDown,ArrowLeft"":8,""ArrowDown,ArrowRight"":30}","true","ArrowDown,ArrowRight","false","","","original","1","34","","",""
"html-keyboard-response","151","789498","0.0-4.0-2.0-1.17","spark_pilot_2","8152","3","7","Male","","","","","","","null","<div style=""font-size:60px;"">+</div>","null","fixation","","","","","","","","","","","35","","",""
"revaluation","152","795522","0.0-4.0-2.0-0.18","spark_pilot_2","8152","3","7","Male","","false","","","","","[969.3000000000466,691.4000000001397]","./assets/img/ocean/memory/6.jpg","[""ArrowDown"",""ArrowRight""]","value training","ocean","30","{""ArrowUp,ArrowLeft"":23,""ArrowUp,ArrowRight"":10,""ArrowDown,ArrowLeft"":8,""ArrowDown,ArrowRight"":30}","true","ArrowDown,ArrowRight","false","","","original","1","36","","",""
"html-keyboard-response","153","796027","0.0-4.0-2.0-1.18","spark_pilot_2","8152","3","7","Male","","","","","","","null","<div style=""font-size:60px;"">+</div>","null","fixation","","","","","","","","","","","37","","",""
"revaluation","154","802051","0.0-4.0-2.0-0.19","spark_pilot_2","8152","3","7","Male","","false","","","","","[1811.8000000000466,524.3000000000466]","./assets/img/ocean/memory/15.jpg","[""ArrowDown"",""ArrowRight""]","value training","ocean","30","{""ArrowUp,ArrowLeft"":23,""ArrowUp,ArrowRight"":10,""ArrowDown,ArrowLeft"":8,""ArrowDown,ArrowRight"":30}","true","ArrowDown,ArrowRight","false","","","original","1","38","","",""
"html-keyboard-response","155","802554","0.0-4.0-2.0-1.19","spark_pilot_2","8152","3","7","Male","","","","","","","null","<div style=""font-size:60px;"">+</div>","null","fixation","","","","","","","","","","","39","","",""
"revaluation","156","808579","0.0-4.0-2.0-0.20","spark_pilot_2","8152","3","7","Male","","false","","","","","[669.2000000001863,806.7999999998137]","./assets/img/ocean/memory/23.jpg","[""ArrowDown"",""ArrowRight""]","value training","ocean","30","{""ArrowUp,ArrowLeft"":23,""ArrowUp,ArrowRight"":10,""ArrowDown,ArrowLeft"":8,""ArrowDown,ArrowRight"":30}","true","ArrowDown,ArrowRight","false","","","original","1","40","","",""
"html-keyboard-response","157","809082","0.0-4.0-2.0-1.20","spark_pilot_2","8152","3","7","Male","","","","","","","null","<div style=""font-size:60px;"">+</div>","null","fixation","","","","","","","","","","","41","","",""
"revaluation","158","815107","0.0-4.0-2.0-0.21","spark_pilot_2","8152","3","7","Male","","false","","","","","[1035,556]","./assets/img/ocean/memory/9.jpg","[""ArrowDown"",""ArrowRight""]","value training","ocean","30","{""ArrowUp,ArrowLeft"":23,""ArrowUp,ArrowRight"":10,""ArrowDown,ArrowLeft"":8,""ArrowDown,ArrowRight"":30}","true","ArrowDown,ArrowRight","false","","","original","1","42","","",""
"html-keyboard-response","159","815610","0.0-4.0-2.0-1.21","spark_pilot_2","8152","3","7","Male","","","","","","","null","<div style=""font-size:60px;"">+</div>","null","fixation","","","","","","","","","","","43","","",""
"revaluation","160","821634","0.0-4.0-2.0-0.22","spark_pilot_2","8152","3","7","Male","","false","","","","","[1121.5999999998603,533.2000000001863]","./assets/img/ocean/memory/27.jpg","[""ArrowDown"",""ArrowRight""]","value training","ocean","30","{""ArrowUp,ArrowLeft"":23,""ArrowUp,ArrowRight"":10,""ArrowDown,ArrowLeft"":8,""ArrowDown,ArrowRight"":30}","true","ArrowDown,ArrowRight","false","","","original","1","44","","",""
"html-keyboard-response","161","822138","0.0-4.0-2.0-1.22","spark_pilot_2","8152","3","7","Male","","","","","","","null","<div style=""font-size:60px;"">+</div>","null","fixation","","","","","","","","","","","45","","",""
"revaluation","162","828163","0.0-4.0-2.0-0.23","spark_pilot_2","8152","3","7","Male","","false","","","","","[1055.4000000001397,542.5]","./assets/img/ocean/memory/31.jpg","[""ArrowDown"",""ArrowRight""]","value training","ocean","30","{""ArrowUp,ArrowLeft"":23,""ArrowUp,ArrowRight"":10,""ArrowDown,ArrowLeft"":8,""ArrowDown,ArrowRight"":30}","true","ArrowDown,ArrowRight","false","","","original","1","46","","",""
"html-keyboard-response","163","828666","0.0-4.0-2.0-1.23","spark_pilot_2","8152","3","7","Male","","","","","","","null","<div style=""font-size:60px;"">+</div>","null","fixation","","","","","","","","","","","47","","",""
"revaluation","164","834691","0.0-4.0-2.0-0.24","spark_pilot_2","8152","3","7","Male","","false","","","","","[755.6000000000931,424]","./assets/img/ocean/memory/23.jpg","[""ArrowDown"",""ArrowRight""]","value training","ocean","30","{""ArrowUp,ArrowLeft"":23,""ArrowUp,ArrowRight"":10,""ArrowDown,ArrowLeft"":8,""ArrowDown,ArrowRight"":30}","true","ArrowDown,ArrowRight","false","","","original","1","48","","",""
"html-keyboard-response","165","835194","0.0-4.0-2.0-1.24","spark_pilot_2","8152","3","7","Male","","","","","","","null","<div style=""font-size:60px;"">+</div>","null","fixation","","","","","","","","","","","49","","",""
"revaluation","166","841219","0.0-4.0-2.0-0.25","spark_pilot_2","8152","3","7","Male","","false","","","","","[777.5,515.1999999999534]","./assets/img/ocean/memory/19.jpg","[""ArrowDown"",""ArrowRight""]","value training","ocean","30","{""ArrowUp,ArrowLeft"":23,""ArrowUp,ArrowRight"":10,""ArrowDown,ArrowLeft"":8,""ArrowDown,ArrowRight"":30}","true","ArrowDown,ArrowRight","false","","","original","1","50","","",""
"html-keyboard-response","167","841722","0.0-4.0-2.0-1.25","spark_pilot_2","8152","3","7","Male","","","","","","","null","<div style=""font-size:60px;"">+</div>","null","fixation","","","","","","","","","","","51","","",""
"revaluation","168","847747","0.0-4.0-2.0-0.26","spark_pilot_2","8152","3","7","Male","","false","","","","","[1036.8999999999069,524.3000000000466]","./assets/img/ocean/memory/24.jpg","[""ArrowDown"",""ArrowRight""]","value training","ocean","30","{""ArrowUp,ArrowLeft"":23,""ArrowUp,ArrowRight"":10,""ArrowDown,ArrowLeft"":8,""ArrowDown,ArrowRight"":30}","true","ArrowDown,ArrowRight","false","","","original","1","52","","",""
"html-keyboard-response","169","848250","0.0-4.0-2.0-1.26","spark_pilot_2","8152","3","7","Male","","","","","","","null","<div style=""font-size:60px;"">+</div>","null","fixation","","","","","","","","","","","53","","",""
"revaluation","170","854275","0.0-4.0-2.0-0.27","spark_pilot_2","8152","3","7","Male","","false","","","","","[896.8000000000466,423.60000000009313]","./assets/img/ocean/memory/29.jpg","[""ArrowDown"",""ArrowRight""]","value training","ocean","30","{""ArrowUp,ArrowLeft"":23,""ArrowUp,ArrowRight"":10,""ArrowDown,ArrowLeft"":8,""ArrowDown,ArrowRight"":30}","true","ArrowDown,ArrowRight","false","","","original","1","54","","",""
"html-keyboard-response","171","854778","0.0-4.0-2.0-1.27","spark_pilot_2","8152","3","7","Male","","","","","","","null","<div style=""font-size:60px;"">+</div>","null","fixation","","","","","","","","","","","55","","",""
"revaluation","172","858795","0.0-4.0-2.0-0.28","spark_pilot_2","8152","3","7","Male","","false","","","","","[1000.7000000001863]","./assets/img/ocean/catch/0.jpg","[""spaceBar""]","value training","ocean","0","{""ArrowUp,ArrowLeft"":23,""ArrowUp,ArrowRight"":10,""ArrowDown,ArrowLeft"":8,""ArrowDown,ArrowRight"":30}","true","spaceBar","true","","","original","1","56","","",""
"html-keyboard-response","173","859298","0.0-4.0-2.0-1.28","spark_pilot_2","8152","3","7","Male","","","","","","","null","<div style=""font-size:60px;"">+</div>","null","fixation","","","","","","","","","","","57","","",""
"revaluation","174","865323","0.0-4.0-2.0-0.29","spark_pilot_2","8152","3","7","Male","","false","","","","","[724.8999999999069,692.3000000000466]","./assets/img/ocean/memory/13.jpg","[""ArrowDown"",""ArrowRight""]","value training","ocean","30","{""ArrowUp,ArrowLeft"":23,""ArrowUp,ArrowRight"":10,""ArrowDown,ArrowLeft"":8,""ArrowDown,ArrowRight"":30}","true","ArrowDown,ArrowRight","false","","","original","1","58","","",""
"html-keyboard-response","175","865827","0.0-4.0-2.0-1.29","spark_pilot_2","8152","3","7","Male","","","","","","","null","<div style=""font-size:60px;"">+</div>","null","fixation","","","","","","","","","","","59","","",""
"revaluation","176","871851","0.0-4.0-2.0-0.30","spark_pilot_2","8152","3","7","Male","","false","","","","","[595.8999999999069,126.69999999995343]","./assets/img/ocean/memory/34.jpg","[""ArrowDown"",""ArrowRight""]","value training","ocean","30","{""ArrowUp,ArrowLeft"":23,""ArrowUp,ArrowRight"":10,""ArrowDown,ArrowLeft"":8,""ArrowDown,ArrowRight"":30}","true","ArrowDown,ArrowRight","false","","","original","1","60","","",""
"html-keyboard-response","177","872354","0.0-4.0-2.0-1.30","spark_pilot_2","8152","3","7","Male","","","","","","","null","<div style=""font-size:60px;"">+</div>","null","fixation","","","","","","","","","","","61","","",""
"revaluation","178","876371","0.0-4.0-2.0-0.31","spark_pilot_2","8152","3","7","Male","","false","","","","","[760.4000000001397]","./assets/img/ocean/catch/6.jpg","[""spaceBar""]","value training","ocean","0","{""ArrowUp,ArrowLeft"":23,""ArrowUp,ArrowRight"":10,""ArrowDown,ArrowLeft"":8,""ArrowDown,ArrowRight"":30}","true","spaceBar","true","","","original","1","62","","",""
"html-keyboard-response","179","876874","0.0-4.0-2.0-1.31","spark_pilot_2","8152","3","7","Male","","","","","","","null","<div style=""font-size:60px;"">+</div>","null","fixation","","","","","","","","","","","63","","",""
"revaluation","180","882899","0.0-4.0-2.0-0.32","spark_pilot_2","8152","3","7","Male","","false","","","","","[928.8999999999069,395.30000000004657]","./assets/img/ocean/memory/40.jpg","[""ArrowDown"",""ArrowRight""]","value training","ocean","30","{""ArrowUp,ArrowLeft"":23,""ArrowUp,ArrowRight"":10,""ArrowDown,ArrowLeft"":8,""ArrowDown,ArrowRight"":30}","true","ArrowDown,ArrowRight","false","","","original","1","64","","",""
"html-keyboard-response","181","883402","0.0-4.0-2.0-1.32","spark_pilot_2","8152","3","7","Male","","","","","","","null","<div style=""font-size:60px;"">+</div>","null","fixation","","","","","","","","","","","65","","",""
"revaluation","182","887418","0.0-4.0-2.0-0.33","spark_pilot_2","8152","3","7","Male","","false","","","","","[642.3999999999069]","./assets/img/ocean/catch/1.jpg","[""spaceBar""]","value training","ocean","0","{""ArrowUp,ArrowLeft"":23,""ArrowUp,ArrowRight"":10,""ArrowDown,ArrowLeft"":8,""ArrowDown,ArrowRight"":30}","true","spaceBar","true","","","original","1","66","","",""
"html-keyboard-response","183","887922","0.0-4.0-2.0-1.33","spark_pilot_2","8152","3","7","Male","","","","","","","null","<div style=""font-size:60px;"">+</div>","null","fixation","","","","","","","","","","","67","","",""
"revaluation","184","893947","0.0-4.0-2.0-0.34","spark_pilot_2","8152","3","7","Male","","false","","","","","[1485.2999999998137,397.19999999995343]","./assets/img/ocean/memory/38.jpg","[""ArrowDown"",""ArrowRight""]","value training","ocean","30","{""ArrowUp,ArrowLeft"":23,""ArrowUp,ArrowRight"":10,""ArrowDown,ArrowLeft"":8,""ArrowDown,ArrowRight"":30}","true","ArrowDown,ArrowRight","false","","","original","1","68","","",""
"html-keyboard-response","185","894450","0.0-4.0-2.0-1.34","spark_pilot_2","8152","3","7","Male","","","","","","","null","<div style=""font-size:60px;"">+</div>","null","fixation","","","","","","","","","","","69","","",""
"revaluation","186","900475","0.0-4.0-2.0-0.35","spark_pilot_2","8152","3","7","Male","","false","","","","","[861.8000000000466,451.60000000009313]","./assets/img/ocean/memory/21.jpg","[""ArrowDown"",""ArrowRight""]","value training","ocean","30","{""ArrowUp,ArrowLeft"":23,""ArrowUp,ArrowRight"":10,""ArrowDown,ArrowLeft"":8,""ArrowDown,ArrowRight"":30}","true","ArrowDown,ArrowRight","false","","","original","1","70","","",""
"html-keyboard-response","187","900978","0.0-4.0-2.0-1.35","spark_pilot_2","8152","3","7","Male","","","","","","","null","<div style=""font-size:60px;"">+</div>","null","fixation","","","","","","","","","","","71","","",""
"revaluation","188","907003","0.0-4.0-2.0-0.36","spark_pilot_2","8152","3","7","Male","","false","","","","","[1406.8999999999069,561.7999999998137]","./assets/img/ocean/memory/31.jpg","[""ArrowDown"",""ArrowRight""]","value training","ocean","30","{""ArrowUp,ArrowLeft"":23,""ArrowUp,ArrowRight"":10,""ArrowDown,ArrowLeft"":8,""ArrowDown,ArrowRight"":30}","true","ArrowDown,ArrowRight","false","","","original","1","72","","",""
"html-keyboard-response","189","907506","0.0-4.0-2.0-1.36","spark_pilot_2","8152","3","7","Male","","","","","","","null","<div style=""font-size:60px;"">+</div>","null","fixation","","","","","","","","","","","73","","",""
"revaluation","190","913530","0.0-4.0-2.0-0.37","spark_pilot_2","8152","3","7","Male","","false","","","","","[929.1999999999534,330.30000000004657]","./assets/img/ocean/memory/6.jpg","[""ArrowDown"",""ArrowRight""]","value training","ocean","30","{""ArrowUp,ArrowLeft"":23,""ArrowUp,ArrowRight"":10,""ArrowDown,ArrowLeft"":8,""ArrowDown,ArrowRight"":30}","true","ArrowDown,ArrowRight","false","","","original","1","74","","",""
"html-keyboard-response","191","914034","0.0-4.0-2.0-1.37","spark_pilot_2","8152","3","7","Male","","","","","","","null","<div style=""font-size:60px;"">+</div>","null","fixation","","","","","","","","","","","75","","",""
"revaluation","192","920058","0.0-4.0-2.0-0.38","spark_pilot_2","8152","3","7","Male","","false","","","","","[577.8999999999069,70.39999999990687]","./assets/img/ocean/memory/34.jpg","[""ArrowDown"",""ArrowRight""]","value training","ocean","30","{""ArrowUp,ArrowLeft"":23,""ArrowUp,ArrowRight"":10,""ArrowDown,ArrowLeft"":8,""ArrowDown,ArrowRight"":30}","true","ArrowDown,ArrowRight","false","","","original","1","76","","",""
"html-keyboard-response","193","920562","0.0-4.0-2.0-1.38","spark_pilot_2","8152","3","7","Male","","","","","","","null","<div style=""font-size:60px;"">+</div>","null","fixation","","","","","","","","","","","77","","",""
"revaluation","194","926586","0.0-4.0-2.0-0.39","spark_pilot_2","8152","3","7","Male","","false","","","","","[724.8999999999069,396]","./assets/img/ocean/memory/5.jpg","[""ArrowDown"",""ArrowRight""]","value training","ocean","30","{""ArrowUp,ArrowLeft"":23,""ArrowUp,ArrowRight"":10,""ArrowDown,ArrowLeft"":8,""ArrowDown,ArrowRight"":30}","true","ArrowDown,ArrowRight","false","","","original","1","78","","",""
"html-keyboard-response","195","927090","0.0-4.0-2.0-1.39","spark_pilot_2","8152","3","7","Male","","","","","","","null","<div style=""font-size:60px;"">+</div>","null","fixation","","","","","","","","","","","79","","",""
"revaluation","196","933114","0.0-4.0-2.0-0.40","spark_pilot_2","8152","3","7","Male","","false","","","","","[1054.3000000000466,691.5]","./assets/img/ocean/memory/9.jpg","[""ArrowDown"",""ArrowRight""]","value training","ocean","30","{""ArrowUp,ArrowLeft"":23,""ArrowUp,ArrowRight"":10,""ArrowDown,ArrowLeft"":8,""ArrowDown,ArrowRight"":30}","true","ArrowDown,ArrowRight","false","","","original","1","80","","",""
"html-keyboard-response","197","933618","0.0-4.0-2.0-1.40","spark_pilot_2","8152","3","7","Male","","","","","","","null","<div style=""font-size:60px;"">+</div>","null","fixation","","","","","","","","","","","81","","",""
"revaluation","198","939642","0.0-4.0-2.0-0.41","spark_pilot_2","8152","3","7","Male","","false","","","","","[677.3999999999069,417.19999999995343]","./assets/img/ocean/memory/24.jpg","[""ArrowDown"",""ArrowRight""]","value training","ocean","30","{""ArrowUp,ArrowLeft"":23,""ArrowUp,ArrowRight"":10,""ArrowDown,ArrowLeft"":8,""ArrowDown,ArrowRight"":30}","true","ArrowDown,ArrowRight","false","","","original","1","82","","",""
"html-keyboard-response","199","940146","0.0-4.0-2.0-1.41","spark_pilot_2","8152","3","7","Male","","","","","","","null","<div style=""font-size:60px;"">+</div>","null","fixation","","","","","","","","","","","83","","",""
"revaluation","200","946170","0.0-4.0-2.0-0.42","spark_pilot_2","8152","3","7","Male","","false","","","","","[570.5,567]","./assets/img/ocean/memory/29.jpg","[""ArrowDown"",""ArrowRight""]","value training","ocean","30","{""ArrowUp,ArrowLeft"":23,""ArrowUp,ArrowRight"":10,""ArrowDown,ArrowLeft"":8,""ArrowDown,ArrowRight"":30}","true","ArrowDown,ArrowRight","false","","","original","1","84","","",""
"html-keyboard-response","201","946674","0.0-4.0-2.0-1.42","spark_pilot_2","8152","3","7","Male","","","","","","","null","<div style=""font-size:60px;"">+</div>","null","fixation","","","","","","","","","","","85","","",""
"revaluation","202","952699","0.0-4.0-2.0-0.43","spark_pilot_2","8152","3","7","Male","","false","","","","","[802.8999999999069,409.39999999990687]","./assets/img/ocean/memory/19.jpg","[""ArrowDown"",""ArrowRight""]","value training","ocean","30","{""ArrowUp,ArrowLeft"":23,""ArrowUp,ArrowRight"":10,""ArrowDown,ArrowLeft"":8,""ArrowDown,ArrowRight"":30}","true","ArrowDown,ArrowRight","false","","","original","1","86","","",""
"html-keyboard-response","203","953203","0.0-4.0-2.0-1.43","spark_pilot_2","8152","3","7","Male","","","","","","","null","<div style=""font-size:60px;"">+</div>","null","fixation","","","","","","","","","","","87","","",""
"revaluation","204","959226","0.0-4.0-2.0-0.44","spark_pilot_2","8152","3","7","Male","","false","","","","","[897.3000000000466,525.3000000000466]","./assets/img/ocean/memory/5.jpg","[""ArrowDown"",""ArrowRight""]","value training","ocean","30","{""ArrowUp,ArrowLeft"":23,""ArrowUp,ArrowRight"":10,""ArrowDown,ArrowLeft"":8,""ArrowDown,ArrowRight"":30}","true","ArrowDown,ArrowRight","false","","","original","1","88","","",""
"html-keyboard-response","205","959730","0.0-4.0-2.0-1.44","spark_pilot_2","8152","3","7","Male","","","","","","","null","<div style=""font-size:60px;"">+</div>","null","fixation","","","","","","","","","","","89","","",""
"revaluation","206","963747","0.0-4.0-2.0-0.45","spark_pilot_2","8152","3","7","Male","","false","","","","","[859.8999999999069]","./assets/img/ocean/catch/3.jpg","[""spaceBar""]","value training","ocean","0","{""ArrowUp,ArrowLeft"":23,""ArrowUp,ArrowRight"":10,""ArrowDown,ArrowLeft"":8,""ArrowDown,ArrowRight"":30}","true","spaceBar","true","","","original","1","90","","",""
"html-keyboard-response","207","964250","0.0-4.0-2.0-1.45","spark_pilot_2","8152","3","7","Male","","","","","","","null","<div style=""font-size:60px;"">+</div>","null","fixation","","","","","","","","","","","91","","",""
"revaluation","208","970274","0.0-4.0-2.0-0.46","spark_pilot_2","8152","3","7","Male","","false","","","","","[928.5999999998603,261.10000000009313]","./assets/img/ocean/memory/3.jpg","[""ArrowDown"",""ArrowRight""]","value training","ocean","30","{""ArrowUp,ArrowLeft"":23,""ArrowUp,ArrowRight"":10,""ArrowDown,ArrowLeft"":8,""ArrowDown,ArrowRight"":30}","true","ArrowDown,ArrowRight","false","","","original","1","92","","",""
"html-keyboard-response","209","970778","0.0-4.0-2.0-1.46","spark_pilot_2","8152","3","7","Male","","","","","","","null","<div style=""font-size:60px;"">+</div>","null","fixation","","","","","","","","","","","93","","",""
"revaluation","210","976803","0.0-4.0-2.0-0.47","spark_pilot_2","8152","3","7","Male","","false","","","","","[673.8999999999069,304.19999999995343]","./assets/img/ocean/memory/7.jpg","[""ArrowDown"",""ArrowRight""]","value training","ocean","30","{""ArrowUp,ArrowLeft"":23,""ArrowUp,ArrowRight"":10,""ArrowDown,ArrowLeft"":8,""ArrowDown,ArrowRight"":30}","true","ArrowDown,ArrowRight","false","","","original","1","94","","",""
"html-keyboard-response","211","977306","0.0-4.0-2.0-1.47","spark_pilot_2","8152","3","7","Male","","","","","","","null","<div style=""font-size:60px;"">+</div>","null","fixation","","","","","","","","","","","95","","",""
"revaluation","212","983331","0.0-4.0-2.0-0.48","spark_pilot_2","8152","3","7","Male","","false","","","","","[1428.8000000000466,686.4000000001397]","./assets/img/ocean/memory/38.jpg","[""ArrowDown"",""ArrowRight""]","value training","ocean","30","{""ArrowUp,ArrowLeft"":23,""ArrowUp,ArrowRight"":10,""ArrowDown,ArrowLeft"":8,""ArrowDown,ArrowRight"":30}","true","ArrowDown,ArrowRight","false","","","original","1","96","","",""
"html-keyboard-response","213","983834","0.0-4.0-2.0-1.48","spark_pilot_2","8152","3","7","Male","","","","","","","null","<div style=""font-size:60px;"">+</div>","null","fixation","","","","","","","","","","","97","","",""
"revaluation","214","989859","0.0-4.0-2.0-0.49","spark_pilot_2","8152","3","7","Male","","false","","","","","[848.9000000001397,450.5]","./assets/img/ocean/memory/15.jpg","[""ArrowDown"",""ArrowRight""]","value training","ocean","30","{""ArrowUp,ArrowLeft"":23,""ArrowUp,ArrowRight"":10,""ArrowDown,ArrowLeft"":8,""ArrowDown,ArrowRight"":30}","true","ArrowDown,ArrowRight","false","","","original","1","98","","",""
"html-keyboard-response","215","990362","0.0-4.0-2.0-1.49","spark_pilot_2","8152","3","7","Male","","","","","","","null","<div style=""font-size:60px;"">+</div>","null","fixation","","","","","","","","","","","99","","",""
"learning-instructions","216","1004867","0.0-4.0-3.0-0.0","spark_pilot_2","8152","3","7","Male","","","","","","","1530.0999999998603","<p> Now, you will travel with a friend who will choose whether you go up or down first. </p>
            <p> On these turns, you will just see the animal that they found. You will still get to choose which chest to search for treasure.</p>","","instructions","","","","","","","","","","","","","",""
"revaluation","217","1008882","0.0-4.0-4.0-0.0","spark_pilot_2","8152","3","7","Male","","false","","","","","[959.2999999998137]","./assets/img/ocean/animals/seahorse.jpg","[""ArrowRight""]","revaluation","ocean","30","{""ArrowUp,ArrowLeft"":23,""ArrowUp,ArrowRight"":10,""ArrowDown,ArrowLeft"":8,""ArrowDown,ArrowRight"":30}","true","ArrowDown,ArrowRight","","","","original","1","0","","",""
"html-keyboard-response","218","1009394","0.0-4.0-4.0-1.0","spark_pilot_2","8152","3","7","Male","","","","","","","null","<div style=""font-size:60px;"">+</div>","null","fixation","","","","","","","","","","","1","","",""
"revaluation","219","1013411","0.0-4.0-4.0-0.1","spark_pilot_2","8152","3","7","Male","","false","","","","","[764]","./assets/img/ocean/animals/octopus.jpg","[""ArrowLeft""]","revaluation","ocean","23","{""ArrowUp,ArrowLeft"":23,""ArrowUp,ArrowRight"":10,""ArrowDown,ArrowLeft"":8,""ArrowDown,ArrowRight"":30}","true","ArrowUp,ArrowLeft","","","","original","1","2","","",""
"html-keyboard-response","220","1013914","0.0-4.0-4.0-1.1","spark_pilot_2","8152","3","7","Male","","","","","","","null","<div style=""font-size:60px;"">+</div>","null","fixation","","","","","","","","","","","3","","",""
"revaluation","221","1017924","0.0-4.0-4.0-0.2","spark_pilot_2","8152","3","7","Male","","false","","","","","[451.4000000001397]","./assets/img/ocean/animals/seahorse.jpg","[""ArrowRight""]","revaluation","ocean","30","{""ArrowUp,ArrowLeft"":23,""ArrowUp,ArrowRight"":10,""ArrowDown,ArrowLeft"":8,""ArrowDown,ArrowRight"":30}","true","ArrowDown,ArrowRight","","","","original","1","4","","",""
"html-keyboard-response","222","1018426","0.0-4.0-4.0-1.2","spark_pilot_2","8152","3","7","Male","","","","","","","null","<div style=""font-size:60px;"">+</div>","null","fixation","","","","","","","","","","","5","","",""
"revaluation","223","1022443","0.0-4.0-4.0-0.3","spark_pilot_2","8152","3","7","Male","","false","","","","","[685.1999999999534]","./assets/img/ocean/animals/octopus.jpg","[""ArrowLeft""]","revaluation","ocean","23","{""ArrowUp,ArrowLeft"":23,""ArrowUp,ArrowRight"":10,""ArrowDown,ArrowLeft"":8,""ArrowDown,ArrowRight"":30}","true","ArrowUp,ArrowLeft","","","","original","1","6","","",""
"html-keyboard-response","224","1022947","0.0-4.0-4.0-1.3","spark_pilot_2","8152","3","7","Male","","","","","","","null","<div style=""font-size:60px;"">+</div>","null","fixation","","","","","","","","","","","7","","",""
"revaluation","225","1026962","0.0-4.0-4.0-0.4","spark_pilot_2","8152","3","7","Male","","false","","","","","[569.6999999999534]","./assets/img/ocean/animals/seahorse.jpg","[""ArrowRight""]","revaluation","ocean","30","{""ArrowUp,ArrowLeft"":23,""ArrowUp,ArrowRight"":10,""ArrowDown,ArrowLeft"":8,""ArrowDown,ArrowRight"":30}","true","ArrowDown,ArrowRight","","","","original","1","8","","",""
"html-keyboard-response","226","1027466","0.0-4.0-4.0-1.4","spark_pilot_2","8152","3","7","Male","","","","","","","null","<div style=""font-size:60px;"">+</div>","null","fixation","","","","","","","","","","","9","","",""
"revaluation","227","1031483","0.0-4.0-4.0-0.5","spark_pilot_2","8152","3","7","Male","","false","","","","","[624.3000000000466]","./assets/img/ocean/animals/octopus.jpg","[""ArrowLeft""]","revaluation","ocean","23","{""ArrowUp,ArrowLeft"":23,""ArrowUp,ArrowRight"":10,""ArrowDown,ArrowLeft"":8,""ArrowDown,ArrowRight"":30}","true","ArrowUp,ArrowLeft","","","","original","1","10","","",""
"html-keyboard-response","228","1031986","0.0-4.0-4.0-1.5","spark_pilot_2","8152","3","7","Male","","","","","","","null","<div style=""font-size:60px;"">+</div>","null","fixation","","","","","","","","","","","11","","",""
"revaluation","229","1036003","0.0-4.0-4.0-0.6","spark_pilot_2","8152","3","7","Male","","false","","","","","[680.6999999999534]","./assets/img/ocean/animals/octopus.jpg","[""ArrowRight""]","revaluation","ocean","10","{""ArrowUp,ArrowLeft"":23,""ArrowUp,ArrowRight"":10,""ArrowDown,ArrowLeft"":8,""ArrowDown,ArrowRight"":30}","false","ArrowUp,ArrowRight","","","","original","1","12","","",""
"html-keyboard-response","230","1036506","0.0-4.0-4.0-1.6","spark_pilot_2","8152","3","7","Male","","","","","","","null","<div style=""font-size:60px;"">+</div>","null","fixation","","","","","","","","","","","13","","",""
"revaluation","231","1040523","0.0-4.0-4.0-0.7","spark_pilot_2","8152","3","7","Male","","false","","","","","[713]","./assets/img/ocean/animals/seahorse.jpg","[""ArrowRight""]","revaluation","ocean","30","{""ArrowUp,ArrowLeft"":23,""ArrowUp,ArrowRight"":10,""ArrowDown,ArrowLeft"":8,""ArrowDown,ArrowRight"":30}","true","ArrowDown,ArrowRight","","","","original","1","14","","",""
"html-keyboard-response","232","1041026","0.0-4.0-4.0-1.7","spark_pilot_2","8152","3","7","Male","","","","","","","null","<div style=""font-size:60px;"">+</div>","null","fixation","","","","","","","","","","","15","","",""
"revaluation","233","1045043","0.0-4.0-4.0-0.8","spark_pilot_2","8152","3","7","Male","","false","","","","","[537.9000000001397]","./assets/img/ocean/animals/seahorse.jpg","[""ArrowRight""]","revaluation","ocean","30","{""ArrowUp,ArrowLeft"":23,""ArrowUp,ArrowRight"":10,""ArrowDown,ArrowLeft"":8,""ArrowDown,ArrowRight"":30}","true","ArrowDown,ArrowRight","","","","original","1","16","","",""
"html-keyboard-response","234","1045547","0.0-4.0-4.0-1.8","spark_pilot_2","8152","3","7","Male","","","","","","","null","<div style=""font-size:60px;"">+</div>","null","fixation","","","","","","","","","","","17","","",""
"revaluation","235","1049563","0.0-4.0-4.0-0.9","spark_pilot_2","8152","3","7","Male","","false","","","","","[922.0999999997439]","./assets/img/ocean/animals/octopus.jpg","[""ArrowLeft""]","revaluation","ocean","23","{""ArrowUp,ArrowLeft"":23,""ArrowUp,ArrowRight"":10,""ArrowDown,ArrowLeft"":8,""ArrowDown,ArrowRight"":30}","true","ArrowUp,ArrowLeft","","","","original","1","18","","",""
"html-keyboard-response","236","1050066","0.0-4.0-4.0-1.9","spark_pilot_2","8152","3","7","Male","","","","","","","null","<div style=""font-size:60px;"">+</div>","null","fixation","","","","","","","","","","","19","","",""
"revaluation","237","1054083","0.0-4.0-4.0-0.10","spark_pilot_2","8152","3","7","Male","","false","","","","","[642.1000000000931]","./assets/img/ocean/animals/octopus.jpg","[""ArrowLeft""]","revaluation","ocean","23","{""ArrowUp,ArrowLeft"":23,""ArrowUp,ArrowRight"":10,""ArrowDown,ArrowLeft"":8,""ArrowDown,ArrowRight"":30}","true","ArrowUp,ArrowLeft","","","","original","1","20","","",""
"html-keyboard-response","238","1054586","0.0-4.0-4.0-1.10","spark_pilot_2","8152","3","7","Male","","","","","","","null","<div style=""font-size:60px;"">+</div>","null","fixation","","","","","","","","","","","21","","",""
"revaluation","239","1058603","0.0-4.0-4.0-0.11","spark_pilot_2","8152","3","7","Male","","false","","","","","[686.2000000001863]","./assets/img/ocean/animals/octopus.jpg","[""ArrowLeft""]","revaluation","ocean","23","{""ArrowUp,ArrowLeft"":23,""ArrowUp,ArrowRight"":10,""ArrowDown,ArrowLeft"":8,""ArrowDown,ArrowRight"":30}","true","ArrowUp,ArrowLeft","","","","original","1","22","","",""
"html-keyboard-response","240","1059106","0.0-4.0-4.0-1.11","spark_pilot_2","8152","3","7","Male","","","","","","","null","<div style=""font-size:60px;"">+</div>","null","fixation","","","","","","","","","","","23","","",""
"revaluation","241","1063123","0.0-4.0-4.0-0.12","spark_pilot_2","8152","3","7","Male","","false","","","","","[697.2000000001863]","./assets/img/ocean/animals/seahorse.jpg","[""ArrowRight""]","revaluation","ocean","30","{""ArrowUp,ArrowLeft"":23,""ArrowUp,ArrowRight"":10,""ArrowDown,ArrowLeft"":8,""ArrowDown,ArrowRight"":30}","true","ArrowDown,ArrowRight","","","","original","1","24","","",""
"html-keyboard-response","242","1063626","0.0-4.0-4.0-1.12","spark_pilot_2","8152","3","7","Male","","","","","","","null","<div style=""font-size:60px;"">+</div>","null","fixation","","","","","","","","","","","25","","",""
"revaluation","243","1067643","0.0-4.0-4.0-0.13","spark_pilot_2","8152","3","7","Male","","false","","","","","[837.1000000000931]","./assets/img/ocean/animals/octopus.jpg","[""ArrowLeft""]","revaluation","ocean","23","{""ArrowUp,ArrowLeft"":23,""ArrowUp,ArrowRight"":10,""ArrowDown,ArrowLeft"":8,""ArrowDown,ArrowRight"":30}","true","ArrowUp,ArrowLeft","","","","original","1","26","","",""
"html-keyboard-response","244","1068146","0.0-4.0-4.0-1.13","spark_pilot_2","8152","3","7","Male","","","","","","","null","<div style=""font-size:60px;"">+</div>","null","fixation","","","","","","","","","","","27","","",""
"revaluation","245","1072163","0.0-4.0-4.0-0.14","spark_pilot_2","8152","3","7","Male","","false","","","","","[819.5]","./assets/img/ocean/animals/octopus.jpg","[""ArrowLeft""]","revaluation","ocean","23","{""ArrowUp,ArrowLeft"":23,""ArrowUp,ArrowRight"":10,""ArrowDown,ArrowLeft"":8,""ArrowDown,ArrowRight"":30}","true","ArrowUp,ArrowLeft","","","","original","1","28","","",""
"html-keyboard-response","246","1072666","0.0-4.0-4.0-1.14","spark_pilot_2","8152","3","7","Male","","","","","","","null","<div style=""font-size:60px;"">+</div>","null","fixation","","","","","","","","","","","29","","",""
"revaluation","247","1076683","0.0-4.0-4.0-0.15","spark_pilot_2","8152","3","7","Male","","false","","","","","[853.3999999999069]","./assets/img/ocean/animals/seahorse.jpg","[""ArrowRight""]","revaluation","ocean","30","{""ArrowUp,ArrowLeft"":23,""ArrowUp,ArrowRight"":10,""ArrowDown,ArrowLeft"":8,""ArrowDown,ArrowRight"":30}","true","ArrowDown,ArrowRight","","","","original","1","30","","",""
"html-keyboard-response","248","1077186","0.0-4.0-4.0-1.15","spark_pilot_2","8152","3","7","Male","","","","","","","null","<div style=""font-size:60px;"">+</div>","null","fixation","","","","","","","","","","","31","","",""
"revaluation","249","1081203","0.0-4.0-4.0-0.16","spark_pilot_2","8152","3","7","Male","","false","","","","","[553.5]","./assets/img/ocean/animals/seahorse.jpg","[""ArrowRight""]","revaluation","ocean","30","{""ArrowUp,ArrowLeft"":23,""ArrowUp,ArrowRight"":10,""ArrowDown,ArrowLeft"":8,""ArrowDown,ArrowRight"":30}","true","ArrowDown,ArrowRight","","","","original","1","32","","",""
"html-keyboard-response","250","1081706","0.0-4.0-4.0-1.16","spark_pilot_2","8152","3","7","Male","","","","","","","null","<div style=""font-size:60px;"">+</div>","null","fixation","","","","","","","","","","","33","","",""
"revaluation","251","1085723","0.0-4.0-4.0-0.17","spark_pilot_2","8152","3","7","Male","","false","","","","","[530.5]","./assets/img/ocean/animals/seahorse.jpg","[""ArrowRight""]","revaluation","ocean","30","{""ArrowUp,ArrowLeft"":23,""ArrowUp,ArrowRight"":10,""ArrowDown,ArrowLeft"":8,""ArrowDown,ArrowRight"":30}","true","ArrowDown,ArrowRight","","","","original","1","34","","",""
"html-keyboard-response","252","1086226","0.0-4.0-4.0-1.17","spark_pilot_2","8152","3","7","Male","","","","","","","null","<div style=""font-size:60px;"">+</div>","null","fixation","","","","","","","","","","","35","","",""
"learning-instructions","253","1101942","0.0-4.0-5.0-0.0","spark_pilot_2","8152","3","7","Male","","","","","","","4248.100000000093","<p> Time to play the dot game! </p>
            <p> For one minute, click the red dots on the following screen as they appear. </p>
            <p><b> Don't look away, as you will earn bonus for clicking dots</b>. </p>","","instructions","","","","","","","","","","","","","",""
"revaluation","254","1161945","0.0-4.0-6.0-0.0","spark_pilot_2","8152","3","7","Male","","","","","","","[145,133,85,61,61,121,108]","","","rest","","70","","","","","0","60000","","","","","",""
"learning-instructions","255","1170134","0.0-4.0-7.0-0.0","spark_pilot_2","8152","3","7","Male","","","","","","","2007.5999999996275","<p> You have almost finished this part of the game! </p>
            <p> We are going to ask you to make a few more choices. </p>","","instructions","","","","","","","","","","","","","",""
"learning-instructions","256","1186045","0.0-4.0-7.0-0.1","spark_pilot_2","8152","3","7","Male","","","","","","","1939.8000000002794","<p> First, you need to decide whether to go up or down. When you see each picture, use the arrow keys to make your choice. </p>
            <p><b>You will not see which animal you found, but try to get to the one that will give you the most treasure.</b></p>","","instructions","","","","","","","","","","","","","",""
"revaluation","257","1187198","0.0-4.0-8.0-0.0","spark_pilot_2","8152","3","7","Male","","false","","","","","[1149.6000000000931]","./assets/img/ocean/test/3.jpg","[""ArrowUp""]","first stage test","ocean","0","{""ArrowUp,ArrowLeft"":23,""ArrowUp,ArrowRight"":10,""ArrowDown,ArrowLeft"":8,""ArrowDown,ArrowRight"":30}","false","ArrowUp","false","","","original","1","","","",""
"html-keyboard-response","258","1187706","0.0-4.0-8.0-1.0","spark_pilot_2","8152","3","7","Male","","","","","","","null","<div style=""font-size:60px;"">+</div>","null","fixation","","","","","","","","","","","","","",""
"revaluation","259","1188353","0.0-4.0-8.0-0.1","spark_pilot_2","8152","3","7","Male","","false","","","","","[644.0999999996275]","./assets/img/ocean/test/2.jpg","[""ArrowDown""]","first stage test","ocean","0","{""ArrowUp,ArrowLeft"":23,""ArrowUp,ArrowRight"":10,""ArrowDown,ArrowLeft"":8,""ArrowDown,ArrowRight"":30}","true","ArrowDown","false","","","original","1","","","",""
"html-keyboard-response","260","1188858","0.0-4.0-8.0-1.1","spark_pilot_2","8152","3","7","Male","","","","","","","null","<div style=""font-size:60px;"">+</div>","null","fixation","","","","","","","","","","","","","",""
"revaluation","261","1189213","0.0-4.0-8.0-0.2","spark_pilot_2","8152","3","7","Male","","false","","","","","[350.5]","./assets/img/ocean/test/0.jpg","[""ArrowUp""]","first stage test","ocean","0","{""ArrowUp,ArrowLeft"":23,""ArrowUp,ArrowRight"":10,""ArrowDown,ArrowLeft"":8,""ArrowDown,ArrowRight"":30}","false","ArrowUp","false","","","original","1","","","",""
"html-keyboard-response","262","1189723","0.0-4.0-8.0-1.2","spark_pilot_2","8152","3","7","Male","","","","","","","null","<div style=""font-size:60px;"">+</div>","null","fixation","","","","","","","","","","","","","",""
"revaluation","263","1190110","0.0-4.0-8.0-0.3","spark_pilot_2","8152","3","7","Male","","false","","","","","[382.39999999990687]","./assets/img/ocean/test/1.jpg","[""ArrowUp""]","first stage test","ocean","0","{""ArrowUp,ArrowLeft"":23,""ArrowUp,ArrowRight"":10,""ArrowDown,ArrowLeft"":8,""ArrowDown,ArrowRight"":30}","false","ArrowUp","false","","","original","1","","","",""
"html-keyboard-response","264","1190618","0.0-4.0-8.0-1.3","spark_pilot_2","8152","3","7","Male","","","","","","","null","<div style=""font-size:60px;"">+</div>","null","fixation","","","","","","","","","","","","","",""
"learning-instructions","265","1203317","0.0-4.0-9.0-0.0","spark_pilot_2","8152","3","7","Male","","","","","","","1355.5","<p> Now you will see the animals again and can search their chests for treasure. </p>
            <p> This time, you will not see how much treasure you earned, but you will earn more bonus money for making better choices. </p>","","instructions","","","","","","","","","","","","","",""
"revaluation","266","1204157","0.0-4.0-10.0-0.0","spark_pilot_2","8152","3","7","Male","","false","","","","","[836.7999999998137]","./assets/img/ocean/animals/octopus.jpg","[""ArrowLeft""]","second stage test","ocean","0","{""ArrowUp,ArrowLeft"":23,""ArrowUp,ArrowRight"":10,""ArrowDown,ArrowLeft"":8,""ArrowDown,ArrowRight"":30}","true","ArrowUp,ArrowLeft","","","","original","1","","","",""
"html-keyboard-response","267","1204666","0.0-4.0-10.0-1.0","spark_pilot_2","8152","3","7","Male","","","","","","","null","<div style=""font-size:60px;"">+</div>","null","fixation","","","","","","","","","","","","","",""
"revaluation","268","1205127","0.0-4.0-10.0-0.1","spark_pilot_2","8152","3","7","Male","","false","","","","","[457.40000000037253]","./assets/img/ocean/animals/octopus.jpg","[""ArrowRight""]","second stage test","ocean","0","{""ArrowUp,ArrowLeft"":23,""ArrowUp,ArrowRight"":10,""ArrowDown,ArrowLeft"":8,""ArrowDown,ArrowRight"":30}","false","ArrowUp,ArrowRight","","","","original","1","","","",""
"html-keyboard-response","269","1205634","0.0-4.0-10.0-1.1","spark_pilot_2","8152","3","7","Male","","","","","","","null","<div style=""font-size:60px;"">+</div>","null","fixation","","","","","","","","","","","","","",""
"revaluation","270","1207459","0.0-4.0-10.0-0.2","spark_pilot_2","8152","3","7","Male","","false","","","","","[1821.2999999998137]","./assets/img/ocean/animals/octopus.jpg","[""ArrowLeft""]","second stage test","ocean","0","{""ArrowUp,ArrowLeft"":23,""ArrowUp,ArrowRight"":10,""ArrowDown,ArrowLeft"":8,""ArrowDown,ArrowRight"":30}","true","ArrowUp,ArrowLeft","","","","original","1","","","",""
"html-keyboard-response","271","1207962","0.0-4.0-10.0-1.2","spark_pilot_2","8152","3","7","Male","","","","","","","null","<div style=""font-size:60px;"">+</div>","null","fixation","","","","","","","","","","","","","",""
"revaluation","272","1208408","0.0-4.0-10.0-0.3","spark_pilot_2","8152","3","7","Male","","false","","","","","[442.89999999990687]","./assets/img/ocean/animals/octopus.jpg","[""ArrowLeft""]","second stage test","ocean","0","{""ArrowUp,ArrowLeft"":23,""ArrowUp,ArrowRight"":10,""ArrowDown,ArrowLeft"":8,""ArrowDown,ArrowRight"":30}","true","ArrowUp,ArrowLeft","","","","original","1","","","",""
"html-keyboard-response","273","1208914","0.0-4.0-10.0-1.3","spark_pilot_2","8152","3","7","Male","","","","","","","null","<div style=""font-size:60px;"">+</div>","null","fixation","","","","","","","","","","","","","",""
"revaluation","274","1209352","0.0-4.0-10.0-0.4","spark_pilot_2","8152","3","7","Male","","false","","","","","[433.60000000009313]","./assets/img/ocean/animals/seahorse.jpg","[""ArrowLeft""]","second stage test","ocean","0","{""ArrowUp,ArrowLeft"":23,""ArrowUp,ArrowRight"":10,""ArrowDown,ArrowLeft"":8,""ArrowDown,ArrowRight"":30}","false","ArrowDown,ArrowLeft","","","","original","1","","","",""
"html-keyboard-response","275","1209858","0.0-4.0-10.0-1.4","spark_pilot_2","8152","3","7","Male","","","","","","","null","<div style=""font-size:60px;"">+</div>","null","fixation","","","","","","","","","","","","","",""
"revaluation","276","1209903","0.0-4.0-10.0-0.5","spark_pilot_2","8152","3","7","Male","","false","","","","","[40.200000000186265]","./assets/img/ocean/animals/seahorse.jpg","[""ArrowLeft""]","second stage test","ocean","0","{""ArrowUp,ArrowLeft"":23,""ArrowUp,ArrowRight"":10,""ArrowDown,ArrowLeft"":8,""ArrowDown,ArrowRight"":30}","false","ArrowDown,ArrowLeft","","","","original","1","","","",""
"html-keyboard-response","277","1210410","0.0-4.0-10.0-1.5","spark_pilot_2","8152","3","7","Male","","","","","","","null","<div style=""font-size:60px;"">+</div>","null","fixation","","","","","","","","","","","","","",""
"revaluation","278","1210906","0.0-4.0-10.0-0.6","spark_pilot_2","8152","3","7","Male","","false","","","","","[490.79999999981374]","./assets/img/ocean/animals/seahorse.jpg","[""ArrowRight""]","second stage test","ocean","0","{""ArrowUp,ArrowLeft"":23,""ArrowUp,ArrowRight"":10,""ArrowDown,ArrowLeft"":8,""ArrowDown,ArrowRight"":30}","true","ArrowDown,ArrowRight","","","","original","1","","","",""
"html-keyboard-response","279","1211410","0.0-4.0-10.0-1.6","spark_pilot_2","8152","3","7","Male","","","","","","","null","<div style=""font-size:60px;"">+</div>","null","fixation","","","","","","","","","","","","","",""
"revaluation","280","1211818","0.0-4.0-10.0-0.7","spark_pilot_2","8152","3","7","Male","","false","","","","","[402.1999999997206]","./assets/img/ocean/animals/seahorse.jpg","[""ArrowRight""]","second stage test","ocean","0","{""ArrowUp,ArrowLeft"":23,""ArrowUp,ArrowRight"":10,""ArrowDown,ArrowLeft"":8,""ArrowDown,ArrowRight"":30}","true","ArrowDown,ArrowRight","","","","original","1","","","",""
"html-keyboard-response","281","1212323","0.0-4.0-10.0-1.7","spark_pilot_2","8152","3","7","Male","","","","","","","null","<div style=""font-size:60px;"">+</div>","null","fixation","","","","","","","","","","","","","",""
"learning-instructions","282","1216196","0.0-4.0-0.1-0.2","spark_pilot_2","8152","3","7","Male","","","","","","","1103.3000000002794","<p> This time you are searching for treasure in the <b>canyon</b>.</p>","","instructions","","","","","","","","","","","","","",""
"learning-instructions","283","1235820","0.0-4.0-0.1-0.3","spark_pilot_2","8152","3","7","Male","","","","","","","2369.899999999907","<p><b>New</b> animals with <b>new</b> treasure chests live here. You need to explore to discover where the animal with the best treasure chest is.</p>
                    <p> Like before, once you figure out which animal has the chest with the most treasure, you should try to get to that animal and select that chest! </p>","","instructions","","","","","","","","","","","","","",""
"learning-instructions","284","1251895","0.0-4.0-1.1-0.1","spark_pilot_2","8152","3","7","Male","","","","","","","1347","<p> Remember, when you see a picture of the place, use the up and down keys to <b>find an animal</b>.</p>
            <p> When you encounter an animal, you should use the left and right keys to <b>select a treasure chest</b>.</p>
            <p> Don't forget to look out for the robber! </p>","","instructions","","","","","","","","","","","","","",""
"revaluation","285","1255914","0.0-4.0-2.1-0.50","spark_pilot_2","8152","3","7","Male","","false","","","","","[767.9000000003725]","./assets/img/canyon/catch/2.jpg","[""ArrowUp""]","value training","canyon","-10","{""ArrowUp,ArrowLeft"":26,""ArrowUp,ArrowRight"":10,""ArrowDown,ArrowLeft"":5,""ArrowDown,ArrowRight"":17}","false","ArrowUp","true","","","revaluation","2","0","","",""
"html-keyboard-response","286","1256418","0.0-4.0-2.1-1.50","spark_pilot_2","8152","3","7","Male","","","","","","","null","<div style=""font-size:60px;"">+</div>","null","fixation","","","","","","","","","","","1","","",""
"revaluation","287","1262443","0.0-4.0-2.1-0.51","spark_pilot_2","8152","3","7","Male","","false","","","","","[1258.6000000000931,846.2000000001863]","./assets/img/canyon/memory/19.jpg","[""ArrowUp"",""ArrowRight""]","value training","canyon","10","{""ArrowUp,ArrowLeft"":26,""ArrowUp,ArrowRight"":10,""ArrowDown,ArrowLeft"":5,""ArrowDown,ArrowRight"":17}","false","ArrowUp,ArrowRight","false","","","revaluation","2","2","","",""
"html-keyboard-response","288","1262946","0.0-4.0-2.1-1.51","spark_pilot_2","8152","3","7","Male","","","","","","","null","<div style=""font-size:60px;"">+</div>","null","fixation","","","","","","","","","","","3","","",""
"revaluation","289","1268971","0.0-4.0-2.1-0.52","spark_pilot_2","8152","3","7","Male","","false","","","","","[886.3999999999069,498.89999999990687]","./assets/img/canyon/memory/7.jpg","[""ArrowUp"",""ArrowLeft""]","value training","canyon","26","{""ArrowUp,ArrowLeft"":26,""ArrowUp,ArrowRight"":10,""ArrowDown,ArrowLeft"":5,""ArrowDown,ArrowRight"":17}","true","ArrowUp,ArrowLeft","false","","","revaluation","2","4","","",""
"html-keyboard-response","290","1269474","0.0-4.0-2.1-1.52","spark_pilot_2","8152","3","7","Male","","","","","","","null","<div style=""font-size:60px;"">+</div>","null","fixation","","","","","","","","","","","5","","",""
"revaluation","291","1275499","0.0-4.0-2.1-0.53","spark_pilot_2","8152","3","7","Male","","false","","","","","[901.6000000000931,1149.5]","./assets/img/canyon/memory/9.jpg","[""ArrowDown"",""ArrowLeft""]","value training","canyon","5","{""ArrowUp,ArrowLeft"":26,""ArrowUp,ArrowRight"":10,""ArrowDown,ArrowLeft"":5,""ArrowDown,ArrowRight"":17}","false","ArrowDown,ArrowLeft","false","","","revaluation","2","6","","",""
"html-keyboard-response","292","1276002","0.0-4.0-2.1-1.53","spark_pilot_2","8152","3","7","Male","","","","","","","null","<div style=""font-size:60px;"">+</div>","null","fixation","","","","","","","","","","","7","","",""
"revaluation","293","1282027","0.0-4.0-2.1-0.54","spark_pilot_2","8152","3","7","Male","","false","","","","","[1342.6000000000931,686.8999999999069]","./assets/img/canyon/memory/13.jpg","[""ArrowDown"",""ArrowRight""]","value training","canyon","17","{""ArrowUp,ArrowLeft"":26,""ArrowUp,ArrowRight"":10,""ArrowDown,ArrowLeft"":5,""ArrowDown,ArrowRight"":17}","false","ArrowDown,ArrowRight","false","","","revaluation","2","8","","",""
"html-keyboard-response","294","1282530","0.0-4.0-2.1-1.54","spark_pilot_2","8152","3","7","Male","","","","","","","null","<div style=""font-size:60px;"">+</div>","null","fixation","","","","","","","","","","","9","","",""
"revaluation","295","1288555","0.0-4.0-2.1-0.55","spark_pilot_2","8152","3","7","Male","","false","","","","","[924.6000000000931,875.2999999998137]","./assets/img/canyon/memory/21.jpg","[""ArrowUp"",""ArrowRight""]","value training","canyon","10","{""ArrowUp,ArrowLeft"":26,""ArrowUp,ArrowRight"":10,""ArrowDown,ArrowLeft"":5,""ArrowDown,ArrowRight"":17}","false","ArrowUp,ArrowRight","false","","","revaluation","2","10","","",""
"html-keyboard-response","296","1289058","0.0-4.0-2.1-1.55","spark_pilot_2","8152","3","7","Male","","","","","","","null","<div style=""font-size:60px;"">+</div>","null","fixation","","","","","","","","","","","11","","",""
"revaluation","297","1295082","0.0-4.0-2.1-0.56","spark_pilot_2","8152","3","7","Male","","false","","","","","[898.8000000002794,452.3000000002794]","./assets/img/canyon/memory/27.jpg","[""ArrowDown"",""ArrowRight""]","value training","canyon","17","{""ArrowUp,ArrowLeft"":26,""ArrowUp,ArrowRight"":10,""ArrowDown,ArrowLeft"":5,""ArrowDown,ArrowRight"":17}","false","ArrowDown,ArrowRight","false","","","revaluation","2","12","","",""
"html-keyboard-response","298","1295586","0.0-4.0-2.1-1.56","spark_pilot_2","8152","3","7","Male","","","","","","","null","<div style=""font-size:60px;"">+</div>","null","fixation","","","","","","","","","","","13","","",""
"revaluation","299","1301611","0.0-4.0-2.1-0.57","spark_pilot_2","8152","3","7","Male","","false","","","","","[630,1288.3000000002794]","./assets/img/canyon/memory/15.jpg","[""ArrowUp"",""ArrowLeft""]","value training","canyon","26","{""ArrowUp,ArrowLeft"":26,""ArrowUp,ArrowRight"":10,""ArrowDown,ArrowLeft"":5,""ArrowDown,ArrowRight"":17}","true","ArrowUp,ArrowLeft","false","","","revaluation","2","14","","",""
"html-keyboard-response","300","1302114","0.0-4.0-2.1-1.57","spark_pilot_2","8152","3","7","Male","","","","","","","null","<div style=""font-size:60px;"">+</div>","null","fixation","","","","","","","","","","","15","","",""
"revaluation","301","1308139","0.0-4.0-2.1-0.58","spark_pilot_2","8152","3","7","Male","","false","","","","","[798.3000000002794,619]","./assets/img/canyon/memory/1.jpg","[""ArrowUp"",""ArrowLeft""]","value training","canyon","26","{""ArrowUp,ArrowLeft"":26,""ArrowUp,ArrowRight"":10,""ArrowDown,ArrowLeft"":5,""ArrowDown,ArrowRight"":17}","true","ArrowUp,ArrowLeft","false","","","revaluation","2","16","","",""
"html-keyboard-response","302","1308642","0.0-4.0-2.1-1.58","spark_pilot_2","8152","3","7","Male","","","","","","","null","<div style=""font-size:60px;"">+</div>","null","fixation","","","","","","","","","","","17","","",""
"revaluation","303","1314667","0.0-4.0-2.1-0.59","spark_pilot_2","8152","3","7","Male","","false","","","","","[949.3999999999069,489.09999999962747]","./assets/img/canyon/memory/31.jpg","[""ArrowUp"",""ArrowLeft""]","value training","canyon","26","{""ArrowUp,ArrowLeft"":26,""ArrowUp,ArrowRight"":10,""ArrowDown,ArrowLeft"":5,""ArrowDown,ArrowRight"":17}","true","ArrowUp,ArrowLeft","false","","","revaluation","2","18","","",""
"html-keyboard-response","304","1315170","0.0-4.0-2.1-1.59","spark_pilot_2","8152","3","7","Male","","","","","","","null","<div style=""font-size:60px;"">+</div>","null","fixation","","","","","","","","","","","19","","",""
"revaluation","305","1319187","0.0-4.0-2.1-0.60","spark_pilot_2","8152","3","7","Male","","false","","","","","[733.2000000001863]","./assets/img/canyon/catch/0.jpg","[""spaceBar""]","value training","canyon","0","{""ArrowUp,ArrowLeft"":26,""ArrowUp,ArrowRight"":10,""ArrowDown,ArrowLeft"":5,""ArrowDown,ArrowRight"":17}","true","spaceBar","true","","","revaluation","2","20","","",""
"html-keyboard-response","306","1319690","0.0-4.0-2.1-1.60","spark_pilot_2","8152","3","7","Male","","","","","","","null","<div style=""font-size:60px;"">+</div>","null","fixation","","","","","","","","","","","21","","",""
