"trial_type","trial_index","time_elapsed","internal_node_id","task_version","subject_id","assigned_condition","age","gender","success","timeout","failed_images","failed_audio","failed_video","browser_interaction","rt","stimulus","response","task_part","environment","score","rewardMap","correct","fullState","isCatch","numberMissed","duration","condition","order","trial_num","key_press","ground_truth","bonus"
"pavlovia","0","1209","0.0-0.0","spark_pilot_2","7472","2","20","Female","","","","","","","","","","","","","","","","","","","","","","","",""
"preload","1","8110","0.0-1.0","spark_pilot_2","7472","2","20","Female","true","false","[]","[]","[]","[{""event"":""fullscreenenter"",""trial"":2,""time"":19901}]","","","","","","","","","","","","","","","","","",""
"fullscreen","2","20886","0.0-2.0","spark_pilot_2","7472","2","20","Female","true","","","","","","","","","","","","","","","","","","","","","","",""
"audio-button-response","3","22286","0.0-3.0-0.0-0.0","spark_pilot_2","7472","2","20","Female","","","","","","","1261","./assets/audio/audiotest/turtle.mp3","2","audio_test","","","","","","","","","","","","","",""
"learning-instructions","4","32440","0.0-3.0-1.0-0.0","spark_pilot_2","7472","2","20","Female","","","","","","","2355.2999999523163","<p> Welcome! Please remember to stay in fullscreen mode and don't click away from the experiment. </p>","","instructions","","","","","","","","","","","","","",""
"learning-instructions","5","42896","0.0-3.0-1.0-0.1","spark_pilot_2","7472","2","20","Female","","","","","","","1101.6000000238419","<p> Today you will be playing a game to earn treasure. </p>
            <p> At the end of the experiment, you will earn a bonus based on how much treasure you find. </p>
            <img src='./assets/img/instructions/treasure.jpg' class='instructions-image'>","","instructions","","","","","","","","","","","","","",""
"learning-instructions","6","53178","0.0-3.0-1.0-0.2","spark_pilot_2","7472","2","20","Female","","","","","","","1053.7999999523163","<p> Animals have hidden treasure in treasure chests. </p>
            <p> You need to first find an animal and then choose which of their treasure chests to search. </p>
            <img src='./assets/img/space/animals/cat.jpg' class='instructions-image'>","","instructions","","","","","","","","","","","","","",""
"learning-instructions","7","69311","0.0-3.0-1.0-0.3","spark_pilot_2","7472","2","20","Female","","","","","","","2006.3000000715256","<p> In each round, you will search for treasure in a different place. In the real game, there will be two rounds. </p>
            <p> You will begin with a separate, practice round where you will search for treasure in outer space. </p>
            <img src='./assets/img/space/0.jpg' class='instructions-image'>","","instructions","","","","","","","","","","","","","",""
"learning-instructions","8","82196","0.0-3.0-1.0-0.4","spark_pilot_2","7472","2","20","Female","","","","","","","521.5999999046326","<p> On every turn, you will see a picture of the place that you are in, but the specific image may be different each time. </p>
            <p> For example, both of these images mean you are in outer space. </p>
            <img src='./assets/img/instructions/outerspace.jpg' class='instructions-image'>","","instructions","","","","","","","","","","","","","",""
"learning-instructions","9","91931","0.0-3.0-1.0-0.5","spark_pilot_2","7472","2","20","Female","","","","","","","946.7000000476837","<p> You need to decide which direction to travel in. </p>
            <p> You can choose between going <b>up or down</b> by using the arrow keys. </p>
            <img src='./assets/img/instructions/updown.jpg' class='instructions-image'>","","instructions","","","","","","","","","","","","","",""
"learning-instructions","10","111994","0.0-3.0-1.0-0.6","spark_pilot_2","7472","2","20","Female","","","","","","","10279.899999976158","<p> You will have <b>2 seconds</b> to make your choice. </p>
            <p> If you do not make a choice within 2 seconds, you will not find an animal or earn treasure. </p>
            <img src='./assets/img/instructions/2seconds.jpg' class='instructions-image'>","","instructions","","","","","","","","","","","","","",""
"learning-instructions","11","120844","0.0-3.0-1.0-0.7","spark_pilot_2","7472","2","20","Female","","","","","","","879.7000000476837","<p> Let’s try practicing that now! </p>
            <p> When you see a picture of the place you are in, press the <b>up</b> key to travel up. </p>
            <img src='./assets/img/instructions/pressUp.jpg' class='instructions-image'>","","instructions","","","","","","","","","","","","","",""
"revaluation","12","124889","0.0-3.0-2.0-0.0","spark_pilot_2","7472","2","20","Female","","false","","","","","[635.3999999761581]","./assets/img/space/0.jpg","[""ArrowUp""]","first stage practice","space","0","null","null","ArrowUp","false","","","","","","","",""
"html-keyboard-response","13","125397","0.0-3.0-2.0-1.0","spark_pilot_2","7472","2","20","Female","","","","","","","null","<div style=""font-size:60px;"">+</div>","null","fixation","","","","","","","","","","","","","",""
"revaluation","14","129423","0.0-3.0-2.0-0.1","spark_pilot_2","7472","2","20","Female","","false","","","","","[1038.3999999761581]","./assets/img/space/1.jpg","[""ArrowUp""]","first stage practice","space","0","null","null","ArrowUp","false","","","","","","","",""
"html-keyboard-response","15","129942","0.0-3.0-2.0-1.1","spark_pilot_2","7472","2","20","Female","","","","","","","null","<div style=""font-size:60px;"">+</div>","null","fixation","","","","","","","","","","","","","",""
"revaluation","16","133972","0.0-3.0-2.0-0.2","spark_pilot_2","7472","2","20","Female","","false","","","","","[823.5]","./assets/img/space/2.jpg","[""ArrowUp""]","first stage practice","space","0","null","null","ArrowUp","false","","","","","","","",""
"html-keyboard-response","17","134492","0.0-3.0-2.0-1.2","spark_pilot_2","7472","2","20","Female","","","","","","","null","<div style=""font-size:60px;"">+</div>","null","fixation","","","","","","","","","","","","","",""
"learning-instructions","18","139944","0.0-3.0-3.0-0.0","spark_pilot_2","7472","2","20","Female","","","","","","","749.3999999761581","<p> Great job! Now try pressing the <b>down</b> key to travel down. </p>
            <img src='./assets/img/instructions/pressDown.jpg' class='instructions-image'>","","instructions","","","","","","","","","","","","","",""
"revaluation","19","143962","0.0-3.0-4.0-0.0","spark_pilot_2","7472","2","20","Female","","false","","","","","[673.2000000476837]","./assets/img/space/3.jpg","[""ArrowDown""]","first stage practice","space","0","null","null","ArrowDown","false","","","","","","","",""
"html-keyboard-response","20","144482","0.0-3.0-4.0-1.0","spark_pilot_2","7472","2","20","Female","","","","","","","null","<div style=""font-size:60px;"">+</div>","null","fixation","","","","","","","","","","","","","",""
"revaluation","21","148503","0.0-3.0-4.0-0.1","spark_pilot_2","7472","2","20","Female","","false","","","","","[574.2999999523163]","./assets/img/space/4.jpg","[""ArrowDown""]","first stage practice","space","0","null","null","ArrowDown","false","","","","","","","",""
"html-keyboard-response","22","149022","0.0-3.0-4.0-1.1","spark_pilot_2","7472","2","20","Female","","","","","","","null","<div style=""font-size:60px;"">+</div>","null","fixation","","","","","","","","","","","","","",""
"revaluation","23","153043","0.0-3.0-4.0-0.2","spark_pilot_2","7472","2","20","Female","","false","","","","","[484.39999997615814]","./assets/img/space/5.jpg","[""ArrowDown""]","first stage practice","space","0","null","null","ArrowDown","false","","","","","","","",""
"html-keyboard-response","24","153562","0.0-3.0-4.0-1.2","spark_pilot_2","7472","2","20","Female","","","","","","","null","<div style=""font-size:60px;"">+</div>","null","fixation","","","","","","","","","","","","","",""
"learning-instructions","25","164424","0.0-3.0-5.0-0.0","spark_pilot_2","7472","2","20","Female","","","","","","","990","<p> The animals don’t move, so the animal in the upper part of a place will stay in the upper part of a place, and the animal in the lower part of a place will stay in the lower part of a place. </p>","","instructions","","","","","","","","","","","","","",""
"learning-instructions","26","174805","0.0-3.0-5.0-0.1","spark_pilot_2","7472","2","20","Female","","","","","","","1250.6000000238419","<p> Each animal has two treasure chests for you to choose from. </p>
            <p> The amount of treasure in each chest can range from <b> 0 to 40 pieces.</b></p>","","instructions","","","","","","","","","","","","","",""
"learning-instructions","27","187025","0.0-3.0-5.0-0.2","spark_pilot_2","7472","2","20","Female","","","","","","","1020.2999999523163","<p> You should decide which chest to search for treasure by using the <b>left</b> and <b>right</b> arrow keys. </p>
            <p><b> Pay attention to which animal is on the screen, as the animals have different treasure chests. </b></p>
            <img src='./assets/img/instructions/leftright.jpg' class='instructions-image'>","","instructions","","","","","","","","","","","","","",""
"learning-instructions","28","193754","0.0-3.0-5.0-0.3","spark_pilot_2","7472","2","20","Female","","","","","","","359.7999999523163","<p> Let’s try practicing that now. </p>
            <p> When you see an animal, choose which chest to search for treasure. </p>
            <img src='./assets/img/instructions/chooseChest.jpg' class='instructions-image'>","","instructions","","","","","","","","","","","","","",""
"revaluation","29","197783","0.0-3.0-6.0-0.0","spark_pilot_2","7472","2","20","Female","","false","","","","","[783]","./assets/img/space/animals/rabbit.jpg","[""ArrowRight""]","second stage practice","space","23","{""ArrowUp,ArrowLeft"":3,""ArrowUp,ArrowRight"":36,""ArrowDown,ArrowLeft"":15,""ArrowDown,ArrowRight"":23}","true","ArrowDown,ArrowRight","","","","","","","","",""
"html-keyboard-response","30","198292","0.0-3.0-6.0-1.0","spark_pilot_2","7472","2","20","Female","","","","","","","null","<div style=""font-size:60px;"">+</div>","null","fixation","","","","","","","","","","","","","",""
"revaluation","31","202323","0.0-3.0-6.0-0.1","spark_pilot_2","7472","2","20","Female","","false","","","","","[545]","./assets/img/space/animals/cat.jpg","[""ArrowLeft""]","second stage practice","space","3","{""ArrowUp,ArrowLeft"":3,""ArrowUp,ArrowRight"":36,""ArrowDown,ArrowLeft"":15,""ArrowDown,ArrowRight"":23}","false","ArrowUp,ArrowLeft","","","","","","","","",""
"html-keyboard-response","32","202842","0.0-3.0-6.0-1.1","spark_pilot_2","7472","2","20","Female","","","","","","","null","<div style=""font-size:60px;"">+</div>","null","fixation","","","","","","","","","","","","","",""
"revaluation","33","206873","0.0-3.0-6.0-0.2","spark_pilot_2","7472","2","20","Female","","false","","","","","[494.60000002384186]","./assets/img/space/animals/rabbit.jpg","[""ArrowLeft""]","second stage practice","space","15","{""ArrowUp,ArrowLeft"":3,""ArrowUp,ArrowRight"":36,""ArrowDown,ArrowLeft"":15,""ArrowDown,ArrowRight"":23}","false","ArrowDown,ArrowLeft","","","","","","","","",""
"html-keyboard-response","34","207382","0.0-3.0-6.0-1.2","spark_pilot_2","7472","2","20","Female","","","","","","","null","<div style=""font-size:60px;"">+</div>","null","fixation","","","","","","","","","","","","","",""
"revaluation","35","211403","0.0-3.0-6.0-0.3","spark_pilot_2","7472","2","20","Female","","false","","","","","[364.59999990463257]","./assets/img/space/animals/cat.jpg","[""ArrowRight""]","second stage practice","space","36","{""ArrowUp,ArrowLeft"":3,""ArrowUp,ArrowRight"":36,""ArrowDown,ArrowLeft"":15,""ArrowDown,ArrowRight"":23}","true","ArrowUp,ArrowRight","","","","","","","","",""
"html-keyboard-response","36","211922","0.0-3.0-6.0-1.3","spark_pilot_2","7472","2","20","Female","","","","","","","null","<div style=""font-size:60px;"">+</div>","null","fixation","","","","","","","","","","","","","",""
"learning-instructions","37","230469","0.0-3.0-7.0-0.0","spark_pilot_2","7472","2","20","Female","","","","","","","684.3999999761581","<p> Great job. Now let’s try putting it together. </p>
            <p> On each turn, you will first see a picture to remind you of the place you are in, and you need to choose whether to go up or down. </p>
            <p> Then you will see an animal and choose which of its chests to search for treasure. </p>","","instructions","","","","","","","","","","","","","",""
"learning-instructions","38","240115","0.0-3.0-7.0-0.1","spark_pilot_2","7472","2","20","Female","","","","","","","451.2000000476837","<p> When you choose whether to go up or down, try to go to the animal with the chest with the most treasure. </p>
            <p> Try practicing that now! </p>","","instructions","","","","","","","","","","","","","",""
"revaluation","39","246172","0.0-3.0-8.0-0.0","spark_pilot_2","7472","2","20","Female","","false","","","","","[573,1147.3000000715256]","./assets/img/space/6.jpg","[""ArrowUp"",""ArrowRight""]","full practice","space","36","{""ArrowUp,ArrowLeft"":3,""ArrowUp,ArrowRight"":36,""ArrowDown,ArrowLeft"":15,""ArrowDown,ArrowRight"":23}","true","ArrowUp,ArrowRight","false","","","","","","","",""
"html-keyboard-response","40","246682","0.0-3.0-8.0-1.0","spark_pilot_2","7472","2","20","Female","","","","","","","null","<div style=""font-size:60px;"">+</div>","null","fixation","","","","","","","","","","","","","",""
"revaluation","41","252733","0.0-3.0-8.0-0.1","spark_pilot_2","7472","2","20","Female","","false","","","","","[395.60000002384186,877.1999999284744]","./assets/img/space/7.jpg","[""ArrowDown"",""ArrowLeft""]","full practice","space","15","{""ArrowUp,ArrowLeft"":3,""ArrowUp,ArrowRight"":36,""ArrowDown,ArrowLeft"":15,""ArrowDown,ArrowRight"":23}","false","ArrowDown,ArrowLeft","false","","","","","","","",""
"html-keyboard-response","42","253252","0.0-3.0-8.0-1.1","spark_pilot_2","7472","2","20","Female","","","","","","","null","<div style=""font-size:60px;"">+</div>","null","fixation","","","","","","","","","","","","","",""
"revaluation","43","259293","0.0-3.0-8.0-0.2","spark_pilot_2","7472","2","20","Female","","false","","","","","[375,1052.3000000715256]","./assets/img/space/8.jpg","[""ArrowDown"",""ArrowRight""]","full practice","space","23","{""ArrowUp,ArrowLeft"":3,""ArrowUp,ArrowRight"":36,""ArrowDown,ArrowLeft"":15,""ArrowDown,ArrowRight"":23}","false","ArrowDown,ArrowRight","false","","","","","","","",""
"html-keyboard-response","44","259812","0.0-3.0-8.0-1.2","spark_pilot_2","7472","2","20","Female","","","","","","","null","<div style=""font-size:60px;"">+</div>","null","fixation","","","","","","","","","","","","","",""
"revaluation","45","265863","0.0-3.0-8.0-0.3","spark_pilot_2","7472","2","20","Female","","false","","","","","[724.8000000715256,339.10000002384186]","./assets/img/space/9.jpg","[""ArrowUp"",""ArrowLeft""]","full practice","space","3","{""ArrowUp,ArrowLeft"":3,""ArrowUp,ArrowRight"":36,""ArrowDown,ArrowLeft"":15,""ArrowDown,ArrowRight"":23}","false","ArrowUp,ArrowLeft","false","","","","","","","",""
"html-keyboard-response","46","266372","0.0-3.0-8.0-1.3","spark_pilot_2","7472","2","20","Female","","","","","","","null","<div style=""font-size:60px;"">+</div>","null","fixation","","","","","","","","","","","","","",""
"revaluation","47","272383","0.0-3.0-8.0-0.4","spark_pilot_2","7472","2","20","Female","","false","","","","","[1044.5,519.1999999284744]","./assets/img/space/10.jpg","[""ArrowDown"",""ArrowRight""]","full practice","space","23","{""ArrowUp,ArrowLeft"":3,""ArrowUp,ArrowRight"":36,""ArrowDown,ArrowLeft"":15,""ArrowDown,ArrowRight"":23}","false","ArrowDown,ArrowRight","false","","","","","","","",""
"html-keyboard-response","48","272885","0.0-3.0-8.0-1.4","spark_pilot_2","7472","2","20","Female","","","","","","","null","<div style=""font-size:60px;"">+</div>","null","fixation","","","","","","","","","","","","","",""
"learning-instructions","49","285674","0.0-3.0-9.0-0.0","spark_pilot_2","7472","2","20","Female","","","","","","","1511.3000000715256","<p> One last thing: sometimes, you will see a robber. The robber can be anywhere in the picture. </p>
            <p> If you do not stop them, you will lose treasure. </p>
            <img src='./assets/img/instructions/robber.jpg' class='instructions-image'>","","instructions","","","","","","","","","","","","","",""
"learning-instructions","50","294524","0.0-3.0-9.0-0.1","spark_pilot_2","7472","2","20","Female","","","","","","","690.2999999523163","<p> If you see the robber, you should <b>press the space bar</b> rather than using the arrow keys. </p>
            <p> Try practicing that now! </p>","","instructions","","","","","","","","","","","","","",""
"revaluation","51","298542","0.0-3.0-10.0-0.0","spark_pilot_2","7472","2","20","Female","","false","","","","","[1004.3000000715256]","./assets/img/space/catch/0.jpg","[""spaceBar""]","catch practice","space","0","{""ArrowUp,ArrowLeft"":3,""ArrowUp,ArrowRight"":36,""ArrowDown,ArrowLeft"":15,""ArrowDown,ArrowRight"":23}","true","spaceBar","true","","","","","","","",""
"html-keyboard-response","52","299061","0.0-3.0-10.0-1.0","spark_pilot_2","7472","2","20","Female","","","","","","","null","<div style=""font-size:60px;"">+</div>","null","fixation","","","","","","","","","","","","","",""
"revaluation","53","303090","0.0-3.0-10.0-0.1","spark_pilot_2","7472","2","20","Female","","false","","","","","[465.89999997615814]","./assets/img/space/catch/1.jpg","[""spaceBar""]","catch practice","space","0","{""ArrowUp,ArrowLeft"":3,""ArrowUp,ArrowRight"":36,""ArrowDown,ArrowLeft"":15,""ArrowDown,ArrowRight"":23}","true","spaceBar","true","","","","","","","",""
"html-keyboard-response","54","303601","0.0-3.0-10.0-1.1","spark_pilot_2","7472","2","20","Female","","","","","","","null","<div style=""font-size:60px;"">+</div>","null","fixation","","","","","","","","","","","","","",""
"revaluation","55","307627","0.0-3.0-10.0-0.2","spark_pilot_2","7472","2","20","Female","","false","","","","","[245.79999995231628]","./assets/img/space/catch/2.jpg","[""spaceBar""]","catch practice","space","0","{""ArrowUp,ArrowLeft"":3,""ArrowUp,ArrowRight"":36,""ArrowDown,ArrowLeft"":15,""ArrowDown,ArrowRight"":23}","true","spaceBar","true","","","","","","","",""
"html-keyboard-response","56","308131","0.0-3.0-10.0-1.2","spark_pilot_2","7472","2","20","Female","","","","","","","null","<div style=""font-size:60px;"">+</div>","null","fixation","","","","","","","","","","","","","",""
"learning-instructions","57","323608","0.0-3.0-11.0-0.0","spark_pilot_2","7472","2","20","Female","","","","","","","744.6999999284744","<p> After you explore a place to find treasure, it will be time to play a different game. </p>
            <p> During this game, red dots will appear on the screen and fall down slowly. </p>
            <p><b> You must click on them before they reach the bottom. </b></p>
            <img src='./assets/img/instructions/dotGame.jpg' class='instructions-image'>","","instructions","","","","","","","","","","","","","",""
"learning-instructions","58","331046","0.0-3.0-11.0-0.1","spark_pilot_2","7472","2","20","Female","","","","","","","954.5","<p> For every dot you click, you will earn additional treasure. </p>
            <p> Let’s try practicing that now. </p>","","instructions","","","","","","","","","","","","","",""
"revaluation","59","346052","0.0-3.0-12.0-0.0","spark_pilot_2","7472","2","20","Female","","","","","","","[56,55]","","","rest practice","","20","","","","","0","15000","","","","","",""
"learning-instructions","60","353074","0.0-3.0-13.0-0.0-0.0","spark_pilot_2","7472","2","20","Female","","","","","","","891.6999999284744","<p> Now, you will practice a shortened version of the game to get a sense of how it all fits together. </p>","","instructions","","","","","","","","","","","","","",""
"learning-instructions","61","357892","0.0-3.0-13.0-0.0-0.1","spark_pilot_2","7472","2","20","Female","","","","","","","800.3999999761581","<p>This time you are searching for treasure in outer space.</p>","","instructions","","","","","","","","","","","","","",""
"learning-instructions","62","373233","0.0-3.0-13.0-1.0-0.0","spark_pilot_2","7472","2","20","Female","","","","","","","561.0999999046326","<p> Remember, when you see a picture of the place, use the up and down keys to <b>find an animal</b>.</p>
            <p> When you encounter an animal, you should use the left and right keys to <b>select a treasure chest</b>.</p>
            <p> Don't forget to look out for the robber! </p>","","instructions","","","","","","","","","","","","","",""
"revaluation","63","379276","0.0-3.0-13.0-2.0-0.0","spark_pilot_2","7472","2","20","Female","","false","","","","","[806.2999999523163,431.39999997615814]","./assets/img/space/11.jpg","[""ArrowUp"",""ArrowRight""]","practice block","space","36","{""ArrowUp,ArrowLeft"":3,""ArrowUp,ArrowRight"":36,""ArrowDown,ArrowLeft"":15,""ArrowDown,ArrowRight"":23}","true","ArrowUp,ArrowRight","false","","","","","","","",""
"html-keyboard-response","64","379780","0.0-3.0-13.0-2.0-1.0","spark_pilot_2","7472","2","20","Female","","","","","","","null","<div style=""font-size:60px;"">+</div>","null","fixation","","","","","","","","","","","","","",""
"revaluation","65","385830","0.0-3.0-13.0-2.0-0.1","spark_pilot_2","7472","2","20","Female","","false","","","","","[677.3000000715256,551.6000000238419]","./assets/img/space/12.jpg","[""ArrowUp"",""ArrowRight""]","practice block","space","36","{""ArrowUp,ArrowLeft"":3,""ArrowUp,ArrowRight"":36,""ArrowDown,ArrowLeft"":15,""ArrowDown,ArrowRight"":23}","true","ArrowUp,ArrowRight","false","","","","","","","",""
"html-keyboard-response","66","386332","0.0-3.0-13.0-2.0-1.1","spark_pilot_2","7472","2","20","Female","","","","","","","null","<div style=""font-size:60px;"">+</div>","null","fixation","","","","","","","","","","","","","",""
"revaluation","67","392341","0.0-3.0-13.0-2.0-0.2","spark_pilot_2","7472","2","20","Female","","false","","","","","[678.2999999523163,466]","./assets/img/space/13.jpg","[""ArrowDown"",""ArrowLeft""]","practice block","space","15","{""ArrowUp,ArrowLeft"":3,""ArrowUp,ArrowRight"":36,""ArrowDown,ArrowLeft"":15,""ArrowDown,ArrowRight"":23}","false","ArrowDown,ArrowLeft","false","","","","","","","",""
"html-keyboard-response","68","392861","0.0-3.0-13.0-2.0-1.2","spark_pilot_2","7472","2","20","Female","","","","","","","null","<div style=""font-size:60px;"">+</div>","null","fixation","","","","","","","","","","","","","",""
"revaluation","69","398902","0.0-3.0-13.0-2.0-0.3","spark_pilot_2","7472","2","20","Female","","false","","","","","[719.5999999046326,401.60000002384186]","./assets/img/space/14.jpg","[""ArrowUp"",""ArrowRight""]","practice block","space","36","{""ArrowUp,ArrowLeft"":3,""ArrowUp,ArrowRight"":36,""ArrowDown,ArrowLeft"":15,""ArrowDown,ArrowRight"":23}","true","ArrowUp,ArrowRight","false","","","","","","","",""
"html-keyboard-response","70","399406","0.0-3.0-13.0-2.0-1.3","spark_pilot_2","7472","2","20","Female","","","","","","","null","<div style=""font-size:60px;"">+</div>","null","fixation","","","","","","","","","","","","","",""
"revaluation","71","405414","0.0-3.0-13.0-2.0-0.4","spark_pilot_2","7472","2","20","Female","","false","","","","","[724,402.1999999284744]","./assets/img/space/11.jpg","[""ArrowDown"",""ArrowRight""]","practice block","space","23","{""ArrowUp,ArrowLeft"":3,""ArrowUp,ArrowRight"":36,""ArrowDown,ArrowLeft"":15,""ArrowDown,ArrowRight"":23}","false","ArrowDown,ArrowRight","false","","","","","","","",""
"html-keyboard-response","72","405916","0.0-3.0-13.0-2.0-1.4","spark_pilot_2","7472","2","20","Female","","","","","","","null","<div style=""font-size:60px;"">+</div>","null","fixation","","","","","","","","","","","","","",""
"revaluation","73","411920","0.0-3.0-13.0-2.0-0.5","spark_pilot_2","7472","2","20","Female","","false","","","","","[685.7999999523163,533.1000000238419]","./assets/img/space/12.jpg","[""ArrowUp"",""ArrowRight""]","practice block","space","36","{""ArrowUp,ArrowLeft"":3,""ArrowUp,ArrowRight"":36,""ArrowDown,ArrowLeft"":15,""ArrowDown,ArrowRight"":23}","true","ArrowUp,ArrowRight","false","","","","","","","",""
"html-keyboard-response","74","412422","0.0-3.0-13.0-2.0-1.5","spark_pilot_2","7472","2","20","Female","","","","","","","null","<div style=""font-size:60px;"">+</div>","null","fixation","","","","","","","","","","","","","",""
"revaluation","75","418431","0.0-3.0-13.0-2.0-0.6","spark_pilot_2","7472","2","20","Female","","false","","","","","[637.7000000476837,366.2999999523163]","./assets/img/space/13.jpg","[""ArrowDown"",""ArrowRight""]","practice block","space","23","{""ArrowUp,ArrowLeft"":3,""ArrowUp,ArrowRight"":36,""ArrowDown,ArrowLeft"":15,""ArrowDown,ArrowRight"":23}","false","ArrowDown,ArrowRight","false","","","","","","","",""
"html-keyboard-response","76","418933","0.0-3.0-13.0-2.0-1.6","spark_pilot_2","7472","2","20","Female","","","","","","","null","<div style=""font-size:60px;"">+</div>","null","fixation","","","","","","","","","","","","","",""
"revaluation","77","424938","0.0-3.0-13.0-2.0-0.7","spark_pilot_2","7472","2","20","Female","","false","","","","","[657.5,247.29999995231628]","./assets/img/space/14.jpg","[""ArrowUp"",""ArrowRight""]","practice block","space","36","{""ArrowUp,ArrowLeft"":3,""ArrowUp,ArrowRight"":36,""ArrowDown,ArrowLeft"":15,""ArrowDown,ArrowRight"":23}","true","ArrowUp,ArrowRight","false","","","","","","","",""
"html-keyboard-response","78","425440","0.0-3.0-13.0-2.0-1.7","spark_pilot_2","7472","2","20","Female","","","","","","","null","<div style=""font-size:60px;"">+</div>","null","fixation","","","","","","","","","","","","","",""
"revaluation","79","429444","0.0-3.0-13.0-2.0-0.8","spark_pilot_2","7472","2","20","Female","","false","","","","","[600.2999999523163]","./assets/img/space/catch/3.jpg","[""spaceBar""]","practice block","space","0","{""ArrowUp,ArrowLeft"":3,""ArrowUp,ArrowRight"":36,""ArrowDown,ArrowLeft"":15,""ArrowDown,ArrowRight"":23}","true","spaceBar","true","","","","","","","",""
"html-keyboard-response","80","429945","0.0-3.0-13.0-2.0-1.8","spark_pilot_2","7472","2","20","Female","","","","","","","null","<div style=""font-size:60px;"">+</div>","null","fixation","","","","","","","","","","","","","",""
"learning-instructions","81","444950","0.0-3.0-13.0-3.0-0.0","spark_pilot_2","7472","2","20","Female","","","","","","","841","<p> Now, you will travel with a friend who will choose whether you go up or down first. </p>
            <p> On these turns, you will just see the animal that they found. You will still get to choose which chest to search for treasure.</p>","","instructions","","","","","","","","","","","","","",""
"revaluation","82","448978","0.0-3.0-13.0-4.0-0.0","spark_pilot_2","7472","2","20","Female","","false","","","","","[980.2999999523163]","./assets/img/space/animals/cat.jpg","[""ArrowRight""]","practice block","space","36","{""ArrowUp,ArrowLeft"":3,""ArrowUp,ArrowRight"":36,""ArrowDown,ArrowLeft"":15,""ArrowDown,ArrowRight"":23}","true","ArrowUp,ArrowRight","","","","","","","","",""
"html-keyboard-response","83","449495","0.0-3.0-13.0-4.0-1.0","spark_pilot_2","7472","2","20","Female","","","","","","","null","<div style=""font-size:60px;"">+</div>","null","fixation","","","","","","","","","","","","","",""
"revaluation","84","453523","0.0-3.0-13.0-4.0-0.1","spark_pilot_2","7472","2","20","Female","","false","","","","","[476.2000000476837]","./assets/img/space/animals/cat.jpg","[""ArrowRight""]","practice block","space","36","{""ArrowUp,ArrowLeft"":3,""ArrowUp,ArrowRight"":36,""ArrowDown,ArrowLeft"":15,""ArrowDown,ArrowRight"":23}","true","ArrowUp,ArrowRight","","","","","","","","",""
"html-keyboard-response","85","454027","0.0-3.0-13.0-4.0-1.1","spark_pilot_2","7472","2","20","Female","","","","","","","null","<div style=""font-size:60px;"">+</div>","null","fixation","","","","","","","","","","","","","",""
"revaluation","86","458058","0.0-3.0-13.0-4.0-0.2","spark_pilot_2","7472","2","20","Female","","false","","","","","[402.8000000715256]","./assets/img/space/animals/rabbit.jpg","[""ArrowRight""]","practice block","space","23","{""ArrowUp,ArrowLeft"":3,""ArrowUp,ArrowRight"":36,""ArrowDown,ArrowLeft"":15,""ArrowDown,ArrowRight"":23}","true","ArrowDown,ArrowRight","","","","","","","","",""
"html-keyboard-response","87","458578","0.0-3.0-13.0-4.0-1.2","spark_pilot_2","7472","2","20","Female","","","","","","","null","<div style=""font-size:60px;"">+</div>","null","fixation","","","","","","","","","","","","","",""
"revaluation","88","462608","0.0-3.0-13.0-4.0-0.3","spark_pilot_2","7472","2","20","Female","","false","","","","","[572.1000000238419]","./assets/img/space/animals/rabbit.jpg","[""ArrowRight""]","practice block","space","23","{""ArrowUp,ArrowLeft"":3,""ArrowUp,ArrowRight"":36,""ArrowDown,ArrowLeft"":15,""ArrowDown,ArrowRight"":23}","true","ArrowDown,ArrowRight","","","","","","","","",""
"html-keyboard-response","89","463128","0.0-3.0-13.0-4.0-1.3","spark_pilot_2","7472","2","20","Female","","","","","","","null","<div style=""font-size:60px;"">+</div>","null","fixation","","","","","","","","","","","","","",""
"learning-instructions","90","472495","0.0-3.0-13.0-5.0-0.0","spark_pilot_2","7472","2","20","Female","","","","","","","1015.5","<p> Time to play the dot game! </p>
            <p> For 15 seconds, click the red dots on the following screen as they appear. </p>","","instructions","","","","","","","","","","","","","",""
"revaluation","91","487498","0.0-3.0-13.0-6.0-0.0","spark_pilot_2","7472","2","20","Female","","","","","","","[49]","","","rest practice","","10","","","","","0","15000","","","","","",""
"learning-instructions","92","495017","0.0-3.0-13.0-7.0-0.0","spark_pilot_2","7472","2","20","Female","","","","","","","567.9000000953674","<p> You have almost finished this part of the game! </p>
            <p> We are going to ask you to make a few more choices. </p>","","instructions","","","","","","","","","","","","","",""
"learning-instructions","93","510844","0.0-3.0-13.0-7.0-0.1","spark_pilot_2","7472","2","20","Female","","","","","","","724.1000000238419","<p> First, you need to decide whether to go up or down. When you see each picture, use the arrow keys to make your choice. </p>
            <p><b>You will not see which animal you found, but try to get to the one that will give you the most treasure.</b></p>","","instructions","","","","","","","","","","","","","",""
"revaluation","94","511496","0.0-3.0-13.0-8.0","spark_pilot_2","7472","2","20","Female","","false","","","","","[649.7999999523163]","./assets/img/space/15.jpg","[""ArrowDown""]","practice block","space","0","{""ArrowUp,ArrowLeft"":3,""ArrowUp,ArrowRight"":36,""ArrowDown,ArrowLeft"":15,""ArrowDown,ArrowRight"":23}","false","ArrowDown","false","","","","","","","",""
"html-keyboard-response","95","512008","0.0-3.0-13.0-9.0","spark_pilot_2","7472","2","20","Female","","","","","","","null","<div style=""font-size:60px;"">+</div>","null","fixation","","","","","","","","","","","","","",""
"learning-instructions","96","524812","0.0-3.0-13.0-10.0-0.0","spark_pilot_2","7472","2","20","Female","","","","","","","372.90000009536743","<p> Now you will see the animals again and can search their chests for treasure. </p>
            <p> This time, you will not see how much treasure you earned, but you will earn more bonus money for making better choices. </p>","","instructions","","","","","","","","","","","","","",""
"revaluation","97","525167","0.0-3.0-13.0-11.0-0.0","spark_pilot_2","7472","2","20","Female","","false","","","","","[351.7999999523163]","./assets/img/space/animals/cat.jpg","[""ArrowRight""]","practice block","space","0","{""ArrowUp,ArrowLeft"":3,""ArrowUp,ArrowRight"":36,""ArrowDown,ArrowLeft"":15,""ArrowDown,ArrowRight"":23}","true","ArrowUp,ArrowRight","","","","","","","","",""
"html-keyboard-response","98","525678","0.0-3.0-13.0-11.0-1.0","spark_pilot_2","7472","2","20","Female","","","","","","","null","<div style=""font-size:60px;"">+</div>","null","fixation","","","","","","","","","","","","","",""
"revaluation","99","526286","0.0-3.0-13.0-11.0-0.1","spark_pilot_2","7472","2","20","Female","","false","","","","","[605.6999999284744]","./assets/img/space/animals/rabbit.jpg","[""ArrowRight""]","practice block","space","0","{""ArrowUp,ArrowLeft"":3,""ArrowUp,ArrowRight"":36,""ArrowDown,ArrowLeft"":15,""ArrowDown,ArrowRight"":23}","true","ArrowDown,ArrowRight","","","","","","","","",""
"html-keyboard-response","100","526788","0.0-3.0-13.0-11.0-1.1","spark_pilot_2","7472","2","20","Female","","","","","","","null","<div style=""font-size:60px;"">+</div>","null","fixation","","","","","","","","","","","","","",""
"learning-instructions","101","533810","0.0-3.0-14.0-0.0","spark_pilot_2","7472","2","20","Female","","","","","","","1570.3999999761581","<p> Before you start, we're going to ask you a few questions about how the game works. </p>","","instructions","","","","","","","","","","","","","",""
"comp-q","102","541475","0.0-3.0-15.0-0.0-0.0","spark_pilot_2","7472","2","20","Female","","","","","","","791.3999999761581","<p> <b> True or False? </b> </p>
            <p> There can be 50 pieces of treasure in a given animal's chest. </p>","1","comp_question","","","","true","","","","","","","","","",""
"comp-q","103","550056","0.0-3.0-15.0-0.0-1.0","spark_pilot_2","7472","2","20","Female","","","","","","","1076.3999999761581","<p> <b> That's right! </b> The amount of treasure in each chest can range from 0 to 40 pieces. </p>","0","comp_answer","","","","","","","","","","","","","",""
"comp-q","104","559288","0.0-3.0-15.0-0.1-0.1","spark_pilot_2","7472","2","20","Female","","","","","","","1169","<p> <b> True or False? </b> </p><p> In this game, all animals have the same amount of treasure in their left and right chests. </p>","1","comp_question","","","","true","","","","","","","","","",""
"comp-q","105","566744","0.0-3.0-15.0-0.1-1.1","spark_pilot_2","7472","2","20","Female","","","","","","","1404.2000000476837","<p> <b> That's right! </b> Animals have different amounts of treasure in their treasure chests. </p>","0","comp_answer","","","","","","","","","","","","","",""
"comp-q","106","574123","0.0-3.0-15.0-0.2-0.2","spark_pilot_2","7472","2","20","Female","","","","","","","634.6999999284744","<p> <b> True or False? </b> </p><p> The same animal will always be there if you go up in the same place. </p>","0","comp_question","","","","true","","","","","","","","","",""
"comp-q","107","582306","0.0-3.0-15.0-0.2-1.2","spark_pilot_2","7472","2","20","Female","","","","","","","906.8999999761581","<p> <b> That's right! </b> One animal lives in the upper part and one lives in the lower part of every place. </p>","0","comp_answer","","","","","","","","","","","","","",""
"comp-q","108","589731","0.0-3.0-15.0-0.3-0.3","spark_pilot_2","7472","2","20","Female","","","","","","","1001.6000000238419","<p> <b> True or False? </b> </p><p> If you see a different picture, it means you are in a new place. </p>","1","comp_question","","","","true","","","","","","","","","",""
"comp-q","109","603936","0.0-3.0-15.0-0.3-1.3","spark_pilot_2","7472","2","20","Female","","","","","","","1937.1000000238419","<p> <b> That's right! </b> Lots of different images may show the same place. For example,  you may see three different images that all remind you that you are in outer space. </p>","0","comp_answer","","","","","","","","","","","","","",""
"learning-instructions","110","616431","0.0-3.0-16.0-0.0","spark_pilot_2","7472","2","20","Female","","","","","","","1672","<p> Good job. Remember to do your best because the amount of treasure you earn will be converted into bonus money. </p>
            <p> It’s time to start the real game! </p>","","instructions","","","","","","","","","","","","","",""
"learning-instructions","111","620890","0.0-4.0-0.0-0.0","spark_pilot_2","7472","2","20","Female","","","","","","","1000.1000000238419","<p> This time you are searching for treasure in the <b>ocean</b>.</p>","","instructions","","","","","","","","","","","","","",""
"learning-instructions","112","640580","0.0-4.0-0.0-0.1","spark_pilot_2","7472","2","20","Female","","","","","","","821","<p><b>New</b> animals with <b>new</b> treasure chests live here. You need to explore to discover where the animal with the best treasure chest is.</p>
                    <p> Like before, once you figure out which animal has the chest with the most treasure, you should try to get to that animal and select that chest! </p>","","instructions","","","","","","","","","","","","","",""
"learning-instructions","113","655899","0.0-4.0-1.0-0.0","spark_pilot_2","7472","2","20","Female","","","","","","","579.7999999523163","<p> Remember, when you see a picture of the place, use the up and down keys to <b>find an animal</b>.</p>
            <p> When you encounter an animal, you should use the left and right keys to <b>select a treasure chest</b>.</p>
            <p> Don't forget to look out for the robber! </p>","","instructions","","","","","","","","","","","","","",""
"revaluation","114","661948","0.0-4.0-2.0-0.0","spark_pilot_2","7472","2","20","Female","","false","","","","","[729.4000000953674,372.6999999284744]","./assets/img/ocean/memory/6.jpg","[""ArrowUp"",""ArrowRight""]","value training","ocean","10","{""ArrowUp,ArrowLeft"":23,""ArrowUp,ArrowRight"":10,""ArrowDown,ArrowLeft"":8,""ArrowDown,ArrowRight"":30}","false","ArrowUp,ArrowRight","false","","","revaluation","1","0","","",""
"html-keyboard-response","115","662457","0.0-4.0-2.0-1.0","spark_pilot_2","7472","2","20","Female","","","","","","","null","<div style=""font-size:60px;"">+</div>","null","fixation","","","","","","","","","","","1","","",""
"revaluation","116","668487","0.0-4.0-2.0-0.1","spark_pilot_2","7472","2","20","Female","","false","","","","","[430.39999997615814,297.60000002384186]","./assets/img/ocean/memory/33.jpg","[""ArrowUp"",""ArrowLeft""]","value training","ocean","23","{""ArrowUp,ArrowLeft"":23,""ArrowUp,ArrowRight"":10,""ArrowDown,ArrowLeft"":8,""ArrowDown,ArrowRight"":30}","false","ArrowUp,ArrowLeft","false","","","revaluation","1","2","","",""
"html-keyboard-response","117","668998","0.0-4.0-2.0-1.1","spark_pilot_2","7472","2","20","Female","","","","","","","null","<div style=""font-size:60px;"">+</div>","null","fixation","","","","","","","","","","","3","","",""
"revaluation","118","675053","0.0-4.0-2.0-0.2","spark_pilot_2","7472","2","20","Female","","false","","","","","[429.8000000715256,302.7000000476837]","./assets/img/ocean/memory/27.jpg","[""ArrowDown"",""ArrowLeft""]","value training","ocean","8","{""ArrowUp,ArrowLeft"":23,""ArrowUp,ArrowRight"":10,""ArrowDown,ArrowLeft"":8,""ArrowDown,ArrowRight"":30}","false","ArrowDown,ArrowLeft","false","","","revaluation","1","4","","",""
"html-keyboard-response","119","675568","0.0-4.0-2.0-1.2","spark_pilot_2","7472","2","20","Female","","","","","","","null","<div style=""font-size:60px;"">+</div>","null","fixation","","","","","","","","","","","5","","",""
"revaluation","120","681608","0.0-4.0-2.0-0.3","spark_pilot_2","7472","2","20","Female","","false","","","","","[450,262.60000002384186]","./assets/img/ocean/memory/25.jpg","[""ArrowDown"",""ArrowRight""]","value training","ocean","30","{""ArrowUp,ArrowLeft"":23,""ArrowUp,ArrowRight"":10,""ArrowDown,ArrowLeft"":8,""ArrowDown,ArrowRight"":30}","true","ArrowDown,ArrowRight","false","","","revaluation","1","6","","",""
"html-keyboard-response","121","682128","0.0-4.0-2.0-1.3","spark_pilot_2","7472","2","20","Female","","","","","","","null","<div style=""font-size:60px;"">+</div>","null","fixation","","","","","","","","","","","7","","",""
"revaluation","122","688151","0.0-4.0-2.0-0.4","spark_pilot_2","7472","2","20","Female","","false","","","","","[480.39999997615814,272.1999999284744]","./assets/img/ocean/memory/2.jpg","[""ArrowUp"",""ArrowLeft""]","value training","ocean","23","{""ArrowUp,ArrowLeft"":23,""ArrowUp,ArrowRight"":10,""ArrowDown,ArrowLeft"":8,""ArrowDown,ArrowRight"":30}","false","ArrowUp,ArrowLeft","false","","","revaluation","1","8","","",""
"html-keyboard-response","123","688652","0.0-4.0-2.0-1.4","spark_pilot_2","7472","2","20","Female","","","","","","","null","<div style=""font-size:60px;"">+</div>","null","fixation","","","","","","","","","","","9","","",""
"revaluation","124","694656","0.0-4.0-2.0-0.5","spark_pilot_2","7472","2","20","Female","","false","","","","","[566.5999999046326,236.79999995231628]","./assets/img/ocean/memory/14.jpg","[""ArrowDown"",""ArrowRight""]","value training","ocean","30","{""ArrowUp,ArrowLeft"":23,""ArrowUp,ArrowRight"":10,""ArrowDown,ArrowLeft"":8,""ArrowDown,ArrowRight"":30}","true","ArrowDown,ArrowRight","false","","","revaluation","1","10","","",""
"html-keyboard-response","125","695157","0.0-4.0-2.0-1.5","spark_pilot_2","7472","2","20","Female","","","","","","","null","<div style=""font-size:60px;"">+</div>","null","fixation","","","","","","","","","","","11","","",""
"revaluation","126","701162","0.0-4.0-2.0-0.6","spark_pilot_2","7472","2","20","Female","","false","","","","","[730.8000000715256,228]","./assets/img/ocean/memory/39.jpg","[""ArrowUp"",""ArrowLeft""]","value training","ocean","23","{""ArrowUp,ArrowLeft"":23,""ArrowUp,ArrowRight"":10,""ArrowDown,ArrowLeft"":8,""ArrowDown,ArrowRight"":30}","false","ArrowUp,ArrowLeft","false","","","revaluation","1","12","","",""
"html-keyboard-response","127","701663","0.0-4.0-2.0-1.6","spark_pilot_2","7472","2","20","Female","","","","","","","null","<div style=""font-size:60px;"">+</div>","null","fixation","","","","","","","","","","","13","","",""
"revaluation","128","707668","0.0-4.0-2.0-0.7","spark_pilot_2","7472","2","20","Female","","false","","","","","[564.8000000715256,243.59999990463257]","./assets/img/ocean/memory/28.jpg","[""ArrowDown"",""ArrowRight""]","value training","ocean","30","{""ArrowUp,ArrowLeft"":23,""ArrowUp,ArrowRight"":10,""ArrowDown,ArrowLeft"":8,""ArrowDown,ArrowRight"":30}","true","ArrowDown,ArrowRight","false","","","revaluation","1","14","","",""
"html-keyboard-response","129","708171","0.0-4.0-2.0-1.7","spark_pilot_2","7472","2","20","Female","","","","","","","null","<div style=""font-size:60px;"">+</div>","null","fixation","","","","","","","","","","","15","","",""
"revaluation","130","714176","0.0-4.0-2.0-0.8","spark_pilot_2","7472","2","20","Female","","false","","","","","[596.7000000476837,275]","./assets/img/ocean/memory/14.jpg","[""ArrowDown"",""ArrowRight""]","value training","ocean","30","{""ArrowUp,ArrowLeft"":23,""ArrowUp,ArrowRight"":10,""ArrowDown,ArrowLeft"":8,""ArrowDown,ArrowRight"":30}","true","ArrowDown,ArrowRight","false","","","revaluation","1","16","","",""
"html-keyboard-response","131","714678","0.0-4.0-2.0-1.8","spark_pilot_2","7472","2","20","Female","","","","","","","null","<div style=""font-size:60px;"">+</div>","null","fixation","","","","","","","","","","","17","","",""
"revaluation","132","718682","0.0-4.0-2.0-0.9","spark_pilot_2","7472","2","20","Female","","false","","","","","[689.8999999761581]","./assets/img/ocean/catch/3.jpg","[""spaceBar""]","value training","ocean","0","{""ArrowUp,ArrowLeft"":23,""ArrowUp,ArrowRight"":10,""ArrowDown,ArrowLeft"":8,""ArrowDown,ArrowRight"":30}","true","spaceBar","true","","","revaluation","1","18","","",""
"html-keyboard-response","133","719183","0.0-4.0-2.0-1.9","spark_pilot_2","7472","2","20","Female","","","","","","","null","<div style=""font-size:60px;"">+</div>","null","fixation","","","","","","","","","","","19","","",""
"revaluation","134","723189","0.0-4.0-2.0-0.10","spark_pilot_2","7472","2","20","Female","","false","","","","","[594.6000000238419]","./assets/img/ocean/catch/2.jpg","[""spaceBar""]","value training","ocean","0","{""ArrowUp,ArrowLeft"":23,""ArrowUp,ArrowRight"":10,""ArrowDown,ArrowLeft"":8,""ArrowDown,ArrowRight"":30}","true","spaceBar","true","","","revaluation","1","20","","",""
"html-keyboard-response","135","723691","0.0-4.0-2.0-1.10","spark_pilot_2","7472","2","20","Female","","","","","","","null","<div style=""font-size:60px;"">+</div>","null","fixation","","","","","","","","","","","21","","",""
"revaluation","136","729696","0.0-4.0-2.0-0.11","spark_pilot_2","7472","2","20","Female","","false","","","","","[415.7000000476837,305.2999999523163]","./assets/img/ocean/memory/4.jpg","[""ArrowDown"",""ArrowRight""]","value training","ocean","30","{""ArrowUp,ArrowLeft"":23,""ArrowUp,ArrowRight"":10,""ArrowDown,ArrowLeft"":8,""ArrowDown,ArrowRight"":30}","true","ArrowDown,ArrowRight","false","","","revaluation","1","22","","",""
"html-keyboard-response","137","730198","0.0-4.0-2.0-1.11","spark_pilot_2","7472","2","20","Female","","","","","","","null","<div style=""font-size:60px;"">+</div>","null","fixation","","","","","","","","","","","23","","",""
"revaluation","138","736203","0.0-4.0-2.0-0.12","spark_pilot_2","7472","2","20","Female","","false","","","","","[420.39999997615814,178.89999997615814]","./assets/img/ocean/memory/3.jpg","[""ArrowDown"",""ArrowRight""]","value training","ocean","30","{""ArrowUp,ArrowLeft"":23,""ArrowUp,ArrowRight"":10,""ArrowDown,ArrowLeft"":8,""ArrowDown,ArrowRight"":30}","true","ArrowDown,ArrowRight","false","","","revaluation","1","24","","",""
"html-keyboard-response","139","736704","0.0-4.0-2.0-1.12","spark_pilot_2","7472","2","20","Female","","","","","","","null","<div style=""font-size:60px;"">+</div>","null","fixation","","","","","","","","","","","25","","",""
"revaluation","140","742712","0.0-4.0-2.0-0.13","spark_pilot_2","7472","2","20","Female","","false","","","","","[372.7000000476837,232.39999997615814]","./assets/img/ocean/memory/22.jpg","[""ArrowDown"",""ArrowRight""]","value training","ocean","30","{""ArrowUp,ArrowLeft"":23,""ArrowUp,ArrowRight"":10,""ArrowDown,ArrowLeft"":8,""ArrowDown,ArrowRight"":30}","true","ArrowDown,ArrowRight","false","","","revaluation","1","26","","",""
"html-keyboard-response","141","743213","0.0-4.0-2.0-1.13","spark_pilot_2","7472","2","20","Female","","","","","","","null","<div style=""font-size:60px;"">+</div>","null","fixation","","","","","","","","","","","27","","",""
"revaluation","142","749224","0.0-4.0-2.0-0.14","spark_pilot_2","7472","2","20","Female","","false","","","","","[355.10000002384186,544.1999999284744]","./assets/img/ocean/memory/28.jpg","[""ArrowDown"",""ArrowRight""]","value training","ocean","30","{""ArrowUp,ArrowLeft"":23,""ArrowUp,ArrowRight"":10,""ArrowDown,ArrowLeft"":8,""ArrowDown,ArrowRight"":30}","true","ArrowDown,ArrowRight","false","","","revaluation","1","28","","",""
"html-keyboard-response","143","749726","0.0-4.0-2.0-1.14","spark_pilot_2","7472","2","20","Female","","","","","","","null","<div style=""font-size:60px;"">+</div>","null","fixation","","","","","","","","","","","29","","",""
"revaluation","144","755732","0.0-4.0-2.0-0.15","spark_pilot_2","7472","2","20","Female","","false","","","","","[511.59999990463257,261.5]","./assets/img/ocean/memory/4.jpg","[""ArrowDown"",""ArrowRight""]","value training","ocean","30","{""ArrowUp,ArrowLeft"":23,""ArrowUp,ArrowRight"":10,""ArrowDown,ArrowLeft"":8,""ArrowDown,ArrowRight"":30}","true","ArrowDown,ArrowRight","false","","","revaluation","1","30","","",""
"html-keyboard-response","145","756234","0.0-4.0-2.0-1.15","spark_pilot_2","7472","2","20","Female","","","","","","","null","<div style=""font-size:60px;"">+</div>","null","fixation","","","","","","","","","","","31","","",""
"revaluation","146","762239","0.0-4.0-2.0-0.16","spark_pilot_2","7472","2","20","Female","","false","","","","","[404.7999999523163,124.20000004768372]","./assets/img/ocean/memory/16.jpg","[""ArrowDown"",""ArrowRight""]","value training","ocean","30","{""ArrowUp,ArrowLeft"":23,""ArrowUp,ArrowRight"":10,""ArrowDown,ArrowLeft"":8,""ArrowDown,ArrowRight"":30}","true","ArrowDown,ArrowRight","false","","","revaluation","1","32","","",""
"html-keyboard-response","147","762740","0.0-4.0-2.0-1.16","spark_pilot_2","7472","2","20","Female","","","","","","","null","<div style=""font-size:60px;"">+</div>","null","fixation","","","","","","","","","","","33","","",""
"revaluation","148","768745","0.0-4.0-2.0-0.17","spark_pilot_2","7472","2","20","Female","","false","","","","","[388.89999997615814,237.70000004768372]","./assets/img/ocean/memory/34.jpg","[""ArrowDown"",""ArrowRight""]","value training","ocean","30","{""ArrowUp,ArrowLeft"":23,""ArrowUp,ArrowRight"":10,""ArrowDown,ArrowLeft"":8,""ArrowDown,ArrowRight"":30}","true","ArrowDown,ArrowRight","false","","","revaluation","1","34","","",""
"html-keyboard-response","149","769247","0.0-4.0-2.0-1.17","spark_pilot_2","7472","2","20","Female","","","","","","","null","<div style=""font-size:60px;"">+</div>","null","fixation","","","","","","","","","","","35","","",""
"revaluation","150","775252","0.0-4.0-2.0-0.18","spark_pilot_2","7472","2","20","Female","","false","","","","","[502,430.7999999523163]","./assets/img/ocean/memory/11.jpg","[""ArrowDown"",""ArrowRight""]","value training","ocean","30","{""ArrowUp,ArrowLeft"":23,""ArrowUp,ArrowRight"":10,""ArrowDown,ArrowLeft"":8,""ArrowDown,ArrowRight"":30}","true","ArrowDown,ArrowRight","false","","","revaluation","1","36","","",""
"html-keyboard-response","151","775753","0.0-4.0-2.0-1.18","spark_pilot_2","7472","2","20","Female","","","","","","","null","<div style=""font-size:60px;"">+</div>","null","fixation","","","","","","","","","","","37","","",""
"revaluation","152","781771","0.0-4.0-2.0-0.19","spark_pilot_2","7472","2","20","Female","","false","","","","","[376,214.29999995231628]","./assets/img/ocean/memory/7.jpg","[""ArrowDown"",""ArrowRight""]","value training","ocean","30","{""ArrowUp,ArrowLeft"":23,""ArrowUp,ArrowRight"":10,""ArrowDown,ArrowLeft"":8,""ArrowDown,ArrowRight"":30}","true","ArrowDown,ArrowRight","false","","","revaluation","1","38","","",""
"html-keyboard-response","153","782272","0.0-4.0-2.0-1.19","spark_pilot_2","7472","2","20","Female","","","","","","","null","<div style=""font-size:60px;"">+</div>","null","fixation","","","","","","","","","","","39","","",""
"revaluation","154","788283","0.0-4.0-2.0-0.20","spark_pilot_2","7472","2","20","Female","","false","","","","","[297,236.10000002384186]","./assets/img/ocean/memory/22.jpg","[""ArrowDown"",""ArrowRight""]","value training","ocean","30","{""ArrowUp,ArrowLeft"":23,""ArrowUp,ArrowRight"":10,""ArrowDown,ArrowLeft"":8,""ArrowDown,ArrowRight"":30}","true","ArrowDown,ArrowRight","false","","","revaluation","1","40","","",""
"html-keyboard-response","155","788784","0.0-4.0-2.0-1.20","spark_pilot_2","7472","2","20","Female","","","","","","","null","<div style=""font-size:60px;"">+</div>","null","fixation","","","","","","","","","","","41","","",""
"revaluation","156","794788","0.0-4.0-2.0-0.21","spark_pilot_2","7472","2","20","Female","","false","","","","","[414.59999990463257,83.19999992847443]","./assets/img/ocean/memory/37.jpg","[""ArrowDown"",""ArrowRight""]","value training","ocean","30","{""ArrowUp,ArrowLeft"":23,""ArrowUp,ArrowRight"":10,""ArrowDown,ArrowLeft"":8,""ArrowDown,ArrowRight"":30}","true","ArrowDown,ArrowRight","false","","","revaluation","1","42","","",""
"html-keyboard-response","157","795289","0.0-4.0-2.0-1.21","spark_pilot_2","7472","2","20","Female","","","","","","","null","<div style=""font-size:60px;"">+</div>","null","fixation","","","","","","","","","","","43","","",""
"revaluation","158","801295","0.0-4.0-2.0-0.22","spark_pilot_2","7472","2","20","Female","","false","","","","","[389,438.59999990463257]","./assets/img/ocean/memory/36.jpg","[""ArrowDown"",""ArrowRight""]","value training","ocean","30","{""ArrowUp,ArrowLeft"":23,""ArrowUp,ArrowRight"":10,""ArrowDown,ArrowLeft"":8,""ArrowDown,ArrowRight"":30}","true","ArrowDown,ArrowRight","false","","","revaluation","1","44","","",""
"html-keyboard-response","159","801797","0.0-4.0-2.0-1.22","spark_pilot_2","7472","2","20","Female","","","","","","","null","<div style=""font-size:60px;"">+</div>","null","fixation","","","","","","","","","","","45","","",""
"revaluation","160","807803","0.0-4.0-2.0-0.23","spark_pilot_2","7472","2","20","Female","","false","","","","","[401.5,260.8000000715256]","./assets/img/ocean/memory/13.jpg","[""ArrowDown"",""ArrowRight""]","value training","ocean","30","{""ArrowUp,ArrowLeft"":23,""ArrowUp,ArrowRight"":10,""ArrowDown,ArrowLeft"":8,""ArrowDown,ArrowRight"":30}","true","ArrowDown,ArrowRight","false","","","revaluation","1","46","","",""
"html-keyboard-response","161","808305","0.0-4.0-2.0-1.23","spark_pilot_2","7472","2","20","Female","","","","","","","null","<div style=""font-size:60px;"">+</div>","null","fixation","","","","","","","","","","","47","","",""
"revaluation","162","814309","0.0-4.0-2.0-0.24","spark_pilot_2","7472","2","20","Female","","false","","","","","[344.10000002384186,183.40000009536743]","./assets/img/ocean/memory/33.jpg","[""ArrowDown"",""ArrowRight""]","value training","ocean","30","{""ArrowUp,ArrowLeft"":23,""ArrowUp,ArrowRight"":10,""ArrowDown,ArrowLeft"":8,""ArrowDown,ArrowRight"":30}","true","ArrowDown,ArrowRight","false","","","revaluation","1","48","","",""
"html-keyboard-response","163","814811","0.0-4.0-2.0-1.24","spark_pilot_2","7472","2","20","Female","","","","","","","null","<div style=""font-size:60px;"">+</div>","null","fixation","","","","","","","","","","","49","","",""
"revaluation","164","818814","0.0-4.0-2.0-0.25","spark_pilot_2","7472","2","20","Female","","false","","","","","[677.3000000715256]","./assets/img/ocean/catch/7.jpg","[""spaceBar""]","value training","ocean","0","{""ArrowUp,ArrowLeft"":23,""ArrowUp,ArrowRight"":10,""ArrowDown,ArrowLeft"":8,""ArrowDown,ArrowRight"":30}","true","spaceBar","true","","","revaluation","1","50","","",""
"html-keyboard-response","165","819316","0.0-4.0-2.0-1.25","spark_pilot_2","7472","2","20","Female","","","","","","","null","<div style=""font-size:60px;"">+</div>","null","fixation","","","","","","","","","","","51","","",""
"revaluation","166","823322","0.0-4.0-2.0-0.26","spark_pilot_2","7472","2","20","Female","","false","","","","","[380.10000002384186]","./assets/img/ocean/catch/5.jpg","[""ArrowDown""]","value training","ocean","-10","{""ArrowUp,ArrowLeft"":23,""ArrowUp,ArrowRight"":10,""ArrowDown,ArrowLeft"":8,""ArrowDown,ArrowRight"":30}","false","ArrowDown","true","","","revaluation","1","52","","",""
"html-keyboard-response","167","823823","0.0-4.0-2.0-1.26","spark_pilot_2","7472","2","20","Female","","","","","","","null","<div style=""font-size:60px;"">+</div>","null","fixation","","","","","","","","","","","53","","",""
"revaluation","168","829830","0.0-4.0-2.0-0.27","spark_pilot_2","7472","2","20","Female","","false","","","","","[483.6999999284744,232.29999995231628]","./assets/img/ocean/memory/16.jpg","[""ArrowDown"",""ArrowRight""]","value training","ocean","30","{""ArrowUp,ArrowLeft"":23,""ArrowUp,ArrowRight"":10,""ArrowDown,ArrowLeft"":8,""ArrowDown,ArrowRight"":30}","true","ArrowDown,ArrowRight","false","","","revaluation","1","54","","",""
"html-keyboard-response","169","830331","0.0-4.0-2.0-1.27","spark_pilot_2","7472","2","20","Female","","","","","","","null","<div style=""font-size:60px;"">+</div>","null","fixation","","","","","","","","","","","55","","",""
"revaluation","170","834336","0.0-4.0-2.0-0.28","spark_pilot_2","7472","2","20","Female","","false","","","","","[516.3999999761581]","./assets/img/ocean/catch/0.jpg","[""spaceBar""]","value training","ocean","0","{""ArrowUp,ArrowLeft"":23,""ArrowUp,ArrowRight"":10,""ArrowDown,ArrowLeft"":8,""ArrowDown,ArrowRight"":30}","true","spaceBar","true","","","revaluation","1","56","","",""
"html-keyboard-response","171","834838","0.0-4.0-2.0-1.28","spark_pilot_2","7472","2","20","Female","","","","","","","null","<div style=""font-size:60px;"">+</div>","null","fixation","","","","","","","","","","","57","","",""
"revaluation","172","840843","0.0-4.0-2.0-0.29","spark_pilot_2","7472","2","20","Female","","false","","","","","[502.2000000476837,269.3000000715256]","./assets/img/ocean/memory/27.jpg","[""ArrowDown"",""ArrowRight""]","value training","ocean","30","{""ArrowUp,ArrowLeft"":23,""ArrowUp,ArrowRight"":10,""ArrowDown,ArrowLeft"":8,""ArrowDown,ArrowRight"":30}","true","ArrowDown,ArrowRight","false","","","revaluation","1","58","","",""
"html-keyboard-response","173","841344","0.0-4.0-2.0-1.29","spark_pilot_2","7472","2","20","Female","","","","","","","null","<div style=""font-size:60px;"">+</div>","null","fixation","","","","","","","","","","","59","","",""
"revaluation","174","847351","0.0-4.0-2.0-0.30","spark_pilot_2","7472","2","20","Female","","false","","","","","[393.2999999523163,311.90000009536743]","./assets/img/ocean/memory/39.jpg","[""ArrowDown"",""ArrowRight""]","value training","ocean","30","{""ArrowUp,ArrowLeft"":23,""ArrowUp,ArrowRight"":10,""ArrowDown,ArrowLeft"":8,""ArrowDown,ArrowRight"":30}","true","ArrowDown,ArrowRight","false","","","revaluation","1","60","","",""
"html-keyboard-response","175","847853","0.0-4.0-2.0-1.30","spark_pilot_2","7472","2","20","Female","","","","","","","null","<div style=""font-size:60px;"">+</div>","null","fixation","","","","","","","","","","","61","","",""
"revaluation","176","853858","0.0-4.0-2.0-0.31","spark_pilot_2","7472","2","20","Female","","false","","","","","[974.8999999761581,274.2000000476837]","./assets/img/ocean/memory/13.jpg","[""ArrowDown"",""ArrowRight""]","value training","ocean","30","{""ArrowUp,ArrowLeft"":23,""ArrowUp,ArrowRight"":10,""ArrowDown,ArrowLeft"":8,""ArrowDown,ArrowRight"":30}","true","ArrowDown,ArrowRight","false","","","revaluation","1","62","","",""
"html-keyboard-response","177","854366","0.0-4.0-2.0-1.31","spark_pilot_2","7472","2","20","Female","","","","","","","null","<div style=""font-size:60px;"">+</div>","null","fixation","","","","","","","","","","","63","","",""
"revaluation","178","860372","0.0-4.0-2.0-0.32","spark_pilot_2","7472","2","20","Female","","false","","","","","[502.10000002384186,331]","./assets/img/ocean/memory/25.jpg","[""ArrowDown"",""ArrowRight""]","value training","ocean","30","{""ArrowUp,ArrowLeft"":23,""ArrowUp,ArrowRight"":10,""ArrowDown,ArrowLeft"":8,""ArrowDown,ArrowRight"":30}","true","ArrowDown,ArrowRight","false","","","revaluation","1","64","","",""
"html-keyboard-response","179","860875","0.0-4.0-2.0-1.32","spark_pilot_2","7472","2","20","Female","","","","","","","null","<div style=""font-size:60px;"">+</div>","null","fixation","","","","","","","","","","","65","","",""
"revaluation","180","866881","0.0-4.0-2.0-0.33","spark_pilot_2","7472","2","20","Female","","false","","","","","[372.2000000476837,271.10000002384186]","./assets/img/ocean/memory/37.jpg","[""ArrowDown"",""ArrowRight""]","value training","ocean","30","{""ArrowUp,ArrowLeft"":23,""ArrowUp,ArrowRight"":10,""ArrowDown,ArrowLeft"":8,""ArrowDown,ArrowRight"":30}","true","ArrowDown,ArrowRight","false","","","revaluation","1","66","","",""
"html-keyboard-response","181","867383","0.0-4.0-2.0-1.33","spark_pilot_2","7472","2","20","Female","","","","","","","null","<div style=""font-size:60px;"">+</div>","null","fixation","","","","","","","","","","","67","","",""
"revaluation","182","873388","0.0-4.0-2.0-0.34","spark_pilot_2","7472","2","20","Female","","false","","","","","[434.5,273.89999997615814]","./assets/img/ocean/memory/3.jpg","[""ArrowDown"",""ArrowRight""]","value training","ocean","30","{""ArrowUp,ArrowLeft"":23,""ArrowUp,ArrowRight"":10,""ArrowDown,ArrowLeft"":8,""ArrowDown,ArrowRight"":30}","true","ArrowDown,ArrowRight","false","","","revaluation","1","68","","",""
"html-keyboard-response","183","873889","0.0-4.0-2.0-1.34","spark_pilot_2","7472","2","20","Female","","","","","","","null","<div style=""font-size:60px;"">+</div>","null","fixation","","","","","","","","","","","69","","",""
"revaluation","184","879894","0.0-4.0-2.0-0.35","spark_pilot_2","7472","2","20","Female","","false","","","","","[418,237.69999992847443]","./assets/img/ocean/memory/1.jpg","[""ArrowDown"",""ArrowRight""]","value training","ocean","30","{""ArrowUp,ArrowLeft"":23,""ArrowUp,ArrowRight"":10,""ArrowDown,ArrowLeft"":8,""ArrowDown,ArrowRight"":30}","true","ArrowDown,ArrowRight","false","","","revaluation","1","70","","",""
"html-keyboard-response","185","880396","0.0-4.0-2.0-1.35","spark_pilot_2","7472","2","20","Female","","","","","","","null","<div style=""font-size:60px;"">+</div>","null","fixation","","","","","","","","","","","71","","",""
"revaluation","186","886403","0.0-4.0-2.0-0.36","spark_pilot_2","7472","2","20","Female","","false","","","","","[630.7999999523163,469.2000000476837]","./assets/img/ocean/memory/34.jpg","[""ArrowDown"",""ArrowRight""]","value training","ocean","30","{""ArrowUp,ArrowLeft"":23,""ArrowUp,ArrowRight"":10,""ArrowDown,ArrowLeft"":8,""ArrowDown,ArrowRight"":30}","true","ArrowDown,ArrowRight","false","","","revaluation","1","72","","",""
"html-keyboard-response","187","886904","0.0-4.0-2.0-1.36","spark_pilot_2","7472","2","20","Female","","","","","","","null","<div style=""font-size:60px;"">+</div>","null","fixation","","","","","","","","","","","73","","",""
"revaluation","188","890908","0.0-4.0-2.0-0.37","spark_pilot_2","7472","2","20","Female","","false","","","","","[562.7000000476837]","./assets/img/ocean/catch/6.jpg","[""spaceBar""]","value training","ocean","0","{""ArrowUp,ArrowLeft"":23,""ArrowUp,ArrowRight"":10,""ArrowDown,ArrowLeft"":8,""ArrowDown,ArrowRight"":30}","true","spaceBar","true","","","revaluation","1","74","","",""
"html-keyboard-response","189","891411","0.0-4.0-2.0-1.37","spark_pilot_2","7472","2","20","Female","","","","","","","null","<div style=""font-size:60px;"">+</div>","null","fixation","","","","","","","","","","","75","","",""
"revaluation","190","897416","0.0-4.0-2.0-0.38","spark_pilot_2","7472","2","20","Female","","false","","","","","[387.2999999523163,356.39999997615814]","./assets/img/ocean/memory/7.jpg","[""ArrowDown"",""ArrowRight""]","value training","ocean","30","{""ArrowUp,ArrowLeft"":23,""ArrowUp,ArrowRight"":10,""ArrowDown,ArrowLeft"":8,""ArrowDown,ArrowRight"":30}","true","ArrowDown,ArrowRight","false","","","revaluation","1","76","","",""
"html-keyboard-response","191","897918","0.0-4.0-2.0-1.38","spark_pilot_2","7472","2","20","Female","","","","","","","null","<div style=""font-size:60px;"">+</div>","null","fixation","","","","","","","","","","","77","","",""
"revaluation","192","903925","0.0-4.0-2.0-0.39","spark_pilot_2","7472","2","20","Female","","false","","","","","[428.90000009536743,206.89999997615814]","./assets/img/ocean/memory/2.jpg","[""ArrowDown"",""ArrowRight""]","value training","ocean","30","{""ArrowUp,ArrowLeft"":23,""ArrowUp,ArrowRight"":10,""ArrowDown,ArrowLeft"":8,""ArrowDown,ArrowRight"":30}","true","ArrowDown,ArrowRight","false","","","revaluation","1","78","","",""
"html-keyboard-response","193","904427","0.0-4.0-2.0-1.39","spark_pilot_2","7472","2","20","Female","","","","","","","null","<div style=""font-size:60px;"">+</div>","null","fixation","","","","","","","","","","","79","","",""
"revaluation","194","910433","0.0-4.0-2.0-0.40","spark_pilot_2","7472","2","20","Female","","false","","","","","[389.89999997615814,329.2999999523163]","./assets/img/ocean/memory/5.jpg","[""ArrowDown"",""ArrowRight""]","value training","ocean","30","{""ArrowUp,ArrowLeft"":23,""ArrowUp,ArrowRight"":10,""ArrowDown,ArrowLeft"":8,""ArrowDown,ArrowRight"":30}","true","ArrowDown,ArrowRight","false","","","revaluation","1","80","","",""
"html-keyboard-response","195","910934","0.0-4.0-2.0-1.40","spark_pilot_2","7472","2","20","Female","","","","","","","null","<div style=""font-size:60px;"">+</div>","null","fixation","","","","","","","","","","","81","","",""
"revaluation","196","916940","0.0-4.0-2.0-0.41","spark_pilot_2","7472","2","20","Female","","false","","","","","[532.5,273.09999990463257]","./assets/img/ocean/memory/5.jpg","[""ArrowDown"",""ArrowRight""]","value training","ocean","30","{""ArrowUp,ArrowLeft"":23,""ArrowUp,ArrowRight"":10,""ArrowDown,ArrowLeft"":8,""ArrowDown,ArrowRight"":30}","true","ArrowDown,ArrowRight","false","","","revaluation","1","82","","",""
"html-keyboard-response","197","917442","0.0-4.0-2.0-1.41","spark_pilot_2","7472","2","20","Female","","","","","","","null","<div style=""font-size:60px;"">+</div>","null","fixation","","","","","","","","","","","83","","",""
"revaluation","198","923455","0.0-4.0-2.0-0.42","spark_pilot_2","7472","2","20","Female","","false","","","","","[374.60000002384186,384]","./assets/img/ocean/memory/11.jpg","[""ArrowDown"",""ArrowRight""]","value training","ocean","30","{""ArrowUp,ArrowLeft"":23,""ArrowUp,ArrowRight"":10,""ArrowDown,ArrowLeft"":8,""ArrowDown,ArrowRight"":30}","true","ArrowDown,ArrowRight","false","","","revaluation","1","84","","",""
"html-keyboard-response","199","923956","0.0-4.0-2.0-1.42","spark_pilot_2","7472","2","20","Female","","","","","","","null","<div style=""font-size:60px;"">+</div>","null","fixation","","","","","","","","","","","85","","",""
"revaluation","200","929963","0.0-4.0-2.0-0.43","spark_pilot_2","7472","2","20","Female","","false","","","","","[531.3000000715256,130.29999995231628]","./assets/img/ocean/memory/36.jpg","[""ArrowDown"",""ArrowRight""]","value training","ocean","30","{""ArrowUp,ArrowLeft"":23,""ArrowUp,ArrowRight"":10,""ArrowDown,ArrowLeft"":8,""ArrowDown,ArrowRight"":30}","true","ArrowDown,ArrowRight","false","","","revaluation","1","86","","",""
"html-keyboard-response","201","930465","0.0-4.0-2.0-1.43","spark_pilot_2","7472","2","20","Female","","","","","","","null","<div style=""font-size:60px;"">+</div>","null","fixation","","","","","","","","","","","87","","",""
"revaluation","202","934470","0.0-4.0-2.0-0.44","spark_pilot_2","7472","2","20","Female","","false","","","","","[481.8000000715256]","./assets/img/ocean/catch/1.jpg","[""spaceBar""]","value training","ocean","0","{""ArrowUp,ArrowLeft"":23,""ArrowUp,ArrowRight"":10,""ArrowDown,ArrowLeft"":8,""ArrowDown,ArrowRight"":30}","true","spaceBar","true","","","revaluation","1","88","","",""
"html-keyboard-response","203","934972","0.0-4.0-2.0-1.44","spark_pilot_2","7472","2","20","Female","","","","","","","null","<div style=""font-size:60px;"">+</div>","null","fixation","","","","","","","","","","","89","","",""
"revaluation","204","940978","0.0-4.0-2.0-0.45","spark_pilot_2","7472","2","20","Female","","false","","","","","[536.2000000476837,244.39999997615814]","./assets/img/ocean/memory/32.jpg","[""ArrowDown"",""ArrowRight""]","value training","ocean","30","{""ArrowUp,ArrowLeft"":23,""ArrowUp,ArrowRight"":10,""ArrowDown,ArrowLeft"":8,""ArrowDown,ArrowRight"":30}","true","ArrowDown,ArrowRight","false","","","revaluation","1","90","","",""
"html-keyboard-response","205","941479","0.0-4.0-2.0-1.45","spark_pilot_2","7472","2","20","Female","","","","","","","null","<div style=""font-size:60px;"">+</div>","null","fixation","","","","","","","","","","","91","","",""
"revaluation","206","945484","0.0-4.0-2.0-0.46","spark_pilot_2","7472","2","20","Female","","false","","","","","[499.3000000715256]","./assets/img/ocean/catch/4.jpg","[""spaceBar""]","value training","ocean","0","{""ArrowUp,ArrowLeft"":23,""ArrowUp,ArrowRight"":10,""ArrowDown,ArrowLeft"":8,""ArrowDown,ArrowRight"":30}","true","spaceBar","true","","","revaluation","1","92","","",""
"html-keyboard-response","207","945985","0.0-4.0-2.0-1.46","spark_pilot_2","7472","2","20","Female","","","","","","","null","<div style=""font-size:60px;"">+</div>","null","fixation","","","","","","","","","","","93","","",""
"revaluation","208","951990","0.0-4.0-2.0-0.47","spark_pilot_2","7472","2","20","Female","","false","","","","","[441.7000000476837,201.70000004768372]","./assets/img/ocean/memory/32.jpg","[""ArrowDown"",""ArrowRight""]","value training","ocean","30","{""ArrowUp,ArrowLeft"":23,""ArrowUp,ArrowRight"":10,""ArrowDown,ArrowLeft"":8,""ArrowDown,ArrowRight"":30}","true","ArrowDown,ArrowRight","false","","","revaluation","1","94","","",""
"html-keyboard-response","209","952492","0.0-4.0-2.0-1.47","spark_pilot_2","7472","2","20","Female","","","","","","","null","<div style=""font-size:60px;"">+</div>","null","fixation","","","","","","","","","","","95","","",""
"revaluation","210","958509","0.0-4.0-2.0-0.48","spark_pilot_2","7472","2","20","Female","","false","","","","","[386.6999999284744,226.59999990463257]","./assets/img/ocean/memory/6.jpg","[""ArrowDown"",""ArrowRight""]","value training","ocean","30","{""ArrowUp,ArrowLeft"":23,""ArrowUp,ArrowRight"":10,""ArrowDown,ArrowLeft"":8,""ArrowDown,ArrowRight"":30}","true","ArrowDown,ArrowRight","false","","","revaluation","1","96","","",""
"html-keyboard-response","211","959012","0.0-4.0-2.0-1.48","spark_pilot_2","7472","2","20","Female","","","","","","","null","<div style=""font-size:60px;"">+</div>","null","fixation","","","","","","","","","","","97","","",""
"revaluation","212","965017","0.0-4.0-2.0-0.49","spark_pilot_2","7472","2","20","Female","","false","","","","","[506.39999997615814,204.80000007152557]","./assets/img/ocean/memory/1.jpg","[""ArrowDown"",""ArrowRight""]","value training","ocean","30","{""ArrowUp,ArrowLeft"":23,""ArrowUp,ArrowRight"":10,""ArrowDown,ArrowLeft"":8,""ArrowDown,ArrowRight"":30}","true","ArrowDown,ArrowRight","false","","","revaluation","1","98","","",""
"html-keyboard-response","213","965525","0.0-4.0-2.0-1.49","spark_pilot_2","7472","2","20","Female","","","","","","","null","<div style=""font-size:60px;"">+</div>","null","fixation","","","","","","","","","","","99","","",""
"learning-instructions","214","979312","0.0-4.0-3.0-0.0","spark_pilot_2","7472","2","20","Female","","","","","","","596.0999999046326","<p> Now, you will travel with a friend who will choose whether you go up or down first. </p>
            <p> On these turns, you will just see the animal that they found. You will still get to choose which chest to search for treasure.</p>","","instructions","","","","","","","","","","","","","",""
"revaluation","215","983334","0.0-4.0-4.0-0.0","spark_pilot_2","7472","2","20","Female","","false","","","","","[697.2000000476837]","./assets/img/ocean/animals/seahorse.jpg","[""ArrowRight""]","revaluation","ocean","7","{""ArrowUp,ArrowLeft"":27,""ArrowUp,ArrowRight"":15,""ArrowDown,ArrowLeft"":21,""ArrowDown,ArrowRight"":7}","false","ArrowDown,ArrowRight","","","","revaluation","1","0","","",""
"html-keyboard-response","216","983854","0.0-4.0-4.0-1.0","spark_pilot_2","7472","2","20","Female","","","","","","","null","<div style=""font-size:60px;"">+</div>","null","fixation","","","","","","","","","","","1","","",""
"revaluation","217","987884","0.0-4.0-4.0-0.1","spark_pilot_2","7472","2","20","Female","","false","","","","","[503.10000002384186]","./assets/img/ocean/animals/seahorse.jpg","[""ArrowLeft""]","revaluation","ocean","21","{""ArrowUp,ArrowLeft"":27,""ArrowUp,ArrowRight"":15,""ArrowDown,ArrowLeft"":21,""ArrowDown,ArrowRight"":7}","true","ArrowDown,ArrowLeft","","","","revaluation","1","2","","",""
"html-keyboard-response","218","988403","0.0-4.0-4.0-1.1","spark_pilot_2","7472","2","20","Female","","","","","","","null","<div style=""font-size:60px;"">+</div>","null","fixation","","","","","","","","","","","3","","",""
"revaluation","219","992429","0.0-4.0-4.0-0.2","spark_pilot_2","7472","2","20","Female","","false","","","","","[614.8000000715256]","./assets/img/ocean/animals/seahorse.jpg","[""ArrowLeft""]","revaluation","ocean","21","{""ArrowUp,ArrowLeft"":27,""ArrowUp,ArrowRight"":15,""ArrowDown,ArrowLeft"":21,""ArrowDown,ArrowRight"":7}","true","ArrowDown,ArrowLeft","","","","revaluation","1","4","","",""
"html-keyboard-response","220","992944","0.0-4.0-4.0-1.2","spark_pilot_2","7472","2","20","Female","","","","","","","null","<div style=""font-size:60px;"">+</div>","null","fixation","","","","","","","","","","","5","","",""
"revaluation","221","996984","0.0-4.0-4.0-0.3","spark_pilot_2","7472","2","20","Female","","false","","","","","[1073.5999999046326]","./assets/img/ocean/animals/octopus.jpg","[""ArrowLeft""]","revaluation","ocean","27","{""ArrowUp,ArrowLeft"":27,""ArrowUp,ArrowRight"":15,""ArrowDown,ArrowLeft"":21,""ArrowDown,ArrowRight"":7}","true","ArrowUp,ArrowLeft","","","","revaluation","1","6","","",""
"html-keyboard-response","222","997504","0.0-4.0-4.0-1.3","spark_pilot_2","7472","2","20","Female","","","","","","","null","<div style=""font-size:60px;"">+</div>","null","fixation","","","","","","","","","","","7","","",""
"revaluation","223","1001535","0.0-4.0-4.0-0.4","spark_pilot_2","7472","2","20","Female","","false","","","","","[773.7000000476837]","./assets/img/ocean/animals/octopus.jpg","[""ArrowRight""]","revaluation","ocean","15","{""ArrowUp,ArrowLeft"":27,""ArrowUp,ArrowRight"":15,""ArrowDown,ArrowLeft"":21,""ArrowDown,ArrowRight"":7}","false","ArrowUp,ArrowRight","","","","revaluation","1","8","","",""
"html-keyboard-response","224","1002044","0.0-4.0-4.0-1.4","spark_pilot_2","7472","2","20","Female","","","","","","","null","<div style=""font-size:60px;"">+</div>","null","fixation","","","","","","","","","","","9","","",""
"revaluation","225","1006075","0.0-4.0-4.0-0.5","spark_pilot_2","7472","2","20","Female","","false","","","","","[464]","./assets/img/ocean/animals/octopus.jpg","[""ArrowLeft""]","revaluation","ocean","27","{""ArrowUp,ArrowLeft"":27,""ArrowUp,ArrowRight"":15,""ArrowDown,ArrowLeft"":21,""ArrowDown,ArrowRight"":7}","true","ArrowUp,ArrowLeft","","","","revaluation","1","10","","",""
"html-keyboard-response","226","1006594","0.0-4.0-4.0-1.5","spark_pilot_2","7472","2","20","Female","","","","","","","null","<div style=""font-size:60px;"">+</div>","null","fixation","","","","","","","","","","","11","","",""
"revaluation","227","1010606","0.0-4.0-4.0-0.6","spark_pilot_2","7472","2","20","Female","","false","","","","","[375.60000002384186]","./assets/img/ocean/animals/octopus.jpg","[""ArrowLeft""]","revaluation","ocean","27","{""ArrowUp,ArrowLeft"":27,""ArrowUp,ArrowRight"":15,""ArrowDown,ArrowLeft"":21,""ArrowDown,ArrowRight"":7}","true","ArrowUp,ArrowLeft","","","","revaluation","1","12","","",""
"html-keyboard-response","228","1011108","0.0-4.0-4.0-1.6","spark_pilot_2","7472","2","20","Female","","","","","","","null","<div style=""font-size:60px;"">+</div>","null","fixation","","","","","","","","","","","13","","",""
"revaluation","229","1015112","0.0-4.0-4.0-0.7","spark_pilot_2","7472","2","20","Female","","false","","","","","[869.9000000953674]","./assets/img/ocean/animals/seahorse.jpg","[""ArrowLeft""]","revaluation","ocean","21","{""ArrowUp,ArrowLeft"":27,""ArrowUp,ArrowRight"":15,""ArrowDown,ArrowLeft"":21,""ArrowDown,ArrowRight"":7}","true","ArrowDown,ArrowLeft","","","","revaluation","1","14","","",""
"html-keyboard-response","230","1015613","0.0-4.0-4.0-1.7","spark_pilot_2","7472","2","20","Female","","","","","","","null","<div style=""font-size:60px;"">+</div>","null","fixation","","","","","","","","","","","15","","",""
"revaluation","231","1019619","0.0-4.0-4.0-0.8","spark_pilot_2","7472","2","20","Female","","false","","","","","[465.10000002384186]","./assets/img/ocean/animals/seahorse.jpg","[""ArrowLeft""]","revaluation","ocean","21","{""ArrowUp,ArrowLeft"":27,""ArrowUp,ArrowRight"":15,""ArrowDown,ArrowLeft"":21,""ArrowDown,ArrowRight"":7}","true","ArrowDown,ArrowLeft","","","","revaluation","1","16","","",""
"html-keyboard-response","232","1020121","0.0-4.0-4.0-1.8","spark_pilot_2","7472","2","20","Female","","","","","","","null","<div style=""font-size:60px;"">+</div>","null","fixation","","","","","","","","","","","17","","",""
"revaluation","233","1024126","0.0-4.0-4.0-0.9","spark_pilot_2","7472","2","20","Female","","false","","","","","[267.7999999523163]","./assets/img/ocean/animals/seahorse.jpg","[""ArrowLeft""]","revaluation","ocean","21","{""ArrowUp,ArrowLeft"":27,""ArrowUp,ArrowRight"":15,""ArrowDown,ArrowLeft"":21,""ArrowDown,ArrowRight"":7}","true","ArrowDown,ArrowLeft","","","","revaluation","1","18","","",""
"html-keyboard-response","234","1024641","0.0-4.0-4.0-1.9","spark_pilot_2","7472","2","20","Female","","","","","","","null","<div style=""font-size:60px;"">+</div>","null","fixation","","","","","","","","","","","19","","",""
"revaluation","235","1028660","0.0-4.0-4.0-0.10","spark_pilot_2","7472","2","20","Female","","false","","","","","[258.5]","./assets/img/ocean/animals/seahorse.jpg","[""ArrowLeft""]","revaluation","ocean","21","{""ArrowUp,ArrowLeft"":27,""ArrowUp,ArrowRight"":15,""ArrowDown,ArrowLeft"":21,""ArrowDown,ArrowRight"":7}","true","ArrowDown,ArrowLeft","","","","revaluation","1","20","","",""
"html-keyboard-response","236","1029162","0.0-4.0-4.0-1.10","spark_pilot_2","7472","2","20","Female","","","","","","","null","<div style=""font-size:60px;"">+</div>","null","fixation","","","","","","","","","","","21","","",""
"revaluation","237","1033166","0.0-4.0-4.0-0.11","spark_pilot_2","7472","2","20","Female","","false","","","","","[67.40000009536743]","./assets/img/ocean/animals/octopus.jpg","[""ArrowLeft""]","revaluation","ocean","27","{""ArrowUp,ArrowLeft"":27,""ArrowUp,ArrowRight"":15,""ArrowDown,ArrowLeft"":21,""ArrowDown,ArrowRight"":7}","true","ArrowUp,ArrowLeft","","","","revaluation","1","22","","",""
"html-keyboard-response","238","1033669","0.0-4.0-4.0-1.11","spark_pilot_2","7472","2","20","Female","","","","","","","null","<div style=""font-size:60px;"">+</div>","null","fixation","","","","","","","","","","","23","","",""
"revaluation","239","1037673","0.0-4.0-4.0-0.12","spark_pilot_2","7472","2","20","Female","","false","","","","","[209.5]","./assets/img/ocean/animals/seahorse.jpg","[""ArrowLeft""]","revaluation","ocean","21","{""ArrowUp,ArrowLeft"":27,""ArrowUp,ArrowRight"":15,""ArrowDown,ArrowLeft"":21,""ArrowDown,ArrowRight"":7}","true","ArrowDown,ArrowLeft","","","","revaluation","1","24","","",""
"html-keyboard-response","240","1038175","0.0-4.0-4.0-1.12","spark_pilot_2","7472","2","20","Female","","","","","","","null","<div style=""font-size:60px;"">+</div>","null","fixation","","","","","","","","","","","25","","",""
"revaluation","241","1042179","0.0-4.0-4.0-0.13","spark_pilot_2","7472","2","20","Female","","false","","","","","[262.2000000476837]","./assets/img/ocean/animals/octopus.jpg","[""ArrowLeft""]","revaluation","ocean","27","{""ArrowUp,ArrowLeft"":27,""ArrowUp,ArrowRight"":15,""ArrowDown,ArrowLeft"":21,""ArrowDown,ArrowRight"":7}","true","ArrowUp,ArrowLeft","","","","revaluation","1","26","","",""
"html-keyboard-response","242","1042682","0.0-4.0-4.0-1.13","spark_pilot_2","7472","2","20","Female","","","","","","","null","<div style=""font-size:60px;"">+</div>","null","fixation","","","","","","","","","","","27","","",""
"revaluation","243","1046687","0.0-4.0-4.0-0.14","spark_pilot_2","7472","2","20","Female","","false","","","","","[6.5]","./assets/img/ocean/animals/octopus.jpg","[""ArrowLeft""]","revaluation","ocean","27","{""ArrowUp,ArrowLeft"":27,""ArrowUp,ArrowRight"":15,""ArrowDown,ArrowLeft"":21,""ArrowDown,ArrowRight"":7}","true","ArrowUp,ArrowLeft","","","","revaluation","1","28","","",""
"html-keyboard-response","244","1047188","0.0-4.0-4.0-1.14","spark_pilot_2","7472","2","20","Female","","","","","","","null","<div style=""font-size:60px;"">+</div>","null","fixation","","","","","","","","","","","29","","",""
"revaluation","245","1051192","0.0-4.0-4.0-0.15","spark_pilot_2","7472","2","20","Female","","false","","","","","[90.39999997615814]","./assets/img/ocean/animals/octopus.jpg","[""ArrowLeft""]","revaluation","ocean","27","{""ArrowUp,ArrowLeft"":27,""ArrowUp,ArrowRight"":15,""ArrowDown,ArrowLeft"":21,""ArrowDown,ArrowRight"":7}","true","ArrowUp,ArrowLeft","","","","revaluation","1","30","","",""
"html-keyboard-response","246","1051693","0.0-4.0-4.0-1.15","spark_pilot_2","7472","2","20","Female","","","","","","","null","<div style=""font-size:60px;"">+</div>","null","fixation","","","","","","","","","","","31","","",""
"revaluation","247","1055697","0.0-4.0-4.0-0.16","spark_pilot_2","7472","2","20","Female","","false","","","","","[306.6999999284744]","./assets/img/ocean/animals/seahorse.jpg","[""ArrowLeft""]","revaluation","ocean","21","{""ArrowUp,ArrowLeft"":27,""ArrowUp,ArrowRight"":15,""ArrowDown,ArrowLeft"":21,""ArrowDown,ArrowRight"":7}","true","ArrowDown,ArrowLeft","","","","revaluation","1","32","","",""
"html-keyboard-response","248","1056199","0.0-4.0-4.0-1.16","spark_pilot_2","7472","2","20","Female","","","","","","","null","<div style=""font-size:60px;"">+</div>","null","fixation","","","","","","","","","","","33","","",""
"revaluation","249","1060202","0.0-4.0-4.0-0.17","spark_pilot_2","7472","2","20","Female","","false","","","","","[239.5]","./assets/img/ocean/animals/octopus.jpg","[""ArrowLeft""]","revaluation","ocean","27","{""ArrowUp,ArrowLeft"":27,""ArrowUp,ArrowRight"":15,""ArrowDown,ArrowLeft"":21,""ArrowDown,ArrowRight"":7}","true","ArrowUp,ArrowLeft","","","","revaluation","1","34","","",""
"html-keyboard-response","250","1060704","0.0-4.0-4.0-1.17","spark_pilot_2","7472","2","20","Female","","","","","","","null","<div style=""font-size:60px;"">+</div>","null","fixation","","","","","","","","","","","35","","",""
"learning-instructions","251","1073942","0.0-4.0-5.0-0.0","spark_pilot_2","7472","2","20","Female","","","","","","","332.5","<p> Time to play the dot game! </p>
            <p> For one minute, click the red dots on the following screen as they appear. </p>
            <p><b> Don't look away, as you will earn bonus for clicking dots</b>. </p>","","instructions","","","","","","","","","","","","","",""
"revaluation","252","1133944","0.0-4.0-6.0-0.0","spark_pilot_2","7472","2","20","Female","","","","","","","[55,45,60,47,57,67,87]","","","rest","","70","","","","","0","60000","","","","","",""
"learning-instructions","253","1141256","0.0-4.0-7.0-0.0","spark_pilot_2","7472","2","20","Female","","","","","","","959.7000000476837","<p> You have almost finished this part of the game! </p>
            <p> We are going to ask you to make a few more choices. </p>","","instructions","","","","","","","","","","","","","",""
"learning-instructions","254","1156787","0.0-4.0-7.0-0.1","spark_pilot_2","7472","2","20","Female","","","","","","","1560.2000000476837","<p> First, you need to decide whether to go up or down. When you see each picture, use the arrow keys to make your choice. </p>
            <p><b>You will not see which animal you found, but try to get to the one that will give you the most treasure.</b></p>","","instructions","","","","","","","","","","","","","",""
"revaluation","255","1157346","0.0-4.0-8.0-0.0","spark_pilot_2","7472","2","20","Female","","false","","","","","[556.8999999761581]","./assets/img/ocean/test/2.jpg","[""ArrowDown""]","first stage test","ocean","0","{""ArrowUp,ArrowLeft"":27,""ArrowUp,ArrowRight"":15,""ArrowDown,ArrowLeft"":21,""ArrowDown,ArrowRight"":7}","false","ArrowDown","false","","","revaluation","1","","","",""
"html-keyboard-response","256","1157865","0.0-4.0-8.0-1.0","spark_pilot_2","7472","2","20","Female","","","","","","","null","<div style=""font-size:60px;"">+</div>","null","fixation","","","","","","","","","","","","","",""
"revaluation","257","1159566","0.0-4.0-8.0-0.1","spark_pilot_2","7472","2","20","Female","","false","","","","","[1698.2000000476837]","./assets/img/ocean/test/1.jpg","[""ArrowDown""]","first stage test","ocean","0","{""ArrowUp,ArrowLeft"":27,""ArrowUp,ArrowRight"":15,""ArrowDown,ArrowLeft"":21,""ArrowDown,ArrowRight"":7}","false","ArrowDown","false","","","revaluation","1","","","",""
"html-keyboard-response","258","1160075","0.0-4.0-8.0-1.1","spark_pilot_2","7472","2","20","Female","","","","","","","null","<div style=""font-size:60px;"">+</div>","null","fixation","","","","","","","","","","","","","",""
"revaluation","259","1162067","0.0-4.0-8.0-0.2","spark_pilot_2","7472","2","20","Female","","false","","","","","[1989.1999999284744]","./assets/img/ocean/test/3.jpg","[""ArrowDown""]","first stage test","ocean","0","{""ArrowUp,ArrowLeft"":27,""ArrowUp,ArrowRight"":15,""ArrowDown,ArrowLeft"":21,""ArrowDown,ArrowRight"":7}","false","ArrowDown","false","","","revaluation","1","","","",""
"html-keyboard-response","260","1162575","0.0-4.0-8.0-1.2","spark_pilot_2","7472","2","20","Female","","","","","","","null","<div style=""font-size:60px;"">+</div>","null","fixation","","","","","","","","","","","","","",""
"revaluation","261","1164216","0.0-4.0-8.0-0.3","spark_pilot_2","7472","2","20","Female","","false","","","","","[1638.1000000238419]","./assets/img/ocean/test/0.jpg","[""ArrowDown""]","first stage test","ocean","0","{""ArrowUp,ArrowLeft"":27,""ArrowUp,ArrowRight"":15,""ArrowDown,ArrowLeft"":21,""ArrowDown,ArrowRight"":7}","false","ArrowDown","false","","","revaluation","1","","","",""
"html-keyboard-response","262","1164724","0.0-4.0-8.0-1.3","spark_pilot_2","7472","2","20","Female","","","","","","","null","<div style=""font-size:60px;"">+</div>","null","fixation","","","","","","","","","","","","","",""
"learning-instructions","263","1177067","0.0-4.0-9.0-0.0","spark_pilot_2","7472","2","20","Female","","","","","","","1011.6999999284744","<p> Now you will see the animals again and can search their chests for treasure. </p>
            <p> This time, you will not see how much treasure you earned, but you will earn more bonus money for making better choices. </p>","","instructions","","","","","","","","","","","","","",""
"revaluation","264","1178685","0.0-4.0-10.0-0.0","spark_pilot_2","7472","2","20","Female","","false","","","","","[1615.5]","./assets/img/ocean/animals/octopus.jpg","[""ArrowLeft""]","second stage test","ocean","0","{""ArrowUp,ArrowLeft"":27,""ArrowUp,ArrowRight"":15,""ArrowDown,ArrowLeft"":21,""ArrowDown,ArrowRight"":7}","true","ArrowUp,ArrowLeft","","","","revaluation","1","","","",""
"html-keyboard-response","265","1179204","0.0-4.0-10.0-1.0","spark_pilot_2","7472","2","20","Female","","","","","","","null","<div style=""font-size:60px;"">+</div>","null","fixation","","","","","","","","","","","","","",""
"revaluation","266","1180355","0.0-4.0-10.0-0.1","spark_pilot_2","7472","2","20","Female","","false","","","","","[1148.2999999523163]","./assets/img/ocean/animals/octopus.jpg","[""ArrowLeft""]","second stage test","ocean","0","{""ArrowUp,ArrowLeft"":27,""ArrowUp,ArrowRight"":15,""ArrowDown,ArrowLeft"":21,""ArrowDown,ArrowRight"":7}","true","ArrowUp,ArrowLeft","","","","revaluation","1","","","",""
"html-keyboard-response","267","1180874","0.0-4.0-10.0-1.1","spark_pilot_2","7472","2","20","Female","","","","","","","null","<div style=""font-size:60px;"">+</div>","null","fixation","","","","","","","","","","","","","",""
"revaluation","268","1182365","0.0-4.0-10.0-0.2","spark_pilot_2","7472","2","20","Female","","false","","","","","[1488.1999999284744]","./assets/img/ocean/animals/octopus.jpg","[""ArrowLeft""]","second stage test","ocean","0","{""ArrowUp,ArrowLeft"":27,""ArrowUp,ArrowRight"":15,""ArrowDown,ArrowLeft"":21,""ArrowDown,ArrowRight"":7}","true","ArrowUp,ArrowLeft","","","","revaluation","1","","","",""
"html-keyboard-response","269","1182874","0.0-4.0-10.0-1.2","spark_pilot_2","7472","2","20","Female","","","","","","","null","<div style=""font-size:60px;"">+</div>","null","fixation","","","","","","","","","","","","","",""
"revaluation","270","1183385","0.0-4.0-10.0-0.3","spark_pilot_2","7472","2","20","Female","","false","","","","","[508.2000000476837]","./assets/img/ocean/animals/octopus.jpg","[""ArrowRight""]","second stage test","ocean","0","{""ArrowUp,ArrowLeft"":27,""ArrowUp,ArrowRight"":15,""ArrowDown,ArrowLeft"":21,""ArrowDown,ArrowRight"":7}","false","ArrowUp,ArrowRight","","","","revaluation","1","","","",""
"html-keyboard-response","271","1183904","0.0-4.0-10.0-1.3","spark_pilot_2","7472","2","20","Female","","","","","","","null","<div style=""font-size:60px;"">+</div>","null","fixation","","","","","","","","","","","","","",""
"revaluation","272","1185176","0.0-4.0-10.0-0.4","spark_pilot_2","7472","2","20","Female","","false","","","","","[1268.8000000715256]","./assets/img/ocean/animals/seahorse.jpg","[""ArrowLeft""]","second stage test","ocean","0","{""ArrowUp,ArrowLeft"":27,""ArrowUp,ArrowRight"":15,""ArrowDown,ArrowLeft"":21,""ArrowDown,ArrowRight"":7}","true","ArrowDown,ArrowLeft","","","","revaluation","1","","","",""
"html-keyboard-response","273","1185684","0.0-4.0-10.0-1.4","spark_pilot_2","7472","2","20","Female","","","","","","","null","<div style=""font-size:60px;"">+</div>","null","fixation","","","","","","","","","","","","","",""
"revaluation","274","1186385","0.0-4.0-10.0-0.5","spark_pilot_2","7472","2","20","Female","","false","","","","","[699.1000000238419]","./assets/img/ocean/animals/seahorse.jpg","[""ArrowLeft""]","second stage test","ocean","0","{""ArrowUp,ArrowLeft"":27,""ArrowUp,ArrowRight"":15,""ArrowDown,ArrowLeft"":21,""ArrowDown,ArrowRight"":7}","true","ArrowDown,ArrowLeft","","","","revaluation","1","","","",""
"html-keyboard-response","275","1186894","0.0-4.0-10.0-1.5","spark_pilot_2","7472","2","20","Female","","","","","","","null","<div style=""font-size:60px;"">+</div>","null","fixation","","","","","","","","","","","","","",""
"revaluation","276","1187155","0.0-4.0-10.0-0.6","spark_pilot_2","7472","2","20","Female","","false","","","","","[259.6999999284744]","./assets/img/ocean/animals/seahorse.jpg","[""ArrowRight""]","second stage test","ocean","0","{""ArrowUp,ArrowLeft"":27,""ArrowUp,ArrowRight"":15,""ArrowDown,ArrowLeft"":21,""ArrowDown,ArrowRight"":7}","false","ArrowDown,ArrowRight","","","","revaluation","1","","","",""
"html-keyboard-response","277","1187674","0.0-4.0-10.0-1.6","spark_pilot_2","7472","2","20","Female","","","","","","","null","<div style=""font-size:60px;"">+</div>","null","fixation","","","","","","","","","","","","","",""
"revaluation","278","1187965","0.0-4.0-10.0-0.7","spark_pilot_2","7472","2","20","Female","","false","","","","","[288.6999999284744]","./assets/img/ocean/animals/seahorse.jpg","[""ArrowRight""]","second stage test","ocean","0","{""ArrowUp,ArrowLeft"":27,""ArrowUp,ArrowRight"":15,""ArrowDown,ArrowLeft"":21,""ArrowDown,ArrowRight"":7}","false","ArrowDown,ArrowRight","","","","revaluation","1","","","",""
"html-keyboard-response","279","1188484","0.0-4.0-10.0-1.7","spark_pilot_2","7472","2","20","Female","","","","","","","null","<div style=""font-size:60px;"">+</div>","null","fixation","","","","","","","","","","","","","",""
"learning-instructions","280","1192769","0.0-4.0-0.1-0.2","spark_pilot_2","7472","2","20","Female","","","","","","","792.7000000476837","<p> This time you are searching for treasure in the <b>canyon</b>.</p>","","instructions","","","","","","","","","","","","","",""
"learning-instructions","281","1212671","0.0-4.0-0.1-0.3","spark_pilot_2","7472","2","20","Female","","","","","","","2655.2000000476837","<p><b>New</b> animals with <b>new</b> treasure chests live here. You need to explore to discover where the animal with the best treasure chest is.</p>
                    <p> Like before, once you figure out which animal has the chest with the most treasure, you should try to get to that animal and select that chest! </p>","","instructions","","","","","","","","","","","","","",""
"learning-instructions","282","1228515","0.0-4.0-1.1-0.1","spark_pilot_2","7472","2","20","Female","","","","","","","1108.7999999523163","<p> Remember, when you see a picture of the place, use the up and down keys to <b>find an animal</b>.</p>
            <p> When you encounter an animal, you should use the left and right keys to <b>select a treasure chest</b>.</p>
            <p> Don't forget to look out for the robber! </p>","","instructions","","","","","","","","","","","","","",""
"revaluation","283","1232554","0.0-4.0-2.1-0.50","spark_pilot_2","7472","2","20","Female","","false","","","","","[878.2000000476837]","./assets/img/canyon/catch/3.jpg","[""spaceBar""]","value training","canyon","0","{""ArrowUp,ArrowLeft"":26,""ArrowUp,ArrowRight"":10,""ArrowDown,ArrowLeft"":5,""ArrowDown,ArrowRight"":17}","true","spaceBar","true","","","original","2","0","","",""
"html-keyboard-response","284","1233072","0.0-4.0-2.1-1.50","spark_pilot_2","7472","2","20","Female","","","","","","","null","<div style=""font-size:60px;"">+</div>","null","fixation","","","","","","","","","","","1","","",""
"revaluation","285","1239124","0.0-4.0-2.1-0.51","spark_pilot_2","7472","2","20","Female","","false","","","","","[870.3000000715256,440.89999997615814]","./assets/img/canyon/memory/4.jpg","[""ArrowDown"",""ArrowRight""]","value training","canyon","17","{""ArrowUp,ArrowLeft"":26,""ArrowUp,ArrowRight"":10,""ArrowDown,ArrowLeft"":5,""ArrowDown,ArrowRight"":17}","false","ArrowDown,ArrowRight","false","","","original","2","2","","",""
"html-keyboard-response","286","1239634","0.0-4.0-2.1-1.51","spark_pilot_2","7472","2","20","Female","","","","","","","null","<div style=""font-size:60px;"">+</div>","null","fixation","","","","","","","","","","","3","","",""
"revaluation","287","1245695","0.0-4.0-2.1-0.52","spark_pilot_2","7472","2","20","Female","","false","","","","","[368.5,231.30000007152557]","./assets/img/canyon/memory/25.jpg","[""ArrowDown"",""ArrowLeft""]","value training","canyon","5","{""ArrowUp,ArrowLeft"":26,""ArrowUp,ArrowRight"":10,""ArrowDown,ArrowLeft"":5,""ArrowDown,ArrowRight"":17}","false","ArrowDown,ArrowLeft","false","","","original","2","4","","",""
"html-keyboard-response","288","1246214","0.0-4.0-2.1-1.52","spark_pilot_2","7472","2","20","Female","","","","","","","null","<div style=""font-size:60px;"">+</div>","null","fixation","","","","","","","","","","","5","","",""
"revaluation","289","1252225","0.0-4.0-2.1-0.53","spark_pilot_2","7472","2","20","Female","","false","","","","","[387.89999997615814,254.29999995231628]","./assets/img/canyon/memory/22.jpg","[""ArrowUp"",""ArrowRight""]","value training","canyon","10","{""ArrowUp,ArrowLeft"":26,""ArrowUp,ArrowRight"":10,""ArrowDown,ArrowLeft"":5,""ArrowDown,ArrowRight"":17}","false","ArrowUp,ArrowRight","false","","","original","2","6","","",""
"html-keyboard-response","290","1252744","0.0-4.0-2.1-1.53","spark_pilot_2","7472","2","20","Female","","","","","","","null","<div style=""font-size:60px;"">+</div>","null","fixation","","","","","","","","","","","7","","",""
"revaluation","291","1256784","0.0-4.0-2.1-0.54","spark_pilot_2","7472","2","20","Female","","false","","","","","[488.3000000715256]","./assets/img/canyon/catch/0.jpg","[""spaceBar""]","value training","canyon","0","{""ArrowUp,ArrowLeft"":26,""ArrowUp,ArrowRight"":10,""ArrowDown,ArrowLeft"":5,""ArrowDown,ArrowRight"":17}","true","spaceBar","true","","","original","2","8","","",""
"html-keyboard-response","292","1257304","0.0-4.0-2.1-1.54","spark_pilot_2","7472","2","20","Female","","","","","","","null","<div style=""font-size:60px;"">+</div>","null","fixation","","","","","","","","","","","9","","",""
"revaluation","293","1261309","0.0-4.0-2.1-0.55","spark_pilot_2","7472","2","20","Female","","false","","","","","[297.7999999523163]","./assets/img/canyon/catch/4.jpg","[""ArrowUp""]","value training","canyon","-10","{""ArrowUp,ArrowLeft"":26,""ArrowUp,ArrowRight"":10,""ArrowDown,ArrowLeft"":5,""ArrowDown,ArrowRight"":17}","false","ArrowUp","true","","","original","2","10","","",""
"html-keyboard-response","294","1261812","0.0-4.0-2.1-1.55","spark_pilot_2","7472","2","20","Female","","","","","","","null","<div style=""font-size:60px;"">+</div>","null","fixation","","","","","","","","","","","11","","",""
"revaluation","295","1267818","0.0-4.0-2.1-0.56","spark_pilot_2","7472","2","20","Female","","false","","","","","[520.3000000715256,370.10000002384186]","./assets/img/canyon/memory/6.jpg","[""ArrowUp"",""ArrowLeft""]","value training","canyon","26","{""ArrowUp,ArrowLeft"":26,""ArrowUp,ArrowRight"":10,""ArrowDown,ArrowLeft"":5,""ArrowDown,ArrowRight"":17}","true","ArrowUp,ArrowLeft","false","","","original","2","12","","",""
"html-keyboard-response","296","1268320","0.0-4.0-2.1-1.56","spark_pilot_2","7472","2","20","Female","","","","","","","null","<div style=""font-size:60px;"">+</div>","null","fixation","","","","","","","","","","","13","","",""
"revaluation","297","1274325","0.0-4.0-2.1-0.57","spark_pilot_2","7472","2","20","Female","","false","","","","","[473.10000002384186,212]","./assets/img/canyon/memory/36.jpg","[""ArrowUp"",""ArrowLeft""]","value training","canyon","26","{""ArrowUp,ArrowLeft"":26,""ArrowUp,ArrowRight"":10,""ArrowDown,ArrowLeft"":5,""ArrowDown,ArrowRight"":17}","true","ArrowUp,ArrowLeft","false","","","original","2","14","","",""
"html-keyboard-response","298","1274827","0.0-4.0-2.1-1.57","spark_pilot_2","7472","2","20","Female","","","","","","","null","<div style=""font-size:60px;"">+</div>","null","fixation","","","","","","","","","","","15","","",""
"revaluation","299","1278832","0.0-4.0-2.1-0.58","spark_pilot_2","7472","2","20","Female","","false","","","","","[535.1000000238419]","./assets/img/canyon/catch/1.jpg","[""spaceBar""]","value training","canyon","0","{""ArrowUp,ArrowLeft"":26,""ArrowUp,ArrowRight"":10,""ArrowDown,ArrowLeft"":5,""ArrowDown,ArrowRight"":17}","true","spaceBar","true","","","original","2","16","","",""
"html-keyboard-response","300","1279333","0.0-4.0-2.1-1.58","spark_pilot_2","7472","2","20","Female","","","","","","","null","<div style=""font-size:60px;"">+</div>","null","fixation","","","","","","","","","","","17","","",""
"revaluation","301","1285339","0.0-4.0-2.1-0.59","spark_pilot_2","7472","2","20","Female","","false","","","","","[510.10000002384186,257.7000000476837]","./assets/img/canyon/memory/3.jpg","[""ArrowUp"",""ArrowLeft""]","value training","canyon","26","{""ArrowUp,ArrowLeft"":26,""ArrowUp,ArrowRight"":10,""ArrowDown,ArrowLeft"":5,""ArrowDown,ArrowRight"":17}","true","ArrowUp,ArrowLeft","false","","","original","2","18","","",""
"html-keyboard-response","302","1285840","0.0-4.0-2.1-1.59","spark_pilot_2","7472","2","20","Female","","","","","","","null","<div style=""font-size:60px;"">+</div>","null","fixation","","","","","","","","","","","19","","",""
"revaluation","303","1289845","0.0-4.0-2.1-0.60","spark_pilot_2","7472","2","20","Female","","false","","","","","[432.89999997615814]","./assets/img/canyon/catch/5.jpg","[""spaceBar""]","value training","canyon","0","{""ArrowUp,ArrowLeft"":26,""ArrowUp,ArrowRight"":10,""ArrowDown,ArrowLeft"":5,""ArrowDown,ArrowRight"":17}","true","spaceBar","true","","","original","2","20","","",""
"html-keyboard-response","304","1290347","0.0-4.0-2.1-1.60","spark_pilot_2","7472","2","20","Female","","","","","","","null","<div style=""font-size:60px;"">+</div>","null","fixation","","","","","","","","","","","21","","",""
"revaluation","305","1296353","0.0-4.0-2.1-0.61","spark_pilot_2","7472","2","20","Female","","false","","","","","[445.7999999523163,256.6999999284744]","./assets/img/canyon/memory/27.jpg","[""ArrowUp"",""ArrowLeft""]","value training","canyon","26","{""ArrowUp,ArrowLeft"":26,""ArrowUp,ArrowRight"":10,""ArrowDown,ArrowLeft"":5,""ArrowDown,ArrowRight"":17}","true","ArrowUp,ArrowLeft","false","","","original","2","22","","",""
