"trial_type","trial_index","time_elapsed","internal_node_id","task_version","subject_id","assigned_condition","age","gender","success","timeout","failed_images","failed_audio","failed_video","browser_interaction","rt","stimulus","response","task_part","environment","score","rewardMap","correct","fullState","isCatch","numberMissed","duration","condition","order","trial_num","key_press","ground_truth","bonus"
"pavlovia","0","1334","0.0-0.0","spark_pilot_2","7953","1","7","Male","","","","","","","","","","","","","","","","","","","","","","","",""
"preload","1","15347","0.0-1.0","spark_pilot_2","7953","1","7","Male","true","false","[]","[]","[]","[{""event"":""fullscreenenter"",""trial"":2,""time"":21361},{""event"":""blur"",""trial"":260,""time"":1225846},{""event"":""focus"",""trial"":260,""time"":1228647},{""event"":""blur"",""trial"":260,""time"":1239039},{""event"":""focus"",""trial"":260,""time"":1240647}]","","","","","","","","","","","","","","","","","",""
"fullscreen","2","22352","0.0-2.0","spark_pilot_2","7953","1","7","Male","true","","","","","","","","","","","","","","","","","","","","","","",""
"audio-button-response","3","27879","0.0-3.0-0.0-0.0","spark_pilot_2","7953","1","7","Male","","","","","","","5472","./assets/audio/audiotest/turtle.mp3","2","audio_test","","","","","","","","","","","","","",""
"learning-instructions","4","41689","0.0-3.0-1.0-0.0","spark_pilot_2","7953","1","7","Male","","","","","","","6839.199999999721","<p> Welcome! Please remember to stay in fullscreen mode and don't click away from the experiment. </p>","","instructions","","","","","","","","","","","","","",""
"learning-instructions","5","52956","0.0-3.0-1.0-0.1","spark_pilot_2","7953","1","7","Male","","","","","","","2852.7999999998137","<p> Today you will be playing a game to earn treasure. </p>
            <p> At the end of the experiment, you will earn a bonus based on how much treasure you find. </p>
            <img src='./assets/img/instructions/treasure.jpg' class='instructions-image'>","","instructions","","","","","","","","","","","","","",""
"learning-instructions","6","64108","0.0-3.0-1.0-0.2","spark_pilot_2","7953","1","7","Male","","","","","","","2890.600000000093","<p> Animals have hidden treasure in treasure chests. </p>
            <p> You need to first find an animal and then choose which of their treasure chests to search. </p>
            <img src='./assets/img/space/animals/cat.jpg' class='instructions-image'>","","instructions","","","","","","","","","","","","","",""
"learning-instructions","7","78719","0.0-3.0-1.0-0.3","spark_pilot_2","7953","1","7","Male","","","","","","","1448.1000000000931","<p> In each round, you will search for treasure in a different place. In the real game, there will be two rounds. </p>
            <p> You will begin with a separate, practice round where you will search for treasure in outer space. </p>
            <img src='./assets/img/space/0.jpg' class='instructions-image'>","","instructions","","","","","","","","","","","","","",""
"learning-instructions","8","92589","0.0-3.0-1.0-0.4","spark_pilot_2","7953","1","7","Male","","","","","","","2453.899999999907","<p> On every turn, you will see a picture of the place that you are in, but the specific image may be different each time. </p>
            <p> For example, both of these images mean you are in outer space. </p>
            <img src='./assets/img/instructions/outerspace.jpg' class='instructions-image'>","","instructions","","","","","","","","","","","","","",""
"learning-instructions","9","103128","0.0-3.0-1.0-0.5","spark_pilot_2","7953","1","7","Male","","","","","","","2709.600000000093","<p> You need to decide which direction to travel in. </p>
            <p> You can choose between going <b>up or down</b> by using the arrow keys. </p>
            <img src='./assets/img/instructions/updown.jpg' class='instructions-image'>","","instructions","","","","","","","","","","","","","",""
"learning-instructions","10","114125","0.0-3.0-1.0-0.6","spark_pilot_2","7953","1","7","Male","","","","","","","2176.5","<p> You will have <b>2 seconds</b> to make your choice. </p>
            <p> If you do not make a choice within 2 seconds, you will not find an animal or earn treasure. </p>
            <img src='./assets/img/instructions/2seconds.jpg' class='instructions-image'>","","instructions","","","","","","","","","","","","","",""
"learning-instructions","11","122531","0.0-3.0-1.0-0.7","spark_pilot_2","7953","1","7","Male","","","","","","","1366.5","<p> Let’s try practicing that now! </p>
            <p> When you see a picture of the place you are in, press the <b>up</b> key to travel up. </p>
            <img src='./assets/img/instructions/pressUp.jpg' class='instructions-image'>","","instructions","","","","","","","","","","","","","",""
"revaluation","12","126556","0.0-3.0-2.0-0.0","spark_pilot_2","7953","1","7","Male","","true","","","","","[]","./assets/img/space/0.jpg","[]","first stage practice","space","-5","null","null","","false","","","","","","","",""
"html-keyboard-response","13","127058","0.0-3.0-2.0-1.0","spark_pilot_2","7953","1","7","Male","","","","","","","null","<div style=""font-size:60px;"">+</div>","null","fixation","","","","","","","","","","","","","",""
"revaluation","14","131076","0.0-3.0-2.0-0.1","spark_pilot_2","7953","1","7","Male","","true","","","","","[]","./assets/img/space/1.jpg","[]","first stage practice","space","-5","null","null","","false","","","","","","","",""
"html-keyboard-response","15","131578","0.0-3.0-2.0-1.1","spark_pilot_2","7953","1","7","Male","","","","","","","null","<div style=""font-size:60px;"">+</div>","null","fixation","","","","","","","","","","","","","",""
"revaluation","16","135582","0.0-3.0-2.0-0.2","spark_pilot_2","7953","1","7","Male","","true","","","","","[]","./assets/img/space/2.jpg","[]","first stage practice","space","-5","null","null","","false","","","","","","","",""
"html-keyboard-response","17","136091","0.0-3.0-2.0-1.2","spark_pilot_2","7953","1","7","Male","","","","","","","null","<div style=""font-size:60px;"">+</div>","null","fixation","","","","","","","","","","","","","",""
"learning-instructions","18","153448","0.0-3.0-3.0-0.0","spark_pilot_2","7953","1","7","Male","","","","","","","12657","<p> Great job! Now try pressing the <b>down</b> key to travel down. </p>
            <img src='./assets/img/instructions/pressDown.jpg' class='instructions-image'>","","instructions","","","","","","","","","","","","","",""
"revaluation","19","157461","0.0-3.0-4.0-0.0","spark_pilot_2","7953","1","7","Male","","false","","","","","[1186.1000000000931]","./assets/img/space/3.jpg","[""ArrowDown""]","first stage practice","space","0","null","null","ArrowDown","false","","","","","","","",""
"html-keyboard-response","20","157962","0.0-3.0-4.0-1.0","spark_pilot_2","7953","1","7","Male","","","","","","","null","<div style=""font-size:60px;"">+</div>","null","fixation","","","","","","","","","","","","","",""
"revaluation","21","161982","0.0-3.0-4.0-0.1","spark_pilot_2","7953","1","7","Male","","true","","","","","[]","./assets/img/space/4.jpg","[]","first stage practice","space","-5","null","null","","false","","","","","","","",""
"html-keyboard-response","22","162486","0.0-3.0-4.0-1.1","spark_pilot_2","7953","1","7","Male","","","","","","","null","<div style=""font-size:60px;"">+</div>","null","fixation","","","","","","","","","","","","","",""
"revaluation","23","166498","0.0-3.0-4.0-0.2","spark_pilot_2","7953","1","7","Male","","false","","","","","[376.6999999997206]","./assets/img/space/5.jpg","[""ArrowDown""]","first stage practice","space","0","null","null","ArrowDown","false","","","","","","","",""
"html-keyboard-response","24","167006","0.0-3.0-4.0-1.2","spark_pilot_2","7953","1","7","Male","","","","","","","null","<div style=""font-size:60px;"">+</div>","null","fixation","","","","","","","","","","","","","",""
"learning-instructions","25","182886","0.0-3.0-5.0-0.0","spark_pilot_2","7953","1","7","Male","","","","","","","6019.799999999814","<p> The animals don’t move, so the animal in the upper part of a place will stay in the upper part of a place, and the animal in the lower part of a place will stay in the lower part of a place. </p>","","instructions","","","","","","","","","","","","","",""
"learning-instructions","26","194056","0.0-3.0-5.0-0.1","spark_pilot_2","7953","1","7","Male","","","","","","","2022.8999999999069","<p> Each animal has two treasure chests for you to choose from. </p>
            <p> The amount of treasure in each chest can range from <b> 0 to 40 pieces.</b></p>","","instructions","","","","","","","","","","","","","",""
"learning-instructions","27","206270","0.0-3.0-5.0-0.2","spark_pilot_2","7953","1","7","Male","","","","","","","1020.6999999997206","<p> You should decide which chest to search for treasure by using the <b>left</b> and <b>right</b> arrow keys. </p>
            <p><b> Pay attention to which animal is on the screen, as the animals have different treasure chests. </b></p>
            <img src='./assets/img/instructions/leftright.jpg' class='instructions-image'>","","instructions","","","","","","","","","","","","","",""
"learning-instructions","28","225419","0.0-3.0-5.0-0.3","spark_pilot_2","7953","1","7","Male","","","","","","","12778","<p> Let’s try practicing that now. </p>
            <p> When you see an animal, choose which chest to search for treasure. </p>
            <img src='./assets/img/instructions/chooseChest.jpg' class='instructions-image'>","","instructions","","","","","","","","","","","","","",""
"revaluation","29","229433","0.0-3.0-6.0-0.0","spark_pilot_2","7953","1","7","Male","","false","","","","","[1946.2999999998137]","./assets/img/space/animals/rabbit.jpg","[""ArrowRight""]","second stage practice","space","23","{""ArrowUp,ArrowLeft"":3,""ArrowUp,ArrowRight"":36,""ArrowDown,ArrowLeft"":15,""ArrowDown,ArrowRight"":23}","true","ArrowDown,ArrowRight","","","","","","","","",""
"html-keyboard-response","30","229938","0.0-3.0-6.0-1.0","spark_pilot_2","7953","1","7","Male","","","","","","","null","<div style=""font-size:60px;"">+</div>","null","fixation","","","","","","","","","","","","","",""
"revaluation","31","233963","0.0-3.0-6.0-0.1","spark_pilot_2","7953","1","7","Male","","false","","","","","[1933.3999999999069]","./assets/img/space/animals/cat.jpg","[""ArrowLeft""]","second stage practice","space","3","{""ArrowUp,ArrowLeft"":3,""ArrowUp,ArrowRight"":36,""ArrowDown,ArrowLeft"":15,""ArrowDown,ArrowRight"":23}","false","ArrowUp,ArrowLeft","","","","","","","","",""
"html-keyboard-response","32","234480","0.0-3.0-6.0-1.1","spark_pilot_2","7953","1","7","Male","","","","","","","null","<div style=""font-size:60px;"">+</div>","null","fixation","","","","","","","","","","","","","",""
"revaluation","33","238502","0.0-3.0-6.0-0.2","spark_pilot_2","7953","1","7","Male","","false","","","","","[1527.7000000001863]","./assets/img/space/animals/cat.jpg","[""ArrowRight""]","second stage practice","space","36","{""ArrowUp,ArrowLeft"":3,""ArrowUp,ArrowRight"":36,""ArrowDown,ArrowLeft"":15,""ArrowDown,ArrowRight"":23}","true","ArrowUp,ArrowRight","","","","","","","","",""
"html-keyboard-response","34","239009","0.0-3.0-6.0-1.2","spark_pilot_2","7953","1","7","Male","","","","","","","null","<div style=""font-size:60px;"">+</div>","null","fixation","","","","","","","","","","","","","",""
"revaluation","35","243019","0.0-3.0-6.0-0.3","spark_pilot_2","7953","1","7","Male","","false","","","","","[1561.5]","./assets/img/space/animals/rabbit.jpg","[""ArrowRight""]","second stage practice","space","23","{""ArrowUp,ArrowLeft"":3,""ArrowUp,ArrowRight"":36,""ArrowDown,ArrowLeft"":15,""ArrowDown,ArrowRight"":23}","true","ArrowDown,ArrowRight","","","","","","","","",""
"html-keyboard-response","36","243521","0.0-3.0-6.0-1.3","spark_pilot_2","7953","1","7","Male","","","","","","","null","<div style=""font-size:60px;"">+</div>","null","fixation","","","","","","","","","","","","","",""
"learning-instructions","37","264326","0.0-3.0-7.0-0.0","spark_pilot_2","7953","1","7","Male","","","","","","","3973.2000000001863","<p> Great job. Now let’s try putting it together. </p>
            <p> On each turn, you will first see a picture to remind you of the place you are in, and you need to choose whether to go up or down. </p>
            <p> Then you will see an animal and choose which of its chests to search for treasure. </p>","","instructions","","","","","","","","","","","","","",""
"learning-instructions","38","273860","0.0-3.0-7.0-0.1","spark_pilot_2","7953","1","7","Male","","","","","","","1272.2000000001863","<p> When you choose whether to go up or down, try to go to the animal with the chest with the most treasure. </p>
            <p> Try practicing that now! </p>","","instructions","","","","","","","","","","","","","",""
"revaluation","39","277876","0.0-3.0-8.0-0.0","spark_pilot_2","7953","1","7","Male","","true","","","","","[]","./assets/img/space/6.jpg","[]","full practice","space","-5","{""ArrowUp,ArrowLeft"":3,""ArrowUp,ArrowRight"":36,""ArrowDown,ArrowLeft"":15,""ArrowDown,ArrowRight"":23}","false","","false","","","","","","","",""
"html-keyboard-response","40","278380","0.0-3.0-8.0-1.0","spark_pilot_2","7953","1","7","Male","","","","","","","null","<div style=""font-size:60px;"">+</div>","null","fixation","","","","","","","","","","","","","",""
"revaluation","41","284402","0.0-3.0-8.0-0.1","spark_pilot_2","7953","1","7","Male","","false","","","","","[1045.8999999999069,1957.1000000000931]","./assets/img/space/7.jpg","[""ArrowDown"",""ArrowRight""]","full practice","space","23","{""ArrowUp,ArrowLeft"":3,""ArrowUp,ArrowRight"":36,""ArrowDown,ArrowLeft"":15,""ArrowDown,ArrowRight"":23}","false","ArrowDown,ArrowRight","false","","","","","","","",""
"html-keyboard-response","42","284911","0.0-3.0-8.0-1.1","spark_pilot_2","7953","1","7","Male","","","","","","","null","<div style=""font-size:60px;"">+</div>","null","fixation","","","","","","","","","","","","","",""
"revaluation","43","290945","0.0-3.0-8.0-0.2","spark_pilot_2","7953","1","7","Male","","false","","","","","[741.3999999999069,516.6999999997206]","./assets/img/space/8.jpg","[""ArrowDown"",""ArrowRight""]","full practice","space","23","{""ArrowUp,ArrowLeft"":3,""ArrowUp,ArrowRight"":36,""ArrowDown,ArrowLeft"":15,""ArrowDown,ArrowRight"":23}","false","ArrowDown,ArrowRight","false","","","","","","","",""
"html-keyboard-response","44","291451","0.0-3.0-8.0-1.2","spark_pilot_2","7953","1","7","Male","","","","","","","null","<div style=""font-size:60px;"">+</div>","null","fixation","","","","","","","","","","","","","",""
"revaluation","45","297475","0.0-3.0-8.0-0.3","spark_pilot_2","7953","1","7","Male","","false","","","","","[476.29999999981374,1195.8999999999069]","./assets/img/space/9.jpg","[""ArrowUp"",""ArrowLeft""]","full practice","space","3","{""ArrowUp,ArrowLeft"":3,""ArrowUp,ArrowRight"":36,""ArrowDown,ArrowLeft"":15,""ArrowDown,ArrowRight"":23}","false","ArrowUp,ArrowLeft","false","","","","","","","",""
"html-keyboard-response","46","297980","0.0-3.0-8.0-1.3","spark_pilot_2","7953","1","7","Male","","","","","","","null","<div style=""font-size:60px;"">+</div>","null","fixation","","","","","","","","","","","","","",""
"revaluation","47","304002","0.0-3.0-8.0-0.4","spark_pilot_2","7953","1","7","Male","","false","","","","","[260.79999999981374,307.39999999990687]","./assets/img/space/10.jpg","[""ArrowUp"",""ArrowRight""]","full practice","space","36","{""ArrowUp,ArrowLeft"":3,""ArrowUp,ArrowRight"":36,""ArrowDown,ArrowLeft"":15,""ArrowDown,ArrowRight"":23}","true","ArrowUp,ArrowRight","false","","","","","","","",""
"html-keyboard-response","48","304503","0.0-3.0-8.0-1.4","spark_pilot_2","7953","1","7","Male","","","","","","","null","<div style=""font-size:60px;"">+</div>","null","fixation","","","","","","","","","","","","","",""
"learning-instructions","49","319617","0.0-3.0-9.0-0.0","spark_pilot_2","7953","1","7","Male","","","","","","","4714.799999999814","<p> One last thing: sometimes, you will see a robber. The robber can be anywhere in the picture. </p>
            <p> If you do not stop them, you will lose treasure. </p>
            <img src='./assets/img/instructions/robber.jpg' class='instructions-image'>","","instructions","","","","","","","","","","","","","",""
"learning-instructions","50","328162","0.0-3.0-9.0-0.1","spark_pilot_2","7953","1","7","Male","","","","","","","1377.3999999999069","<p> If you see the robber, you should <b>press the space bar</b> rather than using the arrow keys. </p>
            <p> Try practicing that now! </p>","","instructions","","","","","","","","","","","","","",""
"revaluation","51","332177","0.0-3.0-10.0-0.0","spark_pilot_2","7953","1","7","Male","","false","","","","","[1685.5]","./assets/img/space/catch/0.jpg","[""spaceBar""]","catch practice","space","0","{""ArrowUp,ArrowLeft"":3,""ArrowUp,ArrowRight"":36,""ArrowDown,ArrowLeft"":15,""ArrowDown,ArrowRight"":23}","true","spaceBar","true","","","","","","","",""
"html-keyboard-response","52","332685","0.0-3.0-10.0-1.0","spark_pilot_2","7953","1","7","Male","","","","","","","null","<div style=""font-size:60px;"">+</div>","null","fixation","","","","","","","","","","","","","",""
"revaluation","53","336715","0.0-3.0-10.0-0.1","spark_pilot_2","7953","1","7","Male","","false","","","","","[649.1000000000931]","./assets/img/space/catch/1.jpg","[""spaceBar""]","catch practice","space","0","{""ArrowUp,ArrowLeft"":3,""ArrowUp,ArrowRight"":36,""ArrowDown,ArrowLeft"":15,""ArrowDown,ArrowRight"":23}","true","spaceBar","true","","","","","","","",""
"html-keyboard-response","54","337229","0.0-3.0-10.0-1.1","spark_pilot_2","7953","1","7","Male","","","","","","","null","<div style=""font-size:60px;"">+</div>","null","fixation","","","","","","","","","","","","","",""
"revaluation","55","341236","0.0-3.0-10.0-0.2","spark_pilot_2","7953","1","7","Male","","false","","","","","[664.5]","./assets/img/space/catch/2.jpg","[""spaceBar""]","catch practice","space","0","{""ArrowUp,ArrowLeft"":3,""ArrowUp,ArrowRight"":36,""ArrowDown,ArrowLeft"":15,""ArrowDown,ArrowRight"":23}","true","spaceBar","true","","","","","","","",""
"html-keyboard-response","56","341749","0.0-3.0-10.0-1.2","spark_pilot_2","7953","1","7","Male","","","","","","","null","<div style=""font-size:60px;"">+</div>","null","fixation","","","","","","","","","","","","","",""
"learning-instructions","57","364854","0.0-3.0-11.0-0.0","spark_pilot_2","7953","1","7","Male","","","","","","","9524.599999999627","<p> After you explore a place to find treasure, it will be time to play a different game. </p>
            <p> During this game, red dots will appear on the screen and fall down slowly. </p>
            <p><b> You must click on them before they reach the bottom. </b></p>
            <img src='./assets/img/instructions/dotGame.jpg' class='instructions-image'>","","instructions","","","","","","","","","","","","","",""
"learning-instructions","58","371607","0.0-3.0-11.0-0.1","spark_pilot_2","7953","1","7","Male","","","","","","","1089.1999999997206","<p> For every dot you click, you will earn additional treasure. </p>
            <p> Let’s try practicing that now. </p>","","instructions","","","","","","","","","","","","","",""
"revaluation","59","386611","0.0-3.0-12.0-0.0","spark_pilot_2","7953","1","7","Male","","","","","","","[-1]","","","rest practice","","10","","","","","1","15000","","","","","",""
"learning-instructions","60","397145","0.0-3.0-13.0-0.0-0.0","spark_pilot_2","7953","1","7","Male","","","","","","","5283.199999999721","<p> Now, you will practice a shortened version of the game to get a sense of how it all fits together. </p>","","instructions","","","","","","","","","","","","","",""
"learning-instructions","61","403367","0.0-3.0-13.0-0.0-0.1","spark_pilot_2","7953","1","7","Male","","","","","","","3035.5","<p>This time you are searching for treasure in outer space.</p>","","instructions","","","","","","","","","","","","","",""
"learning-instructions","62","434196","0.0-3.0-13.0-1.0-0.0","spark_pilot_2","7953","1","7","Male","","","","","","","16072.19999999972","<p> Remember, when you see a picture of the place, use the up and down keys to <b>find an animal</b>.</p>
            <p> When you encounter an animal, you should use the left and right keys to <b>select a treasure chest</b>.</p>
            <p> Don't forget to look out for the robber! </p>","","instructions","","","","","","","","","","","","","",""
"revaluation","63","438213","0.0-3.0-13.0-2.0-0.0","spark_pilot_2","7953","1","7","Male","","true","","","","","[]","./assets/img/space/11.jpg","[]","practice block","space","-5","{""ArrowUp,ArrowLeft"":3,""ArrowUp,ArrowRight"":36,""ArrowDown,ArrowLeft"":15,""ArrowDown,ArrowRight"":23}","false","","false","","","","","","","",""
"html-keyboard-response","64","438717","0.0-3.0-13.0-2.0-1.0","spark_pilot_2","7953","1","7","Male","","","","","","","null","<div style=""font-size:60px;"">+</div>","null","fixation","","","","","","","","","","","","","",""
"revaluation","65","444746","0.0-3.0-13.0-2.0-0.1","spark_pilot_2","7953","1","7","Male","","false","","","","","[368.20000000018626,1514.3999999999069]","./assets/img/space/12.jpg","[""ArrowDown"",""ArrowRight""]","practice block","space","23","{""ArrowUp,ArrowLeft"":3,""ArrowUp,ArrowRight"":36,""ArrowDown,ArrowLeft"":15,""ArrowDown,ArrowRight"":23}","false","ArrowDown,ArrowRight","false","","","","","","","",""
"html-keyboard-response","66","445251","0.0-3.0-13.0-2.0-1.1","spark_pilot_2","7953","1","7","Male","","","","","","","null","<div style=""font-size:60px;"">+</div>","null","fixation","","","","","","","","","","","","","",""
"revaluation","67","451266","0.0-3.0-13.0-2.0-0.2","spark_pilot_2","7953","1","7","Male","","false","","","","","[730.6000000000931,1275.3000000002794]","./assets/img/space/13.jpg","[""ArrowDown"",""ArrowRight""]","practice block","space","23","{""ArrowUp,ArrowLeft"":3,""ArrowUp,ArrowRight"":36,""ArrowDown,ArrowLeft"":15,""ArrowDown,ArrowRight"":23}","false","ArrowDown,ArrowRight","false","","","","","","","",""
"html-keyboard-response","68","451767","0.0-3.0-13.0-2.0-1.2","spark_pilot_2","7953","1","7","Male","","","","","","","null","<div style=""font-size:60px;"">+</div>","null","fixation","","","","","","","","","","","","","",""
"revaluation","69","457772","0.0-3.0-13.0-2.0-0.3","spark_pilot_2","7953","1","7","Male","","false","","","","","[443.90000000037253,878.3999999999069]","./assets/img/space/14.jpg","[""ArrowUp"",""ArrowLeft""]","practice block","space","3","{""ArrowUp,ArrowLeft"":3,""ArrowUp,ArrowRight"":36,""ArrowDown,ArrowLeft"":15,""ArrowDown,ArrowRight"":23}","false","ArrowUp,ArrowLeft","false","","","","","","","",""
"html-keyboard-response","70","458273","0.0-3.0-13.0-2.0-1.3","spark_pilot_2","7953","1","7","Male","","","","","","","null","<div style=""font-size:60px;"">+</div>","null","fixation","","","","","","","","","","","","","",""
"revaluation","71","464284","0.0-3.0-13.0-2.0-0.4","spark_pilot_2","7953","1","7","Male","","false","","","","","[1469.8999999999069,923.7999999998137]","./assets/img/space/11.jpg","[""ArrowDown"",""ArrowRight""]","practice block","space","23","{""ArrowUp,ArrowLeft"":3,""ArrowUp,ArrowRight"":36,""ArrowDown,ArrowLeft"":15,""ArrowDown,ArrowRight"":23}","false","ArrowDown,ArrowRight","false","","","","","","","",""
"html-keyboard-response","72","464785","0.0-3.0-13.0-2.0-1.4","spark_pilot_2","7953","1","7","Male","","","","","","","null","<div style=""font-size:60px;"">+</div>","null","fixation","","","","","","","","","","","","","",""
"revaluation","73","468789","0.0-3.0-13.0-2.0-0.5","spark_pilot_2","7953","1","7","Male","","true","","","","","[]","./assets/img/space/12.jpg","[]","practice block","space","-5","{""ArrowUp,ArrowLeft"":3,""ArrowUp,ArrowRight"":36,""ArrowDown,ArrowLeft"":15,""ArrowDown,ArrowRight"":23}","false","","false","","","","","","","",""
"html-keyboard-response","74","469291","0.0-3.0-13.0-2.0-1.5","spark_pilot_2","7953","1","7","Male","","","","","","","null","<div style=""font-size:60px;"">+</div>","null","fixation","","","","","","","","","","","","","",""
"revaluation","75","475295","0.0-3.0-13.0-2.0-0.6","spark_pilot_2","7953","1","7","Male","","false","","","","","[525.8999999999069,835.2000000001863]","./assets/img/space/13.jpg","[""ArrowDown"",""ArrowLeft""]","practice block","space","15","{""ArrowUp,ArrowLeft"":3,""ArrowUp,ArrowRight"":36,""ArrowDown,ArrowLeft"":15,""ArrowDown,ArrowRight"":23}","false","ArrowDown,ArrowLeft","false","","","","","","","",""
"html-keyboard-response","76","475796","0.0-3.0-13.0-2.0-1.6","spark_pilot_2","7953","1","7","Male","","","","","","","null","<div style=""font-size:60px;"">+</div>","null","fixation","","","","","","","","","","","","","",""
"revaluation","77","481800","0.0-3.0-13.0-2.0-0.7","spark_pilot_2","7953","1","7","Male","","false","","","","","[1124.2999999998137,1051.9000000003725]","./assets/img/space/14.jpg","[""ArrowDown"",""ArrowRight""]","practice block","space","23","{""ArrowUp,ArrowLeft"":3,""ArrowUp,ArrowRight"":36,""ArrowDown,ArrowLeft"":15,""ArrowDown,ArrowRight"":23}","false","ArrowDown,ArrowRight","false","","","","","","","",""
"html-keyboard-response","78","482302","0.0-3.0-13.0-2.0-1.7","spark_pilot_2","7953","1","7","Male","","","","","","","null","<div style=""font-size:60px;"">+</div>","null","fixation","","","","","","","","","","","","","",""
"revaluation","79","486306","0.0-3.0-13.0-2.0-0.8","spark_pilot_2","7953","1","7","Male","","true","","","","","[]","./assets/img/space/catch/3.jpg","[]","practice block","space","-5","{""ArrowUp,ArrowLeft"":3,""ArrowUp,ArrowRight"":36,""ArrowDown,ArrowLeft"":15,""ArrowDown,ArrowRight"":23}","false","","true","","","","","","","",""
"html-keyboard-response","80","486807","0.0-3.0-13.0-2.0-1.8","spark_pilot_2","7953","1","7","Male","","","","","","","null","<div style=""font-size:60px;"">+</div>","null","fixation","","","","","","","","","","","","","",""
"learning-instructions","81","502117","0.0-3.0-13.0-3.0-0.0","spark_pilot_2","7953","1","7","Male","","","","","","","2394.1999999997206","<p> Now, you will travel with a friend who will choose whether you go up or down first. </p>
            <p> On these turns, you will just see the animal that they found. You will still get to choose which chest to search for treasure.</p>","","instructions","","","","","","","","","","","","","",""
"revaluation","82","506130","0.0-3.0-13.0-4.0-0.0","spark_pilot_2","7953","1","7","Male","","false","","","","","[1569.1000000000931]","./assets/img/space/animals/rabbit.jpg","[""ArrowRight""]","practice block","space","23","{""ArrowUp,ArrowLeft"":3,""ArrowUp,ArrowRight"":36,""ArrowDown,ArrowLeft"":15,""ArrowDown,ArrowRight"":23}","true","ArrowDown,ArrowRight","","","","","","","","",""
"html-keyboard-response","83","506636","0.0-3.0-13.0-4.0-1.0","spark_pilot_2","7953","1","7","Male","","","","","","","null","<div style=""font-size:60px;"">+</div>","null","fixation","","","","","","","","","","","","","",""
"revaluation","84","510654","0.0-3.0-13.0-4.0-0.1","spark_pilot_2","7953","1","7","Male","","false","","","","","[1187.1999999997206]","./assets/img/space/animals/rabbit.jpg","[""ArrowLeft""]","practice block","space","15","{""ArrowUp,ArrowLeft"":3,""ArrowUp,ArrowRight"":36,""ArrowDown,ArrowLeft"":15,""ArrowDown,ArrowRight"":23}","false","ArrowDown,ArrowLeft","","","","","","","","",""
"html-keyboard-response","85","511156","0.0-3.0-13.0-4.0-1.1","spark_pilot_2","7953","1","7","Male","","","","","","","null","<div style=""font-size:60px;"">+</div>","null","fixation","","","","","","","","","","","","","",""
"revaluation","86","515178","0.0-3.0-13.0-4.0-0.2","spark_pilot_2","7953","1","7","Male","","false","","","","","[528]","./assets/img/space/animals/cat.jpg","[""ArrowRight""]","practice block","space","36","{""ArrowUp,ArrowLeft"":3,""ArrowUp,ArrowRight"":36,""ArrowDown,ArrowLeft"":15,""ArrowDown,ArrowRight"":23}","true","ArrowUp,ArrowRight","","","","","","","","",""
"html-keyboard-response","87","515695","0.0-3.0-13.0-4.0-1.2","spark_pilot_2","7953","1","7","Male","","","","","","","null","<div style=""font-size:60px;"">+</div>","null","fixation","","","","","","","","","","","","","",""
"revaluation","88","519707","0.0-3.0-13.0-4.0-0.3","spark_pilot_2","7953","1","7","Male","","false","","","","","[443.09999999962747]","./assets/img/space/animals/cat.jpg","[""ArrowRight""]","practice block","space","36","{""ArrowUp,ArrowLeft"":3,""ArrowUp,ArrowRight"":36,""ArrowDown,ArrowLeft"":15,""ArrowDown,ArrowRight"":23}","true","ArrowUp,ArrowRight","","","","","","","","",""
"html-keyboard-response","89","520217","0.0-3.0-13.0-4.0-1.3","spark_pilot_2","7953","1","7","Male","","","","","","","null","<div style=""font-size:60px;"">+</div>","null","fixation","","","","","","","","","","","","","",""
"learning-instructions","90","529603","0.0-3.0-13.0-5.0-0.0","spark_pilot_2","7953","1","7","Male","","","","","","","2018.8000000002794","<p> Time to play the dot game! </p>
            <p> For 15 seconds, click the red dots on the following screen as they appear. </p>","","instructions","","","","","","","","","","","","","",""
"revaluation","91","544605","0.0-3.0-13.0-6.0-0.0","spark_pilot_2","7953","1","7","Male","","","","","","","[149]","","","rest practice","","10","","","","","0","15000","","","","","",""
"learning-instructions","92","554528","0.0-3.0-13.0-7.0-0.0","spark_pilot_2","7953","1","7","Male","","","","","","","3807.600000000093","<p> You have almost finished this part of the game! </p>
            <p> We are going to ask you to make a few more choices. </p>","","instructions","","","","","","","","","","","","","",""
"learning-instructions","93","570293","0.0-3.0-13.0-7.0-0.1","spark_pilot_2","7953","1","7","Male","","","","","","","1769.8999999999069","<p> First, you need to decide whether to go up or down. When you see each picture, use the arrow keys to make your choice. </p>
            <p><b>You will not see which animal you found, but try to get to the one that will give you the most treasure.</b></p>","","instructions","","","","","","","","","","","","","",""
"revaluation","94","571947","0.0-3.0-13.0-8.0","spark_pilot_2","7953","1","7","Male","","false","","","","","[1653.1000000000931]","./assets/img/space/15.jpg","[""ArrowDown""]","practice block","space","0","{""ArrowUp,ArrowLeft"":3,""ArrowUp,ArrowRight"":36,""ArrowDown,ArrowLeft"":15,""ArrowDown,ArrowRight"":23}","false","ArrowDown","false","","","","","","","",""
"html-keyboard-response","95","572459","0.0-3.0-13.0-9.0","spark_pilot_2","7953","1","7","Male","","","","","","","null","<div style=""font-size:60px;"">+</div>","null","fixation","","","","","","","","","","","","","",""
"learning-instructions","96","585916","0.0-3.0-13.0-10.0-0.0","spark_pilot_2","7953","1","7","Male","","","","","","","2085.6999999997206","<p> Now you will see the animals again and can search their chests for treasure. </p>
            <p> This time, you will not see how much treasure you earned, but you will earn more bonus money for making better choices. </p>","","instructions","","","","","","","","","","","","","",""
"revaluation","97","592349","0.0-3.0-13.0-11.0-0.0","spark_pilot_2","7953","1","7","Male","","false","","","","","[6431.899999999907]","./assets/img/space/animals/cat.jpg","[""ArrowRight""]","practice block","space","0","{""ArrowUp,ArrowLeft"":3,""ArrowUp,ArrowRight"":36,""ArrowDown,ArrowLeft"":15,""ArrowDown,ArrowRight"":23}","true","ArrowUp,ArrowRight","","","","","","","","",""
"html-keyboard-response","98","592856","0.0-3.0-13.0-11.0-1.0","spark_pilot_2","7953","1","7","Male","","","","","","","null","<div style=""font-size:60px;"">+</div>","null","fixation","","","","","","","","","","","","","",""
"revaluation","99","594193","0.0-3.0-13.0-11.0-0.1","spark_pilot_2","7953","1","7","Male","","false","","","","","[1335]","./assets/img/space/animals/rabbit.jpg","[""ArrowRight""]","practice block","space","0","{""ArrowUp,ArrowLeft"":3,""ArrowUp,ArrowRight"":36,""ArrowDown,ArrowLeft"":15,""ArrowDown,ArrowRight"":23}","true","ArrowDown,ArrowRight","","","","","","","","",""
"html-keyboard-response","100","594702","0.0-3.0-13.0-11.0-1.1","spark_pilot_2","7953","1","7","Male","","","","","","","null","<div style=""font-size:60px;"">+</div>","null","fixation","","","","","","","","","","","","","",""
"learning-instructions","101","606766","0.0-3.0-14.0-0.0","spark_pilot_2","7953","1","7","Male","","","","","","","7492.399999999907","<p> Before you start, we're going to ask you a few questions about how the game works. </p>","","instructions","","","","","","","","","","","","","",""
"comp-q","102","623840","0.0-3.0-15.0-0.0-0.0","spark_pilot_2","7953","1","7","Male","","","","","","","11359.700000000186","<p> <b> True or False? </b> </p>
            <p> There can be 50 pieces of treasure in a given animal's chest. </p>","0","comp_question","","","","false","","","","","","","","","",""
"comp-q","103","633720","0.0-3.0-15.0-0.0-1.0","spark_pilot_2","7953","1","7","Male","","","","","","","3364.8000000002794","<p> <b>Incorrect.</b> The amount of treasure in each chest can range from 0 to 40 pieces. </p>","0","comp_answer","","","","","","","","","","","","","",""
"comp-q","104","642724","0.0-3.0-15.0-0.1-0.1","spark_pilot_2","7953","1","7","Male","","","","","","","3440.5","<p> <b> True or False? </b> </p>
            <p> There can be 50 pieces of treasure in a given animal's chest. </p>","0","comp_question","","","","false","","","","","","","","","",""
"comp-q","105","651057","0.0-3.0-15.0-0.1-1.1","spark_pilot_2","7953","1","7","Male","","","","","","","1832.3999999999069","<p> <b>Incorrect.</b> The amount of treasure in each chest can range from 0 to 40 pieces. </p>","0","comp_answer","","","","","","","","","","","","","",""
"comp-q","106","658894","0.0-3.0-15.0-0.2-0.2","spark_pilot_2","7953","1","7","Male","","","","","","","2277.100000000093","<p> <b> True or False? </b> </p>
            <p> There can be 50 pieces of treasure in a given animal's chest. </p>","1","comp_question","","","","true","","","","","","","","","",""
"comp-q","107","668060","0.0-3.0-15.0-0.2-1.2","spark_pilot_2","7953","1","7","Male","","","","","","","2513.4000000003725","<p> <b> That's right! </b> The amount of treasure in each chest can range from 0 to 40 pieces. </p>","0","comp_answer","","","","","","","","","","","","","",""
"comp-q","108","677733","0.0-3.0-15.0-0.3-0.3","spark_pilot_2","7953","1","7","Male","","","","","","","2565.6999999997206","<p> <b> True or False? </b> </p><p> In this game, all animals have the same amount of treasure in their left and right chests. </p>","1","comp_question","","","","true","","","","","","","","","",""
"comp-q","109","684084","0.0-3.0-15.0-0.3-1.3","spark_pilot_2","7953","1","7","Male","","","","","","","1119.8000000002794","<p> <b> That's right! </b> Animals have different amounts of treasure in their treasure chests. </p>","0","comp_answer","","","","","","","","","","","","","",""
"comp-q","110","692869","0.0-3.0-15.0-0.4-0.4","spark_pilot_2","7953","1","7","Male","","","","","","","2949.6999999997206","<p> <b> True or False? </b> </p><p> The same animal will always be there if you go up in the same place. </p>","1","comp_question","","","","false","","","","","","","","","",""
"comp-q","111","702188","0.0-3.0-15.0-0.4-1.4","spark_pilot_2","7953","1","7","Male","","","","","","","3021.2000000001863","<p> <b>Incorrect.</b> One animal lives in the upper part and one lives in the lower part of every place. </p>","0","comp_answer","","","","","","","","","","","","","",""
"comp-q","112","709705","0.0-3.0-15.0-0.5-0.5","spark_pilot_2","7953","1","7","Male","","","","","","","1695.1000000000931","<p> <b> True or False? </b> </p><p> The same animal will always be there if you go up in the same place. </p>","0","comp_question","","","","true","","","","","","","","","",""
"comp-q","113","718353","0.0-3.0-15.0-0.5-1.5","spark_pilot_2","7953","1","7","Male","","","","","","","2214.9000000003725","<p> <b> That's right! </b> One animal lives in the upper part and one lives in the lower part of every place. </p>","0","comp_answer","","","","","","","","","","","","","",""
"comp-q","114","726835","0.0-3.0-15.0-0.6-0.6","spark_pilot_2","7953","1","7","Male","","","","","","","2963.100000000093","<p> <b> True or False? </b> </p><p> If you see a different picture, it means you are in a new place. </p>","0","comp_question","","","","false","","","","","","","","","",""
"comp-q","115","740136","0.0-3.0-15.0-0.6-1.6","spark_pilot_2","7953","1","7","Male","","","","","","","2216","<p> <b>Incorrect.</b> Lots of different images may show the same place. For example,  you may see three different images that all remind you that you are in outer space. </p>","0","comp_answer","","","","","","","","","","","","","",""
"comp-q","116","746912","0.0-3.0-15.0-0.7-0.7","spark_pilot_2","7953","1","7","Male","","","","","","","1279.6000000000931","<p> <b> True or False? </b> </p><p> If you see a different picture, it means you are in a new place. </p>","1","comp_question","","","","true","","","","","","","","","",""
"comp-q","117","760819","0.0-3.0-15.0-0.7-1.7","spark_pilot_2","7953","1","7","Male","","","","","","","2685.5","<p> <b> That's right! </b> Lots of different images may show the same place. For example,  you may see three different images that all remind you that you are in outer space. </p>","0","comp_answer","","","","","","","","","","","","","",""
"learning-instructions","118","773569","0.0-3.0-16.0-0.0","spark_pilot_2","7953","1","7","Male","","","","","","","2913.7999999998137","<p> Good job. Remember to do your best because the amount of treasure you earn will be converted into bonus money. </p>
            <p> It’s time to start the real game! </p>","","instructions","","","","","","","","","","","","","",""
"learning-instructions","119","778431","0.0-4.0-0.0-0.0","spark_pilot_2","7953","1","7","Male","","","","","","","2154","<p> This time you are searching for treasure in the <b>ocean</b>.</p>","","instructions","","","","","","","","","","","","","",""
"learning-instructions","120","798209","0.0-4.0-0.0-0.1","spark_pilot_2","7953","1","7","Male","","","","","","","2486.6999999997206","<p><b>New</b> animals with <b>new</b> treasure chests live here. You need to explore to discover where the animal with the best treasure chest is.</p>
                    <p> Like before, once you figure out which animal has the chest with the most treasure, you should try to get to that animal and select that chest! </p>","","instructions","","","","","","","","","","","","","",""
"learning-instructions","121","814756","0.0-4.0-1.0-0.0","spark_pilot_2","7953","1","7","Male","","","","","","","1817.2999999998137","<p> Remember, when you see a picture of the place, use the up and down keys to <b>find an animal</b>.</p>
            <p> When you encounter an animal, you should use the left and right keys to <b>select a treasure chest</b>.</p>
            <p> Don't forget to look out for the robber! </p>","","instructions","","","","","","","","","","","","","",""
"revaluation","122","818762","0.0-4.0-2.0-0.0","spark_pilot_2","7953","1","7","Male","","true","","","","","[]","./assets/img/ocean/memory/25.jpg","[]","value training","ocean","-5","{""ArrowUp,ArrowLeft"":26,""ArrowUp,ArrowRight"":10,""ArrowDown,ArrowLeft"":5,""ArrowDown,ArrowRight"":17}","false","","false","","","original","1","0","","",""
"html-keyboard-response","123","819276","0.0-4.0-2.0-1.0","spark_pilot_2","7953","1","7","Male","","","","","","","null","<div style=""font-size:60px;"">+</div>","null","fixation","","","","","","","","","","","1","","",""
"revaluation","124","825307","0.0-4.0-2.0-0.1","spark_pilot_2","7953","1","7","Male","","false","","","","","[947.6000000000931,1558.8999999999069]","./assets/img/ocean/memory/16.jpg","[""ArrowDown"",""ArrowRight""]","value training","ocean","17","{""ArrowUp,ArrowLeft"":26,""ArrowUp,ArrowRight"":10,""ArrowDown,ArrowLeft"":5,""ArrowDown,ArrowRight"":17}","false","ArrowDown,ArrowRight","false","","","original","1","2","","",""
"html-keyboard-response","125","825810","0.0-4.0-2.0-1.1","spark_pilot_2","7953","1","7","Male","","","","","","","null","<div style=""font-size:60px;"">+</div>","null","fixation","","","","","","","","","","","3","","",""
"revaluation","126","831829","0.0-4.0-2.0-0.2","spark_pilot_2","7953","1","7","Male","","false","","","","","[337,943.6000000000931]","./assets/img/ocean/memory/33.jpg","[""ArrowUp"",""ArrowLeft""]","value training","ocean","26","{""ArrowUp,ArrowLeft"":26,""ArrowUp,ArrowRight"":10,""ArrowDown,ArrowLeft"":5,""ArrowDown,ArrowRight"":17}","true","ArrowUp,ArrowLeft","false","","","original","1","4","","",""
"html-keyboard-response","127","832330","0.0-4.0-2.0-1.2","spark_pilot_2","7953","1","7","Male","","","","","","","null","<div style=""font-size:60px;"">+</div>","null","fixation","","","","","","","","","","","5","","",""
"revaluation","128","838349","0.0-4.0-2.0-0.3","spark_pilot_2","7953","1","7","Male","","false","","","","","[936.8000000002794,514.6000000000931]","./assets/img/ocean/memory/18.jpg","[""ArrowUp"",""ArrowRight""]","value training","ocean","10","{""ArrowUp,ArrowLeft"":26,""ArrowUp,ArrowRight"":10,""ArrowDown,ArrowLeft"":5,""ArrowDown,ArrowRight"":17}","false","ArrowUp,ArrowRight","false","","","original","1","6","","",""
"html-keyboard-response","129","838856","0.0-4.0-2.0-1.3","spark_pilot_2","7953","1","7","Male","","","","","","","null","<div style=""font-size:60px;"">+</div>","null","fixation","","","","","","","","","","","7","","",""
"revaluation","130","844873","0.0-4.0-2.0-0.4","spark_pilot_2","7953","1","7","Male","","false","","","","","[355.60000000009313,582.2000000001863]","./assets/img/ocean/memory/7.jpg","[""ArrowDown"",""ArrowLeft""]","value training","ocean","5","{""ArrowUp,ArrowLeft"":26,""ArrowUp,ArrowRight"":10,""ArrowDown,ArrowLeft"":5,""ArrowDown,ArrowRight"":17}","false","ArrowDown,ArrowLeft","false","","","original","1","8","","",""
"html-keyboard-response","131","845375","0.0-4.0-2.0-1.4","spark_pilot_2","7953","1","7","Male","","","","","","","null","<div style=""font-size:60px;"">+</div>","null","fixation","","","","","","","","","","","9","","",""
"revaluation","132","849379","0.0-4.0-2.0-0.5","spark_pilot_2","7953","1","7","Male","","false","","","","","[397.6999999997206]","./assets/img/ocean/catch/3.jpg","[""ArrowDown""]","value training","ocean","-10","{""ArrowUp,ArrowLeft"":26,""ArrowUp,ArrowRight"":10,""ArrowDown,ArrowLeft"":5,""ArrowDown,ArrowRight"":17}","false","ArrowDown","true","","","original","1","10","","",""
"html-keyboard-response","133","849881","0.0-4.0-2.0-1.5","spark_pilot_2","7953","1","7","Male","","","","","","","null","<div style=""font-size:60px;"">+</div>","null","fixation","","","","","","","","","","","11","","",""
"revaluation","134","853884","0.0-4.0-2.0-0.6","spark_pilot_2","7953","1","7","Male","","false","","","","","[1179.0999999996275]","./assets/img/ocean/catch/0.jpg","[""spaceBar""]","value training","ocean","0","{""ArrowUp,ArrowLeft"":26,""ArrowUp,ArrowRight"":10,""ArrowDown,ArrowLeft"":5,""ArrowDown,ArrowRight"":17}","true","spaceBar","true","","","original","1","12","","",""
"html-keyboard-response","135","854384","0.0-4.0-2.0-1.6","spark_pilot_2","7953","1","7","Male","","","","","","","null","<div style=""font-size:60px;"">+</div>","null","fixation","","","","","","","","","","","13","","",""
"revaluation","136","860389","0.0-4.0-2.0-0.7","spark_pilot_2","7953","1","7","Male","","false","","","","","[1817.6000000000931,1295.8000000002794]","./assets/img/ocean/memory/18.jpg","[""ArrowDown"",""ArrowRight""]","value training","ocean","17","{""ArrowUp,ArrowLeft"":26,""ArrowUp,ArrowRight"":10,""ArrowDown,ArrowLeft"":5,""ArrowDown,ArrowRight"":17}","false","ArrowDown,ArrowRight","false","","","original","1","14","","",""
"html-keyboard-response","137","860890","0.0-4.0-2.0-1.7","spark_pilot_2","7953","1","7","Male","","","","","","","null","<div style=""font-size:60px;"">+</div>","null","fixation","","","","","","","","","","","15","","",""
"revaluation","138","866895","0.0-4.0-2.0-0.8","spark_pilot_2","7953","1","7","Male","","false","","","","","[696.8999999999069,1012.6000000000931]","./assets/img/ocean/memory/13.jpg","[""ArrowUp"",""ArrowLeft""]","value training","ocean","26","{""ArrowUp,ArrowLeft"":26,""ArrowUp,ArrowRight"":10,""ArrowDown,ArrowLeft"":5,""ArrowDown,ArrowRight"":17}","true","ArrowUp,ArrowLeft","false","","","original","1","16","","",""
"html-keyboard-response","139","867398","0.0-4.0-2.0-1.8","spark_pilot_2","7953","1","7","Male","","","","","","","null","<div style=""font-size:60px;"">+</div>","null","fixation","","","","","","","","","","","17","","",""
"revaluation","140","873407","0.0-4.0-2.0-0.9","spark_pilot_2","7953","1","7","Male","","false","","","","","[581,431.5]","./assets/img/ocean/memory/10.jpg","[""ArrowDown"",""ArrowLeft""]","value training","ocean","5","{""ArrowUp,ArrowLeft"":26,""ArrowUp,ArrowRight"":10,""ArrowDown,ArrowLeft"":5,""ArrowDown,ArrowRight"":17}","false","ArrowDown,ArrowLeft","false","","","original","1","18","","",""
"html-keyboard-response","141","873909","0.0-4.0-2.0-1.9","spark_pilot_2","7953","1","7","Male","","","","","","","null","<div style=""font-size:60px;"">+</div>","null","fixation","","","","","","","","","","","19","","",""
"revaluation","142","879914","0.0-4.0-2.0-0.10","spark_pilot_2","7953","1","7","Male","","false","","","","","[303,578.0999999996275]","./assets/img/ocean/memory/23.jpg","[""ArrowUp"",""ArrowRight""]","value training","ocean","10","{""ArrowUp,ArrowLeft"":26,""ArrowUp,ArrowRight"":10,""ArrowDown,ArrowLeft"":5,""ArrowDown,ArrowRight"":17}","false","ArrowUp,ArrowRight","false","","","original","1","20","","",""
"html-keyboard-response","143","880416","0.0-4.0-2.0-1.10","spark_pilot_2","7953","1","7","Male","","","","","","","null","<div style=""font-size:60px;"">+</div>","null","fixation","","","","","","","","","","","21","","",""
"revaluation","144","886423","0.0-4.0-2.0-0.11","spark_pilot_2","7953","1","7","Male","","false","","","","","[1330,898.2999999998137]","./assets/img/ocean/memory/8.jpg","[""ArrowDown"",""ArrowRight""]","value training","ocean","17","{""ArrowUp,ArrowLeft"":26,""ArrowUp,ArrowRight"":10,""ArrowDown,ArrowLeft"":5,""ArrowDown,ArrowRight"":17}","false","ArrowDown,ArrowRight","false","","","original","1","22","","",""
"html-keyboard-response","145","886924","0.0-4.0-2.0-1.11","spark_pilot_2","7953","1","7","Male","","","","","","","null","<div style=""font-size:60px;"">+</div>","null","fixation","","","","","","","","","","","23","","",""
"revaluation","146","892934","0.0-4.0-2.0-0.12","spark_pilot_2","7953","1","7","Male","","false","","","","","[361.20000000018626,454.59999999962747]","./assets/img/ocean/memory/23.jpg","[""ArrowUp"",""ArrowLeft""]","value training","ocean","26","{""ArrowUp,ArrowLeft"":26,""ArrowUp,ArrowRight"":10,""ArrowDown,ArrowLeft"":5,""ArrowDown,ArrowRight"":17}","true","ArrowUp,ArrowLeft","false","","","original","1","24","","",""
"html-keyboard-response","147","893435","0.0-4.0-2.0-1.12","spark_pilot_2","7953","1","7","Male","","","","","","","null","<div style=""font-size:60px;"">+</div>","null","fixation","","","","","","","","","","","25","","",""
"revaluation","148","899439","0.0-4.0-2.0-0.13","spark_pilot_2","7953","1","7","Male","","false","","","","","[1403.5,709.5]","./assets/img/ocean/memory/9.jpg","[""ArrowDown"",""ArrowRight""]","value training","ocean","17","{""ArrowUp,ArrowLeft"":26,""ArrowUp,ArrowRight"":10,""ArrowDown,ArrowLeft"":5,""ArrowDown,ArrowRight"":17}","false","ArrowDown,ArrowRight","false","","","original","1","26","","",""
"html-keyboard-response","149","899941","0.0-4.0-2.0-1.13","spark_pilot_2","7953","1","7","Male","","","","","","","null","<div style=""font-size:60px;"">+</div>","null","fixation","","","","","","","","","","","27","","",""
"revaluation","150","905947","0.0-4.0-2.0-0.14","spark_pilot_2","7953","1","7","Male","","false","","","","","[409.89999999990687,970.6999999997206]","./assets/img/ocean/memory/21.jpg","[""ArrowUp"",""ArrowRight""]","value training","ocean","10","{""ArrowUp,ArrowLeft"":26,""ArrowUp,ArrowRight"":10,""ArrowDown,ArrowLeft"":5,""ArrowDown,ArrowRight"":17}","false","ArrowUp,ArrowRight","false","","","original","1","28","","",""
"html-keyboard-response","151","906448","0.0-4.0-2.0-1.14","spark_pilot_2","7953","1","7","Male","","","","","","","null","<div style=""font-size:60px;"">+</div>","null","fixation","","","","","","","","","","","29","","",""
"revaluation","152","912453","0.0-4.0-2.0-0.15","spark_pilot_2","7953","1","7","Male","","false","","","","","[542.8999999999069,405.20000000018626]","./assets/img/ocean/memory/32.jpg","[""ArrowDown"",""ArrowLeft""]","value training","ocean","5","{""ArrowUp,ArrowLeft"":26,""ArrowUp,ArrowRight"":10,""ArrowDown,ArrowLeft"":5,""ArrowDown,ArrowRight"":17}","false","ArrowDown,ArrowLeft","false","","","original","1","30","","",""
"html-keyboard-response","153","912954","0.0-4.0-2.0-1.15","spark_pilot_2","7953","1","7","Male","","","","","","","null","<div style=""font-size:60px;"">+</div>","null","fixation","","","","","","","","","","","31","","",""
"revaluation","154","918959","0.0-4.0-2.0-0.16","spark_pilot_2","7953","1","7","Male","","false","","","","","[422.1999999997206,1596.3000000002794]","./assets/img/ocean/memory/27.jpg","[""ArrowUp"",""ArrowLeft""]","value training","ocean","26","{""ArrowUp,ArrowLeft"":26,""ArrowUp,ArrowRight"":10,""ArrowDown,ArrowLeft"":5,""ArrowDown,ArrowRight"":17}","true","ArrowUp,ArrowLeft","false","","","original","1","32","","",""
"html-keyboard-response","155","919461","0.0-4.0-2.0-1.16","spark_pilot_2","7953","1","7","Male","","","","","","","null","<div style=""font-size:60px;"">+</div>","null","fixation","","","","","","","","","","","33","","",""
"revaluation","156","923466","0.0-4.0-2.0-0.17","spark_pilot_2","7953","1","7","Male","","false","","","","","[1292]","./assets/img/ocean/catch/5.jpg","[""ArrowDown""]","value training","ocean","-10","{""ArrowUp,ArrowLeft"":26,""ArrowUp,ArrowRight"":10,""ArrowDown,ArrowLeft"":5,""ArrowDown,ArrowRight"":17}","false","ArrowDown","true","","","original","1","34","","",""
"html-keyboard-response","157","923967","0.0-4.0-2.0-1.17","spark_pilot_2","7953","1","7","Male","","","","","","","null","<div style=""font-size:60px;"">+</div>","null","fixation","","","","","","","","","","","35","","",""
"revaluation","158","929971","0.0-4.0-2.0-0.18","spark_pilot_2","7953","1","7","Male","","false","","","","","[1894.2999999998137,1880.8999999999069]","./assets/img/ocean/memory/24.jpg","[""ArrowDown"",""ArrowLeft""]","value training","ocean","5","{""ArrowUp,ArrowLeft"":26,""ArrowUp,ArrowRight"":10,""ArrowDown,ArrowLeft"":5,""ArrowDown,ArrowRight"":17}","false","ArrowDown,ArrowLeft","false","","","original","1","36","","",""
"html-keyboard-response","159","930473","0.0-4.0-2.0-1.18","spark_pilot_2","7953","1","7","Male","","","","","","","null","<div style=""font-size:60px;"">+</div>","null","fixation","","","","","","","","","","","37","","",""
"revaluation","160","936479","0.0-4.0-2.0-0.19","spark_pilot_2","7953","1","7","Male","","false","","","","","[641.5,852.8999999999069]","./assets/img/ocean/memory/17.jpg","[""ArrowUp"",""ArrowRight""]","value training","ocean","10","{""ArrowUp,ArrowLeft"":26,""ArrowUp,ArrowRight"":10,""ArrowDown,ArrowLeft"":5,""ArrowDown,ArrowRight"":17}","false","ArrowUp,ArrowRight","false","","","original","1","38","","",""
"html-keyboard-response","161","936980","0.0-4.0-2.0-1.19","spark_pilot_2","7953","1","7","Male","","","","","","","null","<div style=""font-size:60px;"">+</div>","null","fixation","","","","","","","","","","","39","","",""
"revaluation","162","942984","0.0-4.0-2.0-0.20","spark_pilot_2","7953","1","7","Male","","false","","","","","[510.5,846.2999999998137]","./assets/img/ocean/memory/8.jpg","[""ArrowUp"",""ArrowRight""]","value training","ocean","10","{""ArrowUp,ArrowLeft"":26,""ArrowUp,ArrowRight"":10,""ArrowDown,ArrowLeft"":5,""ArrowDown,ArrowRight"":17}","false","ArrowUp,ArrowRight","false","","","original","1","40","","",""
"html-keyboard-response","163","943485","0.0-4.0-2.0-1.20","spark_pilot_2","7953","1","7","Male","","","","","","","null","<div style=""font-size:60px;"">+</div>","null","fixation","","","","","","","","","","","41","","",""
"revaluation","164","949490","0.0-4.0-2.0-0.21","spark_pilot_2","7953","1","7","Male","","false","","","","","[713.3999999999069,986.3999999999069]","./assets/img/ocean/memory/11.jpg","[""ArrowUp"",""ArrowLeft""]","value training","ocean","26","{""ArrowUp,ArrowLeft"":26,""ArrowUp,ArrowRight"":10,""ArrowDown,ArrowLeft"":5,""ArrowDown,ArrowRight"":17}","true","ArrowUp,ArrowLeft","false","","","original","1","42","","",""
"html-keyboard-response","165","949991","0.0-4.0-2.0-1.21","spark_pilot_2","7953","1","7","Male","","","","","","","null","<div style=""font-size:60px;"">+</div>","null","fixation","","","","","","","","","","","43","","",""
"revaluation","166","955995","0.0-4.0-2.0-0.22","spark_pilot_2","7953","1","7","Male","","false","","","","","[1122,536.6999999997206]","./assets/img/ocean/memory/39.jpg","[""ArrowDown"",""ArrowRight""]","value training","ocean","17","{""ArrowUp,ArrowLeft"":26,""ArrowUp,ArrowRight"":10,""ArrowDown,ArrowLeft"":5,""ArrowDown,ArrowRight"":17}","false","ArrowDown,ArrowRight","false","","","original","1","44","","",""
"html-keyboard-response","167","956497","0.0-4.0-2.0-1.22","spark_pilot_2","7953","1","7","Male","","","","","","","null","<div style=""font-size:60px;"">+</div>","null","fixation","","","","","","","","","","","45","","",""
"revaluation","168","962503","0.0-4.0-2.0-0.23","spark_pilot_2","7953","1","7","Male","","false","","","","","[404.79999999981374,570.2999999998137]","./assets/img/ocean/memory/11.jpg","[""ArrowDown"",""ArrowLeft""]","value training","ocean","5","{""ArrowUp,ArrowLeft"":26,""ArrowUp,ArrowRight"":10,""ArrowDown,ArrowLeft"":5,""ArrowDown,ArrowRight"":17}","false","ArrowDown,ArrowLeft","false","","","original","1","46","","",""
"html-keyboard-response","169","963004","0.0-4.0-2.0-1.23","spark_pilot_2","7953","1","7","Male","","","","","","","null","<div style=""font-size:60px;"">+</div>","null","fixation","","","","","","","","","","","47","","",""
"revaluation","170","967007","0.0-4.0-2.0-0.24","spark_pilot_2","7953","1","7","Male","","false","","","","","[397.10000000009313]","./assets/img/ocean/catch/6.jpg","[""ArrowUp""]","value training","ocean","-10","{""ArrowUp,ArrowLeft"":26,""ArrowUp,ArrowRight"":10,""ArrowDown,ArrowLeft"":5,""ArrowDown,ArrowRight"":17}","false","ArrowUp","true","","","original","1","48","","",""
"html-keyboard-response","171","967509","0.0-4.0-2.0-1.24","spark_pilot_2","7953","1","7","Male","","","","","","","null","<div style=""font-size:60px;"">+</div>","null","fixation","","","","","","","","","","","49","","",""
"revaluation","172","971513","0.0-4.0-2.0-0.25","spark_pilot_2","7953","1","7","Male","","true","","","","","[]","./assets/img/ocean/memory/30.jpg","[]","value training","ocean","-5","{""ArrowUp,ArrowLeft"":26,""ArrowUp,ArrowRight"":10,""ArrowDown,ArrowLeft"":5,""ArrowDown,ArrowRight"":17}","false","","false","","","original","1","50","","",""
"html-keyboard-response","173","972014","0.0-4.0-2.0-1.25","spark_pilot_2","7953","1","7","Male","","","","","","","null","<div style=""font-size:60px;"">+</div>","null","fixation","","","","","","","","","","","51","","",""
"revaluation","174","978027","0.0-4.0-2.0-0.26","spark_pilot_2","7953","1","7","Male","","false","","","","","[932,1130.1000000000931]","./assets/img/ocean/memory/33.jpg","[""ArrowUp"",""ArrowRight""]","value training","ocean","10","{""ArrowUp,ArrowLeft"":26,""ArrowUp,ArrowRight"":10,""ArrowDown,ArrowLeft"":5,""ArrowDown,ArrowRight"":17}","false","ArrowUp,ArrowRight","false","","","original","1","52","","",""
"html-keyboard-response","175","978529","0.0-4.0-2.0-1.26","spark_pilot_2","7953","1","7","Male","","","","","","","null","<div style=""font-size:60px;"">+</div>","null","fixation","","","","","","","","","","","53","","",""
"revaluation","176","984534","0.0-4.0-2.0-0.27","spark_pilot_2","7953","1","7","Male","","false","","","","","[356.5,358.70000000018626]","./assets/img/ocean/memory/20.jpg","[""ArrowDown"",""ArrowLeft""]","value training","ocean","5","{""ArrowUp,ArrowLeft"":26,""ArrowUp,ArrowRight"":10,""ArrowDown,ArrowLeft"":5,""ArrowDown,ArrowRight"":17}","false","ArrowDown,ArrowLeft","false","","","original","1","54","","",""
"html-keyboard-response","177","985035","0.0-4.0-2.0-1.27","spark_pilot_2","7953","1","7","Male","","","","","","","null","<div style=""font-size:60px;"">+</div>","null","fixation","","","","","","","","","","","55","","",""
"revaluation","178","991038","0.0-4.0-2.0-0.28","spark_pilot_2","7953","1","7","Male","","false","","","","","[1082,1048]","./assets/img/ocean/memory/16.jpg","[""ArrowDown"",""ArrowRight""]","value training","ocean","17","{""ArrowUp,ArrowLeft"":26,""ArrowUp,ArrowRight"":10,""ArrowDown,ArrowLeft"":5,""ArrowDown,ArrowRight"":17}","false","ArrowDown,ArrowRight","false","","","original","1","56","","",""
"html-keyboard-response","179","991539","0.0-4.0-2.0-1.28","spark_pilot_2","7953","1","7","Male","","","","","","","null","<div style=""font-size:60px;"">+</div>","null","fixation","","","","","","","","","","","57","","",""
"revaluation","180","997544","0.0-4.0-2.0-0.29","spark_pilot_2","7953","1","7","Male","","false","","","","","[1843.300000000745,1228.7999999998137]","./assets/img/ocean/memory/7.jpg","[""ArrowDown"",""ArrowRight""]","value training","ocean","17","{""ArrowUp,ArrowLeft"":26,""ArrowUp,ArrowRight"":10,""ArrowDown,ArrowLeft"":5,""ArrowDown,ArrowRight"":17}","false","ArrowDown,ArrowRight","false","","","original","1","58","","",""
"html-keyboard-response","181","998046","0.0-4.0-2.0-1.29","spark_pilot_2","7953","1","7","Male","","","","","","","null","<div style=""font-size:60px;"">+</div>","null","fixation","","","","","","","","","","","59","","",""
"revaluation","182","1004049","0.0-4.0-2.0-0.30","spark_pilot_2","7953","1","7","Male","","false","","","","","[1908.2000000001863,926.9000000003725]","./assets/img/ocean/memory/32.jpg","[""ArrowUp"",""ArrowLeft""]","value training","ocean","26","{""ArrowUp,ArrowLeft"":26,""ArrowUp,ArrowRight"":10,""ArrowDown,ArrowLeft"":5,""ArrowDown,ArrowRight"":17}","true","ArrowUp,ArrowLeft","false","","","original","1","60","","",""
"html-keyboard-response","183","1004551","0.0-4.0-2.0-1.30","spark_pilot_2","7953","1","7","Male","","","","","","","null","<div style=""font-size:60px;"">+</div>","null","fixation","","","","","","","","","","","61","","",""
"revaluation","184","1008554","0.0-4.0-2.0-0.31","spark_pilot_2","7953","1","7","Male","","true","","","","","[]","./assets/img/ocean/memory/9.jpg","[]","value training","ocean","-5","{""ArrowUp,ArrowLeft"":26,""ArrowUp,ArrowRight"":10,""ArrowDown,ArrowLeft"":5,""ArrowDown,ArrowRight"":17}","false","","false","","","original","1","62","","",""
"html-keyboard-response","185","1009056","0.0-4.0-2.0-1.31","spark_pilot_2","7953","1","7","Male","","","","","","","null","<div style=""font-size:60px;"">+</div>","null","fixation","","","","","","","","","","","63","","",""
"revaluation","186","1015061","0.0-4.0-2.0-0.32","spark_pilot_2","7953","1","7","Male","","false","","","","","[668.5,1038.5]","./assets/img/ocean/memory/21.jpg","[""ArrowDown"",""ArrowLeft""]","value training","ocean","5","{""ArrowUp,ArrowLeft"":26,""ArrowUp,ArrowRight"":10,""ArrowDown,ArrowLeft"":5,""ArrowDown,ArrowRight"":17}","false","ArrowDown,ArrowLeft","false","","","original","1","64","","",""
"html-keyboard-response","187","1015562","0.0-4.0-2.0-1.32","spark_pilot_2","7953","1","7","Male","","","","","","","null","<div style=""font-size:60px;"">+</div>","null","fixation","","","","","","","","","","","65","","",""
"revaluation","188","1021567","0.0-4.0-2.0-0.33","spark_pilot_2","7953","1","7","Male","","false","","","","","[1773,1302.2999999998137]","./assets/img/ocean/memory/0.jpg","[""ArrowDown"",""ArrowLeft""]","value training","ocean","5","{""ArrowUp,ArrowLeft"":26,""ArrowUp,ArrowRight"":10,""ArrowDown,ArrowLeft"":5,""ArrowDown,ArrowRight"":17}","false","ArrowDown,ArrowLeft","false","","","original","1","66","","",""
"html-keyboard-response","189","1022068","0.0-4.0-2.0-1.33","spark_pilot_2","7953","1","7","Male","","","","","","","null","<div style=""font-size:60px;"">+</div>","null","fixation","","","","","","","","","","","67","","",""
"revaluation","190","1028074","0.0-4.0-2.0-0.34","spark_pilot_2","7953","1","7","Male","","false","","","","","[683.5999999996275,588.1000000005588]","./assets/img/ocean/memory/24.jpg","[""ArrowDown"",""ArrowLeft""]","value training","ocean","5","{""ArrowUp,ArrowLeft"":26,""ArrowUp,ArrowRight"":10,""ArrowDown,ArrowLeft"":5,""ArrowDown,ArrowRight"":17}","false","ArrowDown,ArrowLeft","false","","","original","1","68","","",""
"html-keyboard-response","191","1028576","0.0-4.0-2.0-1.34","spark_pilot_2","7953","1","7","Male","","","","","","","null","<div style=""font-size:60px;"">+</div>","null","fixation","","","","","","","","","","","69","","",""
"revaluation","192","1034580","0.0-4.0-2.0-0.35","spark_pilot_2","7953","1","7","Male","","false","","","","","[1665.7999999998137,1890.5999999996275]","./assets/img/ocean/memory/17.jpg","[""ArrowUp"",""ArrowRight""]","value training","ocean","10","{""ArrowUp,ArrowLeft"":26,""ArrowUp,ArrowRight"":10,""ArrowDown,ArrowLeft"":5,""ArrowDown,ArrowRight"":17}","false","ArrowUp,ArrowRight","false","","","original","1","70","","",""
"html-keyboard-response","193","1035081","0.0-4.0-2.0-1.35","spark_pilot_2","7953","1","7","Male","","","","","","","null","<div style=""font-size:60px;"">+</div>","null","fixation","","","","","","","","","","","71","","",""
"revaluation","194","1039085","0.0-4.0-2.0-0.36","spark_pilot_2","7953","1","7","Male","","false","","","","","[331.19999999925494]","./assets/img/ocean/catch/1.jpg","[""ArrowDown""]","value training","ocean","-10","{""ArrowUp,ArrowLeft"":26,""ArrowUp,ArrowRight"":10,""ArrowDown,ArrowLeft"":5,""ArrowDown,ArrowRight"":17}","false","ArrowDown","true","","","original","1","72","","",""
"html-keyboard-response","195","1039585","0.0-4.0-2.0-1.36","spark_pilot_2","7953","1","7","Male","","","","","","","null","<div style=""font-size:60px;"">+</div>","null","fixation","","","","","","","","","","","73","","",""
"revaluation","196","1045589","0.0-4.0-2.0-0.37","spark_pilot_2","7953","1","7","Male","","false","","","","","[1789.699999999255,879]","./assets/img/ocean/memory/13.jpg","[""ArrowDown"",""ArrowRight""]","value training","ocean","17","{""ArrowUp,ArrowLeft"":26,""ArrowUp,ArrowRight"":10,""ArrowDown,ArrowLeft"":5,""ArrowDown,ArrowRight"":17}","false","ArrowDown,ArrowRight","false","","","original","1","74","","",""
"html-keyboard-response","197","1046090","0.0-4.0-2.0-1.37","spark_pilot_2","7953","1","7","Male","","","","","","","null","<div style=""font-size:60px;"">+</div>","null","fixation","","","","","","","","","","","75","","",""
"revaluation","198","1050094","0.0-4.0-2.0-0.38","spark_pilot_2","7953","1","7","Male","","false","","","","","[1301.3999999994412]","./assets/img/ocean/catch/2.jpg","[""spaceBar""]","value training","ocean","0","{""ArrowUp,ArrowLeft"":26,""ArrowUp,ArrowRight"":10,""ArrowDown,ArrowLeft"":5,""ArrowDown,ArrowRight"":17}","true","spaceBar","true","","","original","1","76","","",""
"html-keyboard-response","199","1050596","0.0-4.0-2.0-1.38","spark_pilot_2","7953","1","7","Male","","","","","","","null","<div style=""font-size:60px;"">+</div>","null","fixation","","","","","","","","","","","77","","",""
"revaluation","200","1054600","0.0-4.0-2.0-0.39","spark_pilot_2","7953","1","7","Male","","true","","","","","[]","./assets/img/ocean/memory/39.jpg","[]","value training","ocean","-5","{""ArrowUp,ArrowLeft"":26,""ArrowUp,ArrowRight"":10,""ArrowDown,ArrowLeft"":5,""ArrowDown,ArrowRight"":17}","false","","false","","","original","1","78","","",""
"html-keyboard-response","201","1055102","0.0-4.0-2.0-1.39","spark_pilot_2","7953","1","7","Male","","","","","","","null","<div style=""font-size:60px;"">+</div>","null","fixation","","","","","","","","","","","79","","",""
"revaluation","202","1061107","0.0-4.0-2.0-0.40","spark_pilot_2","7953","1","7","Male","","false","","","","","[1665.7000000001863,602.8999999994412]","./assets/img/ocean/memory/10.jpg","[""ArrowDown"",""ArrowRight""]","value training","ocean","17","{""ArrowUp,ArrowLeft"":26,""ArrowUp,ArrowRight"":10,""ArrowDown,ArrowLeft"":5,""ArrowDown,ArrowRight"":17}","false","ArrowDown,ArrowRight","false","","","original","1","80","","",""
"html-keyboard-response","203","1061608","0.0-4.0-2.0-1.40","spark_pilot_2","7953","1","7","Male","","","","","","","null","<div style=""font-size:60px;"">+</div>","null","fixation","","","","","","","","","","","81","","",""
"revaluation","204","1065612","0.0-4.0-2.0-0.41","spark_pilot_2","7953","1","7","Male","","false","","","","","[1847.9000000003725]","./assets/img/ocean/catch/7.jpg","[""spaceBar""]","value training","ocean","0","{""ArrowUp,ArrowLeft"":26,""ArrowUp,ArrowRight"":10,""ArrowDown,ArrowLeft"":5,""ArrowDown,ArrowRight"":17}","true","spaceBar","true","","","original","1","82","","",""
"html-keyboard-response","205","1066113","0.0-4.0-2.0-1.41","spark_pilot_2","7953","1","7","Male","","","","","","","null","<div style=""font-size:60px;"">+</div>","null","fixation","","","","","","","","","","","83","","",""
"revaluation","206","1072118","0.0-4.0-2.0-0.42","spark_pilot_2","7953","1","7","Male","","false","","","","","[1036,680.4000000003725]","./assets/img/ocean/memory/36.jpg","[""ArrowDown"",""ArrowLeft""]","value training","ocean","5","{""ArrowUp,ArrowLeft"":26,""ArrowUp,ArrowRight"":10,""ArrowDown,ArrowLeft"":5,""ArrowDown,ArrowRight"":17}","false","ArrowDown,ArrowLeft","false","","","original","1","84","","",""
"html-keyboard-response","207","1072619","0.0-4.0-2.0-1.42","spark_pilot_2","7953","1","7","Male","","","","","","","null","<div style=""font-size:60px;"">+</div>","null","fixation","","","","","","","","","","","85","","",""
"revaluation","208","1078626","0.0-4.0-2.0-0.43","spark_pilot_2","7953","1","7","Male","","false","","","","","[1255.1000000005588,889]","./assets/img/ocean/memory/20.jpg","[""ArrowDown"",""ArrowRight""]","value training","ocean","17","{""ArrowUp,ArrowLeft"":26,""ArrowUp,ArrowRight"":10,""ArrowDown,ArrowLeft"":5,""ArrowDown,ArrowRight"":17}","false","ArrowDown,ArrowRight","false","","","original","1","86","","",""
"html-keyboard-response","209","1079127","0.0-4.0-2.0-1.43","spark_pilot_2","7953","1","7","Male","","","","","","","null","<div style=""font-size:60px;"">+</div>","null","fixation","","","","","","","","","","","87","","",""
"revaluation","210","1085132","0.0-4.0-2.0-0.44","spark_pilot_2","7953","1","7","Male","","false","","","","","[1230.2000000001863,876.3000000007451]","./assets/img/ocean/memory/36.jpg","[""ArrowDown"",""ArrowLeft""]","value training","ocean","5","{""ArrowUp,ArrowLeft"":26,""ArrowUp,ArrowRight"":10,""ArrowDown,ArrowLeft"":5,""ArrowDown,ArrowRight"":17}","false","ArrowDown,ArrowLeft","false","","","original","1","88","","",""
"html-keyboard-response","211","1085633","0.0-4.0-2.0-1.44","spark_pilot_2","7953","1","7","Male","","","","","","","null","<div style=""font-size:60px;"">+</div>","null","fixation","","","","","","","","","","","89","","",""
"revaluation","212","1091639","0.0-4.0-2.0-0.45","spark_pilot_2","7953","1","7","Male","","false","","","","","[690.9000000003725,403.59999999962747]","./assets/img/ocean/memory/27.jpg","[""ArrowDown"",""ArrowRight""]","value training","ocean","17","{""ArrowUp,ArrowLeft"":26,""ArrowUp,ArrowRight"":10,""ArrowDown,ArrowLeft"":5,""ArrowDown,ArrowRight"":17}","false","ArrowDown,ArrowRight","false","","","original","1","90","","",""
"html-keyboard-response","213","1092140","0.0-4.0-2.0-1.45","spark_pilot_2","7953","1","7","Male","","","","","","","null","<div style=""font-size:60px;"">+</div>","null","fixation","","","","","","","","","","","91","","",""
"revaluation","214","1098146","0.0-4.0-2.0-0.46","spark_pilot_2","7953","1","7","Male","","false","","","","","[319.8999999994412,440.69999999925494]","./assets/img/ocean/memory/30.jpg","[""ArrowUp"",""ArrowLeft""]","value training","ocean","26","{""ArrowUp,ArrowLeft"":26,""ArrowUp,ArrowRight"":10,""ArrowDown,ArrowLeft"":5,""ArrowDown,ArrowRight"":17}","true","ArrowUp,ArrowLeft","false","","","original","1","92","","",""
"html-keyboard-response","215","1098647","0.0-4.0-2.0-1.46","spark_pilot_2","7953","1","7","Male","","","","","","","null","<div style=""font-size:60px;"">+</div>","null","fixation","","","","","","","","","","","93","","",""
"revaluation","216","1104652","0.0-4.0-2.0-0.47","spark_pilot_2","7953","1","7","Male","","false","","","","","[569.6999999992549,885.0999999996275]","./assets/img/ocean/memory/0.jpg","[""ArrowDown"",""ArrowRight""]","value training","ocean","17","{""ArrowUp,ArrowLeft"":26,""ArrowUp,ArrowRight"":10,""ArrowDown,ArrowLeft"":5,""ArrowDown,ArrowRight"":17}","false","ArrowDown,ArrowRight","false","","","original","1","94","","",""
"html-keyboard-response","217","1105153","0.0-4.0-2.0-1.47","spark_pilot_2","7953","1","7","Male","","","","","","","null","<div style=""font-size:60px;"">+</div>","null","fixation","","","","","","","","","","","95","","",""
"revaluation","218","1109156","0.0-4.0-2.0-0.48","spark_pilot_2","7953","1","7","Male","","false","","","","","[1409.4000000003725]","./assets/img/ocean/catch/4.jpg","[""spaceBar""]","value training","ocean","0","{""ArrowUp,ArrowLeft"":26,""ArrowUp,ArrowRight"":10,""ArrowDown,ArrowLeft"":5,""ArrowDown,ArrowRight"":17}","true","spaceBar","true","","","original","1","96","","",""
"html-keyboard-response","219","1109657","0.0-4.0-2.0-1.48","spark_pilot_2","7953","1","7","Male","","","","","","","null","<div style=""font-size:60px;"">+</div>","null","fixation","","","","","","","","","","","97","","",""
"revaluation","220","1113660","0.0-4.0-2.0-0.49","spark_pilot_2","7953","1","7","Male","","true","","","","","[]","./assets/img/ocean/memory/25.jpg","[]","value training","ocean","-5","{""ArrowUp,ArrowLeft"":26,""ArrowUp,ArrowRight"":10,""ArrowDown,ArrowLeft"":5,""ArrowDown,ArrowRight"":17}","false","","false","","","original","1","98","","",""
"html-keyboard-response","221","1114162","0.0-4.0-2.0-1.49","spark_pilot_2","7953","1","7","Male","","","","","","","null","<div style=""font-size:60px;"">+</div>","null","fixation","","","","","","","","","","","99","","",""
"learning-instructions","222","1130495","0.0-4.0-3.0-0.0","spark_pilot_2","7953","1","7","Male","","","","","","","3445.2999999998137","<p> Now, you will travel with a friend who will choose whether you go up or down first. </p>
            <p> On these turns, you will just see the animal that they found. You will still get to choose which chest to search for treasure.</p>","","instructions","","","","","","","","","","","","","",""
"revaluation","223","1134499","0.0-4.0-4.0-0.0","spark_pilot_2","7953","1","7","Male","","true","","","","","[]","./assets/img/ocean/animals/octopus.jpg","[]","revaluation","ocean","-5","{""ArrowUp,ArrowLeft"":26,""ArrowUp,ArrowRight"":10,""ArrowDown,ArrowLeft"":5,""ArrowDown,ArrowRight"":17}","false","ArrowDown","","","","original","1","0","","",""
"html-keyboard-response","224","1135014","0.0-4.0-4.0-1.0","spark_pilot_2","7953","1","7","Male","","","","","","","null","<div style=""font-size:60px;"">+</div>","null","fixation","","","","","","","","","","","1","","",""
"revaluation","225","1139027","0.0-4.0-4.0-0.1","spark_pilot_2","7953","1","7","Male","","false","","","","","[447.59999999962747]","./assets/img/ocean/animals/seahorse.jpg","[""ArrowRight""]","revaluation","ocean","10","{""ArrowUp,ArrowLeft"":26,""ArrowUp,ArrowRight"":10,""ArrowDown,ArrowLeft"":5,""ArrowDown,ArrowRight"":17}","false","ArrowUp,ArrowRight","","","","original","1","2","","",""
"html-keyboard-response","226","1139543","0.0-4.0-4.0-1.1","spark_pilot_2","7953","1","7","Male","","","","","","","null","<div style=""font-size:60px;"">+</div>","null","fixation","","","","","","","","","","","3","","",""
"revaluation","227","1143553","0.0-4.0-4.0-0.2","spark_pilot_2","7953","1","7","Male","","false","","","","","[451.79999999981374]","./assets/img/ocean/animals/octopus.jpg","[""ArrowRight""]","revaluation","ocean","17","{""ArrowUp,ArrowLeft"":26,""ArrowUp,ArrowRight"":10,""ArrowDown,ArrowLeft"":5,""ArrowDown,ArrowRight"":17}","true","ArrowDown,ArrowRight","","","","original","1","4","","",""
"html-keyboard-response","228","1144064","0.0-4.0-4.0-1.2","spark_pilot_2","7953","1","7","Male","","","","","","","null","<div style=""font-size:60px;"">+</div>","null","fixation","","","","","","","","","","","5","","",""
"revaluation","229","1148084","0.0-4.0-4.0-0.3","spark_pilot_2","7953","1","7","Male","","false","","","","","[458.20000000018626]","./assets/img/ocean/animals/octopus.jpg","[""ArrowRight""]","revaluation","ocean","17","{""ArrowUp,ArrowLeft"":26,""ArrowUp,ArrowRight"":10,""ArrowDown,ArrowLeft"":5,""ArrowDown,ArrowRight"":17}","true","ArrowDown,ArrowRight","","","","original","1","6","","",""
"html-keyboard-response","230","1148586","0.0-4.0-4.0-1.3","spark_pilot_2","7953","1","7","Male","","","","","","","null","<div style=""font-size:60px;"">+</div>","null","fixation","","","","","","","","","","","7","","",""
"revaluation","231","1152617","0.0-4.0-4.0-0.4","spark_pilot_2","7953","1","7","Male","","false","","","","","[567.4000000003725]","./assets/img/ocean/animals/seahorse.jpg","[""ArrowLeft""]","revaluation","ocean","26","{""ArrowUp,ArrowLeft"":26,""ArrowUp,ArrowRight"":10,""ArrowDown,ArrowLeft"":5,""ArrowDown,ArrowRight"":17}","true","ArrowUp,ArrowLeft","","","","original","1","8","","",""
"html-keyboard-response","232","1153130","0.0-4.0-4.0-1.4","spark_pilot_2","7953","1","7","Male","","","","","","","null","<div style=""font-size:60px;"">+</div>","null","fixation","","","","","","","","","","","9","","",""
"revaluation","233","1157145","0.0-4.0-4.0-0.5","spark_pilot_2","7953","1","7","Male","","false","","","","","[372.70000000018626]","./assets/img/ocean/animals/octopus.jpg","[""ArrowLeft""]","revaluation","ocean","5","{""ArrowUp,ArrowLeft"":26,""ArrowUp,ArrowRight"":10,""ArrowDown,ArrowLeft"":5,""ArrowDown,ArrowRight"":17}","false","ArrowDown,ArrowLeft","","","","original","1","10","","",""
"html-keyboard-response","234","1157648","0.0-4.0-4.0-1.5","spark_pilot_2","7953","1","7","Male","","","","","","","null","<div style=""font-size:60px;"">+</div>","null","fixation","","","","","","","","","","","11","","",""
"revaluation","235","1161653","0.0-4.0-4.0-0.6","spark_pilot_2","7953","1","7","Male","","false","","","","","[1208.199999999255]","./assets/img/ocean/animals/octopus.jpg","[""ArrowRight""]","revaluation","ocean","17","{""ArrowUp,ArrowLeft"":26,""ArrowUp,ArrowRight"":10,""ArrowDown,ArrowLeft"":5,""ArrowDown,ArrowRight"":17}","true","ArrowDown,ArrowRight","","","","original","1","12","","",""
"html-keyboard-response","236","1162154","0.0-4.0-4.0-1.6","spark_pilot_2","7953","1","7","Male","","","","","","","null","<div style=""font-size:60px;"">+</div>","null","fixation","","","","","","","","","","","13","","",""
"revaluation","237","1166159","0.0-4.0-4.0-0.7","spark_pilot_2","7953","1","7","Male","","false","","","","","[1132.5999999996275]","./assets/img/ocean/animals/seahorse.jpg","[""ArrowRight""]","revaluation","ocean","10","{""ArrowUp,ArrowLeft"":26,""ArrowUp,ArrowRight"":10,""ArrowDown,ArrowLeft"":5,""ArrowDown,ArrowRight"":17}","false","ArrowUp,ArrowRight","","","","original","1","14","","",""
"html-keyboard-response","238","1166660","0.0-4.0-4.0-1.7","spark_pilot_2","7953","1","7","Male","","","","","","","null","<div style=""font-size:60px;"">+</div>","null","fixation","","","","","","","","","","","15","","",""
"revaluation","239","1170664","0.0-4.0-4.0-0.8","spark_pilot_2","7953","1","7","Male","","false","","","","","[473.30000000074506]","./assets/img/ocean/animals/seahorse.jpg","[""ArrowRight""]","revaluation","ocean","10","{""ArrowUp,ArrowLeft"":26,""ArrowUp,ArrowRight"":10,""ArrowDown,ArrowLeft"":5,""ArrowDown,ArrowRight"":17}","false","ArrowUp,ArrowRight","","","","original","1","16","","",""
"html-keyboard-response","240","1171166","0.0-4.0-4.0-1.8","spark_pilot_2","7953","1","7","Male","","","","","","","null","<div style=""font-size:60px;"">+</div>","null","fixation","","","","","","","","","","","17","","",""
"revaluation","241","1175178","0.0-4.0-4.0-0.9","spark_pilot_2","7953","1","7","Male","","false","","","","","[501.3999999994412]","./assets/img/ocean/animals/octopus.jpg","[""ArrowLeft""]","revaluation","ocean","5","{""ArrowUp,ArrowLeft"":26,""ArrowUp,ArrowRight"":10,""ArrowDown,ArrowLeft"":5,""ArrowDown,ArrowRight"":17}","false","ArrowDown,ArrowLeft","","","","original","1","18","","",""
"html-keyboard-response","242","1175679","0.0-4.0-4.0-1.9","spark_pilot_2","7953","1","7","Male","","","","","","","null","<div style=""font-size:60px;"">+</div>","null","fixation","","","","","","","","","","","19","","",""
"revaluation","243","1179683","0.0-4.0-4.0-0.10","spark_pilot_2","7953","1","7","Male","","false","","","","","[328.5]","./assets/img/ocean/animals/octopus.jpg","[""ArrowRight""]","revaluation","ocean","17","{""ArrowUp,ArrowLeft"":26,""ArrowUp,ArrowRight"":10,""ArrowDown,ArrowLeft"":5,""ArrowDown,ArrowRight"":17}","true","ArrowDown,ArrowRight","","","","original","1","20","","",""
"html-keyboard-response","244","1180184","0.0-4.0-4.0-1.10","spark_pilot_2","7953","1","7","Male","","","","","","","null","<div style=""font-size:60px;"">+</div>","null","fixation","","","","","","","","","","","21","","",""
"revaluation","245","1184188","0.0-4.0-4.0-0.11","spark_pilot_2","7953","1","7","Male","","false","","","","","[1159.699999999255]","./assets/img/ocean/animals/octopus.jpg","[""ArrowLeft""]","revaluation","ocean","5","{""ArrowUp,ArrowLeft"":26,""ArrowUp,ArrowRight"":10,""ArrowDown,ArrowLeft"":5,""ArrowDown,ArrowRight"":17}","false","ArrowDown,ArrowLeft","","","","original","1","22","","",""
"html-keyboard-response","246","1184698","0.0-4.0-4.0-1.11","spark_pilot_2","7953","1","7","Male","","","","","","","null","<div style=""font-size:60px;"">+</div>","null","fixation","","","","","","","","","","","23","","",""
"revaluation","247","1188703","0.0-4.0-4.0-0.12","spark_pilot_2","7953","1","7","Male","","false","","","","","[964.7999999998137]","./assets/img/ocean/animals/seahorse.jpg","[""ArrowRight""]","revaluation","ocean","10","{""ArrowUp,ArrowLeft"":26,""ArrowUp,ArrowRight"":10,""ArrowDown,ArrowLeft"":5,""ArrowDown,ArrowRight"":17}","false","ArrowUp,ArrowRight","","","","original","1","24","","",""
"html-keyboard-response","248","1189204","0.0-4.0-4.0-1.12","spark_pilot_2","7953","1","7","Male","","","","","","","null","<div style=""font-size:60px;"">+</div>","null","fixation","","","","","","","","","","","25","","",""
"revaluation","249","1193207","0.0-4.0-4.0-0.13","spark_pilot_2","7953","1","7","Male","","false","","","","","[1264.7999999998137]","./assets/img/ocean/animals/seahorse.jpg","[""ArrowLeft""]","revaluation","ocean","26","{""ArrowUp,ArrowLeft"":26,""ArrowUp,ArrowRight"":10,""ArrowDown,ArrowLeft"":5,""ArrowDown,ArrowRight"":17}","true","ArrowUp,ArrowLeft","","","","original","1","26","","",""
"html-keyboard-response","250","1193709","0.0-4.0-4.0-1.13","spark_pilot_2","7953","1","7","Male","","","","","","","null","<div style=""font-size:60px;"">+</div>","null","fixation","","","","","","","","","","","27","","",""
"revaluation","251","1197713","0.0-4.0-4.0-0.14","spark_pilot_2","7953","1","7","Male","","false","","","","","[1012.8000000007451]","./assets/img/ocean/animals/octopus.jpg","[""ArrowRight""]","revaluation","ocean","17","{""ArrowUp,ArrowLeft"":26,""ArrowUp,ArrowRight"":10,""ArrowDown,ArrowLeft"":5,""ArrowDown,ArrowRight"":17}","true","ArrowDown,ArrowRight","","","","original","1","28","","",""
"html-keyboard-response","252","1198214","0.0-4.0-4.0-1.14","spark_pilot_2","7953","1","7","Male","","","","","","","null","<div style=""font-size:60px;"">+</div>","null","fixation","","","","","","","","","","","29","","",""
"revaluation","253","1202217","0.0-4.0-4.0-0.15","spark_pilot_2","7953","1","7","Male","","false","","","","","[1061.2000000001863]","./assets/img/ocean/animals/seahorse.jpg","[""ArrowLeft""]","revaluation","ocean","26","{""ArrowUp,ArrowLeft"":26,""ArrowUp,ArrowRight"":10,""ArrowDown,ArrowLeft"":5,""ArrowDown,ArrowRight"":17}","true","ArrowUp,ArrowLeft","","","","original","1","30","","",""
"html-keyboard-response","254","1202718","0.0-4.0-4.0-1.15","spark_pilot_2","7953","1","7","Male","","","","","","","null","<div style=""font-size:60px;"">+</div>","null","fixation","","","","","","","","","","","31","","",""
"revaluation","255","1206722","0.0-4.0-4.0-0.16","spark_pilot_2","7953","1","7","Male","","false","","","","","[661.7000000001863]","./assets/img/ocean/animals/seahorse.jpg","[""ArrowLeft""]","revaluation","ocean","26","{""ArrowUp,ArrowLeft"":26,""ArrowUp,ArrowRight"":10,""ArrowDown,ArrowLeft"":5,""ArrowDown,ArrowRight"":17}","true","ArrowUp,ArrowLeft","","","","original","1","32","","",""
"html-keyboard-response","256","1207224","0.0-4.0-4.0-1.16","spark_pilot_2","7953","1","7","Male","","","","","","","null","<div style=""font-size:60px;"">+</div>","null","fixation","","","","","","","","","","","33","","",""
"revaluation","257","1211228","0.0-4.0-4.0-0.17","spark_pilot_2","7953","1","7","Male","","false","","","","","[383.79999999981374]","./assets/img/ocean/animals/seahorse.jpg","[""ArrowLeft""]","revaluation","ocean","26","{""ArrowUp,ArrowLeft"":26,""ArrowUp,ArrowRight"":10,""ArrowDown,ArrowLeft"":5,""ArrowDown,ArrowRight"":17}","true","ArrowUp,ArrowLeft","","","","original","1","34","","",""
"html-keyboard-response","258","1211728","0.0-4.0-4.0-1.17","spark_pilot_2","7953","1","7","Male","","","","","","","null","<div style=""font-size:60px;"">+</div>","null","fixation","","","","","","","","","","","35","","",""
"learning-instructions","259","1225094","0.0-4.0-5.0-0.0","spark_pilot_2","7953","1","7","Male","","","","","","[{""event"":""fullscreenenter"",""trial"":2,""time"":21361},{""event"":""blur"",""trial"":260,""time"":1225846},{""event"":""focus"",""trial"":260,""time"":1228647},{""event"":""blur"",""trial"":260,""time"":1239039},{""event"":""focus"",""trial"":260,""time"":1240647}]","2012.7999999998137","<p> Time to play the dot game! </p>
            <p> For one minute, click the red dots on the following screen as they appear. </p>
            <p><b> Don't look away, as you will earn bonus for clicking dots</b>. </p>","","instructions","","","","","","","","","","","","","",""
"revaluation","260","1285095","0.0-4.0-6.0-0.0","spark_pilot_2","7953","1","7","Male","","","","","","","[206,99,194,137,81,76]","","","rest","","60","","","","","0","60000","","","","","",""
"learning-instructions","261","1294789","0.0-4.0-7.0-0.0","spark_pilot_2","7953","1","7","Male","","","","","","","3591.4000000003725","<p> You have almost finished this part of the game! </p>
            <p> We are going to ask you to make a few more choices. </p>","","instructions","","","","","","","","","","","","","",""
"learning-instructions","262","1310936","0.0-4.0-7.0-0.1","spark_pilot_2","7953","1","7","Male","","","","","","","2180.7000000001863","<p> First, you need to decide whether to go up or down. When you see each picture, use the arrow keys to make your choice. </p>
            <p><b>You will not see which animal you found, but try to get to the one that will give you the most treasure.</b></p>","","instructions","","","","","","","","","","","","","",""
"revaluation","263","1319360","0.0-4.0-8.0-0.0","spark_pilot_2","7953","1","7","Male","","false","","","","","[8422.199999999255]","./assets/img/ocean/test/1.jpg","[""ArrowDown""]","first stage test","ocean","0","{""ArrowUp,ArrowLeft"":26,""ArrowUp,ArrowRight"":10,""ArrowDown,ArrowLeft"":5,""ArrowDown,ArrowRight"":17}","false","ArrowDown","false","","","original","1","","","",""
"html-keyboard-response","264","1319876","0.0-4.0-8.0-1.0","spark_pilot_2","7953","1","7","Male","","","","","","","null","<div style=""font-size:60px;"">+</div>","null","fixation","","","","","","","","","","","","","",""
"revaluation","265","1320628","0.0-4.0-8.0-0.1","spark_pilot_2","7953","1","7","Male","","false","","","","","[749.3999999994412]","./assets/img/ocean/test/2.jpg","[""ArrowUp""]","first stage test","ocean","0","{""ArrowUp,ArrowLeft"":26,""ArrowUp,ArrowRight"":10,""ArrowDown,ArrowLeft"":5,""ArrowDown,ArrowRight"":17}","true","ArrowUp","false","","","original","1","","","",""
"html-keyboard-response","266","1321135","0.0-4.0-8.0-1.1","spark_pilot_2","7953","1","7","Male","","","","","","","null","<div style=""font-size:60px;"">+</div>","null","fixation","","","","","","","","","","","","","",""
"revaluation","267","1321788","0.0-4.0-8.0-0.2","spark_pilot_2","7953","1","7","Male","","false","","","","","[650.5999999996275]","./assets/img/ocean/test/3.jpg","[""ArrowUp""]","first stage test","ocean","0","{""ArrowUp,ArrowLeft"":26,""ArrowUp,ArrowRight"":10,""ArrowDown,ArrowLeft"":5,""ArrowDown,ArrowRight"":17}","true","ArrowUp","false","","","original","1","","","",""
"html-keyboard-response","268","1322300","0.0-4.0-8.0-1.2","spark_pilot_2","7953","1","7","Male","","","","","","","null","<div style=""font-size:60px;"">+</div>","null","fixation","","","","","","","","","","","","","",""
"revaluation","269","1323461","0.0-4.0-8.0-0.3","spark_pilot_2","7953","1","7","Male","","false","","","","","[1158.300000000745]","./assets/img/ocean/test/0.jpg","[""ArrowDown""]","first stage test","ocean","0","{""ArrowUp,ArrowLeft"":26,""ArrowUp,ArrowRight"":10,""ArrowDown,ArrowLeft"":5,""ArrowDown,ArrowRight"":17}","false","ArrowDown","false","","","original","1","","","",""
"html-keyboard-response","270","1323972","0.0-4.0-8.0-1.3","spark_pilot_2","7953","1","7","Male","","","","","","","null","<div style=""font-size:60px;"">+</div>","null","fixation","","","","","","","","","","","","","",""
"learning-instructions","271","1339101","0.0-4.0-9.0-0.0","spark_pilot_2","7953","1","7","Male","","","","","","","3785.100000000559","<p> Now you will see the animals again and can search their chests for treasure. </p>
            <p> This time, you will not see how much treasure you earned, but you will earn more bonus money for making better choices. </p>","","instructions","","","","","","","","","","","","","",""
"revaluation","272","1341375","0.0-4.0-10.0-0.0","spark_pilot_2","7953","1","7","Male","","false","","","","","[2272.199999999255]","./assets/img/ocean/animals/seahorse.jpg","[""ArrowRight""]","second stage test","ocean","0","{""ArrowUp,ArrowLeft"":26,""ArrowUp,ArrowRight"":10,""ArrowDown,ArrowLeft"":5,""ArrowDown,ArrowRight"":17}","false","ArrowUp,ArrowRight","","","","original","1","","","",""
"html-keyboard-response","273","1341883","0.0-4.0-10.0-1.0","spark_pilot_2","7953","1","7","Male","","","","","","","null","<div style=""font-size:60px;"">+</div>","null","fixation","","","","","","","","","","","","","",""
"revaluation","274","1342701","0.0-4.0-10.0-0.1","spark_pilot_2","7953","1","7","Male","","false","","","","","[815.9000000003725]","./assets/img/ocean/animals/seahorse.jpg","[""ArrowRight""]","second stage test","ocean","0","{""ArrowUp,ArrowLeft"":26,""ArrowUp,ArrowRight"":10,""ArrowDown,ArrowLeft"":5,""ArrowDown,ArrowRight"":17}","false","ArrowUp,ArrowRight","","","","original","1","","","",""
"html-keyboard-response","275","1343212","0.0-4.0-10.0-1.1","spark_pilot_2","7953","1","7","Male","","","","","","","null","<div style=""font-size:60px;"">+</div>","null","fixation","","","","","","","","","","","","","",""
"revaluation","276","1344285","0.0-4.0-10.0-0.2","spark_pilot_2","7953","1","7","Male","","false","","","","","[1070.6000000005588]","./assets/img/ocean/animals/seahorse.jpg","[""ArrowRight""]","second stage test","ocean","0","{""ArrowUp,ArrowLeft"":26,""ArrowUp,ArrowRight"":10,""ArrowDown,ArrowLeft"":5,""ArrowDown,ArrowRight"":17}","false","ArrowUp,ArrowRight","","","","original","1","","","",""
"html-keyboard-response","277","1344796","0.0-4.0-10.0-1.2","spark_pilot_2","7953","1","7","Male","","","","","","","null","<div style=""font-size:60px;"">+</div>","null","fixation","","","","","","","","","","","","","",""
"revaluation","278","1345659","0.0-4.0-10.0-0.3","spark_pilot_2","7953","1","7","Male","","false","","","","","[861]","./assets/img/ocean/animals/seahorse.jpg","[""ArrowLeft""]","second stage test","ocean","0","{""ArrowUp,ArrowLeft"":26,""ArrowUp,ArrowRight"":10,""ArrowDown,ArrowLeft"":5,""ArrowDown,ArrowRight"":17}","true","ArrowUp,ArrowLeft","","","","original","1","","","",""
"html-keyboard-response","279","1346171","0.0-4.0-10.0-1.3","spark_pilot_2","7953","1","7","Male","","","","","","","null","<div style=""font-size:60px;"">+</div>","null","fixation","","","","","","","","","","","","","",""
"revaluation","280","1347291","0.0-4.0-10.0-0.4","spark_pilot_2","7953","1","7","Male","","false","","","","","[1116.9000000003725]","./assets/img/ocean/animals/octopus.jpg","[""ArrowLeft""]","second stage test","ocean","0","{""ArrowUp,ArrowLeft"":26,""ArrowUp,ArrowRight"":10,""ArrowDown,ArrowLeft"":5,""ArrowDown,ArrowRight"":17}","false","ArrowDown,ArrowLeft","","","","original","1","","","",""
"html-keyboard-response","281","1347802","0.0-4.0-10.0-1.4","spark_pilot_2","7953","1","7","Male","","","","","","","null","<div style=""font-size:60px;"">+</div>","null","fixation","","","","","","","","","","","","","",""
"revaluation","282","1349545","0.0-4.0-10.0-0.5","spark_pilot_2","7953","1","7","Male","","false","","","","","[1740.0999999996275]","./assets/img/ocean/animals/octopus.jpg","[""ArrowRight""]","second stage test","ocean","0","{""ArrowUp,ArrowLeft"":26,""ArrowUp,ArrowRight"":10,""ArrowDown,ArrowLeft"":5,""ArrowDown,ArrowRight"":17}","true","ArrowDown,ArrowRight","","","","original","1","","","",""
"html-keyboard-response","283","1350055","0.0-4.0-10.0-1.5","spark_pilot_2","7953","1","7","Male","","","","","","","null","<div style=""font-size:60px;"">+</div>","null","fixation","","","","","","","","","","","","","",""
"revaluation","284","1352876","0.0-4.0-10.0-0.6","spark_pilot_2","7953","1","7","Male","","false","","","","","[2817.699999999255]","./assets/img/ocean/animals/octopus.jpg","[""ArrowRight""]","second stage test","ocean","0","{""ArrowUp,ArrowLeft"":26,""ArrowUp,ArrowRight"":10,""ArrowDown,ArrowLeft"":5,""ArrowDown,ArrowRight"":17}","true","ArrowDown,ArrowRight","","","","original","1","","","",""
"html-keyboard-response","285","1353387","0.0-4.0-10.0-1.6","spark_pilot_2","7953","1","7","Male","","","","","","","null","<div style=""font-size:60px;"">+</div>","null","fixation","","","","","","","","","","","","","",""
"revaluation","286","1354453","0.0-4.0-10.0-0.7","spark_pilot_2","7953","1","7","Male","","false","","","","","[1064.800000000745]","./assets/img/ocean/animals/octopus.jpg","[""ArrowRight""]","second stage test","ocean","0","{""ArrowUp,ArrowLeft"":26,""ArrowUp,ArrowRight"":10,""ArrowDown,ArrowLeft"":5,""ArrowDown,ArrowRight"":17}","true","ArrowDown,ArrowRight","","","","original","1","","","",""
"html-keyboard-response","287","1354957","0.0-4.0-10.0-1.7","spark_pilot_2","7953","1","7","Male","","","","","","","null","<div style=""font-size:60px;"">+</div>","null","fixation","","","","","","","","","","","","","",""
"learning-instructions","288","1361226","0.0-4.0-0.1-0.2","spark_pilot_2","7953","1","7","Male","","","","","","","3510.5","<p> This time you are searching for treasure in the <b>canyon</b>.</p>","","instructions","","","","","","","","","","","","","",""
"learning-instructions","289","1380413","0.0-4.0-0.1-0.3","spark_pilot_2","7953","1","7","Male","","","","","","","1929.5999999996275","<p><b>New</b> animals with <b>new</b> treasure chests live here. You need to explore to discover where the animal with the best treasure chest is.</p>
                    <p> Like before, once you figure out which animal has the chest with the most treasure, you should try to get to that animal and select that chest! </p>","","instructions","","","","","","","","","","","","","",""
"learning-instructions","290","1396878","0.0-4.0-1.1-0.1","spark_pilot_2","7953","1","7","Male","","","","","","","1733.2999999998137","<p> Remember, when you see a picture of the place, use the up and down keys to <b>find an animal</b>.</p>
            <p> When you encounter an animal, you should use the left and right keys to <b>select a treasure chest</b>.</p>
            <p> Don't forget to look out for the robber! </p>","","instructions","","","","","","","","","","","","","",""
"revaluation","291","1400890","0.0-4.0-2.1-0.50","spark_pilot_2","7953","1","7","Male","","false","","","","","[1564.5]","./assets/img/canyon/catch/5.jpg","[""spaceBar""]","value training","canyon","0","{""ArrowUp,ArrowLeft"":23,""ArrowUp,ArrowRight"":10,""ArrowDown,ArrowLeft"":8,""ArrowDown,ArrowRight"":30}","true","spaceBar","true","","","revaluation","2","0","","",""
"html-keyboard-response","292","1401402","0.0-4.0-2.1-1.50","spark_pilot_2","7953","1","7","Male","","","","","","","null","<div style=""font-size:60px;"">+</div>","null","fixation","","","","","","","","","","","1","","",""
"revaluation","293","1407430","0.0-4.0-2.1-0.51","spark_pilot_2","7953","1","7","Male","","false","","","","","[1466.7999999998137,1688.0999999996275]","./assets/img/canyon/memory/16.jpg","[""ArrowDown"",""ArrowRight""]","value training","canyon","30","{""ArrowUp,ArrowLeft"":23,""ArrowUp,ArrowRight"":10,""ArrowDown,ArrowLeft"":8,""ArrowDown,ArrowRight"":30}","true","ArrowDown,ArrowRight","false","","","revaluation","2","2","","",""
"html-keyboard-response","294","1407941","0.0-4.0-2.1-1.51","spark_pilot_2","7953","1","7","Male","","","","","","","null","<div style=""font-size:60px;"">+</div>","null","fixation","","","","","","","","","","","3","","",""
"revaluation","295","1413977","0.0-4.0-2.1-0.52","spark_pilot_2","7953","1","7","Male","","false","","","","","[1981.2000000001863,1828]","./assets/img/canyon/memory/8.jpg","[""ArrowUp"",""ArrowLeft""]","value training","canyon","23","{""ArrowUp,ArrowLeft"":23,""ArrowUp,ArrowRight"":10,""ArrowDown,ArrowLeft"":8,""ArrowDown,ArrowRight"":30}","false","ArrowUp,ArrowLeft","false","","","revaluation","2","4","","",""
"html-keyboard-response","296","1414487","0.0-4.0-2.1-1.52","spark_pilot_2","7953","1","7","Male","","","","","","","null","<div style=""font-size:60px;"">+</div>","null","fixation","","","","","","","","","","","5","","",""
"revaluation","297","1420517","0.0-4.0-2.1-0.53","spark_pilot_2","7953","1","7","Male","","false","","","","","[385.29999999981374,835.5999999996275]","./assets/img/canyon/memory/23.jpg","[""ArrowUp"",""ArrowLeft""]","value training","canyon","23","{""ArrowUp,ArrowLeft"":23,""ArrowUp,ArrowRight"":10,""ArrowDown,ArrowLeft"":8,""ArrowDown,ArrowRight"":30}","false","ArrowUp,ArrowLeft","false","","","revaluation","2","6","","",""
"html-keyboard-response","298","1421031","0.0-4.0-2.1-1.53","spark_pilot_2","7953","1","7","Male","","","","","","","null","<div style=""font-size:60px;"">+</div>","null","fixation","","","","","","","","","","","7","","",""
"revaluation","299","1427043","0.0-4.0-2.1-0.54","spark_pilot_2","7953","1","7","Male","","false","","","","","[193,169.69999999925494]","./assets/img/canyon/memory/9.jpg","[""ArrowUp"",""ArrowLeft""]","value training","canyon","23","{""ArrowUp,ArrowLeft"":23,""ArrowUp,ArrowRight"":10,""ArrowDown,ArrowLeft"":8,""ArrowDown,ArrowRight"":30}","false","ArrowUp,ArrowLeft","false","","","revaluation","2","8","","",""
"html-keyboard-response","300","1427545","0.0-4.0-2.1-1.54","spark_pilot_2","7953","1","7","Male","","","","","","","null","<div style=""font-size:60px;"">+</div>","null","fixation","","","","","","","","","","","9","","",""
"revaluation","301","1433551","0.0-4.0-2.1-0.55","spark_pilot_2","7953","1","7","Male","","false","","","","","[395.29999999981374,323]","./assets/img/canyon/memory/21.jpg","[""ArrowUp"",""ArrowLeft""]","value training","canyon","23","{""ArrowUp,ArrowLeft"":23,""ArrowUp,ArrowRight"":10,""ArrowDown,ArrowLeft"":8,""ArrowDown,ArrowRight"":30}","false","ArrowUp,ArrowLeft","false","","","revaluation","2","10","","",""
"html-keyboard-response","302","1434053","0.0-4.0-2.1-1.55","spark_pilot_2","7953","1","7","Male","","","","","","","null","<div style=""font-size:60px;"">+</div>","null","fixation","","","","","","","","","","","11","","",""
"revaluation","303","1440057","0.0-4.0-2.1-0.56","spark_pilot_2","7953","1","7","Male","","false","","","","","[67.40000000037253,830.8999999994412]","./assets/img/canyon/memory/11.jpg","[""ArrowUp"",""ArrowLeft""]","value training","canyon","23","{""ArrowUp,ArrowLeft"":23,""ArrowUp,ArrowRight"":10,""ArrowDown,ArrowLeft"":8,""ArrowDown,ArrowRight"":30}","false","ArrowUp,ArrowLeft","false","","","revaluation","2","12","","",""
"html-keyboard-response","304","1440559","0.0-4.0-2.1-1.56","spark_pilot_2","7953","1","7","Male","","","","","","","null","<div style=""font-size:60px;"">+</div>","null","fixation","","","","","","","","","","","13","","",""
"revaluation","305","1444562","0.0-4.0-2.1-0.57","spark_pilot_2","7953","1","7","Male","","true","","","","","[]","./assets/img/canyon/memory/20.jpg","[]","value training","canyon","-5","{""ArrowUp,ArrowLeft"":23,""ArrowUp,ArrowRight"":10,""ArrowDown,ArrowLeft"":8,""ArrowDown,ArrowRight"":30}","false","","false","","","revaluation","2","14","","",""
"html-keyboard-response","306","1445064","0.0-4.0-2.1-1.57","spark_pilot_2","7953","1","7","Male","","","","","","","null","<div style=""font-size:60px;"">+</div>","null","fixation","","","","","","","","","","","15","","",""
"revaluation","307","1449067","0.0-4.0-2.1-0.58","spark_pilot_2","7953","1","7","Male","","false","","","","","[1201.800000000745]","./assets/img/canyon/catch/7.jpg","[""spaceBar""]","value training","canyon","0","{""ArrowUp,ArrowLeft"":23,""ArrowUp,ArrowRight"":10,""ArrowDown,ArrowLeft"":8,""ArrowDown,ArrowRight"":30}","true","spaceBar","true","","","revaluation","2","16","","",""
"html-keyboard-response","308","1449569","0.0-4.0-2.1-1.58","spark_pilot_2","7953","1","7","Male","","","","","","","null","<div style=""font-size:60px;"">+</div>","null","fixation","","","","","","","","","","","17","","",""
"revaluation","309","1453573","0.0-4.0-2.1-0.59","spark_pilot_2","7953","1","7","Male","","false","","","","","[956.7999999998137]","./assets/img/canyon/catch/6.jpg","[""spaceBar""]","value training","canyon","0","{""ArrowUp,ArrowLeft"":23,""ArrowUp,ArrowRight"":10,""ArrowDown,ArrowLeft"":8,""ArrowDown,ArrowRight"":30}","true","spaceBar","true","","","revaluation","2","18","","",""
"html-keyboard-response","310","1454074","0.0-4.0-2.1-1.59","spark_pilot_2","7953","1","7","Male","","","","","","","null","<div style=""font-size:60px;"">+</div>","null","fixation","","","","","","","","","","","19","","",""
