"trial_type","trial_index","time_elapsed","internal_node_id","task_version","subject_id","assigned_condition","age","gender","success","timeout","failed_images","failed_audio","failed_video","browser_interaction","rt","stimulus","response","task_part","environment","score","rewardMap","correct","fullState","isCatch","numberMissed","duration","condition","order","trial_num","key_press","ground_truth","bonus"
"pavlovia","0","2263","0.0-0.0","spark_pilot_2","8930","6","23","Male","","","","","","","","","","","","","","","","","","","","","","","",""
"preload","1","65590","0.0-1.0","spark_pilot_2","8930","6","23","Male","true","false","[]","[]","[]","[{""event"":""fullscreenenter"",""trial"":2,""time"":69548},{""event"":""fullscreenexit"",""trial"":3,""time"":74832},{""event"":""blur"",""trial"":58,""time"":383557},{""event"":""focus"",""trial"":58,""time"":394292},{""event"":""blur"",""trial"":82,""time"":512492},{""event"":""focus"",""trial"":82,""time"":518477}]","","","","","","","","","","","","","","","","","",""
"fullscreen","2","70558","0.0-2.0","spark_pilot_2","8930","6","23","Male","true","","","","","[{""event"":""fullscreenenter"",""trial"":2,""time"":69548},{""event"":""fullscreenexit"",""trial"":3,""time"":74832},{""event"":""blur"",""trial"":58,""time"":383557},{""event"":""focus"",""trial"":58,""time"":394292},{""event"":""blur"",""trial"":82,""time"":512492},{""event"":""focus"",""trial"":82,""time"":518477}]","","","","","","","","","","","","","","","","","",""
"audio-button-response","3","79654","0.0-3.0-0.0-0.0","spark_pilot_2","8930","6","23","Male","","","","","","","9070","./assets/audio/audiotest/turtle.mp3","4","audio_test","","","","","","","","","","","","","",""
"audio-button-response","4","84205","0.0-3.0-0.1-0.1","spark_pilot_2","8930","6","23","Male","","","","","","","3535","./assets/audio/audiotest/turtle.mp3","2","audio_test","","","","","","","","","","","","","",""
"learning-instructions","5","93621","0.0-3.0-1.0-0.0","spark_pilot_2","8930","6","23","Male","","","","","","","2361.5","<p> Welcome! Please remember to stay in fullscreen mode and don't click away from the experiment. </p>","","instructions","","","","","","","","","","","","","",""
"learning-instructions","6","103821","0.0-3.0-1.0-0.1","spark_pilot_2","8930","6","23","Male","","","","","","","1692.7999999970198","<p> Today you will be playing a game to earn treasure. </p>
            <p> At the end of the experiment, you will earn a bonus based on how much treasure you find. </p>
            <img src='./assets/img/instructions/treasure.jpg' class='instructions-image'>","","instructions","","","","","","","","","","","","","",""
"learning-instructions","7","114071","0.0-3.0-1.0-0.2","spark_pilot_2","8930","6","23","Male","","","","","","","1936.0999999940395","<p> Animals have hidden treasure in treasure chests. </p>
            <p> You need to first find an animal and then choose which of their treasure chests to search. </p>
            <img src='./assets/img/space/animals/cat.jpg' class='instructions-image'>","","instructions","","","","","","","","","","","","","",""
"learning-instructions","8","128190","0.0-3.0-1.0-0.3","spark_pilot_2","8930","6","23","Male","","","","","","","906.5999999940395","<p> In each round, you will search for treasure in a different place. In the real game, there will be two rounds. </p>
            <p> You will begin with a separate, practice round where you will search for treasure in outer space. </p>
            <img src='./assets/img/space/0.jpg' class='instructions-image'>","","instructions","","","","","","","","","","","","","",""
"learning-instructions","9","141909","0.0-3.0-1.0-0.4","spark_pilot_2","8930","6","23","Male","","","","","","","2232.1000000089407","<p> On every turn, you will see a picture of the place that you are in, but the specific image may be different each time. </p>
            <p> For example, both of these images mean you are in outer space. </p>
            <img src='./assets/img/instructions/outerspace.jpg' class='instructions-image'>","","instructions","","","","","","","","","","","","","",""
"learning-instructions","10","151409","0.0-3.0-1.0-0.5","spark_pilot_2","8930","6","23","Male","","","","","","","1633.4000000059605","<p> You need to decide which direction to travel in. </p>
            <p> You can choose between going <b>up or down</b> by using the arrow keys. </p>
            <img src='./assets/img/instructions/updown.jpg' class='instructions-image'>","","instructions","","","","","","","","","","","","","",""
"learning-instructions","11","162672","0.0-3.0-1.0-0.6","spark_pilot_2","8930","6","23","Male","","","","","","","2403.5","<p> You will have <b>2 seconds</b> to make your choice. </p>
            <p> If you do not make a choice within 2 seconds, you will not find an animal or earn treasure. </p>
            <img src='./assets/img/instructions/2seconds.jpg' class='instructions-image'>","","instructions","","","","","","","","","","","","","",""
"learning-instructions","12","171881","0.0-3.0-1.0-0.7","spark_pilot_2","8930","6","23","Male","","","","","","","2124.1000000089407","<p> Let’s try practicing that now! </p>
            <p> When you see a picture of the place you are in, press the <b>up</b> key to travel up. </p>
            <img src='./assets/img/instructions/pressUp.jpg' class='instructions-image'>","","instructions","","","","","","","","","","","","","",""
"revaluation","13","175914","0.0-3.0-2.0-0.0","spark_pilot_2","8930","6","23","Male","","false","","","","","[1464.5999999940395]","./assets/img/space/0.jpg","[""ArrowUp""]","first stage practice","space","0","null","null","ArrowUp","false","","","","","","","",""
"html-keyboard-response","14","176437","0.0-3.0-2.0-1.0","spark_pilot_2","8930","6","23","Male","","","","","","","null","<div style=""font-size:60px;"">+</div>","null","fixation","","","","","","","","","","","","","",""
"revaluation","15","180469","0.0-3.0-2.0-0.1","spark_pilot_2","8930","6","23","Male","","false","","","","","[1287.7000000029802]","./assets/img/space/1.jpg","[""ArrowUp""]","first stage practice","space","0","null","null","ArrowUp","false","","","","","","","",""
"html-keyboard-response","16","180985","0.0-3.0-2.0-1.1","spark_pilot_2","8930","6","23","Male","","","","","","","null","<div style=""font-size:60px;"">+</div>","null","fixation","","","","","","","","","","","","","",""
"revaluation","17","185034","0.0-3.0-2.0-0.2","spark_pilot_2","8930","6","23","Male","","false","","","","","[744.2000000029802]","./assets/img/space/2.jpg","[""ArrowUp""]","first stage practice","space","0","null","null","ArrowUp","false","","","","","","","",""
"html-keyboard-response","18","185550","0.0-3.0-2.0-1.2","spark_pilot_2","8930","6","23","Male","","","","","","","null","<div style=""font-size:60px;"">+</div>","null","fixation","","","","","","","","","","","","","",""
"learning-instructions","19","191744","0.0-3.0-3.0-0.0","spark_pilot_2","8930","6","23","Male","","","","","","","1414.199999988079","<p> Great job! Now try pressing the <b>down</b> key to travel down. </p>
            <img src='./assets/img/instructions/pressDown.jpg' class='instructions-image'>","","instructions","","","","","","","","","","","","","",""
"revaluation","20","195769","0.0-3.0-4.0-0.0","spark_pilot_2","8930","6","23","Male","","false","","","","","[879.9000000059605]","./assets/img/space/3.jpg","[""ArrowDown""]","first stage practice","space","0","null","null","ArrowDown","false","","","","","","","",""
"html-keyboard-response","21","196277","0.0-3.0-4.0-1.0","spark_pilot_2","8930","6","23","Male","","","","","","","null","<div style=""font-size:60px;"">+</div>","null","fixation","","","","","","","","","","","","","",""
"revaluation","22","200323","0.0-3.0-4.0-0.1","spark_pilot_2","8930","6","23","Male","","false","","","","","[1069.2999999970198]","./assets/img/space/4.jpg","[""ArrowDown""]","first stage practice","space","0","null","null","ArrowDown","false","","","","","","","",""
"html-keyboard-response","23","200839","0.0-3.0-4.0-1.1","spark_pilot_2","8930","6","23","Male","","","","","","","null","<div style=""font-size:60px;"">+</div>","null","fixation","","","","","","","","","","","","","",""
"revaluation","24","204870","0.0-3.0-4.0-0.2","spark_pilot_2","8930","6","23","Male","","false","","","","","[500.40000000596046]","./assets/img/space/5.jpg","[""ArrowDown""]","first stage practice","space","0","null","null","ArrowDown","false","","","","","","","",""
"html-keyboard-response","25","205386","0.0-3.0-4.0-1.2","spark_pilot_2","8930","6","23","Male","","","","","","","null","<div style=""font-size:60px;"">+</div>","null","fixation","","","","","","","","","","","","","",""
"learning-instructions","26","220758","0.0-3.0-5.0-0.0","spark_pilot_2","8930","6","23","Male","","","","","","","5397.70000000298","<p> The animals don’t move, so the animal in the upper part of a place will stay in the upper part of a place, and the animal in the lower part of a place will stay in the lower part of a place. </p>","","instructions","","","","","","","","","","","","","",""
"learning-instructions","27","232301","0.0-3.0-5.0-0.1","spark_pilot_2","8930","6","23","Male","","","","","","","2363.2999999970198","<p> Each animal has two treasure chests for you to choose from. </p>
            <p> The amount of treasure in each chest can range from <b> 0 to 40 pieces.</b></p>","","instructions","","","","","","","","","","","","","",""
"learning-instructions","28","246861","0.0-3.0-5.0-0.2","spark_pilot_2","8930","6","23","Male","","","","","","","3313.9000000059605","<p> You should decide which chest to search for treasure by using the <b>left</b> and <b>right</b> arrow keys. </p>
            <p><b> Pay attention to which animal is on the screen, as the animals have different treasure chests. </b></p>
            <img src='./assets/img/instructions/leftright.jpg' class='instructions-image'>","","instructions","","","","","","","","","","","","","",""
"learning-instructions","29","254957","0.0-3.0-5.0-0.3","spark_pilot_2","8930","6","23","Male","","","","","","","1688.7000000029802","<p> Let’s try practicing that now. </p>
            <p> When you see an animal, choose which chest to search for treasure. </p>
            <img src='./assets/img/instructions/chooseChest.jpg' class='instructions-image'>","","instructions","","","","","","","","","","","","","",""
"revaluation","30","258984","0.0-3.0-6.0-0.0","spark_pilot_2","8930","6","23","Male","","false","","","","","[1147.4000000059605]","./assets/img/space/animals/rabbit.jpg","[""ArrowRight""]","second stage practice","space","23","{""ArrowUp,ArrowLeft"":3,""ArrowUp,ArrowRight"":36,""ArrowDown,ArrowLeft"":15,""ArrowDown,ArrowRight"":23}","true","ArrowDown,ArrowRight","","","","","","","","",""
"html-keyboard-response","31","259495","0.0-3.0-6.0-1.0","spark_pilot_2","8930","6","23","Male","","","","","","","null","<div style=""font-size:60px;"">+</div>","null","fixation","","","","","","","","","","","","","",""
"revaluation","32","263528","0.0-3.0-6.0-0.1","spark_pilot_2","8930","6","23","Male","","false","","","","","[788]","./assets/img/space/animals/rabbit.jpg","[""ArrowRight""]","second stage practice","space","23","{""ArrowUp,ArrowLeft"":3,""ArrowUp,ArrowRight"":36,""ArrowDown,ArrowLeft"":15,""ArrowDown,ArrowRight"":23}","true","ArrowDown,ArrowRight","","","","","","","","",""
"html-keyboard-response","33","264042","0.0-3.0-6.0-1.1","spark_pilot_2","8930","6","23","Male","","","","","","","null","<div style=""font-size:60px;"">+</div>","null","fixation","","","","","","","","","","","","","",""
"revaluation","34","268064","0.0-3.0-6.0-0.2","spark_pilot_2","8930","6","23","Male","","false","","","","","[1218.2000000029802]","./assets/img/space/animals/cat.jpg","[""ArrowRight""]","second stage practice","space","36","{""ArrowUp,ArrowLeft"":3,""ArrowUp,ArrowRight"":36,""ArrowDown,ArrowLeft"":15,""ArrowDown,ArrowRight"":23}","true","ArrowUp,ArrowRight","","","","","","","","",""
"html-keyboard-response","35","268587","0.0-3.0-6.0-1.2","spark_pilot_2","8930","6","23","Male","","","","","","","null","<div style=""font-size:60px;"">+</div>","null","fixation","","","","","","","","","","","","","",""
"revaluation","36","272630","0.0-3.0-6.0-0.3","spark_pilot_2","8930","6","23","Male","","false","","","","","[452.20000000298023]","./assets/img/space/animals/cat.jpg","[""ArrowRight""]","second stage practice","space","36","{""ArrowUp,ArrowLeft"":3,""ArrowUp,ArrowRight"":36,""ArrowDown,ArrowLeft"":15,""ArrowDown,ArrowRight"":23}","true","ArrowUp,ArrowRight","","","","","","","","",""
"html-keyboard-response","37","273136","0.0-3.0-6.0-1.3","spark_pilot_2","8930","6","23","Male","","","","","","","null","<div style=""font-size:60px;"">+</div>","null","fixation","","","","","","","","","","","","","",""
"learning-instructions","38","292919","0.0-3.0-7.0-0.0","spark_pilot_2","8930","6","23","Male","","","","","","","2835.800000011921","<p> Great job. Now let’s try putting it together. </p>
            <p> On each turn, you will first see a picture to remind you of the place you are in, and you need to choose whether to go up or down. </p>
            <p> Then you will see an animal and choose which of its chests to search for treasure. </p>","","instructions","","","","","","","","","","","","","",""
"learning-instructions","39","302710","0.0-3.0-7.0-0.1","spark_pilot_2","8930","6","23","Male","","","","","","","1483.5","<p> When you choose whether to go up or down, try to go to the animal with the chest with the most treasure. </p>
            <p> Try practicing that now! </p>","","instructions","","","","","","","","","","","","","",""
"revaluation","40","308759","0.0-3.0-8.0-0.0","spark_pilot_2","8930","6","23","Male","","false","","","","","[1142.4000000059605,1093.5999999940395]","./assets/img/space/6.jpg","[""ArrowUp"",""ArrowRight""]","full practice","space","36","{""ArrowUp,ArrowLeft"":3,""ArrowUp,ArrowRight"":36,""ArrowDown,ArrowLeft"":15,""ArrowDown,ArrowRight"":23}","true","ArrowUp,ArrowRight","false","","","","","","","",""
"html-keyboard-response","41","309272","0.0-3.0-8.0-1.0","spark_pilot_2","8930","6","23","Male","","","","","","","null","<div style=""font-size:60px;"">+</div>","null","fixation","","","","","","","","","","","","","",""
"revaluation","42","315320","0.0-3.0-8.0-0.1","spark_pilot_2","8930","6","23","Male","","false","","","","","[899.4000000059605,678.7999999970198]","./assets/img/space/7.jpg","[""ArrowUp"",""ArrowRight""]","full practice","space","36","{""ArrowUp,ArrowLeft"":3,""ArrowUp,ArrowRight"":36,""ArrowDown,ArrowLeft"":15,""ArrowDown,ArrowRight"":23}","true","ArrowUp,ArrowRight","false","","","","","","","",""
"html-keyboard-response","43","315835","0.0-3.0-8.0-1.1","spark_pilot_2","8930","6","23","Male","","","","","","","null","<div style=""font-size:60px;"">+</div>","null","fixation","","","","","","","","","","","","","",""
"revaluation","44","321883","0.0-3.0-8.0-0.2","spark_pilot_2","8930","6","23","Male","","false","","","","","[533.1000000089407,1127.2999999970198]","./assets/img/space/8.jpg","[""ArrowUp"",""ArrowLeft""]","full practice","space","3","{""ArrowUp,ArrowLeft"":3,""ArrowUp,ArrowRight"":36,""ArrowDown,ArrowLeft"":15,""ArrowDown,ArrowRight"":23}","false","ArrowUp,ArrowLeft","false","","","","","","","",""
"html-keyboard-response","45","322397","0.0-3.0-8.0-1.2","spark_pilot_2","8930","6","23","Male","","","","","","","null","<div style=""font-size:60px;"">+</div>","null","fixation","","","","","","","","","","","","","",""
"revaluation","46","328444","0.0-3.0-8.0-0.3","spark_pilot_2","8930","6","23","Male","","false","","","","","[658.5999999940395,481.79999999701977]","./assets/img/space/9.jpg","[""ArrowUp"",""ArrowRight""]","full practice","space","36","{""ArrowUp,ArrowLeft"":3,""ArrowUp,ArrowRight"":36,""ArrowDown,ArrowLeft"":15,""ArrowDown,ArrowRight"":23}","true","ArrowUp,ArrowRight","false","","","","","","","",""
"html-keyboard-response","47","328959","0.0-3.0-8.0-1.3","spark_pilot_2","8930","6","23","Male","","","","","","","null","<div style=""font-size:60px;"">+</div>","null","fixation","","","","","","","","","","","","","",""
"revaluation","48","334986","0.0-3.0-8.0-0.4","spark_pilot_2","8930","6","23","Male","","false","","","","","[709.4000000059605,564.5]","./assets/img/space/10.jpg","[""ArrowUp"",""ArrowRight""]","full practice","space","36","{""ArrowUp,ArrowLeft"":3,""ArrowUp,ArrowRight"":36,""ArrowDown,ArrowLeft"":15,""ArrowDown,ArrowRight"":23}","true","ArrowUp,ArrowRight","false","","","","","","","",""
"html-keyboard-response","49","335490","0.0-3.0-8.0-1.4","spark_pilot_2","8930","6","23","Male","","","","","","","null","<div style=""font-size:60px;"">+</div>","null","fixation","","","","","","","","","","","","","",""
"learning-instructions","50","348616","0.0-3.0-9.0-0.0","spark_pilot_2","8930","6","23","Male","","","","","","","1386.4000000059605","<p> One last thing: sometimes, you will see a robber. The robber can be anywhere in the picture. </p>
            <p> If you do not stop them, you will lose treasure. </p>
            <img src='./assets/img/instructions/robber.jpg' class='instructions-image'>","","instructions","","","","","","","","","","","","","",""
"learning-instructions","51","356858","0.0-3.0-9.0-0.1","spark_pilot_2","8930","6","23","Male","","","","","","","1045.2000000029802","<p> If you see the robber, you should <b>press the space bar</b> rather than using the arrow keys. </p>
            <p> Try practicing that now! </p>","","instructions","","","","","","","","","","","","","",""
"revaluation","52","360876","0.0-3.0-10.0-0.0","spark_pilot_2","8930","6","23","Male","","true","","","","","[]","./assets/img/space/catch/0.jpg","[]","catch practice","space","-5","{""ArrowUp,ArrowLeft"":3,""ArrowUp,ArrowRight"":36,""ArrowDown,ArrowLeft"":15,""ArrowDown,ArrowRight"":23}","false","","true","","","","","","","",""
"html-keyboard-response","53","361387","0.0-3.0-10.0-1.0","spark_pilot_2","8930","6","23","Male","","","","","","","null","<div style=""font-size:60px;"">+</div>","null","fixation","","","","","","","","","","","","","",""
"revaluation","54","365405","0.0-3.0-10.0-0.1","spark_pilot_2","8930","6","23","Male","","false","","","","","[660.1000000089407]","./assets/img/space/catch/1.jpg","[""spaceBar""]","catch practice","space","0","{""ArrowUp,ArrowLeft"":3,""ArrowUp,ArrowRight"":36,""ArrowDown,ArrowLeft"":15,""ArrowDown,ArrowRight"":23}","true","spaceBar","true","","","","","","","",""
"html-keyboard-response","55","365917","0.0-3.0-10.0-1.1","spark_pilot_2","8930","6","23","Male","","","","","","","null","<div style=""font-size:60px;"">+</div>","null","fixation","","","","","","","","","","","","","",""
"revaluation","56","369949","0.0-3.0-10.0-0.2","spark_pilot_2","8930","6","23","Male","","false","","","","","[580.8000000119209]","./assets/img/space/catch/2.jpg","[""spaceBar""]","catch practice","space","0","{""ArrowUp,ArrowLeft"":3,""ArrowUp,ArrowRight"":36,""ArrowDown,ArrowLeft"":15,""ArrowDown,ArrowRight"":23}","true","spaceBar","true","","","","","","","",""
"html-keyboard-response","57","370464","0.0-3.0-10.0-1.2","spark_pilot_2","8930","6","23","Male","","","","","","[{""event"":""fullscreenenter"",""trial"":2,""time"":69548},{""event"":""fullscreenexit"",""trial"":3,""time"":74832},{""event"":""blur"",""trial"":58,""time"":383557},{""event"":""focus"",""trial"":58,""time"":394292},{""event"":""blur"",""trial"":82,""time"":512492},{""event"":""focus"",""trial"":82,""time"":518477}]","null","<div style=""font-size:60px;"">+</div>","null","fixation","","","","","","","","","","","","","",""
"learning-instructions","58","395582","0.0-3.0-11.0-0.0","spark_pilot_2","8930","6","23","Male","","","","","","","11405.20000000298","<p> After you explore a place to find treasure, it will be time to play a different game. </p>
            <p> During this game, red dots will appear on the screen and fall down slowly. </p>
            <p><b> You must click on them before they reach the bottom. </b></p>
            <img src='./assets/img/instructions/dotGame.jpg' class='instructions-image'>","","instructions","","","","","","","","","","","","","",""
"learning-instructions","59","402990","0.0-3.0-11.0-0.1","spark_pilot_2","8930","6","23","Male","","","","","","","1615.8999999910593","<p> For every dot you click, you will earn additional treasure. </p>
            <p> Let’s try practicing that now. </p>","","instructions","","","","","","","","","","","","","",""
"revaluation","60","418020","0.0-3.0-12.0-0.0","spark_pilot_2","8930","6","23","Male","","","","","","","[-1]","","","rest practice","","10","","","","","1","15000","","","","","",""
"learning-instructions","61","428890","0.0-3.0-13.0-0.0-0.0","spark_pilot_2","8930","6","23","Male","","","","","","","5575.5999999940395","<p> Now, you will practice a shortened version of the game to get a sense of how it all fits together. </p>","","instructions","","","","","","","","","","","","","",""
"learning-instructions","62","434329","0.0-3.0-13.0-0.0-0.1","spark_pilot_2","8930","6","23","Male","","","","","","","2165.8999999910593","<p>This time you are searching for treasure in outer space.</p>","","instructions","","","","","","","","","","","","","",""
"learning-instructions","63","451226","0.0-3.0-13.0-1.0-0.0","spark_pilot_2","8930","6","23","Male","","","","","","","1843.5","<p> Remember, when you see a picture of the place, use the up and down keys to <b>find an animal</b>.</p>
            <p> When you encounter an animal, you should use the left and right keys to <b>select a treasure chest</b>.</p>
            <p> Don't forget to look out for the robber! </p>","","instructions","","","","","","","","","","","","","",""
"revaluation","64","457278","0.0-3.0-13.0-2.0-0.0","spark_pilot_2","8930","6","23","Male","","false","","","","","[1304.0999999940395,765]","./assets/img/space/11.jpg","[""ArrowUp"",""ArrowRight""]","practice block","space","36","{""ArrowUp,ArrowLeft"":3,""ArrowUp,ArrowRight"":36,""ArrowDown,ArrowLeft"":15,""ArrowDown,ArrowRight"":23}","true","ArrowUp,ArrowRight","false","","","","","","","",""
"html-keyboard-response","65","457795","0.0-3.0-13.0-2.0-1.0","spark_pilot_2","8930","6","23","Male","","","","","","","null","<div style=""font-size:60px;"">+</div>","null","fixation","","","","","","","","","","","","","",""
"revaluation","66","463831","0.0-3.0-13.0-2.0-0.1","spark_pilot_2","8930","6","23","Male","","false","","","","","[909.2000000029802,368.90000000596046]","./assets/img/space/12.jpg","[""ArrowUp"",""ArrowRight""]","practice block","space","36","{""ArrowUp,ArrowLeft"":3,""ArrowUp,ArrowRight"":36,""ArrowDown,ArrowLeft"":15,""ArrowDown,ArrowRight"":23}","true","ArrowUp,ArrowRight","false","","","","","","","",""
"html-keyboard-response","67","464334","0.0-3.0-13.0-2.0-1.1","spark_pilot_2","8930","6","23","Male","","","","","","","null","<div style=""font-size:60px;"">+</div>","null","fixation","","","","","","","","","","","","","",""
"revaluation","68","470389","0.0-3.0-13.0-2.0-0.2","spark_pilot_2","8930","6","23","Male","","false","","","","","[671.7999999970198,433.30000001192093]","./assets/img/space/13.jpg","[""ArrowUp"",""ArrowRight""]","practice block","space","36","{""ArrowUp,ArrowLeft"":3,""ArrowUp,ArrowRight"":36,""ArrowDown,ArrowLeft"":15,""ArrowDown,ArrowRight"":23}","true","ArrowUp,ArrowRight","false","","","","","","","",""
"html-keyboard-response","69","470905","0.0-3.0-13.0-2.0-1.2","spark_pilot_2","8930","6","23","Male","","","","","","","null","<div style=""font-size:60px;"">+</div>","null","fixation","","","","","","","","","","","","","",""
"revaluation","70","476950","0.0-3.0-13.0-2.0-0.3","spark_pilot_2","8930","6","23","Male","","false","","","","","[830.2000000029802,488.30000001192093]","./assets/img/space/14.jpg","[""ArrowUp"",""ArrowRight""]","practice block","space","36","{""ArrowUp,ArrowLeft"":3,""ArrowUp,ArrowRight"":36,""ArrowDown,ArrowLeft"":15,""ArrowDown,ArrowRight"":23}","true","ArrowUp,ArrowRight","false","","","","","","","",""
"html-keyboard-response","71","477467","0.0-3.0-13.0-2.0-1.3","spark_pilot_2","8930","6","23","Male","","","","","","","null","<div style=""font-size:60px;"">+</div>","null","fixation","","","","","","","","","","","","","",""
"revaluation","72","483496","0.0-3.0-13.0-2.0-0.4","spark_pilot_2","8930","6","23","Male","","false","","","","","[790.7000000029802,465.3999999910593]","./assets/img/space/11.jpg","[""ArrowUp"",""ArrowRight""]","practice block","space","36","{""ArrowUp,ArrowLeft"":3,""ArrowUp,ArrowRight"":36,""ArrowDown,ArrowLeft"":15,""ArrowDown,ArrowRight"":23}","true","ArrowUp,ArrowRight","false","","","","","","","",""
"html-keyboard-response","73","484007","0.0-3.0-13.0-2.0-1.4","spark_pilot_2","8930","6","23","Male","","","","","","","null","<div style=""font-size:60px;"">+</div>","null","fixation","","","","","","","","","","","","","",""
"revaluation","74","490039","0.0-3.0-13.0-2.0-0.5","spark_pilot_2","8930","6","23","Male","","false","","","","","[658.5999999940395,452.29999999701977]","./assets/img/space/12.jpg","[""ArrowUp"",""ArrowRight""]","practice block","space","36","{""ArrowUp,ArrowLeft"":3,""ArrowUp,ArrowRight"":36,""ArrowDown,ArrowLeft"":15,""ArrowDown,ArrowRight"":23}","true","ArrowUp,ArrowRight","false","","","","","","","",""
"html-keyboard-response","75","490550","0.0-3.0-13.0-2.0-1.5","spark_pilot_2","8930","6","23","Male","","","","","","","null","<div style=""font-size:60px;"">+</div>","null","fixation","","","","","","","","","","","","","",""
"revaluation","76","496583","0.0-3.0-13.0-2.0-0.6","spark_pilot_2","8930","6","23","Male","","false","","","","","[660.5,865.3999999910593]","./assets/img/space/13.jpg","[""ArrowUp"",""ArrowRight""]","practice block","space","36","{""ArrowUp,ArrowLeft"":3,""ArrowUp,ArrowRight"":36,""ArrowDown,ArrowLeft"":15,""ArrowDown,ArrowRight"":23}","true","ArrowUp,ArrowRight","false","","","","","","","",""
"html-keyboard-response","77","497094","0.0-3.0-13.0-2.0-1.6","spark_pilot_2","8930","6","23","Male","","","","","","","null","<div style=""font-size:60px;"">+</div>","null","fixation","","","","","","","","","","","","","",""
"revaluation","78","503128","0.0-3.0-13.0-2.0-0.7","spark_pilot_2","8930","6","23","Male","","false","","","","","[624.7000000029802,434.79999999701977]","./assets/img/space/14.jpg","[""ArrowUp"",""ArrowRight""]","practice block","space","36","{""ArrowUp,ArrowLeft"":3,""ArrowUp,ArrowRight"":36,""ArrowDown,ArrowLeft"":15,""ArrowDown,ArrowRight"":23}","true","ArrowUp,ArrowRight","false","","","","","","","",""
"html-keyboard-response","79","503639","0.0-3.0-13.0-2.0-1.7","spark_pilot_2","8930","6","23","Male","","","","","","","null","<div style=""font-size:60px;"">+</div>","null","fixation","","","","","","","","","","","","","",""
"revaluation","80","507665","0.0-3.0-13.0-2.0-0.8","spark_pilot_2","8930","6","23","Male","","false","","","","","[1049]","./assets/img/space/catch/3.jpg","[""spaceBar""]","practice block","space","0","{""ArrowUp,ArrowLeft"":3,""ArrowUp,ArrowRight"":36,""ArrowDown,ArrowLeft"":15,""ArrowDown,ArrowRight"":23}","true","spaceBar","true","","","","","","","",""
"html-keyboard-response","81","508176","0.0-3.0-13.0-2.0-1.8","spark_pilot_2","8930","6","23","Male","","","","","","[{""event"":""fullscreenenter"",""trial"":2,""time"":69548},{""event"":""fullscreenexit"",""trial"":3,""time"":74832},{""event"":""blur"",""trial"":58,""time"":383557},{""event"":""focus"",""trial"":58,""time"":394292},{""event"":""blur"",""trial"":82,""time"":512492},{""event"":""focus"",""trial"":82,""time"":518477}]","null","<div style=""font-size:60px;"">+</div>","null","fixation","","","","","","","","","","","","","",""
"learning-instructions","82","525821","0.0-3.0-13.0-3.0-0.0","spark_pilot_2","8930","6","23","Male","","","","","","","4098.4000000059605","<p> Now, you will travel with a friend who will choose whether you go up or down first. </p>
            <p> On these turns, you will just see the animal that they found. You will still get to choose which chest to search for treasure.</p>","","instructions","","","","","","","","","","","","","",""
"revaluation","83","529855","0.0-3.0-13.0-4.0-0.0","spark_pilot_2","8930","6","23","Male","","true","","","","","[]","./assets/img/space/animals/rabbit.jpg","[]","practice block","space","-5","{""ArrowUp,ArrowLeft"":3,""ArrowUp,ArrowRight"":36,""ArrowDown,ArrowLeft"":15,""ArrowDown,ArrowRight"":23}","false","ArrowDown","","","","","","","","",""
"html-keyboard-response","84","530364","0.0-3.0-13.0-4.0-1.0","spark_pilot_2","8930","6","23","Male","","","","","","","null","<div style=""font-size:60px;"">+</div>","null","fixation","","","","","","","","","","","","","",""
"revaluation","85","534407","0.0-3.0-13.0-4.0-0.1","spark_pilot_2","8930","6","23","Male","","false","","","","","[512.7000000029802]","./assets/img/space/animals/cat.jpg","[""ArrowRight""]","practice block","space","36","{""ArrowUp,ArrowLeft"":3,""ArrowUp,ArrowRight"":36,""ArrowDown,ArrowLeft"":15,""ArrowDown,ArrowRight"":23}","true","ArrowUp,ArrowRight","","","","","","","","",""
"html-keyboard-response","86","534924","0.0-3.0-13.0-4.0-1.1","spark_pilot_2","8930","6","23","Male","","","","","","","null","<div style=""font-size:60px;"">+</div>","null","fixation","","","","","","","","","","","","","",""
"revaluation","87","538969","0.0-3.0-13.0-4.0-0.2","spark_pilot_2","8930","6","23","Male","","false","","","","","[590.2999999970198]","./assets/img/space/animals/rabbit.jpg","[""ArrowRight""]","practice block","space","23","{""ArrowUp,ArrowLeft"":3,""ArrowUp,ArrowRight"":36,""ArrowDown,ArrowLeft"":15,""ArrowDown,ArrowRight"":23}","true","ArrowDown,ArrowRight","","","","","","","","",""
"html-keyboard-response","88","539485","0.0-3.0-13.0-4.0-1.2","spark_pilot_2","8930","6","23","Male","","","","","","","null","<div style=""font-size:60px;"">+</div>","null","fixation","","","","","","","","","","","","","",""
"revaluation","89","543519","0.0-3.0-13.0-4.0-0.3","spark_pilot_2","8930","6","23","Male","","false","","","","","[478.20000000298023]","./assets/img/space/animals/cat.jpg","[""ArrowLeft""]","practice block","space","3","{""ArrowUp,ArrowLeft"":3,""ArrowUp,ArrowRight"":36,""ArrowDown,ArrowLeft"":15,""ArrowDown,ArrowRight"":23}","false","ArrowUp,ArrowLeft","","","","","","","","",""
"html-keyboard-response","90","544036","0.0-3.0-13.0-4.0-1.3","spark_pilot_2","8930","6","23","Male","","","","","","","null","<div style=""font-size:60px;"">+</div>","null","fixation","","","","","","","","","","","","","",""
"learning-instructions","91","553718","0.0-3.0-13.0-5.0-0.0","spark_pilot_2","8930","6","23","Male","","","","","","","2166.7000000029802","<p> Time to play the dot game! </p>
            <p> For 15 seconds, click the red dots on the following screen as they appear. </p>","","instructions","","","","","","","","","","","","","",""
"revaluation","92","568730","0.0-3.0-13.0-6.0-0.0","spark_pilot_2","8930","6","23","Male","","","","","","","[111]","","","rest practice","","10","","","","","0","15000","","","","","",""
"learning-instructions","93","576487","0.0-3.0-13.0-7.0-0.0","spark_pilot_2","8930","6","23","Male","","","","","","","1499.2999999970198","<p> You have almost finished this part of the game! </p>
            <p> We are going to ask you to make a few more choices. </p>","","instructions","","","","","","","","","","","","","",""
"learning-instructions","94","593419","0.0-3.0-13.0-7.0-0.1","spark_pilot_2","8930","6","23","Male","","","","","","","2654.300000011921","<p> First, you need to decide whether to go up or down. When you see each picture, use the arrow keys to make your choice. </p>
            <p><b>You will not see which animal you found, but try to get to the one that will give you the most treasure.</b></p>","","instructions","","","","","","","","","","","","","",""
"revaluation","95","594391","0.0-3.0-13.0-8.0","spark_pilot_2","8930","6","23","Male","","false","","","","","[966.8999999910593]","./assets/img/space/15.jpg","[""ArrowUp""]","practice block","space","0","{""ArrowUp,ArrowLeft"":3,""ArrowUp,ArrowRight"":36,""ArrowDown,ArrowLeft"":15,""ArrowDown,ArrowRight"":23}","true","ArrowUp","false","","","","","","","",""
"html-keyboard-response","96","594907","0.0-3.0-13.0-9.0","spark_pilot_2","8930","6","23","Male","","","","","","","null","<div style=""font-size:60px;"">+</div>","null","fixation","","","","","","","","","","","","","",""
"learning-instructions","97","607824","0.0-3.0-13.0-10.0-0.0","spark_pilot_2","8930","6","23","Male","","","","","","","1293.4000000059605","<p> Now you will see the animals again and can search their chests for treasure. </p>
            <p> This time, you will not see how much treasure you earned, but you will earn more bonus money for making better choices. </p>","","instructions","","","","","","","","","","","","","",""
"revaluation","98","608585","0.0-3.0-13.0-11.0-0.0","spark_pilot_2","8930","6","23","Male","","false","","","","","[755.5]","./assets/img/space/animals/cat.jpg","[""ArrowRight""]","practice block","space","0","{""ArrowUp,ArrowLeft"":3,""ArrowUp,ArrowRight"":36,""ArrowDown,ArrowLeft"":15,""ArrowDown,ArrowRight"":23}","true","ArrowUp,ArrowRight","","","","","","","","",""
"html-keyboard-response","99","609092","0.0-3.0-13.0-11.0-1.0","spark_pilot_2","8930","6","23","Male","","","","","","","null","<div style=""font-size:60px;"">+</div>","null","fixation","","","","","","","","","","","","","",""
"revaluation","100","610569","0.0-3.0-13.0-11.0-0.1","spark_pilot_2","8930","6","23","Male","","false","","","","","[1469]","./assets/img/space/animals/rabbit.jpg","[""ArrowRight""]","practice block","space","0","{""ArrowUp,ArrowLeft"":3,""ArrowUp,ArrowRight"":36,""ArrowDown,ArrowLeft"":15,""ArrowDown,ArrowRight"":23}","true","ArrowDown,ArrowRight","","","","","","","","",""
"html-keyboard-response","101","611078","0.0-3.0-13.0-11.0-1.1","spark_pilot_2","8930","6","23","Male","","","","","","","null","<div style=""font-size:60px;"">+</div>","null","fixation","","","","","","","","","","","","","",""
"learning-instructions","102","617483","0.0-3.0-14.0-0.0","spark_pilot_2","8930","6","23","Male","","","","","","","1726.9000000059605","<p> Before you start, we're going to ask you a few questions about how the game works. </p>","","instructions","","","","","","","","","","","","","",""
"comp-q","103","625711","0.0-3.0-15.0-0.0-0.0","spark_pilot_2","8930","6","23","Male","","","","","","","2508.5999999940395","<p> <b> True or False? </b> </p>
            <p> There can be 50 pieces of treasure in a given animal's chest. </p>","0","comp_question","","","","false","","","","","","","","","",""
"comp-q","104","633858","0.0-3.0-15.0-0.0-1.0","spark_pilot_2","8930","6","23","Male","","","","","","","1492.5","<p> <b>Incorrect.</b> The amount of treasure in each chest can range from 0 to 40 pieces. </p>","0","comp_answer","","","","","","","","","","","","","",""
"comp-q","105","643067","0.0-3.0-15.0-0.1-0.1","spark_pilot_2","8930","6","23","Male","","","","","","","3631","<p> <b> True or False? </b> </p>
            <p> There can be 50 pieces of treasure in a given animal's chest. </p>","1","comp_question","","","","true","","","","","","","","","",""
"comp-q","106","652964","0.0-3.0-15.0-0.1-1.1","spark_pilot_2","8930","6","23","Male","","","","","","","2882","<p> <b> That's right! </b> The amount of treasure in each chest can range from 0 to 40 pieces. </p>","0","comp_answer","","","","","","","","","","","","","",""
"comp-q","107","661157","0.0-3.0-15.0-0.2-0.2","spark_pilot_2","8930","6","23","Male","","","","","","","936.2999999970198","<p> <b> True or False? </b> </p><p> In this game, all animals have the same amount of treasure in their left and right chests. </p>","1","comp_question","","","","true","","","","","","","","","",""
"comp-q","108","671503","0.0-3.0-15.0-0.2-1.2","spark_pilot_2","8930","6","23","Male","","","","","","","5004.4000000059605","<p> <b> That's right! </b> Animals have different amounts of treasure in their treasure chests. </p>","0","comp_answer","","","","","","","","","","","","","",""
"comp-q","109","680504","0.0-3.0-15.0-0.3-0.3","spark_pilot_2","8930","6","23","Male","","","","","","","3046.2999999970198","<p> <b> True or False? </b> </p><p> The same animal will always be there if you go up in the same place. </p>","0","comp_question","","","","true","","","","","","","","","",""
"comp-q","110","688420","0.0-3.0-15.0-0.3-1.3","spark_pilot_2","8930","6","23","Male","","","","","","","1342.0999999940395","<p> <b> That's right! </b> One animal lives in the upper part and one lives in the lower part of every place. </p>","0","comp_answer","","","","","","","","","","","","","",""
"comp-q","111","695139","0.0-3.0-15.0-0.4-0.4","spark_pilot_2","8930","6","23","Male","","","","","","","1082.2000000029802","<p> <b> True or False? </b> </p><p> If you see a different picture, it means you are in a new place. </p>","0","comp_question","","","","false","","","","","","","","","",""
"comp-q","112","708033","0.0-3.0-15.0-0.4-1.4","spark_pilot_2","8930","6","23","Male","","","","","","","1552.4000000059605","<p> <b>Incorrect.</b> Lots of different images may show the same place. For example,  you may see three different images that all remind you that you are in outer space. </p>","0","comp_answer","","","","","","","","","","","","","",""
"comp-q","113","714824","0.0-3.0-15.0-0.5-0.5","spark_pilot_2","8930","6","23","Male","","","","","","","1283.0999999940395","<p> <b> True or False? </b> </p><p> If you see a different picture, it means you are in a new place. </p>","1","comp_question","","","","true","","","","","","","","","",""
"comp-q","114","731331","0.0-3.0-15.0-0.5-1.5","spark_pilot_2","8930","6","23","Male","","","","","","","4746.20000000298","<p> <b> That's right! </b> Lots of different images may show the same place. For example,  you may see three different images that all remind you that you are in outer space. </p>","0","comp_answer","","","","","","","","","","","","","",""
"learning-instructions","115","747798","0.0-3.0-16.0-0.0","spark_pilot_2","8930","6","23","Male","","","","","","","6057.29999999702","<p> Good job. Remember to do your best because the amount of treasure you earn will be converted into bonus money. </p>
            <p> It’s time to start the real game! </p>","","instructions","","","","","","","","","","","","","",""
"learning-instructions","116","753006","0.0-4.0-0.0-0.0","spark_pilot_2","8930","6","23","Male","","","","","","","2366.699999988079","<p> This time you are searching for treasure in the <b>canyon</b>.</p>","","instructions","","","","","","","","","","","","","",""
"learning-instructions","117","773751","0.0-4.0-0.0-0.1","spark_pilot_2","8930","6","23","Male","","","","","","","3079","<p><b>New</b> animals with <b>new</b> treasure chests live here. You need to explore to discover where the animal with the best treasure chest is.</p>
                    <p> Like before, once you figure out which animal has the chest with the most treasure, you should try to get to that animal and select that chest! </p>","","instructions","","","","","","","","","","","","","",""
"learning-instructions","118","792759","0.0-4.0-1.0-0.0","spark_pilot_2","8930","6","23","Male","","","","","","","4278.4000000059605","<p> Remember, when you see a picture of the place, use the up and down keys to <b>find an animal</b>.</p>
            <p> When you encounter an animal, you should use the left and right keys to <b>select a treasure chest</b>.</p>
            <p> Don't forget to look out for the robber! </p>","","instructions","","","","","","","","","","","","","",""
"revaluation","119","798817","0.0-4.0-2.0-0.0","spark_pilot_2","8930","6","23","Male","","false","","","","","[1452,792.2000000029802]","./assets/img/canyon/memory/36.jpg","[""ArrowUp"",""ArrowRight""]","value training","canyon","10","{""ArrowUp,ArrowLeft"":23,""ArrowUp,ArrowRight"":10,""ArrowDown,ArrowLeft"":8,""ArrowDown,ArrowRight"":30}","false","ArrowUp,ArrowRight","false","","","revaluation","1","0","","",""
"html-keyboard-response","120","799342","0.0-4.0-2.0-1.0","spark_pilot_2","8930","6","23","Male","","","","","","","null","<div style=""font-size:60px;"">+</div>","null","fixation","","","","","","","","","","","1","","",""
"revaluation","121","803373","0.0-4.0-2.0-0.1","spark_pilot_2","8930","6","23","Male","","false","","","","","[852.2000000029802]","./assets/img/canyon/catch/7.jpg","[""spaceBar""]","value training","canyon","0","{""ArrowUp,ArrowLeft"":23,""ArrowUp,ArrowRight"":10,""ArrowDown,ArrowLeft"":8,""ArrowDown,ArrowRight"":30}","true","spaceBar","true","","","revaluation","1","2","","",""
"html-keyboard-response","122","803891","0.0-4.0-2.0-1.1","spark_pilot_2","8930","6","23","Male","","","","","","","null","<div style=""font-size:60px;"">+</div>","null","fixation","","","","","","","","","","","3","","",""
"revaluation","123","809918","0.0-4.0-2.0-0.2","spark_pilot_2","8930","6","23","Male","","false","","","","","[934.9000000059605,551.1000000089407]","./assets/img/canyon/memory/33.jpg","[""ArrowUp"",""ArrowLeft""]","value training","canyon","23","{""ArrowUp,ArrowLeft"":23,""ArrowUp,ArrowRight"":10,""ArrowDown,ArrowLeft"":8,""ArrowDown,ArrowRight"":30}","false","ArrowUp,ArrowLeft","false","","","revaluation","1","4","","",""
"html-keyboard-response","124","810435","0.0-4.0-2.0-1.2","spark_pilot_2","8930","6","23","Male","","","","","","","null","<div style=""font-size:60px;"">+</div>","null","fixation","","","","","","","","","","","5","","",""
"revaluation","125","816482","0.0-4.0-2.0-0.3","spark_pilot_2","8930","6","23","Male","","false","","","","","[1096.8999999910593,561.7000000029802]","./assets/img/canyon/memory/36.jpg","[""ArrowUp"",""ArrowRight""]","value training","canyon","10","{""ArrowUp,ArrowLeft"":23,""ArrowUp,ArrowRight"":10,""ArrowDown,ArrowLeft"":8,""ArrowDown,ArrowRight"":30}","false","ArrowUp,ArrowRight","false","","","revaluation","1","6","","",""
"html-keyboard-response","126","817000","0.0-4.0-2.0-1.3","spark_pilot_2","8930","6","23","Male","","","","","","","null","<div style=""font-size:60px;"">+</div>","null","fixation","","","","","","","","","","","7","","",""
"revaluation","127","823033","0.0-4.0-2.0-0.4","spark_pilot_2","8930","6","23","Male","","false","","","","","[884.9000000059605,425.70000000298023]","./assets/img/canyon/memory/20.jpg","[""ArrowUp"",""ArrowLeft""]","value training","canyon","23","{""ArrowUp,ArrowLeft"":23,""ArrowUp,ArrowRight"":10,""ArrowDown,ArrowLeft"":8,""ArrowDown,ArrowRight"":30}","false","ArrowUp,ArrowLeft","false","","","revaluation","1","8","","",""
"html-keyboard-response","128","823545","0.0-4.0-2.0-1.4","spark_pilot_2","8930","6","23","Male","","","","","","","null","<div style=""font-size:60px;"">+</div>","null","fixation","","","","","","","","","","","9","","",""
"revaluation","129","829579","0.0-4.0-2.0-0.5","spark_pilot_2","8930","6","23","Male","","false","","","","","[1025.5,443.40000000596046]","./assets/img/canyon/memory/31.jpg","[""ArrowUp"",""ArrowLeft""]","value training","canyon","23","{""ArrowUp,ArrowLeft"":23,""ArrowUp,ArrowRight"":10,""ArrowDown,ArrowLeft"":8,""ArrowDown,ArrowRight"":30}","false","ArrowUp,ArrowLeft","false","","","revaluation","1","10","","",""
"html-keyboard-response","130","830083","0.0-4.0-2.0-1.5","spark_pilot_2","8930","6","23","Male","","","","","","","null","<div style=""font-size:60px;"">+</div>","null","fixation","","","","","","","","","","","11","","",""
"revaluation","131","836108","0.0-4.0-2.0-0.6","spark_pilot_2","8930","6","23","Male","","false","","","","","[1336.300000011921,498]","./assets/img/canyon/memory/25.jpg","[""ArrowUp"",""ArrowLeft""]","value training","canyon","23","{""ArrowUp,ArrowLeft"":23,""ArrowUp,ArrowRight"":10,""ArrowDown,ArrowLeft"":8,""ArrowDown,ArrowRight"":30}","false","ArrowUp,ArrowLeft","false","","","revaluation","1","12","","",""
"html-keyboard-response","132","836611","0.0-4.0-2.0-1.6","spark_pilot_2","8930","6","23","Male","","","","","","","null","<div style=""font-size:60px;"">+</div>","null","fixation","","","","","","","","","","","13","","",""
"revaluation","133","842638","0.0-4.0-2.0-0.7","spark_pilot_2","8930","6","23","Male","","false","","","","","[558.2999999970198,906]","./assets/img/canyon/memory/31.jpg","[""ArrowUp"",""ArrowLeft""]","value training","canyon","23","{""ArrowUp,ArrowLeft"":23,""ArrowUp,ArrowRight"":10,""ArrowDown,ArrowLeft"":8,""ArrowDown,ArrowRight"":30}","false","ArrowUp,ArrowLeft","false","","","revaluation","1","14","","",""
"html-keyboard-response","134","843149","0.0-4.0-2.0-1.7","spark_pilot_2","8930","6","23","Male","","","","","","","null","<div style=""font-size:60px;"">+</div>","null","fixation","","","","","","","","","","","15","","",""
"revaluation","135","849182","0.0-4.0-2.0-0.8","spark_pilot_2","8930","6","23","Male","","false","","","","","[766.6000000089407,646]","./assets/img/canyon/memory/26.jpg","[""ArrowUp"",""ArrowLeft""]","value training","canyon","23","{""ArrowUp,ArrowLeft"":23,""ArrowUp,ArrowRight"":10,""ArrowDown,ArrowLeft"":8,""ArrowDown,ArrowRight"":30}","false","ArrowUp,ArrowLeft","false","","","revaluation","1","16","","",""
"html-keyboard-response","136","849694","0.0-4.0-2.0-1.8","spark_pilot_2","8930","6","23","Male","","","","","","","null","<div style=""font-size:60px;"">+</div>","null","fixation","","","","","","","","","","","17","","",""
"revaluation","137","853711","0.0-4.0-2.0-0.9","spark_pilot_2","8930","6","23","Male","","false","","","","","[483.8999999910593]","./assets/img/canyon/catch/1.jpg","[""ArrowUp""]","value training","canyon","-10","{""ArrowUp,ArrowLeft"":23,""ArrowUp,ArrowRight"":10,""ArrowDown,ArrowLeft"":8,""ArrowDown,ArrowRight"":30}","false","ArrowUp","true","","","revaluation","1","18","","",""
"html-keyboard-response","138","854223","0.0-4.0-2.0-1.9","spark_pilot_2","8930","6","23","Male","","","","","","","null","<div style=""font-size:60px;"">+</div>","null","fixation","","","","","","","","","","","19","","",""
"revaluation","139","860257","0.0-4.0-2.0-0.10","spark_pilot_2","8930","6","23","Male","","false","","","","","[935.0999999940395,627.6000000089407]","./assets/img/canyon/memory/1.jpg","[""ArrowUp"",""ArrowLeft""]","value training","canyon","23","{""ArrowUp,ArrowLeft"":23,""ArrowUp,ArrowRight"":10,""ArrowDown,ArrowLeft"":8,""ArrowDown,ArrowRight"":30}","false","ArrowUp,ArrowLeft","false","","","revaluation","1","20","","",""
"html-keyboard-response","140","860768","0.0-4.0-2.0-1.10","spark_pilot_2","8930","6","23","Male","","","","","","","null","<div style=""font-size:60px;"">+</div>","null","fixation","","","","","","","","","","","21","","",""
"revaluation","141","866802","0.0-4.0-2.0-0.11","spark_pilot_2","8930","6","23","Male","","false","","","","","[600.2000000029802,315.5]","./assets/img/canyon/memory/35.jpg","[""ArrowUp"",""ArrowLeft""]","value training","canyon","23","{""ArrowUp,ArrowLeft"":23,""ArrowUp,ArrowRight"":10,""ArrowDown,ArrowLeft"":8,""ArrowDown,ArrowRight"":30}","false","ArrowUp,ArrowLeft","false","","","revaluation","1","22","","",""
"html-keyboard-response","142","867314","0.0-4.0-2.0-1.11","spark_pilot_2","8930","6","23","Male","","","","","","","null","<div style=""font-size:60px;"">+</div>","null","fixation","","","","","","","","","","","23","","",""
"revaluation","143","873347","0.0-4.0-2.0-0.12","spark_pilot_2","8930","6","23","Male","","false","","","","","[679.2000000029802,348.5]","./assets/img/canyon/memory/38.jpg","[""ArrowUp"",""ArrowLeft""]","value training","canyon","23","{""ArrowUp,ArrowLeft"":23,""ArrowUp,ArrowRight"":10,""ArrowDown,ArrowLeft"":8,""ArrowDown,ArrowRight"":30}","false","ArrowUp,ArrowLeft","false","","","revaluation","1","24","","",""
"html-keyboard-response","144","873851","0.0-4.0-2.0-1.12","spark_pilot_2","8930","6","23","Male","","","","","","","null","<div style=""font-size:60px;"">+</div>","null","fixation","","","","","","","","","","","25","","",""
"revaluation","145","877867","0.0-4.0-2.0-0.13","spark_pilot_2","8930","6","23","Male","","false","","","","","[777.9000000059605]","./assets/img/canyon/catch/2.jpg","[""spaceBar""]","value training","canyon","0","{""ArrowUp,ArrowLeft"":23,""ArrowUp,ArrowRight"":10,""ArrowDown,ArrowLeft"":8,""ArrowDown,ArrowRight"":30}","true","spaceBar","true","","","revaluation","1","26","","",""
"html-keyboard-response","146","878371","0.0-4.0-2.0-1.13","spark_pilot_2","8930","6","23","Male","","","","","","","null","<div style=""font-size:60px;"">+</div>","null","fixation","","","","","","","","","","","27","","",""
"revaluation","147","884396","0.0-4.0-2.0-0.14","spark_pilot_2","8930","6","23","Male","","false","","","","","[1641.7000000029802,653]","./assets/img/canyon/memory/29.jpg","[""ArrowUp"",""ArrowLeft""]","value training","canyon","23","{""ArrowUp,ArrowLeft"":23,""ArrowUp,ArrowRight"":10,""ArrowDown,ArrowLeft"":8,""ArrowDown,ArrowRight"":30}","false","ArrowUp,ArrowLeft","false","","","revaluation","1","28","","",""
"html-keyboard-response","148","884899","0.0-4.0-2.0-1.14","spark_pilot_2","8930","6","23","Male","","","","","","","null","<div style=""font-size:60px;"">+</div>","null","fixation","","","","","","","","","","","29","","",""
"revaluation","149","890925","0.0-4.0-2.0-0.15","spark_pilot_2","8930","6","23","Male","","false","","","","","[679,336.3999999910593]","./assets/img/canyon/memory/25.jpg","[""ArrowUp"",""ArrowLeft""]","value training","canyon","23","{""ArrowUp,ArrowLeft"":23,""ArrowUp,ArrowRight"":10,""ArrowDown,ArrowLeft"":8,""ArrowDown,ArrowRight"":30}","false","ArrowUp,ArrowLeft","false","","","revaluation","1","30","","",""
"html-keyboard-response","150","891436","0.0-4.0-2.0-1.15","spark_pilot_2","8930","6","23","Male","","","","","","","null","<div style=""font-size:60px;"">+</div>","null","fixation","","","","","","","","","","","31","","",""
"revaluation","151","897470","0.0-4.0-2.0-0.16","spark_pilot_2","8930","6","23","Male","","false","","","","","[584,349.5]","./assets/img/canyon/memory/0.jpg","[""ArrowUp"",""ArrowLeft""]","value training","canyon","23","{""ArrowUp,ArrowLeft"":23,""ArrowUp,ArrowRight"":10,""ArrowDown,ArrowLeft"":8,""ArrowDown,ArrowRight"":30}","false","ArrowUp,ArrowLeft","false","","","revaluation","1","32","","",""
"html-keyboard-response","152","897982","0.0-4.0-2.0-1.16","spark_pilot_2","8930","6","23","Male","","","","","","","null","<div style=""font-size:60px;"">+</div>","null","fixation","","","","","","","","","","","33","","",""
"revaluation","153","904015","0.0-4.0-2.0-0.17","spark_pilot_2","8930","6","23","Male","","false","","","","","[658.9000000059605,445.79999999701977]","./assets/img/canyon/memory/19.jpg","[""ArrowUp"",""ArrowLeft""]","value training","canyon","23","{""ArrowUp,ArrowLeft"":23,""ArrowUp,ArrowRight"":10,""ArrowDown,ArrowLeft"":8,""ArrowDown,ArrowRight"":30}","false","ArrowUp,ArrowLeft","false","","","revaluation","1","34","","",""
"html-keyboard-response","154","904526","0.0-4.0-2.0-1.17","spark_pilot_2","8930","6","23","Male","","","","","","","null","<div style=""font-size:60px;"">+</div>","null","fixation","","","","","","","","","","","35","","",""
"revaluation","155","910560","0.0-4.0-2.0-0.18","spark_pilot_2","8930","6","23","Male","","false","","","","","[679.7000000029802,404.6000000089407]","./assets/img/canyon/memory/11.jpg","[""ArrowUp"",""ArrowLeft""]","value training","canyon","23","{""ArrowUp,ArrowLeft"":23,""ArrowUp,ArrowRight"":10,""ArrowDown,ArrowLeft"":8,""ArrowDown,ArrowRight"":30}","false","ArrowUp,ArrowLeft","false","","","revaluation","1","36","","",""
"html-keyboard-response","156","911071","0.0-4.0-2.0-1.18","spark_pilot_2","8930","6","23","Male","","","","","","","null","<div style=""font-size:60px;"">+</div>","null","fixation","","","","","","","","","","","37","","",""
"revaluation","157","917110","0.0-4.0-2.0-0.19","spark_pilot_2","8930","6","23","Male","","false","","","","","[490.90000000596046,686]","./assets/img/canyon/memory/37.jpg","[""ArrowUp"",""ArrowLeft""]","value training","canyon","23","{""ArrowUp,ArrowLeft"":23,""ArrowUp,ArrowRight"":10,""ArrowDown,ArrowLeft"":8,""ArrowDown,ArrowRight"":30}","false","ArrowUp,ArrowLeft","false","","","revaluation","1","38","","",""
"html-keyboard-response","158","917622","0.0-4.0-2.0-1.19","spark_pilot_2","8930","6","23","Male","","","","","","","null","<div style=""font-size:60px;"">+</div>","null","fixation","","","","","","","","","","","39","","",""
"revaluation","159","923657","0.0-4.0-2.0-0.20","spark_pilot_2","8930","6","23","Male","","false","","","","","[548,376.70000000298023]","./assets/img/canyon/memory/35.jpg","[""ArrowUp"",""ArrowLeft""]","value training","canyon","23","{""ArrowUp,ArrowLeft"":23,""ArrowUp,ArrowRight"":10,""ArrowDown,ArrowLeft"":8,""ArrowDown,ArrowRight"":30}","false","ArrowUp,ArrowLeft","false","","","revaluation","1","40","","",""
"html-keyboard-response","160","924161","0.0-4.0-2.0-1.20","spark_pilot_2","8930","6","23","Male","","","","","","","null","<div style=""font-size:60px;"">+</div>","null","fixation","","","","","","","","","","","41","","",""
"revaluation","161","930187","0.0-4.0-2.0-0.21","spark_pilot_2","8930","6","23","Male","","false","","","","","[622.2000000029802,457.90000000596046]","./assets/img/canyon/memory/2.jpg","[""ArrowUp"",""ArrowLeft""]","value training","canyon","23","{""ArrowUp,ArrowLeft"":23,""ArrowUp,ArrowRight"":10,""ArrowDown,ArrowLeft"":8,""ArrowDown,ArrowRight"":30}","false","ArrowUp,ArrowLeft","false","","","revaluation","1","42","","",""
"html-keyboard-response","162","930699","0.0-4.0-2.0-1.21","spark_pilot_2","8930","6","23","Male","","","","","","","null","<div style=""font-size:60px;"">+</div>","null","fixation","","","","","","","","","","","43","","",""
"revaluation","163","936733","0.0-4.0-2.0-0.22","spark_pilot_2","8930","6","23","Male","","false","","","","","[683,351.69999998807907]","./assets/img/canyon/memory/37.jpg","[""ArrowUp"",""ArrowLeft""]","value training","canyon","23","{""ArrowUp,ArrowLeft"":23,""ArrowUp,ArrowRight"":10,""ArrowDown,ArrowLeft"":8,""ArrowDown,ArrowRight"":30}","false","ArrowUp,ArrowLeft","false","","","revaluation","1","44","","",""
"html-keyboard-response","164","937244","0.0-4.0-2.0-1.22","spark_pilot_2","8930","6","23","Male","","","","","","","null","<div style=""font-size:60px;"">+</div>","null","fixation","","","","","","","","","","","45","","",""
"revaluation","165","943278","0.0-4.0-2.0-0.23","spark_pilot_2","8930","6","23","Male","","false","","","","","[518.0999999940395,1161.1000000089407]","./assets/img/canyon/memory/19.jpg","[""ArrowUp"",""ArrowLeft""]","value training","canyon","23","{""ArrowUp,ArrowLeft"":23,""ArrowUp,ArrowRight"":10,""ArrowDown,ArrowLeft"":8,""ArrowDown,ArrowRight"":30}","false","ArrowUp,ArrowLeft","false","","","revaluation","1","46","","",""
"html-keyboard-response","166","943789","0.0-4.0-2.0-1.23","spark_pilot_2","8930","6","23","Male","","","","","","","null","<div style=""font-size:60px;"">+</div>","null","fixation","","","","","","","","","","","47","","",""
"revaluation","167","949823","0.0-4.0-2.0-0.24","spark_pilot_2","8930","6","23","Male","","false","","","","","[664.3000000119209,578.5999999940395]","./assets/img/canyon/memory/38.jpg","[""ArrowUp"",""ArrowLeft""]","value training","canyon","23","{""ArrowUp,ArrowLeft"":23,""ArrowUp,ArrowRight"":10,""ArrowDown,ArrowLeft"":8,""ArrowDown,ArrowRight"":30}","false","ArrowUp,ArrowLeft","false","","","revaluation","1","48","","",""
"html-keyboard-response","168","950335","0.0-4.0-2.0-1.24","spark_pilot_2","8930","6","23","Male","","","","","","","null","<div style=""font-size:60px;"">+</div>","null","fixation","","","","","","","","","","","49","","",""
"revaluation","169","956377","0.0-4.0-2.0-0.25","spark_pilot_2","8930","6","23","Male","","false","","","","","[551.0999999940395,345.70000000298023]","./assets/img/canyon/memory/16.jpg","[""ArrowUp"",""ArrowLeft""]","value training","canyon","23","{""ArrowUp,ArrowLeft"":23,""ArrowUp,ArrowRight"":10,""ArrowDown,ArrowLeft"":8,""ArrowDown,ArrowRight"":30}","false","ArrowUp,ArrowLeft","false","","","revaluation","1","50","","",""
"html-keyboard-response","170","956888","0.0-4.0-2.0-1.25","spark_pilot_2","8930","6","23","Male","","","","","","","null","<div style=""font-size:60px;"">+</div>","null","fixation","","","","","","","","","","","51","","",""
"revaluation","171","962914","0.0-4.0-2.0-0.26","spark_pilot_2","8930","6","23","Male","","false","","","","","[789.8999999910593,373.69999998807907]","./assets/img/canyon/memory/39.jpg","[""ArrowUp"",""ArrowLeft""]","value training","canyon","23","{""ArrowUp,ArrowLeft"":23,""ArrowUp,ArrowRight"":10,""ArrowDown,ArrowLeft"":8,""ArrowDown,ArrowRight"":30}","false","ArrowUp,ArrowLeft","false","","","revaluation","1","52","","",""
"html-keyboard-response","172","963417","0.0-4.0-2.0-1.26","spark_pilot_2","8930","6","23","Male","","","","","","","null","<div style=""font-size:60px;"">+</div>","null","fixation","","","","","","","","","","","53","","",""
"revaluation","173","969443","0.0-4.0-2.0-0.27","spark_pilot_2","8930","6","23","Male","","false","","","","","[913.4000000059605,331.29999999701977]","./assets/img/canyon/memory/20.jpg","[""ArrowUp"",""ArrowLeft""]","value training","canyon","23","{""ArrowUp,ArrowLeft"":23,""ArrowUp,ArrowRight"":10,""ArrowDown,ArrowLeft"":8,""ArrowDown,ArrowRight"":30}","false","ArrowUp,ArrowLeft","false","","","revaluation","1","54","","",""
"html-keyboard-response","174","969954","0.0-4.0-2.0-1.27","spark_pilot_2","8930","6","23","Male","","","","","","","null","<div style=""font-size:60px;"">+</div>","null","fixation","","","","","","","","","","","55","","",""
"revaluation","175","973979","0.0-4.0-2.0-0.28","spark_pilot_2","8930","6","23","Male","","false","","","","","[768.2999999970198]","./assets/img/canyon/catch/0.jpg","[""spaceBar""]","value training","canyon","0","{""ArrowUp,ArrowLeft"":23,""ArrowUp,ArrowRight"":10,""ArrowDown,ArrowLeft"":8,""ArrowDown,ArrowRight"":30}","true","spaceBar","true","","","revaluation","1","56","","",""
"html-keyboard-response","176","974491","0.0-4.0-2.0-1.28","spark_pilot_2","8930","6","23","Male","","","","","","","null","<div style=""font-size:60px;"">+</div>","null","fixation","","","","","","","","","","","57","","",""
"revaluation","177","978516","0.0-4.0-2.0-0.29","spark_pilot_2","8930","6","23","Male","","false","","","","","[562.4000000059605]","./assets/img/canyon/catch/6.jpg","[""spaceBar""]","value training","canyon","0","{""ArrowUp,ArrowLeft"":23,""ArrowUp,ArrowRight"":10,""ArrowDown,ArrowLeft"":8,""ArrowDown,ArrowRight"":30}","true","spaceBar","true","","","revaluation","1","58","","",""
"html-keyboard-response","178","979027","0.0-4.0-2.0-1.29","spark_pilot_2","8930","6","23","Male","","","","","","","null","<div style=""font-size:60px;"">+</div>","null","fixation","","","","","","","","","","","59","","",""
"revaluation","179","985062","0.0-4.0-2.0-0.30","spark_pilot_2","8930","6","23","Male","","false","","","","","[796.7999999970198,580.7000000029802]","./assets/img/canyon/memory/32.jpg","[""ArrowUp"",""ArrowLeft""]","value training","canyon","23","{""ArrowUp,ArrowLeft"":23,""ArrowUp,ArrowRight"":10,""ArrowDown,ArrowLeft"":8,""ArrowDown,ArrowRight"":30}","false","ArrowUp,ArrowLeft","false","","","revaluation","1","60","","",""
"html-keyboard-response","180","985574","0.0-4.0-2.0-1.30","spark_pilot_2","8930","6","23","Male","","","","","","","null","<div style=""font-size:60px;"">+</div>","null","fixation","","","","","","","","","","","61","","",""
"revaluation","181","991607","0.0-4.0-2.0-0.31","spark_pilot_2","8930","6","23","Male","","false","","","","","[915.7000000029802,463.20000000298023]","./assets/img/canyon/memory/1.jpg","[""ArrowUp"",""ArrowLeft""]","value training","canyon","23","{""ArrowUp,ArrowLeft"":23,""ArrowUp,ArrowRight"":10,""ArrowDown,ArrowLeft"":8,""ArrowDown,ArrowRight"":30}","false","ArrowUp,ArrowLeft","false","","","revaluation","1","62","","",""
"html-keyboard-response","182","992118","0.0-4.0-2.0-1.31","spark_pilot_2","8930","6","23","Male","","","","","","","null","<div style=""font-size:60px;"">+</div>","null","fixation","","","","","","","","","","","63","","",""
"revaluation","183","998153","0.0-4.0-2.0-0.32","spark_pilot_2","8930","6","23","Male","","false","","","","","[580.0999999940395,321.8999999910593]","./assets/img/canyon/memory/2.jpg","[""ArrowUp"",""ArrowLeft""]","value training","canyon","23","{""ArrowUp,ArrowLeft"":23,""ArrowUp,ArrowRight"":10,""ArrowDown,ArrowLeft"":8,""ArrowDown,ArrowRight"":30}","false","ArrowUp,ArrowLeft","false","","","revaluation","1","64","","",""
"html-keyboard-response","184","998664","0.0-4.0-2.0-1.32","spark_pilot_2","8930","6","23","Male","","","","","","","null","<div style=""font-size:60px;"">+</div>","null","fixation","","","","","","","","","","","65","","",""
"revaluation","185","1004698","0.0-4.0-2.0-0.33","spark_pilot_2","8930","6","23","Male","","false","","","","","[580,453]","./assets/img/canyon/memory/13.jpg","[""ArrowUp"",""ArrowLeft""]","value training","canyon","23","{""ArrowUp,ArrowLeft"":23,""ArrowUp,ArrowRight"":10,""ArrowDown,ArrowLeft"":8,""ArrowDown,ArrowRight"":30}","false","ArrowUp,ArrowLeft","false","","","revaluation","1","66","","",""
"html-keyboard-response","186","1005201","0.0-4.0-2.0-1.33","spark_pilot_2","8930","6","23","Male","","","","","","","null","<div style=""font-size:60px;"">+</div>","null","fixation","","","","","","","","","","","67","","",""
"revaluation","187","1011227","0.0-4.0-2.0-0.34","spark_pilot_2","8930","6","23","Male","","false","","","","","[555.3999999910593,524.9000000059605]","./assets/img/canyon/memory/16.jpg","[""ArrowUp"",""ArrowLeft""]","value training","canyon","23","{""ArrowUp,ArrowLeft"":23,""ArrowUp,ArrowRight"":10,""ArrowDown,ArrowLeft"":8,""ArrowDown,ArrowRight"":30}","false","ArrowUp,ArrowLeft","false","","","revaluation","1","68","","",""
"html-keyboard-response","188","1011738","0.0-4.0-2.0-1.34","spark_pilot_2","8930","6","23","Male","","","","","","","null","<div style=""font-size:60px;"">+</div>","null","fixation","","","","","","","","","","","69","","",""
"revaluation","189","1015763","0.0-4.0-2.0-0.35","spark_pilot_2","8930","6","23","Male","","false","","","","","[671.2000000029802]","./assets/img/canyon/catch/4.jpg","[""spaceBar""]","value training","canyon","0","{""ArrowUp,ArrowLeft"":23,""ArrowUp,ArrowRight"":10,""ArrowDown,ArrowLeft"":8,""ArrowDown,ArrowRight"":30}","true","spaceBar","true","","","revaluation","1","70","","",""
"html-keyboard-response","190","1016275","0.0-4.0-2.0-1.35","spark_pilot_2","8930","6","23","Male","","","","","","","null","<div style=""font-size:60px;"">+</div>","null","fixation","","","","","","","","","","","71","","",""
"revaluation","191","1022308","0.0-4.0-2.0-0.36","spark_pilot_2","8930","6","23","Male","","false","","","","","[866,629.9000000059605]","./assets/img/canyon/memory/26.jpg","[""ArrowUp"",""ArrowLeft""]","value training","canyon","23","{""ArrowUp,ArrowLeft"":23,""ArrowUp,ArrowRight"":10,""ArrowDown,ArrowLeft"":8,""ArrowDown,ArrowRight"":30}","false","ArrowUp,ArrowLeft","false","","","revaluation","1","72","","",""
"html-keyboard-response","192","1022820","0.0-4.0-2.0-1.36","spark_pilot_2","8930","6","23","Male","","","","","","","null","<div style=""font-size:60px;"">+</div>","null","fixation","","","","","","","","","","","73","","",""
"revaluation","193","1028854","0.0-4.0-2.0-0.37","spark_pilot_2","8930","6","23","Male","","false","","","","","[850,413.29999999701977]","./assets/img/canyon/memory/29.jpg","[""ArrowUp"",""ArrowLeft""]","value training","canyon","23","{""ArrowUp,ArrowLeft"":23,""ArrowUp,ArrowRight"":10,""ArrowDown,ArrowLeft"":8,""ArrowDown,ArrowRight"":30}","false","ArrowUp,ArrowLeft","false","","","revaluation","1","74","","",""
"html-keyboard-response","194","1029365","0.0-4.0-2.0-1.37","spark_pilot_2","8930","6","23","Male","","","","","","","null","<div style=""font-size:60px;"">+</div>","null","fixation","","","","","","","","","","","75","","",""
"revaluation","195","1035399","0.0-4.0-2.0-0.38","spark_pilot_2","8930","6","23","Male","","false","","","","","[597.4000000059605,299.70000000298023]","./assets/img/canyon/memory/7.jpg","[""ArrowUp"",""ArrowLeft""]","value training","canyon","23","{""ArrowUp,ArrowLeft"":23,""ArrowUp,ArrowRight"":10,""ArrowDown,ArrowLeft"":8,""ArrowDown,ArrowRight"":30}","false","ArrowUp,ArrowLeft","false","","","revaluation","1","76","","",""
"html-keyboard-response","196","1035911","0.0-4.0-2.0-1.38","spark_pilot_2","8930","6","23","Male","","","","","","","null","<div style=""font-size:60px;"">+</div>","null","fixation","","","","","","","","","","","77","","",""
"revaluation","197","1041940","0.0-4.0-2.0-0.39","spark_pilot_2","8930","6","23","Male","","false","","","","","[547.4000000059605,362.79999999701977]","./assets/img/canyon/memory/39.jpg","[""ArrowUp"",""ArrowLeft""]","value training","canyon","23","{""ArrowUp,ArrowLeft"":23,""ArrowUp,ArrowRight"":10,""ArrowDown,ArrowLeft"":8,""ArrowDown,ArrowRight"":30}","false","ArrowUp,ArrowLeft","false","","","revaluation","1","78","","",""
"html-keyboard-response","198","1042451","0.0-4.0-2.0-1.39","spark_pilot_2","8930","6","23","Male","","","","","","","null","<div style=""font-size:60px;"">+</div>","null","fixation","","","","","","","","","","","79","","",""
"revaluation","199","1048477","0.0-4.0-2.0-0.40","spark_pilot_2","8930","6","23","Male","","false","","","","","[702.7000000029802,508.40000000596046]","./assets/img/canyon/memory/33.jpg","[""ArrowUp"",""ArrowLeft""]","value training","canyon","23","{""ArrowUp,ArrowLeft"":23,""ArrowUp,ArrowRight"":10,""ArrowDown,ArrowLeft"":8,""ArrowDown,ArrowRight"":30}","false","ArrowUp,ArrowLeft","false","","","revaluation","1","80","","",""
"html-keyboard-response","200","1048980","0.0-4.0-2.0-1.40","spark_pilot_2","8930","6","23","Male","","","","","","","null","<div style=""font-size:60px;"">+</div>","null","fixation","","","","","","","","","","","81","","",""
"revaluation","201","1055009","0.0-4.0-2.0-0.41","spark_pilot_2","8930","6","23","Male","","false","","","","","[722.5999999940395,462.5]","./assets/img/canyon/memory/32.jpg","[""ArrowUp"",""ArrowLeft""]","value training","canyon","23","{""ArrowUp,ArrowLeft"":23,""ArrowUp,ArrowRight"":10,""ArrowDown,ArrowLeft"":8,""ArrowDown,ArrowRight"":30}","false","ArrowUp,ArrowLeft","false","","","revaluation","1","82","","",""
"html-keyboard-response","202","1055520","0.0-4.0-2.0-1.41","spark_pilot_2","8930","6","23","Male","","","","","","","null","<div style=""font-size:60px;"">+</div>","null","fixation","","","","","","","","","","","83","","",""
"revaluation","203","1061554","0.0-4.0-2.0-0.42","spark_pilot_2","8930","6","23","Male","","false","","","","","[833.9000000059605,374.3999999910593]","./assets/img/canyon/memory/11.jpg","[""ArrowUp"",""ArrowLeft""]","value training","canyon","23","{""ArrowUp,ArrowLeft"":23,""ArrowUp,ArrowRight"":10,""ArrowDown,ArrowLeft"":8,""ArrowDown,ArrowRight"":30}","false","ArrowUp,ArrowLeft","false","","","revaluation","1","84","","",""
"html-keyboard-response","204","1062065","0.0-4.0-2.0-1.42","spark_pilot_2","8930","6","23","Male","","","","","","","null","<div style=""font-size:60px;"">+</div>","null","fixation","","","","","","","","","","","85","","",""
"revaluation","205","1068098","0.0-4.0-2.0-0.43","spark_pilot_2","8930","6","23","Male","","false","","","","","[611.5,576.0999999940395]","./assets/img/canyon/memory/9.jpg","[""ArrowUp"",""ArrowLeft""]","value training","canyon","23","{""ArrowUp,ArrowLeft"":23,""ArrowUp,ArrowRight"":10,""ArrowDown,ArrowLeft"":8,""ArrowDown,ArrowRight"":30}","false","ArrowUp,ArrowLeft","false","","","revaluation","1","86","","",""
"html-keyboard-response","206","1068609","0.0-4.0-2.0-1.43","spark_pilot_2","8930","6","23","Male","","","","","","","null","<div style=""font-size:60px;"">+</div>","null","fixation","","","","","","","","","","","87","","",""
"revaluation","207","1074637","0.0-4.0-2.0-0.44","spark_pilot_2","8930","6","23","Male","","false","","","","","[535.2999999970198,575.3000000119209]","./assets/img/canyon/memory/0.jpg","[""ArrowUp"",""ArrowLeft""]","value training","canyon","23","{""ArrowUp,ArrowLeft"":23,""ArrowUp,ArrowRight"":10,""ArrowDown,ArrowLeft"":8,""ArrowDown,ArrowRight"":30}","false","ArrowUp,ArrowLeft","false","","","revaluation","1","88","","",""
"html-keyboard-response","208","1075141","0.0-4.0-2.0-1.44","spark_pilot_2","8930","6","23","Male","","","","","","","null","<div style=""font-size:60px;"">+</div>","null","fixation","","","","","","","","","","","89","","",""
"revaluation","209","1081167","0.0-4.0-2.0-0.45","spark_pilot_2","8930","6","23","Male","","false","","","","","[499.79999999701977,420.29999999701977]","./assets/img/canyon/memory/7.jpg","[""ArrowUp"",""ArrowLeft""]","value training","canyon","23","{""ArrowUp,ArrowLeft"":23,""ArrowUp,ArrowRight"":10,""ArrowDown,ArrowLeft"":8,""ArrowDown,ArrowRight"":30}","false","ArrowUp,ArrowLeft","false","","","revaluation","1","90","","",""
"html-keyboard-response","210","1081678","0.0-4.0-2.0-1.45","spark_pilot_2","8930","6","23","Male","","","","","","","null","<div style=""font-size:60px;"">+</div>","null","fixation","","","","","","","","","","","91","","",""
"revaluation","211","1085704","0.0-4.0-2.0-0.46","spark_pilot_2","8930","6","23","Male","","false","","","","","[865.9000000059605]","./assets/img/canyon/catch/3.jpg","[""spaceBar""]","value training","canyon","0","{""ArrowUp,ArrowLeft"":23,""ArrowUp,ArrowRight"":10,""ArrowDown,ArrowLeft"":8,""ArrowDown,ArrowRight"":30}","true","spaceBar","true","","","revaluation","1","92","","",""
"html-keyboard-response","212","1086215","0.0-4.0-2.0-1.46","spark_pilot_2","8930","6","23","Male","","","","","","","null","<div style=""font-size:60px;"">+</div>","null","fixation","","","","","","","","","","","93","","",""
"revaluation","213","1092251","0.0-4.0-2.0-0.47","spark_pilot_2","8930","6","23","Male","","false","","","","","[668.1999999880791,605.2000000029802]","./assets/img/canyon/memory/9.jpg","[""ArrowUp"",""ArrowLeft""]","value training","canyon","23","{""ArrowUp,ArrowLeft"":23,""ArrowUp,ArrowRight"":10,""ArrowDown,ArrowLeft"":8,""ArrowDown,ArrowRight"":30}","false","ArrowUp,ArrowLeft","false","","","revaluation","1","94","","",""
"html-keyboard-response","214","1092762","0.0-4.0-2.0-1.47","spark_pilot_2","8930","6","23","Male","","","","","","","null","<div style=""font-size:60px;"">+</div>","null","fixation","","","","","","","","","","","95","","",""
"revaluation","215","1096787","0.0-4.0-2.0-0.48","spark_pilot_2","8930","6","23","Male","","false","","","","","[639.2999999970198]","./assets/img/canyon/catch/5.jpg","[""spaceBar""]","value training","canyon","0","{""ArrowUp,ArrowLeft"":23,""ArrowUp,ArrowRight"":10,""ArrowDown,ArrowLeft"":8,""ArrowDown,ArrowRight"":30}","true","spaceBar","true","","","revaluation","1","96","","",""
"html-keyboard-response","216","1097299","0.0-4.0-2.0-1.48","spark_pilot_2","8930","6","23","Male","","","","","","","null","<div style=""font-size:60px;"">+</div>","null","fixation","","","","","","","","","","","97","","",""
"revaluation","217","1103326","0.0-4.0-2.0-0.49","spark_pilot_2","8930","6","23","Male","","false","","","","","[880.2000000029802,435.3999999910593]","./assets/img/canyon/memory/13.jpg","[""ArrowUp"",""ArrowLeft""]","value training","canyon","23","{""ArrowUp,ArrowLeft"":23,""ArrowUp,ArrowRight"":10,""ArrowDown,ArrowLeft"":8,""ArrowDown,ArrowRight"":30}","false","ArrowUp,ArrowLeft","false","","","revaluation","1","98","","",""
"html-keyboard-response","218","1103829","0.0-4.0-2.0-1.49","spark_pilot_2","8930","6","23","Male","","","","","","","null","<div style=""font-size:60px;"">+</div>","null","fixation","","","","","","","","","","","99","","",""
"learning-instructions","219","1118996","0.0-4.0-3.0-0.0","spark_pilot_2","8930","6","23","Male","","","","","","","2166","<p> Now, you will travel with a friend who will choose whether you go up or down first. </p>
            <p> On these turns, you will just see the animal that they found. You will still get to choose which chest to search for treasure.</p>","","instructions","","","","","","","","","","","","","",""
"revaluation","220","1123014","0.0-4.0-4.0-0.0","spark_pilot_2","8930","6","23","Male","","false","","","","","[1584.5]","./assets/img/canyon/animals/giraffe.jpg","[""ArrowRight""]","revaluation","canyon","7","{""ArrowUp,ArrowLeft"":27,""ArrowUp,ArrowRight"":15,""ArrowDown,ArrowLeft"":21,""ArrowDown,ArrowRight"":7}","false","ArrowDown,ArrowRight","","","","revaluation","1","0","","",""
"html-keyboard-response","221","1123538","0.0-4.0-4.0-1.0","spark_pilot_2","8930","6","23","Male","","","","","","","null","<div style=""font-size:60px;"">+</div>","null","fixation","","","","","","","","","","","1","","",""
"revaluation","222","1127575","0.0-4.0-4.0-0.1","spark_pilot_2","8930","6","23","Male","","false","","","","","[734]","./assets/img/canyon/animals/lion.jpg","[""ArrowLeft""]","revaluation","canyon","27","{""ArrowUp,ArrowLeft"":27,""ArrowUp,ArrowRight"":15,""ArrowDown,ArrowLeft"":21,""ArrowDown,ArrowRight"":7}","true","ArrowUp,ArrowLeft","","","","revaluation","1","2","","",""
"html-keyboard-response","223","1128099","0.0-4.0-4.0-1.1","spark_pilot_2","8930","6","23","Male","","","","","","","null","<div style=""font-size:60px;"">+</div>","null","fixation","","","","","","","","","","","3","","",""
"revaluation","224","1132138","0.0-4.0-4.0-0.2","spark_pilot_2","8930","6","23","Male","","false","","","","","[474.79999999701977]","./assets/img/canyon/animals/lion.jpg","[""ArrowLeft""]","revaluation","canyon","27","{""ArrowUp,ArrowLeft"":27,""ArrowUp,ArrowRight"":15,""ArrowDown,ArrowLeft"":21,""ArrowDown,ArrowRight"":7}","true","ArrowUp,ArrowLeft","","","","revaluation","1","4","","",""
"html-keyboard-response","225","1132647","0.0-4.0-4.0-1.2","spark_pilot_2","8930","6","23","Male","","","","","","","null","<div style=""font-size:60px;"">+</div>","null","fixation","","","","","","","","","","","5","","",""
"revaluation","226","1136684","0.0-4.0-4.0-0.3","spark_pilot_2","8930","6","23","Male","","false","","","","","[689]","./assets/img/canyon/animals/giraffe.jpg","[""ArrowLeft""]","revaluation","canyon","21","{""ArrowUp,ArrowLeft"":27,""ArrowUp,ArrowRight"":15,""ArrowDown,ArrowLeft"":21,""ArrowDown,ArrowRight"":7}","true","ArrowDown,ArrowLeft","","","","revaluation","1","6","","",""
"html-keyboard-response","227","1137201","0.0-4.0-4.0-1.3","spark_pilot_2","8930","6","23","Male","","","","","","","null","<div style=""font-size:60px;"">+</div>","null","fixation","","","","","","","","","","","7","","",""
"revaluation","228","1141230","0.0-4.0-4.0-0.4","spark_pilot_2","8930","6","23","Male","","false","","","","","[444.90000000596046]","./assets/img/canyon/animals/giraffe.jpg","[""ArrowLeft""]","revaluation","canyon","21","{""ArrowUp,ArrowLeft"":27,""ArrowUp,ArrowRight"":15,""ArrowDown,ArrowLeft"":21,""ArrowDown,ArrowRight"":7}","true","ArrowDown,ArrowLeft","","","","revaluation","1","8","","",""
"html-keyboard-response","229","1141747","0.0-4.0-4.0-1.4","spark_pilot_2","8930","6","23","Male","","","","","","","null","<div style=""font-size:60px;"">+</div>","null","fixation","","","","","","","","","","","9","","",""
"revaluation","230","1145776","0.0-4.0-4.0-0.5","spark_pilot_2","8930","6","23","Male","","false","","","","","[754.8999999910593]","./assets/img/canyon/animals/giraffe.jpg","[""ArrowLeft""]","revaluation","canyon","21","{""ArrowUp,ArrowLeft"":27,""ArrowUp,ArrowRight"":15,""ArrowDown,ArrowLeft"":21,""ArrowDown,ArrowRight"":7}","true","ArrowDown,ArrowLeft","","","","revaluation","1","10","","",""
"html-keyboard-response","231","1146292","0.0-4.0-4.0-1.5","spark_pilot_2","8930","6","23","Male","","","","","","","null","<div style=""font-size:60px;"">+</div>","null","fixation","","","","","","","","","","","11","","",""
"revaluation","232","1150313","0.0-4.0-4.0-0.6","spark_pilot_2","8930","6","23","Male","","false","","","","","[661.3000000119209]","./assets/img/canyon/animals/lion.jpg","[""ArrowLeft""]","revaluation","canyon","27","{""ArrowUp,ArrowLeft"":27,""ArrowUp,ArrowRight"":15,""ArrowDown,ArrowLeft"":21,""ArrowDown,ArrowRight"":7}","true","ArrowUp,ArrowLeft","","","","revaluation","1","12","","",""
"html-keyboard-response","233","1150824","0.0-4.0-4.0-1.6","spark_pilot_2","8930","6","23","Male","","","","","","","null","<div style=""font-size:60px;"">+</div>","null","fixation","","","","","","","","","","","13","","",""
"revaluation","234","1154850","0.0-4.0-4.0-0.7","spark_pilot_2","8930","6","23","Male","","false","","","","","[426.20000000298023]","./assets/img/canyon/animals/giraffe.jpg","[""ArrowLeft""]","revaluation","canyon","21","{""ArrowUp,ArrowLeft"":27,""ArrowUp,ArrowRight"":15,""ArrowDown,ArrowLeft"":21,""ArrowDown,ArrowRight"":7}","true","ArrowDown,ArrowLeft","","","","revaluation","1","14","","",""
"html-keyboard-response","235","1155362","0.0-4.0-4.0-1.7","spark_pilot_2","8930","6","23","Male","","","","","","","null","<div style=""font-size:60px;"">+</div>","null","fixation","","","","","","","","","","","15","","",""
"revaluation","236","1159388","0.0-4.0-4.0-0.8","spark_pilot_2","8930","6","23","Male","","false","","","","","[458.79999999701977]","./assets/img/canyon/animals/giraffe.jpg","[""ArrowLeft""]","revaluation","canyon","21","{""ArrowUp,ArrowLeft"":27,""ArrowUp,ArrowRight"":15,""ArrowDown,ArrowLeft"":21,""ArrowDown,ArrowRight"":7}","true","ArrowDown,ArrowLeft","","","","revaluation","1","16","","",""
"html-keyboard-response","237","1159900","0.0-4.0-4.0-1.8","spark_pilot_2","8930","6","23","Male","","","","","","","null","<div style=""font-size:60px;"">+</div>","null","fixation","","","","","","","","","","","17","","",""
"revaluation","238","1163925","0.0-4.0-4.0-0.9","spark_pilot_2","8930","6","23","Male","","false","","","","","[625.5]","./assets/img/canyon/animals/giraffe.jpg","[""ArrowLeft""]","revaluation","canyon","21","{""ArrowUp,ArrowLeft"":27,""ArrowUp,ArrowRight"":15,""ArrowDown,ArrowLeft"":21,""ArrowDown,ArrowRight"":7}","true","ArrowDown,ArrowLeft","","","","revaluation","1","18","","",""
"html-keyboard-response","239","1164428","0.0-4.0-4.0-1.9","spark_pilot_2","8930","6","23","Male","","","","","","","null","<div style=""font-size:60px;"">+</div>","null","fixation","","","","","","","","","","","19","","",""
"revaluation","240","1168446","0.0-4.0-4.0-0.10","spark_pilot_2","8930","6","23","Male","","false","","","","","[446.3999999910593]","./assets/img/canyon/animals/lion.jpg","[""ArrowLeft""]","revaluation","canyon","27","{""ArrowUp,ArrowLeft"":27,""ArrowUp,ArrowRight"":15,""ArrowDown,ArrowLeft"":21,""ArrowDown,ArrowRight"":7}","true","ArrowUp,ArrowLeft","","","","revaluation","1","20","","",""
"html-keyboard-response","241","1168958","0.0-4.0-4.0-1.10","spark_pilot_2","8930","6","23","Male","","","","","","","null","<div style=""font-size:60px;"">+</div>","null","fixation","","","","","","","","","","","21","","",""
"revaluation","242","1172985","0.0-4.0-4.0-0.11","spark_pilot_2","8930","6","23","Male","","false","","","","","[453.20000000298023]","./assets/img/canyon/animals/lion.jpg","[""ArrowLeft""]","revaluation","canyon","27","{""ArrowUp,ArrowLeft"":27,""ArrowUp,ArrowRight"":15,""ArrowDown,ArrowLeft"":21,""ArrowDown,ArrowRight"":7}","true","ArrowUp,ArrowLeft","","","","revaluation","1","22","","",""
"html-keyboard-response","243","1173496","0.0-4.0-4.0-1.11","spark_pilot_2","8930","6","23","Male","","","","","","","null","<div style=""font-size:60px;"">+</div>","null","fixation","","","","","","","","","","","23","","",""
"revaluation","244","1177522","0.0-4.0-4.0-0.12","spark_pilot_2","8930","6","23","Male","","false","","","","","[717.0999999940395]","./assets/img/canyon/animals/giraffe.jpg","[""ArrowLeft""]","revaluation","canyon","21","{""ArrowUp,ArrowLeft"":27,""ArrowUp,ArrowRight"":15,""ArrowDown,ArrowLeft"":21,""ArrowDown,ArrowRight"":7}","true","ArrowDown,ArrowLeft","","","","revaluation","1","24","","",""
"html-keyboard-response","245","1178034","0.0-4.0-4.0-1.12","spark_pilot_2","8930","6","23","Male","","","","","","","null","<div style=""font-size:60px;"">+</div>","null","fixation","","","","","","","","","","","25","","",""
"revaluation","246","1182060","0.0-4.0-4.0-0.13","spark_pilot_2","8930","6","23","Male","","false","","","","","[632.5]","./assets/img/canyon/animals/lion.jpg","[""ArrowLeft""]","revaluation","canyon","27","{""ArrowUp,ArrowLeft"":27,""ArrowUp,ArrowRight"":15,""ArrowDown,ArrowLeft"":21,""ArrowDown,ArrowRight"":7}","true","ArrowUp,ArrowLeft","","","","revaluation","1","26","","",""
"html-keyboard-response","247","1182571","0.0-4.0-4.0-1.13","spark_pilot_2","8930","6","23","Male","","","","","","","null","<div style=""font-size:60px;"">+</div>","null","fixation","","","","","","","","","","","27","","",""
"revaluation","248","1186597","0.0-4.0-4.0-0.14","spark_pilot_2","8930","6","23","Male","","false","","","","","[401.3999999910593]","./assets/img/canyon/animals/lion.jpg","[""ArrowLeft""]","revaluation","canyon","27","{""ArrowUp,ArrowLeft"":27,""ArrowUp,ArrowRight"":15,""ArrowDown,ArrowLeft"":21,""ArrowDown,ArrowRight"":7}","true","ArrowUp,ArrowLeft","","","","revaluation","1","28","","",""
"html-keyboard-response","249","1187100","0.0-4.0-4.0-1.14","spark_pilot_2","8930","6","23","Male","","","","","","","null","<div style=""font-size:60px;"">+</div>","null","fixation","","","","","","","","","","","29","","",""
"revaluation","250","1191118","0.0-4.0-4.0-0.15","spark_pilot_2","8930","6","23","Male","","false","","","","","[447.29999999701977]","./assets/img/canyon/animals/giraffe.jpg","[""ArrowLeft""]","revaluation","canyon","21","{""ArrowUp,ArrowLeft"":27,""ArrowUp,ArrowRight"":15,""ArrowDown,ArrowLeft"":21,""ArrowDown,ArrowRight"":7}","true","ArrowDown,ArrowLeft","","","","revaluation","1","30","","",""
"html-keyboard-response","251","1191629","0.0-4.0-4.0-1.15","spark_pilot_2","8930","6","23","Male","","","","","","","null","<div style=""font-size:60px;"">+</div>","null","fixation","","","","","","","","","","","31","","",""
"revaluation","252","1195646","0.0-4.0-4.0-0.16","spark_pilot_2","8930","6","23","Male","","false","","","","","[388.09999999403954]","./assets/img/canyon/animals/lion.jpg","[""ArrowLeft""]","revaluation","canyon","27","{""ArrowUp,ArrowLeft"":27,""ArrowUp,ArrowRight"":15,""ArrowDown,ArrowLeft"":21,""ArrowDown,ArrowRight"":7}","true","ArrowUp,ArrowLeft","","","","revaluation","1","32","","",""
"html-keyboard-response","253","1196157","0.0-4.0-4.0-1.16","spark_pilot_2","8930","6","23","Male","","","","","","","null","<div style=""font-size:60px;"">+</div>","null","fixation","","","","","","","","","","","33","","",""
"revaluation","254","1200182","0.0-4.0-4.0-0.17","spark_pilot_2","8930","6","23","Male","","false","","","","","[478.3999999910593]","./assets/img/canyon/animals/lion.jpg","[""ArrowLeft""]","revaluation","canyon","27","{""ArrowUp,ArrowLeft"":27,""ArrowUp,ArrowRight"":15,""ArrowDown,ArrowLeft"":21,""ArrowDown,ArrowRight"":7}","true","ArrowUp,ArrowLeft","","","","revaluation","1","34","","",""
"html-keyboard-response","255","1200694","0.0-4.0-4.0-1.17","spark_pilot_2","8930","6","23","Male","","","","","","","null","<div style=""font-size:60px;"">+</div>","null","fixation","","","","","","","","","","","35","","",""
"learning-instructions","256","1214625","0.0-4.0-5.0-0.0","spark_pilot_2","8930","6","23","Male","","","","","","","1940.9000000059605","<p> Time to play the dot game! </p>
            <p> For one minute, click the red dots on the following screen as they appear. </p>
            <p><b> Don't look away, as you will earn bonus for clicking dots</b>. </p>","","instructions","","","","","","","","","","","","","",""
"revaluation","257","1274634","0.0-4.0-6.0-0.0","spark_pilot_2","8930","6","23","Male","","","","","","","[133,119,104,103,101,145]","","","rest","","60","","","","","0","60000","","","","","",""
"learning-instructions","258","1282112","0.0-4.0-7.0-0.0","spark_pilot_2","8930","6","23","Male","","","","","","","1358.7999999970198","<p> You have almost finished this part of the game! </p>
            <p> We are going to ask you to make a few more choices. </p>","","instructions","","","","","","","","","","","","","",""
"learning-instructions","259","1297534","0.0-4.0-7.0-0.1","spark_pilot_2","8930","6","23","Male","","","","","","","1440.7000000029802","<p> First, you need to decide whether to go up or down. When you see each picture, use the arrow keys to make your choice. </p>
            <p><b>You will not see which animal you found, but try to get to the one that will give you the most treasure.</b></p>","","instructions","","","","","","","","","","","","","",""
"revaluation","260","1299100","0.0-4.0-8.0-0.0","spark_pilot_2","8930","6","23","Male","","false","","","","","[1559.2000000029802]","./assets/img/canyon/test/1.jpg","[""ArrowUp""]","first stage test","canyon","0","{""ArrowUp,ArrowLeft"":27,""ArrowUp,ArrowRight"":15,""ArrowDown,ArrowLeft"":21,""ArrowDown,ArrowRight"":7}","true","ArrowUp","false","","","revaluation","1","","","",""
"html-keyboard-response","261","1299621","0.0-4.0-8.0-1.0","spark_pilot_2","8930","6","23","Male","","","","","","","null","<div style=""font-size:60px;"">+</div>","null","fixation","","","","","","","","","","","","","",""
"revaluation","262","1301360","0.0-4.0-8.0-0.1","spark_pilot_2","8930","6","23","Male","","false","","","","","[1731.5]","./assets/img/canyon/test/0.jpg","[""ArrowUp""]","first stage test","canyon","0","{""ArrowUp,ArrowLeft"":27,""ArrowUp,ArrowRight"":15,""ArrowDown,ArrowLeft"":21,""ArrowDown,ArrowRight"":7}","true","ArrowUp","false","","","revaluation","1","","","",""
"html-keyboard-response","263","1301866","0.0-4.0-8.0-1.1","spark_pilot_2","8930","6","23","Male","","","","","","","null","<div style=""font-size:60px;"">+</div>","null","fixation","","","","","","","","","","","","","",""
"revaluation","264","1302751","0.0-4.0-8.0-0.2","spark_pilot_2","8930","6","23","Male","","false","","","","","[876.4000000059605]","./assets/img/canyon/test/3.jpg","[""ArrowUp""]","first stage test","canyon","0","{""ArrowUp,ArrowLeft"":27,""ArrowUp,ArrowRight"":15,""ArrowDown,ArrowLeft"":21,""ArrowDown,ArrowRight"":7}","true","ArrowUp","false","","","revaluation","1","","","",""
"html-keyboard-response","265","1303261","0.0-4.0-8.0-1.2","spark_pilot_2","8930","6","23","Male","","","","","","","null","<div style=""font-size:60px;"">+</div>","null","fixation","","","","","","","","","","","","","",""
"revaluation","266","1304328","0.0-4.0-8.0-0.3","spark_pilot_2","8930","6","23","Male","","false","","","","","[1059.5999999940395]","./assets/img/canyon/test/2.jpg","[""ArrowUp""]","first stage test","canyon","0","{""ArrowUp,ArrowLeft"":27,""ArrowUp,ArrowRight"":15,""ArrowDown,ArrowLeft"":21,""ArrowDown,ArrowRight"":7}","true","ArrowUp","false","","","revaluation","1","","","",""
"html-keyboard-response","267","1304845","0.0-4.0-8.0-1.3","spark_pilot_2","8930","6","23","Male","","","","","","","null","<div style=""font-size:60px;"">+</div>","null","fixation","","","","","","","","","","","","","",""
"learning-instructions","268","1318124","0.0-4.0-9.0-0.0","spark_pilot_2","8930","6","23","Male","","","","","","","1926.8999999910593","<p> Now you will see the animals again and can search their chests for treasure. </p>
            <p> This time, you will not see how much treasure you earned, but you will earn more bonus money for making better choices. </p>","","instructions","","","","","","","","","","","","","",""
"revaluation","269","1319208","0.0-4.0-10.0-0.0","spark_pilot_2","8930","6","23","Male","","false","","","","","[1076.9000000059605]","./assets/img/canyon/animals/lion.jpg","[""ArrowLeft""]","second stage test","canyon","0","{""ArrowUp,ArrowLeft"":27,""ArrowUp,ArrowRight"":15,""ArrowDown,ArrowLeft"":21,""ArrowDown,ArrowRight"":7}","true","ArrowUp,ArrowLeft","","","","revaluation","1","","","",""
"html-keyboard-response","270","1319724","0.0-4.0-10.0-1.0","spark_pilot_2","8930","6","23","Male","","","","","","","null","<div style=""font-size:60px;"">+</div>","null","fixation","","","","","","","","","","","","","",""
"revaluation","271","1320892","0.0-4.0-10.0-0.1","spark_pilot_2","8930","6","23","Male","","false","","","","","[1160]","./assets/img/canyon/animals/lion.jpg","[""ArrowLeft""]","second stage test","canyon","0","{""ArrowUp,ArrowLeft"":27,""ArrowUp,ArrowRight"":15,""ArrowDown,ArrowLeft"":21,""ArrowDown,ArrowRight"":7}","true","ArrowUp,ArrowLeft","","","","revaluation","1","","","",""
"html-keyboard-response","272","1321399","0.0-4.0-10.0-1.1","spark_pilot_2","8930","6","23","Male","","","","","","","null","<div style=""font-size:60px;"">+</div>","null","fixation","","","","","","","","","","","","","",""
"revaluation","273","1322332","0.0-4.0-10.0-0.2","spark_pilot_2","8930","6","23","Male","","false","","","","","[924.5999999940395]","./assets/img/canyon/animals/lion.jpg","[""ArrowLeft""]","second stage test","canyon","0","{""ArrowUp,ArrowLeft"":27,""ArrowUp,ArrowRight"":15,""ArrowDown,ArrowLeft"":21,""ArrowDown,ArrowRight"":7}","true","ArrowUp,ArrowLeft","","","","revaluation","1","","","",""
"html-keyboard-response","274","1322849","0.0-4.0-10.0-1.2","spark_pilot_2","8930","6","23","Male","","","","","","","null","<div style=""font-size:60px;"">+</div>","null","fixation","","","","","","","","","","","","","",""
"revaluation","275","1323760","0.0-4.0-10.0-0.3","spark_pilot_2","8930","6","23","Male","","false","","","","","[902.0999999940395]","./assets/img/canyon/animals/lion.jpg","[""ArrowLeft""]","second stage test","canyon","0","{""ArrowUp,ArrowLeft"":27,""ArrowUp,ArrowRight"":15,""ArrowDown,ArrowLeft"":21,""ArrowDown,ArrowRight"":7}","true","ArrowUp,ArrowLeft","","","","revaluation","1","","","",""
"html-keyboard-response","276","1324277","0.0-4.0-10.0-1.3","spark_pilot_2","8930","6","23","Male","","","","","","","null","<div style=""font-size:60px;"">+</div>","null","fixation","","","","","","","","","","","","","",""
"revaluation","277","1325464","0.0-4.0-10.0-0.4","spark_pilot_2","8930","6","23","Male","","false","","","","","[1179.4000000059605]","./assets/img/canyon/animals/giraffe.jpg","[""ArrowLeft""]","second stage test","canyon","0","{""ArrowUp,ArrowLeft"":27,""ArrowUp,ArrowRight"":15,""ArrowDown,ArrowLeft"":21,""ArrowDown,ArrowRight"":7}","true","ArrowDown,ArrowLeft","","","","revaluation","1","","","",""
"html-keyboard-response","278","1325968","0.0-4.0-10.0-1.4","spark_pilot_2","8930","6","23","Male","","","","","","","null","<div style=""font-size:60px;"">+</div>","null","fixation","","","","","","","","","","","","","",""
"revaluation","279","1326686","0.0-4.0-10.0-0.5","spark_pilot_2","8930","6","23","Male","","false","","","","","[710.2000000029802]","./assets/img/canyon/animals/giraffe.jpg","[""ArrowLeft""]","second stage test","canyon","0","{""ArrowUp,ArrowLeft"":27,""ArrowUp,ArrowRight"":15,""ArrowDown,ArrowLeft"":21,""ArrowDown,ArrowRight"":7}","true","ArrowDown,ArrowLeft","","","","revaluation","1","","","",""
"html-keyboard-response","280","1327198","0.0-4.0-10.0-1.5","spark_pilot_2","8930","6","23","Male","","","","","","","null","<div style=""font-size:60px;"">+</div>","null","fixation","","","","","","","","","","","","","",""
"revaluation","281","1327853","0.0-4.0-10.0-0.6","spark_pilot_2","8930","6","23","Male","","false","","","","","[647.6999999880791]","./assets/img/canyon/animals/giraffe.jpg","[""ArrowLeft""]","second stage test","canyon","0","{""ArrowUp,ArrowLeft"":27,""ArrowUp,ArrowRight"":15,""ArrowDown,ArrowLeft"":21,""ArrowDown,ArrowRight"":7}","true","ArrowDown,ArrowLeft","","","","revaluation","1","","","",""
"html-keyboard-response","282","1328365","0.0-4.0-10.0-1.6","spark_pilot_2","8930","6","23","Male","","","","","","","null","<div style=""font-size:60px;"">+</div>","null","fixation","","","","","","","","","","","","","",""
"revaluation","283","1329017","0.0-4.0-10.0-0.7","spark_pilot_2","8930","6","23","Male","","false","","","","","[644]","./assets/img/canyon/animals/giraffe.jpg","[""ArrowLeft""]","second stage test","canyon","0","{""ArrowUp,ArrowLeft"":27,""ArrowUp,ArrowRight"":15,""ArrowDown,ArrowLeft"":21,""ArrowDown,ArrowRight"":7}","true","ArrowDown,ArrowLeft","","","","revaluation","1","","","",""
"html-keyboard-response","284","1329524","0.0-4.0-10.0-1.7","spark_pilot_2","8930","6","23","Male","","","","","","","null","<div style=""font-size:60px;"">+</div>","null","fixation","","","","","","","","","","","","","",""
"learning-instructions","285","1334245","0.0-4.0-0.1-0.2","spark_pilot_2","8930","6","23","Male","","","","","","","1946.0999999940395","<p> This time you are searching for treasure in the <b>ocean</b>.</p>","","instructions","","","","","","","","","","","","","",""
"learning-instructions","286","1353365","0.0-4.0-0.1-0.3","spark_pilot_2","8930","6","23","Male","","","","","","","1854.5","<p><b>New</b> animals with <b>new</b> treasure chests live here. You need to explore to discover where the animal with the best treasure chest is.</p>
                    <p> Like before, once you figure out which animal has the chest with the most treasure, you should try to get to that animal and select that chest! </p>","","instructions","","","","","","","","","","","","","",""
"learning-instructions","287","1370162","0.0-4.0-1.1-0.1","spark_pilot_2","8930","6","23","Male","","","","","","","2072.800000011921","<p> Remember, when you see a picture of the place, use the up and down keys to <b>find an animal</b>.</p>
            <p> When you encounter an animal, you should use the left and right keys to <b>select a treasure chest</b>.</p>
            <p> Don't forget to look out for the robber! </p>","","instructions","","","","","","","","","","","","","",""
"revaluation","288","1376202","0.0-4.0-2.1-0.50","spark_pilot_2","8930","6","23","Male","","false","","","","","[852.6000000089407,1844.5999999940395]","./assets/img/ocean/memory/16.jpg","[""ArrowUp"",""ArrowRight""]","value training","ocean","10","{""ArrowUp,ArrowLeft"":26,""ArrowUp,ArrowRight"":10,""ArrowDown,ArrowLeft"":5,""ArrowDown,ArrowRight"":17}","false","ArrowUp,ArrowRight","false","","","original","2","0","","",""
"html-keyboard-response","289","1376718","0.0-4.0-2.1-1.50","spark_pilot_2","8930","6","23","Male","","","","","","","null","<div style=""font-size:60px;"">+</div>","null","fixation","","","","","","","","","","","1","","",""
"revaluation","290","1382767","0.0-4.0-2.1-0.51","spark_pilot_2","8930","6","23","Male","","false","","","","","[1376.2999999970198,829.8000000119209]","./assets/img/ocean/memory/20.jpg","[""ArrowUp"",""ArrowRight""]","value training","ocean","10","{""ArrowUp,ArrowLeft"":26,""ArrowUp,ArrowRight"":10,""ArrowDown,ArrowLeft"":5,""ArrowDown,ArrowRight"":17}","false","ArrowUp,ArrowRight","false","","","original","2","2","","",""
"html-keyboard-response","291","1383291","0.0-4.0-2.1-1.51","spark_pilot_2","8930","6","23","Male","","","","","","","null","<div style=""font-size:60px;"">+</div>","null","fixation","","","","","","","","","","","3","","",""
"revaluation","292","1389339","0.0-4.0-2.1-0.52","spark_pilot_2","8930","6","23","Male","","false","","","","","[699.2000000029802,475.79999999701977]","./assets/img/ocean/memory/7.jpg","[""ArrowUp"",""ArrowLeft""]","value training","ocean","26","{""ArrowUp,ArrowLeft"":26,""ArrowUp,ArrowRight"":10,""ArrowDown,ArrowLeft"":5,""ArrowDown,ArrowRight"":17}","true","ArrowUp,ArrowLeft","false","","","original","2","4","","",""
"html-keyboard-response","293","1389855","0.0-4.0-2.1-1.52","spark_pilot_2","8930","6","23","Male","","","","","","","null","<div style=""font-size:60px;"">+</div>","null","fixation","","","","","","","","","","","5","","",""
"revaluation","294","1395903","0.0-4.0-2.1-0.53","spark_pilot_2","8930","6","23","Male","","false","","","","","[757.5,460.20000000298023]","./assets/img/ocean/memory/25.jpg","[""ArrowUp"",""ArrowLeft""]","value training","ocean","26","{""ArrowUp,ArrowLeft"":26,""ArrowUp,ArrowRight"":10,""ArrowDown,ArrowLeft"":5,""ArrowDown,ArrowRight"":17}","true","ArrowUp,ArrowLeft","false","","","original","2","6","","",""
"html-keyboard-response","295","1396419","0.0-4.0-2.1-1.53","spark_pilot_2","8930","6","23","Male","","","","","","","null","<div style=""font-size:60px;"">+</div>","null","fixation","","","","","","","","","","","7","","",""
"revaluation","296","1402447","0.0-4.0-2.1-0.54","spark_pilot_2","8930","6","23","Male","","false","","","","","[1167.2000000029802,464.09999999403954]","./assets/img/ocean/memory/11.jpg","[""ArrowUp"",""ArrowLeft""]","value training","ocean","26","{""ArrowUp,ArrowLeft"":26,""ArrowUp,ArrowRight"":10,""ArrowDown,ArrowLeft"":5,""ArrowDown,ArrowRight"":17}","true","ArrowUp,ArrowLeft","false","","","original","2","8","","",""
"html-keyboard-response","297","1402959","0.0-4.0-2.1-1.54","spark_pilot_2","8930","6","23","Male","","","","","","","null","<div style=""font-size:60px;"">+</div>","null","fixation","","","","","","","","","","","9","","",""
"revaluation","298","1406988","0.0-4.0-2.1-0.55","spark_pilot_2","8930","6","23","Male","","false","","","","","[649]","./assets/img/ocean/catch/7.jpg","[""spaceBar""]","value training","ocean","0","{""ArrowUp,ArrowLeft"":26,""ArrowUp,ArrowRight"":10,""ArrowDown,ArrowLeft"":5,""ArrowDown,ArrowRight"":17}","true","spaceBar","true","","","original","2","10","","",""
"html-keyboard-response","299","1407500","0.0-4.0-2.1-1.55","spark_pilot_2","8930","6","23","Male","","","","","","","null","<div style=""font-size:60px;"">+</div>","null","fixation","","","","","","","","","","","11","","",""
"revaluation","300","1411525","0.0-4.0-2.1-0.56","spark_pilot_2","8930","6","23","Male","","false","","","","","[823.2999999970198]","./assets/img/ocean/catch/5.jpg","[""ArrowUp""]","value training","ocean","-10","{""ArrowUp,ArrowLeft"":26,""ArrowUp,ArrowRight"":10,""ArrowDown,ArrowLeft"":5,""ArrowDown,ArrowRight"":17}","false","ArrowUp","true","","","original","2","12","","",""
"html-keyboard-response","301","1412036","0.0-4.0-2.1-1.56","spark_pilot_2","8930","6","23","Male","","","","","","","null","<div style=""font-size:60px;"">+</div>","null","fixation","","","","","","","","","","","13","","",""
"revaluation","302","1418070","0.0-4.0-2.1-0.57","spark_pilot_2","8930","6","23","Male","","false","","","","","[648.7999999970198,598.7999999970198]","./assets/img/ocean/memory/19.jpg","[""ArrowUp"",""ArrowLeft""]","value training","ocean","26","{""ArrowUp,ArrowLeft"":26,""ArrowUp,ArrowRight"":10,""ArrowDown,ArrowLeft"":5,""ArrowDown,ArrowRight"":17}","true","ArrowUp,ArrowLeft","false","","","original","2","14","","",""
"html-keyboard-response","303","1418581","0.0-4.0-2.1-1.57","spark_pilot_2","8930","6","23","Male","","","","","","","null","<div style=""font-size:60px;"">+</div>","null","fixation","","","","","","","","","","","15","","",""
"revaluation","304","1424615","0.0-4.0-2.1-0.58","spark_pilot_2","8930","6","23","Male","","false","","","","","[689.7000000029802,488]","./assets/img/ocean/memory/7.jpg","[""ArrowUp"",""ArrowLeft""]","value training","ocean","26","{""ArrowUp,ArrowLeft"":26,""ArrowUp,ArrowRight"":10,""ArrowDown,ArrowLeft"":5,""ArrowDown,ArrowRight"":17}","true","ArrowUp,ArrowLeft","false","","","original","2","16","","",""
