"trial_type","trial_index","time_elapsed","internal_node_id","task_version","subject_id","assigned_condition","age","gender","success","timeout","failed_images","failed_audio","failed_video","browser_interaction","rt","stimulus","response","task_part","environment","score","rewardMap","correct","fullState","isCatch","numberMissed","duration","condition","order","trial_num","key_press","ground_truth","bonus"
"pavlovia","0","1307","0.0-0.0","spark_pilot_2","7121","6","8","Female","","","","","","","","","","","","","","","","","","","","","","","",""
"preload","1","37583","0.0-1.0","spark_pilot_2","7121","6","8","Female","true","false","[]","[]","[]","[{""event"":""blur"",""trial"":2,""time"":56270},{""event"":""focus"",""trial"":2,""time"":60361},{""event"":""fullscreenenter"",""trial"":2,""time"":61441},{""event"":""blur"",""trial"":140,""time"":835037},{""event"":""focus"",""trial"":142,""time"":839379}]","","","","","","","","","","","","","","","","","",""
"fullscreen","2","61450","0.0-2.0","spark_pilot_2","7121","6","8","Female","true","","","","","","","","","","","","","","","","","","","","","","",""
"audio-button-response","3","65764","0.0-3.0-0.0-0.0","spark_pilot_2","7121","6","8","Female","","","","","","","3832","./assets/audio/audiotest/turtle.mp3","2","audio_test","","","","","","","","","","","","","",""
"learning-instructions","4","75557","0.0-3.0-1.0-0.0","spark_pilot_2","7121","6","8","Female","","","","","","","2634","<p> Welcome! Please remember to stay in fullscreen mode and don't click away from the experiment. </p>","","instructions","","","","","","","","","","","","","",""
"learning-instructions","5","87634","0.0-3.0-1.0-0.1","spark_pilot_2","7121","6","8","Female","","","","","","","3391","<p> Today you will be playing a game to earn treasure. </p>
            <p> At the end of the experiment, you will earn a bonus based on how much treasure you find. </p>
            <img src='./assets/img/instructions/treasure.jpg' class='instructions-image'>","","instructions","","","","","","","","","","","","","",""
"learning-instructions","6","98045","0.0-3.0-1.0-0.2","spark_pilot_2","7121","6","8","Female","","","","","","","1882","<p> Animals have hidden treasure in treasure chests. </p>
            <p> You need to first find an animal and then choose which of their treasure chests to search. </p>
            <img src='./assets/img/space/animals/cat.jpg' class='instructions-image'>","","instructions","","","","","","","","","","","","","",""
"learning-instructions","7","115203","0.0-3.0-1.0-0.3","spark_pilot_2","7121","6","8","Female","","","","","","","3611","<p> In each round, you will search for treasure in a different place. In the real game, there will be two rounds. </p>
            <p> You will begin with a separate, practice round where you will search for treasure in outer space. </p>
            <img src='./assets/img/space/0.jpg' class='instructions-image'>","","instructions","","","","","","","","","","","","","",""
"learning-instructions","8","133843","0.0-3.0-1.0-0.4","spark_pilot_2","7121","6","8","Female","","","","","","","6892","<p> On every turn, you will see a picture of the place that you are in, but the specific image may be different each time. </p>
            <p> For example, both of these images mean you are in outer space. </p>
            <img src='./assets/img/instructions/outerspace.jpg' class='instructions-image'>","","instructions","","","","","","","","","","","","","",""
"learning-instructions","9","144876","0.0-3.0-1.0-0.5","spark_pilot_2","7121","6","8","Female","","","","","","","2956","<p> You need to decide which direction to travel in. </p>
            <p> You can choose between going <b>up or down</b> by using the arrow keys. </p>
            <img src='./assets/img/instructions/updown.jpg' class='instructions-image'>","","instructions","","","","","","","","","","","","","",""
"learning-instructions","10","159709","0.0-3.0-1.0-0.6","spark_pilot_2","7121","6","8","Female","","","","","","","5758","<p> You will have <b>2 seconds</b> to make your choice. </p>
            <p> If you do not make a choice within 2 seconds, you will not find an animal or earn treasure. </p>
            <img src='./assets/img/instructions/2seconds.jpg' class='instructions-image'>","","instructions","","","","","","","","","","","","","",""
"learning-instructions","11","170033","0.0-3.0-1.0-0.7","spark_pilot_2","7121","6","8","Female","","","","","","","3053","<p> Let’s try practicing that now! </p>
            <p> When you see a picture of the place you are in, press the <b>up</b> key to travel up. </p>
            <img src='./assets/img/instructions/pressUp.jpg' class='instructions-image'>","","instructions","","","","","","","","","","","","","",""
"revaluation","12","174069","0.0-3.0-2.0-0.0","spark_pilot_2","7121","6","8","Female","","true","","","","","[]","./assets/img/space/0.jpg","[]","first stage practice","space","-5","null","null","","false","","","","","","","",""
"html-keyboard-response","13","174576","0.0-3.0-2.0-1.0","spark_pilot_2","7121","6","8","Female","","","","","","","null","<div style=""font-size:60px;"">+</div>","null","fixation","","","","","","","","","","","","","",""
"revaluation","14","178609","0.0-3.0-2.0-0.1","spark_pilot_2","7121","6","8","Female","","true","","","","","[]","./assets/img/space/1.jpg","[]","first stage practice","space","-5","null","null","","false","","","","","","","",""
"html-keyboard-response","15","179117","0.0-3.0-2.0-1.1","spark_pilot_2","7121","6","8","Female","","","","","","","null","<div style=""font-size:60px;"">+</div>","null","fixation","","","","","","","","","","","","","",""
"revaluation","16","183150","0.0-3.0-2.0-0.2","spark_pilot_2","7121","6","8","Female","","true","","","","","[]","./assets/img/space/2.jpg","[]","first stage practice","space","-5","null","null","","false","","","","","","","",""
"html-keyboard-response","17","183656","0.0-3.0-2.0-1.2","spark_pilot_2","7121","6","8","Female","","","","","","","null","<div style=""font-size:60px;"">+</div>","null","fixation","","","","","","","","","","","","","",""
"learning-instructions","18","190742","0.0-3.0-3.0-0.0","spark_pilot_2","7121","6","8","Female","","","","","","","2214","<p> Great job! Now try pressing the <b>down</b> key to travel down. </p>
            <img src='./assets/img/instructions/pressDown.jpg' class='instructions-image'>","","instructions","","","","","","","","","","","","","",""
"revaluation","19","194766","0.0-3.0-4.0-0.0","spark_pilot_2","7121","6","8","Female","","true","","","","","[]","./assets/img/space/3.jpg","[]","first stage practice","space","-5","null","null","","false","","","","","","","",""
"html-keyboard-response","20","195275","0.0-3.0-4.0-1.0","spark_pilot_2","7121","6","8","Female","","","","","","","null","<div style=""font-size:60px;"">+</div>","null","fixation","","","","","","","","","","","","","",""
"revaluation","21","199297","0.0-3.0-4.0-0.1","spark_pilot_2","7121","6","8","Female","","true","","","","","[]","./assets/img/space/4.jpg","[]","first stage practice","space","-5","null","null","","false","","","","","","","",""
"html-keyboard-response","22","199806","0.0-3.0-4.0-1.1","spark_pilot_2","7121","6","8","Female","","","","","","","null","<div style=""font-size:60px;"">+</div>","null","fixation","","","","","","","","","","","","","",""
"revaluation","23","203838","0.0-3.0-4.0-0.2","spark_pilot_2","7121","6","8","Female","","true","","","","","[]","./assets/img/space/5.jpg","[]","first stage practice","space","-5","null","null","","false","","","","","","","",""
"html-keyboard-response","24","204347","0.0-3.0-4.0-1.2","spark_pilot_2","7121","6","8","Female","","","","","","","null","<div style=""font-size:60px;"">+</div>","null","fixation","","","","","","","","","","","","","",""
"learning-instructions","25","216651","0.0-3.0-5.0-0.0","spark_pilot_2","7121","6","8","Female","","","","","","","2143","<p> The animals don’t move, so the animal in the upper part of a place will stay in the upper part of a place, and the animal in the lower part of a place will stay in the lower part of a place. </p>","","instructions","","","","","","","","","","","","","",""
"learning-instructions","26","229249","0.0-3.0-5.0-0.1","spark_pilot_2","7121","6","8","Female","","","","","","","3172","<p> Each animal has two treasure chests for you to choose from. </p>
            <p> The amount of treasure in each chest can range from <b> 0 to 40 pieces.</b></p>","","instructions","","","","","","","","","","","","","",""
"learning-instructions","27","243845","0.0-3.0-5.0-0.2","spark_pilot_2","7121","6","8","Female","","","","","","","3067","<p> You should decide which chest to search for treasure by using the <b>left</b> and <b>right</b> arrow keys. </p>
            <p><b> Pay attention to which animal is on the screen, as the animals have different treasure chests. </b></p>
            <img src='./assets/img/instructions/leftright.jpg' class='instructions-image'>","","instructions","","","","","","","","","","","","","",""
"learning-instructions","28","253249","0.0-3.0-5.0-0.3","spark_pilot_2","7121","6","8","Female","","","","","","","2792","<p> Let’s try practicing that now. </p>
            <p> When you see an animal, choose which chest to search for treasure. </p>
            <img src='./assets/img/instructions/chooseChest.jpg' class='instructions-image'>","","instructions","","","","","","","","","","","","","",""
"revaluation","29","257261","0.0-3.0-6.0-0.0","spark_pilot_2","7121","6","8","Female","","true","","","","","[]","./assets/img/space/animals/cat.jpg","[]","second stage practice","space","-5","{""ArrowUp,ArrowLeft"":3,""ArrowUp,ArrowRight"":36,""ArrowDown,ArrowLeft"":15,""ArrowDown,ArrowRight"":23}","false","ArrowUp","","","","","","","","",""
"html-keyboard-response","30","257770","0.0-3.0-6.0-1.0","spark_pilot_2","7121","6","8","Female","","","","","","","null","<div style=""font-size:60px;"">+</div>","null","fixation","","","","","","","","","","","","","",""
"revaluation","31","261783","0.0-3.0-6.0-0.1","spark_pilot_2","7121","6","8","Female","","true","","","","","[]","./assets/img/space/animals/rabbit.jpg","[]","second stage practice","space","-5","{""ArrowUp,ArrowLeft"":3,""ArrowUp,ArrowRight"":36,""ArrowDown,ArrowLeft"":15,""ArrowDown,ArrowRight"":23}","false","ArrowDown","","","","","","","","",""
"html-keyboard-response","32","262284","0.0-3.0-6.0-1.1","spark_pilot_2","7121","6","8","Female","","","","","","","null","<div style=""font-size:60px;"">+</div>","null","fixation","","","","","","","","","","","","","",""
"revaluation","33","266291","0.0-3.0-6.0-0.2","spark_pilot_2","7121","6","8","Female","","true","","","","","[]","./assets/img/space/animals/cat.jpg","[]","second stage practice","space","-5","{""ArrowUp,ArrowLeft"":3,""ArrowUp,ArrowRight"":36,""ArrowDown,ArrowLeft"":15,""ArrowDown,ArrowRight"":23}","false","ArrowUp","","","","","","","","",""
"html-keyboard-response","34","266793","0.0-3.0-6.0-1.2","spark_pilot_2","7121","6","8","Female","","","","","","","null","<div style=""font-size:60px;"">+</div>","null","fixation","","","","","","","","","","","","","",""
"revaluation","35","270810","0.0-3.0-6.0-0.3","spark_pilot_2","7121","6","8","Female","","true","","","","","[]","./assets/img/space/animals/rabbit.jpg","[]","second stage practice","space","-5","{""ArrowUp,ArrowLeft"":3,""ArrowUp,ArrowRight"":36,""ArrowDown,ArrowLeft"":15,""ArrowDown,ArrowRight"":23}","false","ArrowDown","","","","","","","","",""
"html-keyboard-response","36","271312","0.0-3.0-6.0-1.3","spark_pilot_2","7121","6","8","Female","","","","","","","null","<div style=""font-size:60px;"">+</div>","null","fixation","","","","","","","","","","","","","",""
"learning-instructions","37","291974","0.0-3.0-7.0-0.0","spark_pilot_2","7121","6","8","Female","","","","","","","3380","<p> Great job. Now let’s try putting it together. </p>
            <p> On each turn, you will first see a picture to remind you of the place you are in, and you need to choose whether to go up or down. </p>
            <p> Then you will see an animal and choose which of its chests to search for treasure. </p>","","instructions","","","","","","","","","","","","","",""
"learning-instructions","38","301130","0.0-3.0-7.0-0.1","spark_pilot_2","7121","6","8","Female","","","","","","","635","<p> When you choose whether to go up or down, try to go to the animal with the chest with the most treasure. </p>
            <p> Try practicing that now! </p>","","instructions","","","","","","","","","","","","","",""
"revaluation","39","305160","0.0-3.0-8.0-0.0","spark_pilot_2","7121","6","8","Female","","true","","","","","[]","./assets/img/space/6.jpg","[]","full practice","space","-5","{""ArrowUp,ArrowLeft"":3,""ArrowUp,ArrowRight"":36,""ArrowDown,ArrowLeft"":15,""ArrowDown,ArrowRight"":23}","false","","false","","","","","","","",""
"html-keyboard-response","40","305668","0.0-3.0-8.0-1.0","spark_pilot_2","7121","6","8","Female","","","","","","","null","<div style=""font-size:60px;"">+</div>","null","fixation","","","","","","","","","","","","","",""
"revaluation","41","309699","0.0-3.0-8.0-0.1","spark_pilot_2","7121","6","8","Female","","true","","","","","[]","./assets/img/space/7.jpg","[]","full practice","space","-5","{""ArrowUp,ArrowLeft"":3,""ArrowUp,ArrowRight"":36,""ArrowDown,ArrowLeft"":15,""ArrowDown,ArrowRight"":23}","false","","false","","","","","","","",""
"html-keyboard-response","42","310208","0.0-3.0-8.0-1.1","spark_pilot_2","7121","6","8","Female","","","","","","","null","<div style=""font-size:60px;"">+</div>","null","fixation","","","","","","","","","","","","","",""
"revaluation","43","314230","0.0-3.0-8.0-0.2","spark_pilot_2","7121","6","8","Female","","true","","","","","[]","./assets/img/space/8.jpg","[]","full practice","space","-5","{""ArrowUp,ArrowLeft"":3,""ArrowUp,ArrowRight"":36,""ArrowDown,ArrowLeft"":15,""ArrowDown,ArrowRight"":23}","false","","false","","","","","","","",""
"html-keyboard-response","44","314739","0.0-3.0-8.0-1.2","spark_pilot_2","7121","6","8","Female","","","","","","","null","<div style=""font-size:60px;"">+</div>","null","fixation","","","","","","","","","","","","","",""
"revaluation","45","318761","0.0-3.0-8.0-0.3","spark_pilot_2","7121","6","8","Female","","true","","","","","[]","./assets/img/space/9.jpg","[]","full practice","space","-5","{""ArrowUp,ArrowLeft"":3,""ArrowUp,ArrowRight"":36,""ArrowDown,ArrowLeft"":15,""ArrowDown,ArrowRight"":23}","false","","false","","","","","","","",""
"html-keyboard-response","46","319270","0.0-3.0-8.0-1.3","spark_pilot_2","7121","6","8","Female","","","","","","","null","<div style=""font-size:60px;"">+</div>","null","fixation","","","","","","","","","","","","","",""
"revaluation","47","323301","0.0-3.0-8.0-0.4","spark_pilot_2","7121","6","8","Female","","true","","","","","[]","./assets/img/space/10.jpg","[]","full practice","space","-5","{""ArrowUp,ArrowLeft"":3,""ArrowUp,ArrowRight"":36,""ArrowDown,ArrowLeft"":15,""ArrowDown,ArrowRight"":23}","false","","false","","","","","","","",""
"html-keyboard-response","48","323810","0.0-3.0-8.0-1.4","spark_pilot_2","7121","6","8","Female","","","","","","","null","<div style=""font-size:60px;"">+</div>","null","fixation","","","","","","","","","","","","","",""
"learning-instructions","49","341175","0.0-3.0-9.0-0.0","spark_pilot_2","7121","6","8","Female","","","","","","","6561","<p> One last thing: sometimes, you will see a robber. The robber can be anywhere in the picture. </p>
            <p> If you do not stop them, you will lose treasure. </p>
            <img src='./assets/img/instructions/robber.jpg' class='instructions-image'>","","instructions","","","","","","","","","","","","","",""
"learning-instructions","50","350311","0.0-3.0-9.0-0.1","spark_pilot_2","7121","6","8","Female","","","","","","","1698","<p> If you see the robber, you should <b>press the space bar</b> rather than using the arrow keys. </p>
            <p> Try practicing that now! </p>","","instructions","","","","","","","","","","","","","",""
"revaluation","51","354336","0.0-3.0-10.0-0.0","spark_pilot_2","7121","6","8","Female","","false","","","","","[567]","./assets/img/space/catch/0.jpg","[""spaceBar""]","catch practice","space","0","{""ArrowUp,ArrowLeft"":3,""ArrowUp,ArrowRight"":36,""ArrowDown,ArrowLeft"":15,""ArrowDown,ArrowRight"":23}","true","spaceBar","true","","","","","","","",""
"html-keyboard-response","52","354845","0.0-3.0-10.0-1.0","spark_pilot_2","7121","6","8","Female","","","","","","","null","<div style=""font-size:60px;"">+</div>","null","fixation","","","","","","","","","","","","","",""
"revaluation","53","358867","0.0-3.0-10.0-0.1","spark_pilot_2","7121","6","8","Female","","false","","","","","[858]","./assets/img/space/catch/1.jpg","[""spaceBar""]","catch practice","space","0","{""ArrowUp,ArrowLeft"":3,""ArrowUp,ArrowRight"":36,""ArrowDown,ArrowLeft"":15,""ArrowDown,ArrowRight"":23}","true","spaceBar","true","","","","","","","",""
"html-keyboard-response","54","359377","0.0-3.0-10.0-1.1","spark_pilot_2","7121","6","8","Female","","","","","","","null","<div style=""font-size:60px;"">+</div>","null","fixation","","","","","","","","","","","","","",""
"revaluation","55","363407","0.0-3.0-10.0-0.2","spark_pilot_2","7121","6","8","Female","","false","","","","","[476]","./assets/img/space/catch/2.jpg","[""spaceBar""]","catch practice","space","0","{""ArrowUp,ArrowLeft"":3,""ArrowUp,ArrowRight"":36,""ArrowDown,ArrowLeft"":15,""ArrowDown,ArrowRight"":23}","true","spaceBar","true","","","","","","","",""
"html-keyboard-response","56","363916","0.0-3.0-10.0-1.2","spark_pilot_2","7121","6","8","Female","","","","","","","null","<div style=""font-size:60px;"">+</div>","null","fixation","","","","","","","","","","","","","",""
"learning-instructions","57","380932","0.0-3.0-11.0-0.0","spark_pilot_2","7121","6","8","Female","","","","","","","3061","<p> After you explore a place to find treasure, it will be time to play a different game. </p>
            <p> During this game, red dots will appear on the screen and fall down slowly. </p>
            <p><b> You must click on them before they reach the bottom. </b></p>
            <img src='./assets/img/instructions/dotGame.jpg' class='instructions-image'>","","instructions","","","","","","","","","","","","","",""
"learning-instructions","58","389778","0.0-3.0-11.0-0.1","spark_pilot_2","7121","6","8","Female","","","","","","","2966","<p> For every dot you click, you will earn additional treasure. </p>
            <p> Let’s try practicing that now. </p>","","instructions","","","","","","","","","","","","","",""
"revaluation","59","404787","0.0-3.0-12.0-0.0","spark_pilot_2","7121","6","8","Female","","","","","","","[77]","","","rest practice","","10","","","","","0","15000","","","","","",""
"learning-instructions","60","412256","0.0-3.0-13.0-0.0-0.0","spark_pilot_2","7121","6","8","Female","","","","","","","2025","<p> Now, you will practice a shortened version of the game to get a sense of how it all fits together. </p>","","instructions","","","","","","","","","","","","","",""
"learning-instructions","61","417004","0.0-3.0-13.0-0.0-0.1","spark_pilot_2","7121","6","8","Female","","","","","","","1434","<p>This time you are searching for treasure in outer space.</p>","","instructions","","","","","","","","","","","","","",""
"learning-instructions","62","433365","0.0-3.0-13.0-1.0-0.0","spark_pilot_2","7121","6","8","Female","","","","","","","1115","<p> Remember, when you see a picture of the place, use the up and down keys to <b>find an animal</b>.</p>
            <p> When you encounter an animal, you should use the left and right keys to <b>select a treasure chest</b>.</p>
            <p> Don't forget to look out for the robber! </p>","","instructions","","","","","","","","","","","","","",""
"revaluation","63","437378","0.0-3.0-13.0-2.0-0.0","spark_pilot_2","7121","6","8","Female","","true","","","","","[]","./assets/img/space/11.jpg","[]","practice block","space","-5","{""ArrowUp,ArrowLeft"":3,""ArrowUp,ArrowRight"":36,""ArrowDown,ArrowLeft"":15,""ArrowDown,ArrowRight"":23}","false","","false","","","","","","","",""
"html-keyboard-response","64","437888","0.0-3.0-13.0-2.0-1.0","spark_pilot_2","7121","6","8","Female","","","","","","","null","<div style=""font-size:60px;"">+</div>","null","fixation","","","","","","","","","","","","","",""
"revaluation","65","443920","0.0-3.0-13.0-2.0-0.1","spark_pilot_2","7121","6","8","Female","","true","","","","","[492]","./assets/img/space/12.jpg","[""ArrowUp""]","practice block","space","-5","{""ArrowUp,ArrowLeft"":3,""ArrowUp,ArrowRight"":36,""ArrowDown,ArrowLeft"":15,""ArrowDown,ArrowRight"":23}","false","ArrowUp","false","","","","","","","",""
"html-keyboard-response","66","444429","0.0-3.0-13.0-2.0-1.1","spark_pilot_2","7121","6","8","Female","","","","","","","null","<div style=""font-size:60px;"">+</div>","null","fixation","","","","","","","","","","","","","",""
"revaluation","67","450462","0.0-3.0-13.0-2.0-0.2","spark_pilot_2","7121","6","8","Female","","false","","","","","[1218,666]","./assets/img/space/13.jpg","[""ArrowUp"",""ArrowRight""]","practice block","space","36","{""ArrowUp,ArrowLeft"":3,""ArrowUp,ArrowRight"":36,""ArrowDown,ArrowLeft"":15,""ArrowDown,ArrowRight"":23}","true","ArrowUp,ArrowRight","false","","","","","","","",""
"html-keyboard-response","68","450972","0.0-3.0-13.0-2.0-1.2","spark_pilot_2","7121","6","8","Female","","","","","","","null","<div style=""font-size:60px;"">+</div>","null","fixation","","","","","","","","","","","","","",""
"revaluation","69","457001","0.0-3.0-13.0-2.0-0.3","spark_pilot_2","7121","6","8","Female","","false","","","","","[1502,639]","./assets/img/space/14.jpg","[""ArrowUp"",""ArrowRight""]","practice block","space","36","{""ArrowUp,ArrowLeft"":3,""ArrowUp,ArrowRight"":36,""ArrowDown,ArrowLeft"":15,""ArrowDown,ArrowRight"":23}","true","ArrowUp,ArrowRight","false","","","","","","","",""
"html-keyboard-response","70","457511","0.0-3.0-13.0-2.0-1.3","spark_pilot_2","7121","6","8","Female","","","","","","","null","<div style=""font-size:60px;"">+</div>","null","fixation","","","","","","","","","","","","","",""
"revaluation","71","463543","0.0-3.0-13.0-2.0-0.4","spark_pilot_2","7121","6","8","Female","","false","","","","","[458,586]","./assets/img/space/11.jpg","[""ArrowUp"",""ArrowLeft""]","practice block","space","3","{""ArrowUp,ArrowLeft"":3,""ArrowUp,ArrowRight"":36,""ArrowDown,ArrowLeft"":15,""ArrowDown,ArrowRight"":23}","false","ArrowUp,ArrowLeft","false","","","","","","","",""
"html-keyboard-response","72","464051","0.0-3.0-13.0-2.0-1.4","spark_pilot_2","7121","6","8","Female","","","","","","","null","<div style=""font-size:60px;"">+</div>","null","fixation","","","","","","","","","","","","","",""
"revaluation","73","470084","0.0-3.0-13.0-2.0-0.5","spark_pilot_2","7121","6","8","Female","","false","","","","","[1010,539]","./assets/img/space/12.jpg","[""ArrowUp"",""ArrowRight""]","practice block","space","36","{""ArrowUp,ArrowLeft"":3,""ArrowUp,ArrowRight"":36,""ArrowDown,ArrowLeft"":15,""ArrowDown,ArrowRight"":23}","true","ArrowUp,ArrowRight","false","","","","","","","",""
"html-keyboard-response","74","470592","0.0-3.0-13.0-2.0-1.5","spark_pilot_2","7121","6","8","Female","","","","","","","null","<div style=""font-size:60px;"">+</div>","null","fixation","","","","","","","","","","","","","",""
"revaluation","75","476615","0.0-3.0-13.0-2.0-0.6","spark_pilot_2","7121","6","8","Female","","false","","","","","[541,840]","./assets/img/space/13.jpg","[""ArrowDown"",""ArrowRight""]","practice block","space","23","{""ArrowUp,ArrowLeft"":3,""ArrowUp,ArrowRight"":36,""ArrowDown,ArrowLeft"":15,""ArrowDown,ArrowRight"":23}","false","ArrowDown,ArrowRight","false","","","","","","","",""
"html-keyboard-response","76","477124","0.0-3.0-13.0-2.0-1.6","spark_pilot_2","7121","6","8","Female","","","","","","","null","<div style=""font-size:60px;"">+</div>","null","fixation","","","","","","","","","","","","","",""
"revaluation","77","483156","0.0-3.0-13.0-2.0-0.7","spark_pilot_2","7121","6","8","Female","","true","","","","","[570]","./assets/img/space/14.jpg","[""ArrowDown""]","practice block","space","-5","{""ArrowUp,ArrowLeft"":3,""ArrowUp,ArrowRight"":36,""ArrowDown,ArrowLeft"":15,""ArrowDown,ArrowRight"":23}","false","ArrowDown","false","","","","","","","",""
"html-keyboard-response","78","483666","0.0-3.0-13.0-2.0-1.7","spark_pilot_2","7121","6","8","Female","","","","","","","null","<div style=""font-size:60px;"">+</div>","null","fixation","","","","","","","","","","","","","",""
"revaluation","79","487685","0.0-3.0-13.0-2.0-0.8","spark_pilot_2","7121","6","8","Female","","false","","","","","[1117]","./assets/img/space/catch/3.jpg","[""ArrowDown""]","practice block","space","-10","{""ArrowUp,ArrowLeft"":3,""ArrowUp,ArrowRight"":36,""ArrowDown,ArrowLeft"":15,""ArrowDown,ArrowRight"":23}","false","ArrowDown","true","","","","","","","",""
"html-keyboard-response","80","488187","0.0-3.0-13.0-2.0-1.8","spark_pilot_2","7121","6","8","Female","","","","","","","null","<div style=""font-size:60px;"">+</div>","null","fixation","","","","","","","","","","","","","",""
"learning-instructions","81","504199","0.0-3.0-13.0-3.0-0.0","spark_pilot_2","7121","6","8","Female","","","","","","","2792","<p> Now, you will travel with a friend who will choose whether you go up or down first. </p>
            <p> On these turns, you will just see the animal that they found. You will still get to choose which chest to search for treasure.</p>","","instructions","","","","","","","","","","","","","",""
"revaluation","82","508210","0.0-3.0-13.0-4.0-0.0","spark_pilot_2","7121","6","8","Female","","true","","","","","[]","./assets/img/space/animals/rabbit.jpg","[]","practice block","space","-5","{""ArrowUp,ArrowLeft"":3,""ArrowUp,ArrowRight"":36,""ArrowDown,ArrowLeft"":15,""ArrowDown,ArrowRight"":23}","false","ArrowDown","","","","","","","","",""
"html-keyboard-response","83","508720","0.0-3.0-13.0-4.0-1.0","spark_pilot_2","7121","6","8","Female","","","","","","","null","<div style=""font-size:60px;"">+</div>","null","fixation","","","","","","","","","","","","","",""
"revaluation","84","512751","0.0-3.0-13.0-4.0-0.1","spark_pilot_2","7121","6","8","Female","","false","","","","","[686]","./assets/img/space/animals/cat.jpg","[""ArrowLeft""]","practice block","space","3","{""ArrowUp,ArrowLeft"":3,""ArrowUp,ArrowRight"":36,""ArrowDown,ArrowLeft"":15,""ArrowDown,ArrowRight"":23}","false","ArrowUp,ArrowLeft","","","","","","","","",""
"html-keyboard-response","85","513259","0.0-3.0-13.0-4.0-1.1","spark_pilot_2","7121","6","8","Female","","","","","","","null","<div style=""font-size:60px;"">+</div>","null","fixation","","","","","","","","","","","","","",""
"revaluation","86","517282","0.0-3.0-13.0-4.0-0.2","spark_pilot_2","7121","6","8","Female","","false","","","","","[518]","./assets/img/space/animals/cat.jpg","[""ArrowRight""]","practice block","space","36","{""ArrowUp,ArrowLeft"":3,""ArrowUp,ArrowRight"":36,""ArrowDown,ArrowLeft"":15,""ArrowDown,ArrowRight"":23}","true","ArrowUp,ArrowRight","","","","","","","","",""
"html-keyboard-response","87","517791","0.0-3.0-13.0-4.0-1.2","spark_pilot_2","7121","6","8","Female","","","","","","","null","<div style=""font-size:60px;"">+</div>","null","fixation","","","","","","","","","","","","","",""
"revaluation","88","521811","0.0-3.0-13.0-4.0-0.3","spark_pilot_2","7121","6","8","Female","","false","","","","","[663]","./assets/img/space/animals/rabbit.jpg","[""ArrowRight""]","practice block","space","23","{""ArrowUp,ArrowLeft"":3,""ArrowUp,ArrowRight"":36,""ArrowDown,ArrowLeft"":15,""ArrowDown,ArrowRight"":23}","true","ArrowDown,ArrowRight","","","","","","","","",""
"html-keyboard-response","89","522320","0.0-3.0-13.0-4.0-1.3","spark_pilot_2","7121","6","8","Female","","","","","","","null","<div style=""font-size:60px;"">+</div>","null","fixation","","","","","","","","","","","","","",""
"learning-instructions","90","531430","0.0-3.0-13.0-5.0-0.0","spark_pilot_2","7121","6","8","Female","","","","","","","1534","<p> Time to play the dot game! </p>
            <p> For 15 seconds, click the red dots on the following screen as they appear. </p>","","instructions","","","","","","","","","","","","","",""
"revaluation","91","546446","0.0-3.0-13.0-6.0-0.0","spark_pilot_2","7121","6","8","Female","","","","","","","[125]","","","rest practice","","10","","","","","0","15000","","","","","",""
"learning-instructions","92","556792","0.0-3.0-13.0-7.0-0.0","spark_pilot_2","7121","6","8","Female","","","","","","","4025","<p> You have almost finished this part of the game! </p>
            <p> We are going to ask you to make a few more choices. </p>","","instructions","","","","","","","","","","","","","",""
"learning-instructions","93","574854","0.0-3.0-13.0-7.0-0.1","spark_pilot_2","7121","6","8","Female","","","","","","","3630","<p> First, you need to decide whether to go up or down. When you see each picture, use the arrow keys to make your choice. </p>
            <p><b>You will not see which animal you found, but try to get to the one that will give you the most treasure.</b></p>","","instructions","","","","","","","","","","","","","",""
"revaluation","94","575784","0.0-3.0-13.0-8.0","spark_pilot_2","7121","6","8","Female","","false","","","","","[921]","./assets/img/space/15.jpg","[""ArrowUp""]","practice block","space","0","{""ArrowUp,ArrowLeft"":3,""ArrowUp,ArrowRight"":36,""ArrowDown,ArrowLeft"":15,""ArrowDown,ArrowRight"":23}","true","ArrowUp","false","","","","","","","",""
"html-keyboard-response","95","576290","0.0-3.0-13.0-9.0","spark_pilot_2","7121","6","8","Female","","","","","","","null","<div style=""font-size:60px;"">+</div>","null","fixation","","","","","","","","","","","","","",""
"learning-instructions","96","594587","0.0-3.0-13.0-10.0-0.0","spark_pilot_2","7121","6","8","Female","","","","","","","6582","<p> Now you will see the animals again and can search their chests for treasure. </p>
            <p> This time, you will not see how much treasure you earned, but you will earn more bonus money for making better choices. </p>","","instructions","","","","","","","","","","","","","",""
"revaluation","97","596316","0.0-3.0-13.0-11.0-0.0","spark_pilot_2","7121","6","8","Female","","false","","","","","[1721]","./assets/img/space/animals/cat.jpg","[""ArrowRight""]","practice block","space","0","{""ArrowUp,ArrowLeft"":3,""ArrowUp,ArrowRight"":36,""ArrowDown,ArrowLeft"":15,""ArrowDown,ArrowRight"":23}","true","ArrowUp,ArrowRight","","","","","","","","",""
"html-keyboard-response","98","596825","0.0-3.0-13.0-11.0-1.0","spark_pilot_2","7121","6","8","Female","","","","","","","null","<div style=""font-size:60px;"">+</div>","null","fixation","","","","","","","","","","","","","",""
"revaluation","99","597509","0.0-3.0-13.0-11.0-0.1","spark_pilot_2","7121","6","8","Female","","false","","","","","[672]","./assets/img/space/animals/rabbit.jpg","[""ArrowLeft""]","practice block","space","0","{""ArrowUp,ArrowLeft"":3,""ArrowUp,ArrowRight"":36,""ArrowDown,ArrowLeft"":15,""ArrowDown,ArrowRight"":23}","false","ArrowDown,ArrowLeft","","","","","","","","",""
"html-keyboard-response","100","598015","0.0-3.0-13.0-11.0-1.1","spark_pilot_2","7121","6","8","Female","","","","","","","null","<div style=""font-size:60px;"">+</div>","null","fixation","","","","","","","","","","","","","",""
"learning-instructions","101","603618","0.0-3.0-14.0-0.0","spark_pilot_2","7121","6","8","Female","","","","","","","862","<p> Before you start, we're going to ask you a few questions about how the game works. </p>","","instructions","","","","","","","","","","","","","",""
"comp-q","102","613867","0.0-3.0-15.0-0.0-0.0","spark_pilot_2","7121","6","8","Female","","","","","","","4484","<p> <b> True or False? </b> </p>
            <p> There can be 50 pieces of treasure in a given animal's chest. </p>","0","comp_question","","","","false","","","","","","","","","",""
"comp-q","103","621890","0.0-3.0-15.0-0.0-1.0","spark_pilot_2","7121","6","8","Female","","","","","","","1306","<p> <b>Incorrect.</b> The amount of treasure in each chest can range from 0 to 40 pieces. </p>","0","comp_answer","","","","","","","","","","","","","",""
"comp-q","104","628651","0.0-3.0-15.0-0.1-0.1","spark_pilot_2","7121","6","8","Female","","","","","","","1186","<p> <b> True or False? </b> </p>
            <p> There can be 50 pieces of treasure in a given animal's chest. </p>","1","comp_question","","","","true","","","","","","","","","",""
"comp-q","105","638720","0.0-3.0-15.0-0.1-1.1","spark_pilot_2","7121","6","8","Female","","","","","","","2977","<p> <b> That's right! </b> The amount of treasure in each chest can range from 0 to 40 pieces. </p>","0","comp_answer","","","","","","","","","","","","","",""
"comp-q","106","647346","0.0-3.0-15.0-0.2-0.2","spark_pilot_2","7121","6","8","Female","","","","","","","1293","<p> <b> True or False? </b> </p><p> In this game, all animals have the same amount of treasure in their left and right chests. </p>","1","comp_question","","","","true","","","","","","","","","",""
"comp-q","107","653963","0.0-3.0-15.0-0.2-1.2","spark_pilot_2","7121","6","8","Female","","","","","","","1199","<p> <b> That's right! </b> Animals have different amounts of treasure in their treasure chests. </p>","0","comp_answer","","","","","","","","","","","","","",""
"comp-q","108","661236","0.0-3.0-15.0-0.3-0.3","spark_pilot_2","7121","6","8","Female","","","","","","","1252","<p> <b> True or False? </b> </p><p> The same animal will always be there if you go up in the same place. </p>","1","comp_question","","","","false","","","","","","","","","",""
"comp-q","109","671453","0.0-3.0-15.0-0.3-1.3","spark_pilot_2","7121","6","8","Female","","","","","","","3679","<p> <b>Incorrect.</b> One animal lives in the upper part and one lives in the lower part of every place. </p>","0","comp_answer","","","","","","","","","","","","","",""
"comp-q","110","681385","0.0-3.0-15.0-0.4-0.4","spark_pilot_2","7121","6","8","Female","","","","","","","4093","<p> <b> True or False? </b> </p><p> The same animal will always be there if you go up in the same place. </p>","0","comp_question","","","","true","","","","","","","","","",""
"comp-q","111","689995","0.0-3.0-15.0-0.4-1.4","spark_pilot_2","7121","6","8","Female","","","","","","","1973","<p> <b> That's right! </b> One animal lives in the upper part and one lives in the lower part of every place. </p>","0","comp_answer","","","","","","","","","","","","","",""
"comp-q","112","700288","0.0-3.0-15.0-0.5-0.5","spark_pilot_2","7121","6","8","Female","","","","","","","4556","<p> <b> True or False? </b> </p><p> If you see a different picture, it means you are in a new place. </p>","1","comp_question","","","","true","","","","","","","","","",""
"comp-q","113","714715","0.0-3.0-15.0-0.5-1.5","spark_pilot_2","7121","6","8","Female","","","","","","","2813","<p> <b> That's right! </b> Lots of different images may show the same place. For example,  you may see three different images that all remind you that you are in outer space. </p>","0","comp_answer","","","","","","","","","","","","","",""
"learning-instructions","114","729040","0.0-3.0-16.0-0.0","spark_pilot_2","7121","6","8","Female","","","","","","","4149","<p> Good job. Remember to do your best because the amount of treasure you earn will be converted into bonus money. </p>
            <p> It’s time to start the real game! </p>","","instructions","","","","","","","","","","","","","",""
"learning-instructions","115","734504","0.0-4.0-0.0-0.0","spark_pilot_2","7121","6","8","Female","","","","","","","2535","<p> This time you are searching for treasure in the <b>canyon</b>.</p>","","instructions","","","","","","","","","","","","","",""
"learning-instructions","116","753236","0.0-4.0-0.0-0.1","spark_pilot_2","7121","6","8","Female","","","","","","","836","<p><b>New</b> animals with <b>new</b> treasure chests live here. You need to explore to discover where the animal with the best treasure chest is.</p>
                    <p> Like before, once you figure out which animal has the chest with the most treasure, you should try to get to that animal and select that chest! </p>","","instructions","","","","","","","","","","","","","",""
"learning-instructions","117","768704","0.0-4.0-1.0-0.0","spark_pilot_2","7121","6","8","Female","","","","","","","725","<p> Remember, when you see a picture of the place, use the up and down keys to <b>find an animal</b>.</p>
            <p> When you encounter an animal, you should use the left and right keys to <b>select a treasure chest</b>.</p>
            <p> Don't forget to look out for the robber! </p>","","instructions","","","","","","","","","","","","","",""
"revaluation","118","774735","0.0-4.0-2.0-0.0","spark_pilot_2","7121","6","8","Female","","false","","","","","[989,1051]","./assets/img/canyon/memory/17.jpg","[""ArrowUp"",""ArrowRight""]","value training","canyon","10","{""ArrowUp,ArrowLeft"":23,""ArrowUp,ArrowRight"":10,""ArrowDown,ArrowLeft"":8,""ArrowDown,ArrowRight"":30}","false","ArrowUp,ArrowRight","false","","","revaluation","1","0","","",""
"html-keyboard-response","119","775244","0.0-4.0-2.0-1.0","spark_pilot_2","7121","6","8","Female","","","","","","","null","<div style=""font-size:60px;"">+</div>","null","fixation","","","","","","","","","","","1","","",""
"revaluation","120","781275","0.0-4.0-2.0-0.1","spark_pilot_2","7121","6","8","Female","","false","","","","","[440,663]","./assets/img/canyon/memory/0.jpg","[""ArrowDown"",""ArrowLeft""]","value training","canyon","8","{""ArrowUp,ArrowLeft"":23,""ArrowUp,ArrowRight"":10,""ArrowDown,ArrowLeft"":8,""ArrowDown,ArrowRight"":30}","false","ArrowDown,ArrowLeft","false","","","revaluation","1","2","","",""
"html-keyboard-response","121","781785","0.0-4.0-2.0-1.1","spark_pilot_2","7121","6","8","Female","","","","","","","null","<div style=""font-size:60px;"">+</div>","null","fixation","","","","","","","","","","","3","","",""
"revaluation","122","787817","0.0-4.0-2.0-0.2","spark_pilot_2","7121","6","8","Female","","false","","","","","[455,839]","./assets/img/canyon/memory/1.jpg","[""ArrowDown"",""ArrowRight""]","value training","canyon","30","{""ArrowUp,ArrowLeft"":23,""ArrowUp,ArrowRight"":10,""ArrowDown,ArrowLeft"":8,""ArrowDown,ArrowRight"":30}","true","ArrowDown,ArrowRight","false","","","revaluation","1","4","","",""
"html-keyboard-response","123","788328","0.0-4.0-2.0-1.2","spark_pilot_2","7121","6","8","Female","","","","","","","null","<div style=""font-size:60px;"">+</div>","null","fixation","","","","","","","","","","","5","","",""
"revaluation","124","794359","0.0-4.0-2.0-0.3","spark_pilot_2","7121","6","8","Female","","true","","","","","[516]","./assets/img/canyon/memory/4.jpg","[""ArrowUp""]","value training","canyon","-5","{""ArrowUp,ArrowLeft"":23,""ArrowUp,ArrowRight"":10,""ArrowDown,ArrowLeft"":8,""ArrowDown,ArrowRight"":30}","false","ArrowUp","false","","","revaluation","1","6","","",""
"html-keyboard-response","125","794868","0.0-4.0-2.0-1.3","spark_pilot_2","7121","6","8","Female","","","","","","","null","<div style=""font-size:60px;"">+</div>","null","fixation","","","","","","","","","","","7","","",""
"revaluation","126","800900","0.0-4.0-2.0-0.4","spark_pilot_2","7121","6","8","Female","","false","","","","","[485,499]","./assets/img/canyon/memory/21.jpg","[""ArrowUp"",""ArrowLeft""]","value training","canyon","23","{""ArrowUp,ArrowLeft"":23,""ArrowUp,ArrowRight"":10,""ArrowDown,ArrowLeft"":8,""ArrowDown,ArrowRight"":30}","false","ArrowUp,ArrowLeft","false","","","revaluation","1","8","","",""
"html-keyboard-response","127","801408","0.0-4.0-2.0-1.4","spark_pilot_2","7121","6","8","Female","","","","","","","null","<div style=""font-size:60px;"">+</div>","null","fixation","","","","","","","","","","","9","","",""
"revaluation","128","805420","0.0-4.0-2.0-0.5","spark_pilot_2","7121","6","8","Female","","false","","","","","[1394]","./assets/img/canyon/catch/3.jpg","[""spaceBar""]","value training","canyon","0","{""ArrowUp,ArrowLeft"":23,""ArrowUp,ArrowRight"":10,""ArrowDown,ArrowLeft"":8,""ArrowDown,ArrowRight"":30}","true","spaceBar","true","","","revaluation","1","10","","",""
"html-keyboard-response","129","805929","0.0-4.0-2.0-1.5","spark_pilot_2","7121","6","8","Female","","","","","","","null","<div style=""font-size:60px;"">+</div>","null","fixation","","","","","","","","","","","11","","",""
"revaluation","130","811971","0.0-4.0-2.0-0.6","spark_pilot_2","7121","6","8","Female","","false","","","","","[1284,1346]","./assets/img/canyon/memory/20.jpg","[""ArrowDown"",""ArrowRight""]","value training","canyon","30","{""ArrowUp,ArrowLeft"":23,""ArrowUp,ArrowRight"":10,""ArrowDown,ArrowLeft"":8,""ArrowDown,ArrowRight"":30}","true","ArrowDown,ArrowRight","false","","","revaluation","1","12","","",""
"html-keyboard-response","131","812480","0.0-4.0-2.0-1.6","spark_pilot_2","7121","6","8","Female","","","","","","","null","<div style=""font-size:60px;"">+</div>","null","fixation","","","","","","","","","","","13","","",""
"revaluation","132","818511","0.0-4.0-2.0-0.7","spark_pilot_2","7121","6","8","Female","","true","","","","","[618]","./assets/img/canyon/memory/28.jpg","[""ArrowUp""]","value training","canyon","-5","{""ArrowUp,ArrowLeft"":23,""ArrowUp,ArrowRight"":10,""ArrowDown,ArrowLeft"":8,""ArrowDown,ArrowRight"":30}","false","ArrowUp","false","","","revaluation","1","14","","",""
"html-keyboard-response","133","819020","0.0-4.0-2.0-1.7","spark_pilot_2","7121","6","8","Female","","","","","","","null","<div style=""font-size:60px;"">+</div>","null","fixation","","","","","","","","","","","15","","",""
"revaluation","134","823042","0.0-4.0-2.0-0.8","spark_pilot_2","7121","6","8","Female","","false","","","","","[1253]","./assets/img/canyon/catch/0.jpg","[""spaceBar""]","value training","canyon","0","{""ArrowUp,ArrowLeft"":23,""ArrowUp,ArrowRight"":10,""ArrowDown,ArrowLeft"":8,""ArrowDown,ArrowRight"":30}","true","spaceBar","true","","","revaluation","1","16","","",""
"html-keyboard-response","135","823551","0.0-4.0-2.0-1.8","spark_pilot_2","7121","6","8","Female","","","","","","","null","<div style=""font-size:60px;"">+</div>","null","fixation","","","","","","","","","","","17","","",""
"revaluation","136","829583","0.0-4.0-2.0-0.9","spark_pilot_2","7121","6","8","Female","","false","","","","","[508,744]","./assets/img/canyon/memory/18.jpg","[""ArrowDown"",""ArrowLeft""]","value training","canyon","8","{""ArrowUp,ArrowLeft"":23,""ArrowUp,ArrowRight"":10,""ArrowDown,ArrowLeft"":8,""ArrowDown,ArrowRight"":30}","false","ArrowDown,ArrowLeft","false","","","revaluation","1","18","","",""
"html-keyboard-response","137","830092","0.0-4.0-2.0-1.9","spark_pilot_2","7121","6","8","Female","","","","","","","null","<div style=""font-size:60px;"">+</div>","null","fixation","","","","","","","","","","","19","","",""
"revaluation","138","834124","0.0-4.0-2.0-0.10","spark_pilot_2","7121","6","8","Female","","true","","","","","[]","./assets/img/canyon/catch/4.jpg","[]","value training","canyon","-5","{""ArrowUp,ArrowLeft"":23,""ArrowUp,ArrowRight"":10,""ArrowDown,ArrowLeft"":8,""ArrowDown,ArrowRight"":30}","false","","true","","","revaluation","1","20","","",""
"html-keyboard-response","139","834633","0.0-4.0-2.0-1.10","spark_pilot_2","7121","6","8","Female","","","","","","[{""event"":""blur"",""trial"":2,""time"":56270},{""event"":""focus"",""trial"":2,""time"":60361},{""event"":""fullscreenenter"",""trial"":2,""time"":61441},{""event"":""blur"",""trial"":140,""time"":835037},{""event"":""focus"",""trial"":142,""time"":839379}]","null","<div style=""font-size:60px;"">+</div>","null","fixation","","","","","","","","","","","21","","",""
"revaluation","140","838656","0.0-4.0-2.0-0.11","spark_pilot_2","7121","6","8","Female","","true","","","","","[]","./assets/img/canyon/memory/4.jpg","[]","value training","canyon","-5","{""ArrowUp,ArrowLeft"":23,""ArrowUp,ArrowRight"":10,""ArrowDown,ArrowLeft"":8,""ArrowDown,ArrowRight"":30}","false","","false","","","revaluation","1","22","","",""
"html-keyboard-response","141","839165","0.0-4.0-2.0-1.11","spark_pilot_2","7121","6","8","Female","","","","","","[{""event"":""blur"",""trial"":2,""time"":56270},{""event"":""focus"",""trial"":2,""time"":60361},{""event"":""fullscreenenter"",""trial"":2,""time"":61441},{""event"":""blur"",""trial"":140,""time"":835037},{""event"":""focus"",""trial"":142,""time"":839379}]","null","<div style=""font-size:60px;"">+</div>","null","fixation","","","","","","","","","","","23","","",""
"revaluation","142","843187","0.0-4.0-2.0-0.12","spark_pilot_2","7121","6","8","Female","","true","","","","","[]","./assets/img/canyon/memory/1.jpg","[]","value training","canyon","-5","{""ArrowUp,ArrowLeft"":23,""ArrowUp,ArrowRight"":10,""ArrowDown,ArrowLeft"":8,""ArrowDown,ArrowRight"":30}","false","","false","","","revaluation","1","24","","",""
"html-keyboard-response","143","843697","0.0-4.0-2.0-1.12","spark_pilot_2","7121","6","8","Female","","","","","","","null","<div style=""font-size:60px;"">+</div>","null","fixation","","","","","","","","","","","25","","",""
"revaluation","144","849729","0.0-4.0-2.0-0.13","spark_pilot_2","7121","6","8","Female","","false","","","","","[612,1080]","./assets/img/canyon/memory/26.jpg","[""ArrowDown"",""ArrowRight""]","value training","canyon","30","{""ArrowUp,ArrowLeft"":23,""ArrowUp,ArrowRight"":10,""ArrowDown,ArrowLeft"":8,""ArrowDown,ArrowRight"":30}","true","ArrowDown,ArrowRight","false","","","revaluation","1","26","","",""
"html-keyboard-response","145","850238","0.0-4.0-2.0-1.13","spark_pilot_2","7121","6","8","Female","","","","","","","null","<div style=""font-size:60px;"">+</div>","null","fixation","","","","","","","","","","","27","","",""
"revaluation","146","854268","0.0-4.0-2.0-0.14","spark_pilot_2","7121","6","8","Female","","false","","","","","[453]","./assets/img/canyon/catch/7.jpg","[""ArrowUp""]","value training","canyon","-10","{""ArrowUp,ArrowLeft"":23,""ArrowUp,ArrowRight"":10,""ArrowDown,ArrowLeft"":8,""ArrowDown,ArrowRight"":30}","false","ArrowUp","true","","","revaluation","1","28","","",""
"html-keyboard-response","147","854777","0.0-4.0-2.0-1.14","spark_pilot_2","7121","6","8","Female","","","","","","","null","<div style=""font-size:60px;"">+</div>","null","fixation","","","","","","","","","","","29","","",""
"revaluation","148","860809","0.0-4.0-2.0-0.15","spark_pilot_2","7121","6","8","Female","","false","","","","","[1487,1530]","./assets/img/canyon/memory/29.jpg","[""ArrowUp"",""ArrowLeft""]","value training","canyon","23","{""ArrowUp,ArrowLeft"":23,""ArrowUp,ArrowRight"":10,""ArrowDown,ArrowLeft"":8,""ArrowDown,ArrowRight"":30}","false","ArrowUp,ArrowLeft","false","","","revaluation","1","30","","",""
"html-keyboard-response","149","861319","0.0-4.0-2.0-1.15","spark_pilot_2","7121","6","8","Female","","","","","","","null","<div style=""font-size:60px;"">+</div>","null","fixation","","","","","","","","","","","31","","",""
"revaluation","150","865329","0.0-4.0-2.0-0.16","spark_pilot_2","7121","6","8","Female","","false","","","","","[1318]","./assets/img/canyon/catch/2.jpg","[""ArrowDown""]","value training","canyon","-10","{""ArrowUp,ArrowLeft"":23,""ArrowUp,ArrowRight"":10,""ArrowDown,ArrowLeft"":8,""ArrowDown,ArrowRight"":30}","false","ArrowDown","true","","","revaluation","1","32","","",""
"html-keyboard-response","151","865839","0.0-4.0-2.0-1.16","spark_pilot_2","7121","6","8","Female","","","","","","","null","<div style=""font-size:60px;"">+</div>","null","fixation","","","","","","","","","","","33","","",""
"revaluation","152","871871","0.0-4.0-2.0-0.17","spark_pilot_2","7121","6","8","Female","","false","","","","","[968,832]","./assets/img/canyon/memory/3.jpg","[""ArrowUp"",""ArrowRight""]","value training","canyon","10","{""ArrowUp,ArrowLeft"":23,""ArrowUp,ArrowRight"":10,""ArrowDown,ArrowLeft"":8,""ArrowDown,ArrowRight"":30}","false","ArrowUp,ArrowRight","false","","","revaluation","1","34","","",""
"html-keyboard-response","153","872379","0.0-4.0-2.0-1.17","spark_pilot_2","7121","6","8","Female","","","","","","","null","<div style=""font-size:60px;"">+</div>","null","fixation","","","","","","","","","","","35","","",""
"revaluation","154","878411","0.0-4.0-2.0-0.18","spark_pilot_2","7121","6","8","Female","","false","","","","","[791,807]","./assets/img/canyon/memory/7.jpg","[""ArrowDown"",""ArrowLeft""]","value training","canyon","8","{""ArrowUp,ArrowLeft"":23,""ArrowUp,ArrowRight"":10,""ArrowDown,ArrowLeft"":8,""ArrowDown,ArrowRight"":30}","false","ArrowDown,ArrowLeft","false","","","revaluation","1","36","","",""
"html-keyboard-response","155","878920","0.0-4.0-2.0-1.18","spark_pilot_2","7121","6","8","Female","","","","","","","null","<div style=""font-size:60px;"">+</div>","null","fixation","","","","","","","","","","","37","","",""
"revaluation","156","884952","0.0-4.0-2.0-0.19","spark_pilot_2","7121","6","8","Female","","false","","","","","[1663,904]","./assets/img/canyon/memory/25.jpg","[""ArrowUp"",""ArrowLeft""]","value training","canyon","23","{""ArrowUp,ArrowLeft"":23,""ArrowUp,ArrowRight"":10,""ArrowDown,ArrowLeft"":8,""ArrowDown,ArrowRight"":30}","false","ArrowUp,ArrowLeft","false","","","revaluation","1","38","","",""
"html-keyboard-response","157","885461","0.0-4.0-2.0-1.19","spark_pilot_2","7121","6","8","Female","","","","","","","null","<div style=""font-size:60px;"">+</div>","null","fixation","","","","","","","","","","","39","","",""
"revaluation","158","889492","0.0-4.0-2.0-0.20","spark_pilot_2","7121","6","8","Female","","true","","","","","[]","./assets/img/canyon/memory/3.jpg","[]","value training","canyon","-5","{""ArrowUp,ArrowLeft"":23,""ArrowUp,ArrowRight"":10,""ArrowDown,ArrowLeft"":8,""ArrowDown,ArrowRight"":30}","false","","false","","","revaluation","1","40","","",""
"html-keyboard-response","159","890000","0.0-4.0-2.0-1.20","spark_pilot_2","7121","6","8","Female","","","","","","","null","<div style=""font-size:60px;"">+</div>","null","fixation","","","","","","","","","","","41","","",""
"revaluation","160","896023","0.0-4.0-2.0-0.21","spark_pilot_2","7121","6","8","Female","","false","","","","","[159,1101]","./assets/img/canyon/memory/10.jpg","[""ArrowDown"",""ArrowRight""]","value training","canyon","30","{""ArrowUp,ArrowLeft"":23,""ArrowUp,ArrowRight"":10,""ArrowDown,ArrowLeft"":8,""ArrowDown,ArrowRight"":30}","true","ArrowDown,ArrowRight","false","","","revaluation","1","42","","",""
"html-keyboard-response","161","896532","0.0-4.0-2.0-1.21","spark_pilot_2","7121","6","8","Female","","","","","","","null","<div style=""font-size:60px;"">+</div>","null","fixation","","","","","","","","","","","43","","",""
"revaluation","162","900552","0.0-4.0-2.0-0.22","spark_pilot_2","7121","6","8","Female","","true","","","","","[]","./assets/img/canyon/memory/18.jpg","[]","value training","canyon","-5","{""ArrowUp,ArrowLeft"":23,""ArrowUp,ArrowRight"":10,""ArrowDown,ArrowLeft"":8,""ArrowDown,ArrowRight"":30}","false","","false","","","revaluation","1","44","","",""
"html-keyboard-response","163","901061","0.0-4.0-2.0-1.22","spark_pilot_2","7121","6","8","Female","","","","","","","null","<div style=""font-size:60px;"">+</div>","null","fixation","","","","","","","","","","","45","","",""
"revaluation","164","907103","0.0-4.0-2.0-0.23","spark_pilot_2","7121","6","8","Female","","false","","","","","[724,698]","./assets/img/canyon/memory/17.jpg","[""ArrowDown"",""ArrowRight""]","value training","canyon","30","{""ArrowUp,ArrowLeft"":23,""ArrowUp,ArrowRight"":10,""ArrowDown,ArrowLeft"":8,""ArrowDown,ArrowRight"":30}","true","ArrowDown,ArrowRight","false","","","revaluation","1","46","","",""
"html-keyboard-response","165","907613","0.0-4.0-2.0-1.23","spark_pilot_2","7121","6","8","Female","","","","","","","null","<div style=""font-size:60px;"">+</div>","null","fixation","","","","","","","","","","","47","","",""
"revaluation","166","913644","0.0-4.0-2.0-0.24","spark_pilot_2","7121","6","8","Female","","false","","","","","[521,1130]","./assets/img/canyon/memory/21.jpg","[""ArrowDown"",""ArrowRight""]","value training","canyon","30","{""ArrowUp,ArrowLeft"":23,""ArrowUp,ArrowRight"":10,""ArrowDown,ArrowLeft"":8,""ArrowDown,ArrowRight"":30}","true","ArrowDown,ArrowRight","false","","","revaluation","1","48","","",""
"html-keyboard-response","167","914153","0.0-4.0-2.0-1.24","spark_pilot_2","7121","6","8","Female","","","","","","","null","<div style=""font-size:60px;"">+</div>","null","fixation","","","","","","","","","","","49","","",""
"revaluation","168","920195","0.0-4.0-2.0-0.25","spark_pilot_2","7121","6","8","Female","","false","","","","","[447,833]","./assets/img/canyon/memory/5.jpg","[""ArrowDown"",""ArrowRight""]","value training","canyon","30","{""ArrowUp,ArrowLeft"":23,""ArrowUp,ArrowRight"":10,""ArrowDown,ArrowLeft"":8,""ArrowDown,ArrowRight"":30}","true","ArrowDown,ArrowRight","false","","","revaluation","1","50","","",""
"html-keyboard-response","169","920704","0.0-4.0-2.0-1.25","spark_pilot_2","7121","6","8","Female","","","","","","","null","<div style=""font-size:60px;"">+</div>","null","fixation","","","","","","","","","","","51","","",""
"revaluation","170","924736","0.0-4.0-2.0-0.26","spark_pilot_2","7121","6","8","Female","","false","","","","","[888]","./assets/img/canyon/catch/1.jpg","[""spaceBar""]","value training","canyon","0","{""ArrowUp,ArrowLeft"":23,""ArrowUp,ArrowRight"":10,""ArrowDown,ArrowLeft"":8,""ArrowDown,ArrowRight"":30}","true","spaceBar","true","","","revaluation","1","52","","",""
"html-keyboard-response","171","925245","0.0-4.0-2.0-1.26","spark_pilot_2","7121","6","8","Female","","","","","","","null","<div style=""font-size:60px;"">+</div>","null","fixation","","","","","","","","","","","53","","",""
"revaluation","172","931277","0.0-4.0-2.0-0.27","spark_pilot_2","7121","6","8","Female","","false","","","","","[1239,411]","./assets/img/canyon/memory/2.jpg","[""ArrowUp"",""ArrowLeft""]","value training","canyon","23","{""ArrowUp,ArrowLeft"":23,""ArrowUp,ArrowRight"":10,""ArrowDown,ArrowLeft"":8,""ArrowDown,ArrowRight"":30}","false","ArrowUp,ArrowLeft","false","","","revaluation","1","54","","",""
"html-keyboard-response","173","931786","0.0-4.0-2.0-1.27","spark_pilot_2","7121","6","8","Female","","","","","","","null","<div style=""font-size:60px;"">+</div>","null","fixation","","","","","","","","","","","55","","",""
"revaluation","174","937826","0.0-4.0-2.0-0.28","spark_pilot_2","7121","6","8","Female","","false","","","","","[708,732]","./assets/img/canyon/memory/5.jpg","[""ArrowUp"",""ArrowLeft""]","value training","canyon","23","{""ArrowUp,ArrowLeft"":23,""ArrowUp,ArrowRight"":10,""ArrowDown,ArrowLeft"":8,""ArrowDown,ArrowRight"":30}","false","ArrowUp,ArrowLeft","false","","","revaluation","1","56","","",""
"html-keyboard-response","175","938336","0.0-4.0-2.0-1.28","spark_pilot_2","7121","6","8","Female","","","","","","","null","<div style=""font-size:60px;"">+</div>","null","fixation","","","","","","","","","","","57","","",""
"revaluation","176","942357","0.0-4.0-2.0-0.29","spark_pilot_2","7121","6","8","Female","","false","","","","","[342]","./assets/img/canyon/catch/5.jpg","[""ArrowDown""]","value training","canyon","-10","{""ArrowUp,ArrowLeft"":23,""ArrowUp,ArrowRight"":10,""ArrowDown,ArrowLeft"":8,""ArrowDown,ArrowRight"":30}","false","ArrowDown","true","","","revaluation","1","58","","",""
"html-keyboard-response","177","942866","0.0-4.0-2.0-1.29","spark_pilot_2","7121","6","8","Female","","","","","","","null","<div style=""font-size:60px;"">+</div>","null","fixation","","","","","","","","","","","59","","",""
"revaluation","178","948898","0.0-4.0-2.0-0.30","spark_pilot_2","7121","6","8","Female","","false","","","","","[439,464]","./assets/img/canyon/memory/26.jpg","[""ArrowDown"",""ArrowRight""]","value training","canyon","30","{""ArrowUp,ArrowLeft"":23,""ArrowUp,ArrowRight"":10,""ArrowDown,ArrowLeft"":8,""ArrowDown,ArrowRight"":30}","true","ArrowDown,ArrowRight","false","","","revaluation","1","60","","",""
"html-keyboard-response","179","949407","0.0-4.0-2.0-1.30","spark_pilot_2","7121","6","8","Female","","","","","","","null","<div style=""font-size:60px;"">+</div>","null","fixation","","","","","","","","","","","61","","",""
"revaluation","180","953430","0.0-4.0-2.0-0.31","spark_pilot_2","7121","6","8","Female","","true","","","","","[]","./assets/img/canyon/memory/7.jpg","[]","value training","canyon","-5","{""ArrowUp,ArrowLeft"":23,""ArrowUp,ArrowRight"":10,""ArrowDown,ArrowLeft"":8,""ArrowDown,ArrowRight"":30}","false","","false","","","revaluation","1","62","","",""
"html-keyboard-response","181","953937","0.0-4.0-2.0-1.31","spark_pilot_2","7121","6","8","Female","","","","","","","null","<div style=""font-size:60px;"">+</div>","null","fixation","","","","","","","","","","","63","","",""
"revaluation","182","959969","0.0-4.0-2.0-0.32","spark_pilot_2","7121","6","8","Female","","false","","","","","[445,555]","./assets/img/canyon/memory/6.jpg","[""ArrowUp"",""ArrowLeft""]","value training","canyon","23","{""ArrowUp,ArrowLeft"":23,""ArrowUp,ArrowRight"":10,""ArrowDown,ArrowLeft"":8,""ArrowDown,ArrowRight"":30}","false","ArrowUp,ArrowLeft","false","","","revaluation","1","64","","",""
"html-keyboard-response","183","960478","0.0-4.0-2.0-1.32","spark_pilot_2","7121","6","8","Female","","","","","","","null","<div style=""font-size:60px;"">+</div>","null","fixation","","","","","","","","","","","65","","",""
"revaluation","184","966500","0.0-4.0-2.0-0.33","spark_pilot_2","7121","6","8","Female","","false","","","","","[965,695]","./assets/img/canyon/memory/20.jpg","[""ArrowUp"",""ArrowLeft""]","value training","canyon","23","{""ArrowUp,ArrowLeft"":23,""ArrowUp,ArrowRight"":10,""ArrowDown,ArrowLeft"":8,""ArrowDown,ArrowRight"":30}","false","ArrowUp,ArrowLeft","false","","","revaluation","1","66","","",""
"html-keyboard-response","185","967009","0.0-4.0-2.0-1.33","spark_pilot_2","7121","6","8","Female","","","","","","","null","<div style=""font-size:60px;"">+</div>","null","fixation","","","","","","","","","","","67","","",""
"revaluation","186","973049","0.0-4.0-2.0-0.34","spark_pilot_2","7121","6","8","Female","","false","","","","","[614,68]","./assets/img/canyon/memory/30.jpg","[""ArrowUp"",""ArrowLeft""]","value training","canyon","23","{""ArrowUp,ArrowLeft"":23,""ArrowUp,ArrowRight"":10,""ArrowDown,ArrowLeft"":8,""ArrowDown,ArrowRight"":30}","false","ArrowUp,ArrowLeft","false","","","revaluation","1","68","","",""
"html-keyboard-response","187","973560","0.0-4.0-2.0-1.34","spark_pilot_2","7121","6","8","Female","","","","","","","null","<div style=""font-size:60px;"">+</div>","null","fixation","","","","","","","","","","","69","","",""
"revaluation","188","979591","0.0-4.0-2.0-0.35","spark_pilot_2","7121","6","8","Female","","false","","","","","[428,213]","./assets/img/canyon/memory/9.jpg","[""ArrowUp"",""ArrowLeft""]","value training","canyon","23","{""ArrowUp,ArrowLeft"":23,""ArrowUp,ArrowRight"":10,""ArrowDown,ArrowLeft"":8,""ArrowDown,ArrowRight"":30}","false","ArrowUp,ArrowLeft","false","","","revaluation","1","70","","",""
"html-keyboard-response","189","980099","0.0-4.0-2.0-1.35","spark_pilot_2","7121","6","8","Female","","","","","","","null","<div style=""font-size:60px;"">+</div>","null","fixation","","","","","","","","","","","71","","",""
"revaluation","190","986132","0.0-4.0-2.0-0.36","spark_pilot_2","7121","6","8","Female","","false","","","","","[541,309]","./assets/img/canyon/memory/31.jpg","[""ArrowUp"",""ArrowLeft""]","value training","canyon","23","{""ArrowUp,ArrowLeft"":23,""ArrowUp,ArrowRight"":10,""ArrowDown,ArrowLeft"":8,""ArrowDown,ArrowRight"":30}","false","ArrowUp,ArrowLeft","false","","","revaluation","1","72","","",""
"html-keyboard-response","191","986641","0.0-4.0-2.0-1.36","spark_pilot_2","7121","6","8","Female","","","","","","","null","<div style=""font-size:60px;"">+</div>","null","fixation","","","","","","","","","","","73","","",""
"revaluation","192","992662","0.0-4.0-2.0-0.37","spark_pilot_2","7121","6","8","Female","","false","","","","","[544,578]","./assets/img/canyon/memory/0.jpg","[""ArrowUp"",""ArrowLeft""]","value training","canyon","23","{""ArrowUp,ArrowLeft"":23,""ArrowUp,ArrowRight"":10,""ArrowDown,ArrowLeft"":8,""ArrowDown,ArrowRight"":30}","false","ArrowUp,ArrowLeft","false","","","revaluation","1","74","","",""
"html-keyboard-response","193","993171","0.0-4.0-2.0-1.37","spark_pilot_2","7121","6","8","Female","","","","","","","null","<div style=""font-size:60px;"">+</div>","null","fixation","","","","","","","","","","","75","","",""
"revaluation","194","999193","0.0-4.0-2.0-0.38","spark_pilot_2","7121","6","8","Female","","false","","","","","[407,275]","./assets/img/canyon/memory/24.jpg","[""ArrowUp"",""ArrowLeft""]","value training","canyon","23","{""ArrowUp,ArrowLeft"":23,""ArrowUp,ArrowRight"":10,""ArrowDown,ArrowLeft"":8,""ArrowDown,ArrowRight"":30}","false","ArrowUp,ArrowLeft","false","","","revaluation","1","76","","",""
"html-keyboard-response","195","999702","0.0-4.0-2.0-1.38","spark_pilot_2","7121","6","8","Female","","","","","","","null","<div style=""font-size:60px;"">+</div>","null","fixation","","","","","","","","","","","77","","",""
"revaluation","196","1005733","0.0-4.0-2.0-0.39","spark_pilot_2","7121","6","8","Female","","false","","","","","[433,144]","./assets/img/canyon/memory/10.jpg","[""ArrowUp"",""ArrowLeft""]","value training","canyon","23","{""ArrowUp,ArrowLeft"":23,""ArrowUp,ArrowRight"":10,""ArrowDown,ArrowLeft"":8,""ArrowDown,ArrowRight"":30}","false","ArrowUp,ArrowLeft","false","","","revaluation","1","78","","",""
"html-keyboard-response","197","1006242","0.0-4.0-2.0-1.39","spark_pilot_2","7121","6","8","Female","","","","","","","null","<div style=""font-size:60px;"">+</div>","null","fixation","","","","","","","","","","","79","","",""
"revaluation","198","1012265","0.0-4.0-2.0-0.40","spark_pilot_2","7121","6","8","Female","","false","","","","","[543,161]","./assets/img/canyon/memory/2.jpg","[""ArrowUp"",""ArrowLeft""]","value training","canyon","23","{""ArrowUp,ArrowLeft"":23,""ArrowUp,ArrowRight"":10,""ArrowDown,ArrowLeft"":8,""ArrowDown,ArrowRight"":30}","false","ArrowUp,ArrowLeft","false","","","revaluation","1","80","","",""
"html-keyboard-response","199","1012774","0.0-4.0-2.0-1.40","spark_pilot_2","7121","6","8","Female","","","","","","","null","<div style=""font-size:60px;"">+</div>","null","fixation","","","","","","","","","","","81","","",""
"revaluation","200","1018806","0.0-4.0-2.0-0.41","spark_pilot_2","7121","6","8","Female","","false","","","","","[661,86]","./assets/img/canyon/memory/24.jpg","[""ArrowUp"",""ArrowLeft""]","value training","canyon","23","{""ArrowUp,ArrowLeft"":23,""ArrowUp,ArrowRight"":10,""ArrowDown,ArrowLeft"":8,""ArrowDown,ArrowRight"":30}","false","ArrowUp,ArrowLeft","false","","","revaluation","1","82","","",""
"html-keyboard-response","201","1019315","0.0-4.0-2.0-1.41","spark_pilot_2","7121","6","8","Female","","","","","","","null","<div style=""font-size:60px;"">+</div>","null","fixation","","","","","","","","","","","83","","",""
"revaluation","202","1025356","0.0-4.0-2.0-0.42","spark_pilot_2","7121","6","8","Female","","false","","","","","[240,713]","./assets/img/canyon/memory/31.jpg","[""ArrowUp"",""ArrowLeft""]","value training","canyon","23","{""ArrowUp,ArrowLeft"":23,""ArrowUp,ArrowRight"":10,""ArrowDown,ArrowLeft"":8,""ArrowDown,ArrowRight"":30}","false","ArrowUp,ArrowLeft","false","","","revaluation","1","84","","",""
"html-keyboard-response","203","1025865","0.0-4.0-2.0-1.42","spark_pilot_2","7121","6","8","Female","","","","","","","null","<div style=""font-size:60px;"">+</div>","null","fixation","","","","","","","","","","","85","","",""
"revaluation","204","1029877","0.0-4.0-2.0-0.43","spark_pilot_2","7121","6","8","Female","","false","","","","","[983]","./assets/img/canyon/catch/6.jpg","[""spaceBar""]","value training","canyon","0","{""ArrowUp,ArrowLeft"":23,""ArrowUp,ArrowRight"":10,""ArrowDown,ArrowLeft"":8,""ArrowDown,ArrowRight"":30}","true","spaceBar","true","","","revaluation","1","86","","",""
"html-keyboard-response","205","1030387","0.0-4.0-2.0-1.43","spark_pilot_2","7121","6","8","Female","","","","","","","null","<div style=""font-size:60px;"">+</div>","null","fixation","","","","","","","","","","","87","","",""
"revaluation","206","1036408","0.0-4.0-2.0-0.44","spark_pilot_2","7121","6","8","Female","","false","","","","","[1597,895]","./assets/img/canyon/memory/25.jpg","[""ArrowUp"",""ArrowLeft""]","value training","canyon","23","{""ArrowUp,ArrowLeft"":23,""ArrowUp,ArrowRight"":10,""ArrowDown,ArrowLeft"":8,""ArrowDown,ArrowRight"":30}","false","ArrowUp,ArrowLeft","false","","","revaluation","1","88","","",""
"html-keyboard-response","207","1036917","0.0-4.0-2.0-1.44","spark_pilot_2","7121","6","8","Female","","","","","","","null","<div style=""font-size:60px;"">+</div>","null","fixation","","","","","","","","","","","89","","",""
"revaluation","208","1042948","0.0-4.0-2.0-0.45","spark_pilot_2","7121","6","8","Female","","false","","","","","[878,374]","./assets/img/canyon/memory/29.jpg","[""ArrowUp"",""ArrowLeft""]","value training","canyon","23","{""ArrowUp,ArrowLeft"":23,""ArrowUp,ArrowRight"":10,""ArrowDown,ArrowLeft"":8,""ArrowDown,ArrowRight"":30}","false","ArrowUp,ArrowLeft","false","","","revaluation","1","90","","",""
"html-keyboard-response","209","1043457","0.0-4.0-2.0-1.45","spark_pilot_2","7121","6","8","Female","","","","","","","null","<div style=""font-size:60px;"">+</div>","null","fixation","","","","","","","","","","","91","","",""
"revaluation","210","1047479","0.0-4.0-2.0-0.46","spark_pilot_2","7121","6","8","Female","","true","","","","","[]","./assets/img/canyon/memory/28.jpg","[]","value training","canyon","-5","{""ArrowUp,ArrowLeft"":23,""ArrowUp,ArrowRight"":10,""ArrowDown,ArrowLeft"":8,""ArrowDown,ArrowRight"":30}","false","","false","","","revaluation","1","92","","",""
"html-keyboard-response","211","1047988","0.0-4.0-2.0-1.46","spark_pilot_2","7121","6","8","Female","","","","","","","null","<div style=""font-size:60px;"">+</div>","null","fixation","","","","","","","","","","","93","","",""
"revaluation","212","1054009","0.0-4.0-2.0-0.47","spark_pilot_2","7121","6","8","Female","","false","","","","","[483,489]","./assets/img/canyon/memory/6.jpg","[""ArrowUp"",""ArrowLeft""]","value training","canyon","23","{""ArrowUp,ArrowLeft"":23,""ArrowUp,ArrowRight"":10,""ArrowDown,ArrowLeft"":8,""ArrowDown,ArrowRight"":30}","false","ArrowUp,ArrowLeft","false","","","revaluation","1","94","","",""
"html-keyboard-response","213","1054518","0.0-4.0-2.0-1.47","spark_pilot_2","7121","6","8","Female","","","","","","","null","<div style=""font-size:60px;"">+</div>","null","fixation","","","","","","","","","","","95","","",""
"revaluation","214","1060531","0.0-4.0-2.0-0.48","spark_pilot_2","7121","6","8","Female","","false","","","","","[470,1111]","./assets/img/canyon/memory/30.jpg","[""ArrowUp"",""ArrowLeft""]","value training","canyon","23","{""ArrowUp,ArrowLeft"":23,""ArrowUp,ArrowRight"":10,""ArrowDown,ArrowLeft"":8,""ArrowDown,ArrowRight"":30}","false","ArrowUp,ArrowLeft","false","","","revaluation","1","96","","",""
"html-keyboard-response","215","1061039","0.0-4.0-2.0-1.48","spark_pilot_2","7121","6","8","Female","","","","","","","null","<div style=""font-size:60px;"">+</div>","null","fixation","","","","","","","","","","","97","","",""
"revaluation","216","1067061","0.0-4.0-2.0-0.49","spark_pilot_2","7121","6","8","Female","","false","","","","","[511,412]","./assets/img/canyon/memory/9.jpg","[""ArrowUp"",""ArrowLeft""]","value training","canyon","23","{""ArrowUp,ArrowLeft"":23,""ArrowUp,ArrowRight"":10,""ArrowDown,ArrowLeft"":8,""ArrowDown,ArrowRight"":30}","false","ArrowUp,ArrowLeft","false","","","revaluation","1","98","","",""
"html-keyboard-response","217","1067571","0.0-4.0-2.0-1.49","spark_pilot_2","7121","6","8","Female","","","","","","","null","<div style=""font-size:60px;"">+</div>","null","fixation","","","","","","","","","","","99","","",""
"learning-instructions","218","1084837","0.0-4.0-3.0-0.0","spark_pilot_2","7121","6","8","Female","","","","","","","4377","<p> Now, you will travel with a friend who will choose whether you go up or down first. </p>
            <p> On these turns, you will just see the animal that they found. You will still get to choose which chest to search for treasure.</p>","","instructions","","","","","","","","","","","","","",""
"revaluation","219","1088857","0.0-4.0-4.0-0.0","spark_pilot_2","7121","6","8","Female","","true","","","","","[]","./assets/img/canyon/animals/giraffe.jpg","[]","revaluation","canyon","-5","{""ArrowUp,ArrowLeft"":27,""ArrowUp,ArrowRight"":15,""ArrowDown,ArrowLeft"":21,""ArrowDown,ArrowRight"":7}","false","ArrowDown","","","","revaluation","1","0","","",""
"html-keyboard-response","220","1089367","0.0-4.0-4.0-1.0","spark_pilot_2","7121","6","8","Female","","","","","","","null","<div style=""font-size:60px;"">+</div>","null","fixation","","","","","","","","","","","1","","",""
"revaluation","221","1093382","0.0-4.0-4.0-0.1","spark_pilot_2","7121","6","8","Female","","false","","","","","[513]","./assets/img/canyon/animals/lion.jpg","[""ArrowRight""]","revaluation","canyon","15","{""ArrowUp,ArrowLeft"":27,""ArrowUp,ArrowRight"":15,""ArrowDown,ArrowLeft"":21,""ArrowDown,ArrowRight"":7}","false","ArrowUp,ArrowRight","","","","revaluation","1","2","","",""
"html-keyboard-response","222","1093892","0.0-4.0-4.0-1.1","spark_pilot_2","7121","6","8","Female","","","","","","","null","<div style=""font-size:60px;"">+</div>","null","fixation","","","","","","","","","","","3","","",""
"revaluation","223","1097923","0.0-4.0-4.0-0.2","spark_pilot_2","7121","6","8","Female","","false","","","","","[578]","./assets/img/canyon/animals/giraffe.jpg","[""ArrowLeft""]","revaluation","canyon","21","{""ArrowUp,ArrowLeft"":27,""ArrowUp,ArrowRight"":15,""ArrowDown,ArrowLeft"":21,""ArrowDown,ArrowRight"":7}","true","ArrowDown,ArrowLeft","","","","revaluation","1","4","","",""
"html-keyboard-response","224","1098432","0.0-4.0-4.0-1.2","spark_pilot_2","7121","6","8","Female","","","","","","","null","<div style=""font-size:60px;"">+</div>","null","fixation","","","","","","","","","","","5","","",""
"revaluation","225","1102464","0.0-4.0-4.0-0.3","spark_pilot_2","7121","6","8","Female","","false","","","","","[1072]","./assets/img/canyon/animals/giraffe.jpg","[""ArrowRight""]","revaluation","canyon","7","{""ArrowUp,ArrowLeft"":27,""ArrowUp,ArrowRight"":15,""ArrowDown,ArrowLeft"":21,""ArrowDown,ArrowRight"":7}","false","ArrowDown,ArrowRight","","","","revaluation","1","6","","",""
"html-keyboard-response","226","1102973","0.0-4.0-4.0-1.3","spark_pilot_2","7121","6","8","Female","","","","","","","null","<div style=""font-size:60px;"">+</div>","null","fixation","","","","","","","","","","","7","","",""
"revaluation","227","1107003","0.0-4.0-4.0-0.4","spark_pilot_2","7121","6","8","Female","","false","","","","","[603]","./assets/img/canyon/animals/lion.jpg","[""ArrowLeft""]","revaluation","canyon","27","{""ArrowUp,ArrowLeft"":27,""ArrowUp,ArrowRight"":15,""ArrowDown,ArrowLeft"":21,""ArrowDown,ArrowRight"":7}","true","ArrowUp,ArrowLeft","","","","revaluation","1","8","","",""
"html-keyboard-response","228","1107513","0.0-4.0-4.0-1.4","spark_pilot_2","7121","6","8","Female","","","","","","","null","<div style=""font-size:60px;"">+</div>","null","fixation","","","","","","","","","","","9","","",""
"revaluation","229","1111534","0.0-4.0-4.0-0.5","spark_pilot_2","7121","6","8","Female","","false","","","","","[380]","./assets/img/canyon/animals/lion.jpg","[""ArrowLeft""]","revaluation","canyon","27","{""ArrowUp,ArrowLeft"":27,""ArrowUp,ArrowRight"":15,""ArrowDown,ArrowLeft"":21,""ArrowDown,ArrowRight"":7}","true","ArrowUp,ArrowLeft","","","","revaluation","1","10","","",""
"html-keyboard-response","230","1112043","0.0-4.0-4.0-1.5","spark_pilot_2","7121","6","8","Female","","","","","","","null","<div style=""font-size:60px;"">+</div>","null","fixation","","","","","","","","","","","11","","",""
"revaluation","231","1116074","0.0-4.0-4.0-0.6","spark_pilot_2","7121","6","8","Female","","false","","","","","[800]","./assets/img/canyon/animals/lion.jpg","[""ArrowLeft""]","revaluation","canyon","27","{""ArrowUp,ArrowLeft"":27,""ArrowUp,ArrowRight"":15,""ArrowDown,ArrowLeft"":21,""ArrowDown,ArrowRight"":7}","true","ArrowUp,ArrowLeft","","","","revaluation","1","12","","",""
"html-keyboard-response","232","1116584","0.0-4.0-4.0-1.6","spark_pilot_2","7121","6","8","Female","","","","","","","null","<div style=""font-size:60px;"">+</div>","null","fixation","","","","","","","","","","","13","","",""
"revaluation","233","1120605","0.0-4.0-4.0-0.7","spark_pilot_2","7121","6","8","Female","","false","","","","","[528]","./assets/img/canyon/animals/giraffe.jpg","[""ArrowLeft""]","revaluation","canyon","21","{""ArrowUp,ArrowLeft"":27,""ArrowUp,ArrowRight"":15,""ArrowDown,ArrowLeft"":21,""ArrowDown,ArrowRight"":7}","true","ArrowDown,ArrowLeft","","","","revaluation","1","14","","",""
"html-keyboard-response","234","1121114","0.0-4.0-4.0-1.7","spark_pilot_2","7121","6","8","Female","","","","","","","null","<div style=""font-size:60px;"">+</div>","null","fixation","","","","","","","","","","","15","","",""
"revaluation","235","1125136","0.0-4.0-4.0-0.8","spark_pilot_2","7121","6","8","Female","","false","","","","","[581]","./assets/img/canyon/animals/lion.jpg","[""ArrowLeft""]","revaluation","canyon","27","{""ArrowUp,ArrowLeft"":27,""ArrowUp,ArrowRight"":15,""ArrowDown,ArrowLeft"":21,""ArrowDown,ArrowRight"":7}","true","ArrowUp,ArrowLeft","","","","revaluation","1","16","","",""
"html-keyboard-response","236","1125645","0.0-4.0-4.0-1.8","spark_pilot_2","7121","6","8","Female","","","","","","","null","<div style=""font-size:60px;"">+</div>","null","fixation","","","","","","","","","","","17","","",""
"revaluation","237","1129667","0.0-4.0-4.0-0.9","spark_pilot_2","7121","6","8","Female","","false","","","","","[152]","./assets/img/canyon/animals/lion.jpg","[""ArrowLeft""]","revaluation","canyon","27","{""ArrowUp,ArrowLeft"":27,""ArrowUp,ArrowRight"":15,""ArrowDown,ArrowLeft"":21,""ArrowDown,ArrowRight"":7}","true","ArrowUp,ArrowLeft","","","","revaluation","1","18","","",""
"html-keyboard-response","238","1130176","0.0-4.0-4.0-1.9","spark_pilot_2","7121","6","8","Female","","","","","","","null","<div style=""font-size:60px;"">+</div>","null","fixation","","","","","","","","","","","19","","",""
"revaluation","239","1134197","0.0-4.0-4.0-0.10","spark_pilot_2","7121","6","8","Female","","false","","","","","[382]","./assets/img/canyon/animals/giraffe.jpg","[""ArrowLeft""]","revaluation","canyon","21","{""ArrowUp,ArrowLeft"":27,""ArrowUp,ArrowRight"":15,""ArrowDown,ArrowLeft"":21,""ArrowDown,ArrowRight"":7}","true","ArrowDown,ArrowLeft","","","","revaluation","1","20","","",""
"html-keyboard-response","240","1134707","0.0-4.0-4.0-1.10","spark_pilot_2","7121","6","8","Female","","","","","","","null","<div style=""font-size:60px;"">+</div>","null","fixation","","","","","","","","","","","21","","",""
"revaluation","241","1138727","0.0-4.0-4.0-0.11","spark_pilot_2","7121","6","8","Female","","false","","","","","[494]","./assets/img/canyon/animals/giraffe.jpg","[""ArrowLeft""]","revaluation","canyon","21","{""ArrowUp,ArrowLeft"":27,""ArrowUp,ArrowRight"":15,""ArrowDown,ArrowLeft"":21,""ArrowDown,ArrowRight"":7}","true","ArrowDown,ArrowLeft","","","","revaluation","1","22","","",""
"html-keyboard-response","242","1139237","0.0-4.0-4.0-1.11","spark_pilot_2","7121","6","8","Female","","","","","","","null","<div style=""font-size:60px;"">+</div>","null","fixation","","","","","","","","","","","23","","",""
"revaluation","243","1143249","0.0-4.0-4.0-0.12","spark_pilot_2","7121","6","8","Female","","false","","","","","[801]","./assets/img/canyon/animals/lion.jpg","[""ArrowLeft""]","revaluation","canyon","27","{""ArrowUp,ArrowLeft"":27,""ArrowUp,ArrowRight"":15,""ArrowDown,ArrowLeft"":21,""ArrowDown,ArrowRight"":7}","true","ArrowUp,ArrowLeft","","","","revaluation","1","24","","",""
"html-keyboard-response","244","1143758","0.0-4.0-4.0-1.12","spark_pilot_2","7121","6","8","Female","","","","","","","null","<div style=""font-size:60px;"">+</div>","null","fixation","","","","","","","","","","","25","","",""
"revaluation","245","1147779","0.0-4.0-4.0-0.13","spark_pilot_2","7121","6","8","Female","","false","","","","","[687]","./assets/img/canyon/animals/lion.jpg","[""ArrowLeft""]","revaluation","canyon","27","{""ArrowUp,ArrowLeft"":27,""ArrowUp,ArrowRight"":15,""ArrowDown,ArrowLeft"":21,""ArrowDown,ArrowRight"":7}","true","ArrowUp,ArrowLeft","","","","revaluation","1","26","","",""
"html-keyboard-response","246","1148288","0.0-4.0-4.0-1.13","spark_pilot_2","7121","6","8","Female","","","","","","","null","<div style=""font-size:60px;"">+</div>","null","fixation","","","","","","","","","","","27","","",""
"revaluation","247","1152299","0.0-4.0-4.0-0.14","spark_pilot_2","7121","6","8","Female","","false","","","","","[747]","./assets/img/canyon/animals/lion.jpg","[""ArrowLeft""]","revaluation","canyon","27","{""ArrowUp,ArrowLeft"":27,""ArrowUp,ArrowRight"":15,""ArrowDown,ArrowLeft"":21,""ArrowDown,ArrowRight"":7}","true","ArrowUp,ArrowLeft","","","","revaluation","1","28","","",""
"html-keyboard-response","248","1152809","0.0-4.0-4.0-1.14","spark_pilot_2","7121","6","8","Female","","","","","","","null","<div style=""font-size:60px;"">+</div>","null","fixation","","","","","","","","","","","29","","",""
"revaluation","249","1156829","0.0-4.0-4.0-0.15","spark_pilot_2","7121","6","8","Female","","false","","","","","[381]","./assets/img/canyon/animals/giraffe.jpg","[""ArrowRight""]","revaluation","canyon","7","{""ArrowUp,ArrowLeft"":27,""ArrowUp,ArrowRight"":15,""ArrowDown,ArrowLeft"":21,""ArrowDown,ArrowRight"":7}","false","ArrowDown,ArrowRight","","","","revaluation","1","30","","",""
"html-keyboard-response","250","1157339","0.0-4.0-4.0-1.15","spark_pilot_2","7121","6","8","Female","","","","","","","null","<div style=""font-size:60px;"">+</div>","null","fixation","","","","","","","","","","","31","","",""
"revaluation","251","1161360","0.0-4.0-4.0-0.16","spark_pilot_2","7121","6","8","Female","","false","","","","","[1321]","./assets/img/canyon/animals/giraffe.jpg","[""ArrowLeft""]","revaluation","canyon","21","{""ArrowUp,ArrowLeft"":27,""ArrowUp,ArrowRight"":15,""ArrowDown,ArrowLeft"":21,""ArrowDown,ArrowRight"":7}","true","ArrowDown,ArrowLeft","","","","revaluation","1","32","","",""
"html-keyboard-response","252","1161869","0.0-4.0-4.0-1.16","spark_pilot_2","7121","6","8","Female","","","","","","","null","<div style=""font-size:60px;"">+</div>","null","fixation","","","","","","","","","","","33","","",""
"revaluation","253","1165890","0.0-4.0-4.0-0.17","spark_pilot_2","7121","6","8","Female","","false","","","","","[945]","./assets/img/canyon/animals/giraffe.jpg","[""ArrowLeft""]","revaluation","canyon","21","{""ArrowUp,ArrowLeft"":27,""ArrowUp,ArrowRight"":15,""ArrowDown,ArrowLeft"":21,""ArrowDown,ArrowRight"":7}","true","ArrowDown,ArrowLeft","","","","revaluation","1","34","","",""
"html-keyboard-response","254","1166399","0.0-4.0-4.0-1.17","spark_pilot_2","7121","6","8","Female","","","","","","","null","<div style=""font-size:60px;"">+</div>","null","fixation","","","","","","","","","","","35","","",""
"learning-instructions","255","1179718","0.0-4.0-5.0-0.0","spark_pilot_2","7121","6","8","Female","","","","","","","1492","<p> Time to play the dot game! </p>
            <p> For one minute, click the red dots on the following screen as they appear. </p>
            <p><b> Don't look away, as you will earn bonus for clicking dots</b>. </p>","","instructions","","","","","","","","","","","","","",""
"revaluation","256","1239723","0.0-4.0-6.0-0.0","spark_pilot_2","7121","6","8","Female","","","","","","","[202,94,116,105,69,104,82]","","","rest","","70","","","","","0","60000","","","","","",""
"learning-instructions","257","1247997","0.0-4.0-7.0-0.0","spark_pilot_2","7121","6","8","Female","","","","","","","2162","<p> You have almost finished this part of the game! </p>
            <p> We are going to ask you to make a few more choices. </p>","","instructions","","","","","","","","","","","","","",""
"learning-instructions","258","1264158","0.0-4.0-7.0-0.1","spark_pilot_2","7121","6","8","Female","","","","","","","2172","<p> First, you need to decide whether to go up or down. When you see each picture, use the arrow keys to make your choice. </p>
            <p><b>You will not see which animal you found, but try to get to the one that will give you the most treasure.</b></p>","","instructions","","","","","","","","","","","","","",""
"revaluation","259","1267300","0.0-4.0-8.0-0.0","spark_pilot_2","7121","6","8","Female","","false","","","","","[3133]","./assets/img/canyon/test/2.jpg","[""ArrowDown""]","first stage test","canyon","0","{""ArrowUp,ArrowLeft"":27,""ArrowUp,ArrowRight"":15,""ArrowDown,ArrowLeft"":21,""ArrowDown,ArrowRight"":7}","false","ArrowDown","false","","","revaluation","1","","","",""
"html-keyboard-response","260","1267847","0.0-4.0-8.0-1.0","spark_pilot_2","7121","6","8","Female","","","","","","","null","<div style=""font-size:60px;"">+</div>","null","fixation","","","","","","","","","","","","","",""
"revaluation","261","1269259","0.0-4.0-8.0-0.1","spark_pilot_2","7121","6","8","Female","","false","","","","","[1404]","./assets/img/canyon/test/3.jpg","[""ArrowUp""]","first stage test","canyon","0","{""ArrowUp,ArrowLeft"":27,""ArrowUp,ArrowRight"":15,""ArrowDown,ArrowLeft"":21,""ArrowDown,ArrowRight"":7}","true","ArrowUp","false","","","revaluation","1","","","",""
"html-keyboard-response","262","1269769","0.0-4.0-8.0-1.1","spark_pilot_2","7121","6","8","Female","","","","","","","null","<div style=""font-size:60px;"">+</div>","null","fixation","","","","","","","","","","","","","",""
"revaluation","263","1270751","0.0-4.0-8.0-0.2","spark_pilot_2","7121","6","8","Female","","false","","","","","[974]","./assets/img/canyon/test/0.jpg","[""ArrowDown""]","first stage test","canyon","0","{""ArrowUp,ArrowLeft"":27,""ArrowUp,ArrowRight"":15,""ArrowDown,ArrowLeft"":21,""ArrowDown,ArrowRight"":7}","false","ArrowDown","false","","","revaluation","1","","","",""
"html-keyboard-response","264","1271258","0.0-4.0-8.0-1.2","spark_pilot_2","7121","6","8","Female","","","","","","","null","<div style=""font-size:60px;"">+</div>","null","fixation","","","","","","","","","","","","","",""
"revaluation","265","1271923","0.0-4.0-8.0-0.3","spark_pilot_2","7121","6","8","Female","","false","","","","","[655]","./assets/img/canyon/test/1.jpg","[""ArrowUp""]","first stage test","canyon","0","{""ArrowUp,ArrowLeft"":27,""ArrowUp,ArrowRight"":15,""ArrowDown,ArrowLeft"":21,""ArrowDown,ArrowRight"":7}","true","ArrowUp","false","","","revaluation","1","","","",""
"html-keyboard-response","266","1272428","0.0-4.0-8.0-1.3","spark_pilot_2","7121","6","8","Female","","","","","","","null","<div style=""font-size:60px;"">+</div>","null","fixation","","","","","","","","","","","","","",""
"learning-instructions","267","1286685","0.0-4.0-9.0-0.0","spark_pilot_2","7121","6","8","Female","","","","","","","2901","<p> Now you will see the animals again and can search their chests for treasure. </p>
            <p> This time, you will not see how much treasure you earned, but you will earn more bonus money for making better choices. </p>","","instructions","","","","","","","","","","","","","",""
"revaluation","268","1288058","0.0-4.0-10.0-0.0","spark_pilot_2","7121","6","8","Female","","false","","","","","[1366]","./assets/img/canyon/animals/lion.jpg","[""ArrowLeft""]","second stage test","canyon","0","{""ArrowUp,ArrowLeft"":27,""ArrowUp,ArrowRight"":15,""ArrowDown,ArrowLeft"":21,""ArrowDown,ArrowRight"":7}","true","ArrowUp,ArrowLeft","","","","revaluation","1","","","",""
"html-keyboard-response","269","1288561","0.0-4.0-10.0-1.0","spark_pilot_2","7121","6","8","Female","","","","","","","null","<div style=""font-size:60px;"">+</div>","null","fixation","","","","","","","","","","","","","",""
"revaluation","270","1289401","0.0-4.0-10.0-0.1","spark_pilot_2","7121","6","8","Female","","false","","","","","[832]","./assets/img/canyon/animals/lion.jpg","[""ArrowLeft""]","second stage test","canyon","0","{""ArrowUp,ArrowLeft"":27,""ArrowUp,ArrowRight"":15,""ArrowDown,ArrowLeft"":21,""ArrowDown,ArrowRight"":7}","true","ArrowUp,ArrowLeft","","","","revaluation","1","","","",""
"html-keyboard-response","271","1289911","0.0-4.0-10.0-1.1","spark_pilot_2","7121","6","8","Female","","","","","","","null","<div style=""font-size:60px;"">+</div>","null","fixation","","","","","","","","","","","","","",""
"revaluation","272","1290414","0.0-4.0-10.0-0.2","spark_pilot_2","7121","6","8","Female","","false","","","","","[493]","./assets/img/canyon/animals/lion.jpg","[""ArrowRight""]","second stage test","canyon","0","{""ArrowUp,ArrowLeft"":27,""ArrowUp,ArrowRight"":15,""ArrowDown,ArrowLeft"":21,""ArrowDown,ArrowRight"":7}","false","ArrowUp,ArrowRight","","","","revaluation","1","","","",""
"html-keyboard-response","273","1290921","0.0-4.0-10.0-1.2","spark_pilot_2","7121","6","8","Female","","","","","","","null","<div style=""font-size:60px;"">+</div>","null","fixation","","","","","","","","","","","","","",""
"revaluation","274","1291325","0.0-4.0-10.0-0.3","spark_pilot_2","7121","6","8","Female","","false","","","","","[396]","./assets/img/canyon/animals/lion.jpg","[""ArrowLeft""]","second stage test","canyon","0","{""ArrowUp,ArrowLeft"":27,""ArrowUp,ArrowRight"":15,""ArrowDown,ArrowLeft"":21,""ArrowDown,ArrowRight"":7}","true","ArrowUp,ArrowLeft","","","","revaluation","1","","","",""
"html-keyboard-response","275","1291831","0.0-4.0-10.0-1.3","spark_pilot_2","7121","6","8","Female","","","","","","","null","<div style=""font-size:60px;"">+</div>","null","fixation","","","","","","","","","","","","","",""
"revaluation","276","1292702","0.0-4.0-10.0-0.4","spark_pilot_2","7121","6","8","Female","","false","","","","","[860]","./assets/img/canyon/animals/giraffe.jpg","[""ArrowRight""]","second stage test","canyon","0","{""ArrowUp,ArrowLeft"":27,""ArrowUp,ArrowRight"":15,""ArrowDown,ArrowLeft"":21,""ArrowDown,ArrowRight"":7}","false","ArrowDown,ArrowRight","","","","revaluation","1","","","",""
"html-keyboard-response","277","1293211","0.0-4.0-10.0-1.4","spark_pilot_2","7121","6","8","Female","","","","","","","null","<div style=""font-size:60px;"">+</div>","null","fixation","","","","","","","","","","","","","",""
"revaluation","278","1293601","0.0-4.0-10.0-0.5","spark_pilot_2","7121","6","8","Female","","false","","","","","[383]","./assets/img/canyon/animals/giraffe.jpg","[""ArrowLeft""]","second stage test","canyon","0","{""ArrowUp,ArrowLeft"":27,""ArrowUp,ArrowRight"":15,""ArrowDown,ArrowLeft"":21,""ArrowDown,ArrowRight"":7}","true","ArrowDown,ArrowLeft","","","","revaluation","1","","","",""
"html-keyboard-response","279","1294110","0.0-4.0-10.0-1.5","spark_pilot_2","7121","6","8","Female","","","","","","","null","<div style=""font-size:60px;"">+</div>","null","fixation","","","","","","","","","","","","","",""
"revaluation","280","1294543","0.0-4.0-10.0-0.6","spark_pilot_2","7121","6","8","Female","","false","","","","","[424]","./assets/img/canyon/animals/giraffe.jpg","[""ArrowRight""]","second stage test","canyon","0","{""ArrowUp,ArrowLeft"":27,""ArrowUp,ArrowRight"":15,""ArrowDown,ArrowLeft"":21,""ArrowDown,ArrowRight"":7}","false","ArrowDown,ArrowRight","","","","revaluation","1","","","",""
"html-keyboard-response","281","1295051","0.0-4.0-10.0-1.6","spark_pilot_2","7121","6","8","Female","","","","","","","null","<div style=""font-size:60px;"">+</div>","null","fixation","","","","","","","","","","","","","",""
"revaluation","282","1295395","0.0-4.0-10.0-0.7","spark_pilot_2","7121","6","8","Female","","false","","","","","[333]","./assets/img/canyon/animals/giraffe.jpg","[""ArrowLeft""]","second stage test","canyon","0","{""ArrowUp,ArrowLeft"":27,""ArrowUp,ArrowRight"":15,""ArrowDown,ArrowLeft"":21,""ArrowDown,ArrowRight"":7}","true","ArrowDown,ArrowLeft","","","","revaluation","1","","","",""
"html-keyboard-response","283","1295902","0.0-4.0-10.0-1.7","spark_pilot_2","7121","6","8","Female","","","","","","","null","<div style=""font-size:60px;"">+</div>","null","fixation","","","","","","","","","","","","","",""
"learning-instructions","284","1302312","0.0-4.0-0.1-0.2","spark_pilot_2","7121","6","8","Female","","","","","","","3617","<p> This time you are searching for treasure in the <b>ocean</b>.</p>","","instructions","","","","","","","","","","","","","",""
"learning-instructions","285","1320465","0.0-4.0-0.1-0.3","spark_pilot_2","7121","6","8","Female","","","","","","","893","<p><b>New</b> animals with <b>new</b> treasure chests live here. You need to explore to discover where the animal with the best treasure chest is.</p>
                    <p> Like before, once you figure out which animal has the chest with the most treasure, you should try to get to that animal and select that chest! </p>","","instructions","","","","","","","","","","","","","",""
"learning-instructions","286","1337461","0.0-4.0-1.1-0.1","spark_pilot_2","7121","6","8","Female","","","","","","","2248","<p> Remember, when you see a picture of the place, use the up and down keys to <b>find an animal</b>.</p>
            <p> When you encounter an animal, you should use the left and right keys to <b>select a treasure chest</b>.</p>
            <p> Don't forget to look out for the robber! </p>","","instructions","","","","","","","","","","","","","",""
"revaluation","287","1343489","0.0-4.0-2.1-0.50","spark_pilot_2","7121","6","8","Female","","false","","","","","[1017,852]","./assets/img/ocean/memory/3.jpg","[""ArrowUp"",""ArrowRight""]","value training","ocean","10","{""ArrowUp,ArrowLeft"":26,""ArrowUp,ArrowRight"":10,""ArrowDown,ArrowLeft"":5,""ArrowDown,ArrowRight"":17}","false","ArrowUp,ArrowRight","false","","","original","2","0","","",""
"html-keyboard-response","288","1343998","0.0-4.0-2.1-1.50","spark_pilot_2","7121","6","8","Female","","","","","","","null","<div style=""font-size:60px;"">+</div>","null","fixation","","","","","","","","","","","1","","",""
"revaluation","289","1350029","0.0-4.0-2.1-0.51","spark_pilot_2","7121","6","8","Female","","false","","","","","[395,605]","./assets/img/ocean/memory/2.jpg","[""ArrowDown"",""ArrowLeft""]","value training","ocean","5","{""ArrowUp,ArrowLeft"":26,""ArrowUp,ArrowRight"":10,""ArrowDown,ArrowLeft"":5,""ArrowDown,ArrowRight"":17}","false","ArrowDown,ArrowLeft","false","","","original","2","2","","",""
"html-keyboard-response","290","1350539","0.0-4.0-2.1-1.51","spark_pilot_2","7121","6","8","Female","","","","","","","null","<div style=""font-size:60px;"">+</div>","null","fixation","","","","","","","","","","","3","","",""
"revaluation","291","1356560","0.0-4.0-2.1-0.52","spark_pilot_2","7121","6","8","Female","","false","","","","","[349,414]","./assets/img/ocean/memory/5.jpg","[""ArrowUp"",""ArrowLeft""]","value training","ocean","26","{""ArrowUp,ArrowLeft"":26,""ArrowUp,ArrowRight"":10,""ArrowDown,ArrowLeft"":5,""ArrowDown,ArrowRight"":17}","true","ArrowUp,ArrowLeft","false","","","original","2","4","","",""
"html-keyboard-response","292","1357070","0.0-4.0-2.1-1.52","spark_pilot_2","7121","6","8","Female","","","","","","","null","<div style=""font-size:60px;"">+</div>","null","fixation","","","","","","","","","","","5","","",""
"revaluation","293","1363101","0.0-4.0-2.1-0.53","spark_pilot_2","7121","6","8","Female","","false","","","","","[512,428]","./assets/img/ocean/memory/24.jpg","[""ArrowDown"",""ArrowLeft""]","value training","ocean","5","{""ArrowUp,ArrowLeft"":26,""ArrowUp,ArrowRight"":10,""ArrowDown,ArrowLeft"":5,""ArrowDown,ArrowRight"":17}","false","ArrowDown,ArrowLeft","false","","","original","2","6","","",""
"html-keyboard-response","294","1363609","0.0-4.0-2.1-1.53","spark_pilot_2","7121","6","8","Female","","","","","","","null","<div style=""font-size:60px;"">+</div>","null","fixation","","","","","","","","","","","7","","",""
"revaluation","295","1369641","0.0-4.0-2.1-0.54","spark_pilot_2","7121","6","8","Female","","false","","","","","[680,527]","./assets/img/ocean/memory/28.jpg","[""ArrowDown"",""ArrowRight""]","value training","ocean","17","{""ArrowUp,ArrowLeft"":26,""ArrowUp,ArrowRight"":10,""ArrowDown,ArrowLeft"":5,""ArrowDown,ArrowRight"":17}","false","ArrowDown,ArrowRight","false","","","original","2","8","","",""
"html-keyboard-response","296","1370150","0.0-4.0-2.1-1.54","spark_pilot_2","7121","6","8","Female","","","","","","","null","<div style=""font-size:60px;"">+</div>","null","fixation","","","","","","","","","","","9","","",""
"revaluation","297","1376171","0.0-4.0-2.1-0.55","spark_pilot_2","7121","6","8","Female","","false","","","","","[519,933]","./assets/img/ocean/memory/30.jpg","[""ArrowUp"",""ArrowLeft""]","value training","ocean","26","{""ArrowUp,ArrowLeft"":26,""ArrowUp,ArrowRight"":10,""ArrowDown,ArrowLeft"":5,""ArrowDown,ArrowRight"":17}","true","ArrowUp,ArrowLeft","false","","","original","2","10","","",""
"html-keyboard-response","298","1376681","0.0-4.0-2.1-1.55","spark_pilot_2","7121","6","8","Female","","","","","","","null","<div style=""font-size:60px;"">+</div>","null","fixation","","","","","","","","","","","11","","",""
"revaluation","299","1382702","0.0-4.0-2.1-0.56","spark_pilot_2","7121","6","8","Female","","false","","","","","[417,529]","./assets/img/ocean/memory/4.jpg","[""ArrowUp"",""ArrowLeft""]","value training","ocean","26","{""ArrowUp,ArrowLeft"":26,""ArrowUp,ArrowRight"":10,""ArrowDown,ArrowLeft"":5,""ArrowDown,ArrowRight"":17}","true","ArrowUp,ArrowLeft","false","","","original","2","12","","",""
"html-keyboard-response","300","1383212","0.0-4.0-2.1-1.56","spark_pilot_2","7121","6","8","Female","","","","","","","null","<div style=""font-size:60px;"">+</div>","null","fixation","","","","","","","","","","","13","","",""
"revaluation","301","1387233","0.0-4.0-2.1-0.57","spark_pilot_2","7121","6","8","Female","","false","","","","","[459]","./assets/img/ocean/catch/3.jpg","[""ArrowUp""]","value training","ocean","-10","{""ArrowUp,ArrowLeft"":26,""ArrowUp,ArrowRight"":10,""ArrowDown,ArrowLeft"":5,""ArrowDown,ArrowRight"":17}","false","ArrowUp","true","","","original","2","14","","",""
"html-keyboard-response","302","1387742","0.0-4.0-2.1-1.57","spark_pilot_2","7121","6","8","Female","","","","","","","null","<div style=""font-size:60px;"">+</div>","null","fixation","","","","","","","","","","","15","","",""
"revaluation","303","1393778","0.0-4.0-2.1-0.58","spark_pilot_2","7121","6","8","Female","","false","","","","","[874,550]","./assets/img/ocean/memory/21.jpg","[""ArrowUp"",""ArrowLeft""]","value training","ocean","26","{""ArrowUp,ArrowLeft"":26,""ArrowUp,ArrowRight"":10,""ArrowDown,ArrowLeft"":5,""ArrowDown,ArrowRight"":17}","true","ArrowUp,ArrowLeft","false","","","original","2","16","","",""
"html-keyboard-response","304","1394287","0.0-4.0-2.1-1.58","spark_pilot_2","7121","6","8","Female","","","","","","","null","<div style=""font-size:60px;"">+</div>","null","fixation","","","","","","","","","","","17","","",""
"revaluation","305","1400309","0.0-4.0-2.1-0.59","spark_pilot_2","7121","6","8","Female","","false","","","","","[400,547]","./assets/img/ocean/memory/29.jpg","[""ArrowUp"",""ArrowLeft""]","value training","ocean","26","{""ArrowUp,ArrowLeft"":26,""ArrowUp,ArrowRight"":10,""ArrowDown,ArrowLeft"":5,""ArrowDown,ArrowRight"":17}","true","ArrowUp,ArrowLeft","false","","","original","2","18","","",""
"html-keyboard-response","306","1400818","0.0-4.0-2.1-1.59","spark_pilot_2","7121","6","8","Female","","","","","","","null","<div style=""font-size:60px;"">+</div>","null","fixation","","","","","","","","","","","19","","",""
"revaluation","307","1406841","0.0-4.0-2.1-0.60","spark_pilot_2","7121","6","8","Female","","false","","","","","[565,510]","./assets/img/ocean/memory/28.jpg","[""ArrowUp"",""ArrowLeft""]","value training","ocean","26","{""ArrowUp,ArrowLeft"":26,""ArrowUp,ArrowRight"":10,""ArrowDown,ArrowLeft"":5,""ArrowDown,ArrowRight"":17}","true","ArrowUp,ArrowLeft","false","","","original","2","20","","",""
"html-keyboard-response","308","1407349","0.0-4.0-2.1-1.60","spark_pilot_2","7121","6","8","Female","","","","","","","null","<div style=""font-size:60px;"">+</div>","null","fixation","","","","","","","","","","","21","","",""
"revaluation","309","1413380","0.0-4.0-2.1-0.61","spark_pilot_2","7121","6","8","Female","","false","","","","","[517,486]","./assets/img/ocean/memory/7.jpg","[""ArrowUp"",""ArrowLeft""]","value training","ocean","26","{""ArrowUp,ArrowLeft"":26,""ArrowUp,ArrowRight"":10,""ArrowDown,ArrowLeft"":5,""ArrowDown,ArrowRight"":17}","true","ArrowUp,ArrowLeft","false","","","original","2","22","","",""
"html-keyboard-response","310","1413890","0.0-4.0-2.1-1.61","spark_pilot_2","7121","6","8","Female","","","","","","","null","<div style=""font-size:60px;"">+</div>","null","fixation","","","","","","","","","","","23","","",""
"revaluation","311","1417910","0.0-4.0-2.1-0.62","spark_pilot_2","7121","6","8","Female","","false","","","","","[973]","./assets/img/ocean/catch/0.jpg","[""spaceBar""]","value training","ocean","0","{""ArrowUp,ArrowLeft"":26,""ArrowUp,ArrowRight"":10,""ArrowDown,ArrowLeft"":5,""ArrowDown,ArrowRight"":17}","true","spaceBar","true","","","original","2","24","","",""
"html-keyboard-response","312","1418420","0.0-4.0-2.1-1.62","spark_pilot_2","7121","6","8","Female","","","","","","","null","<div style=""font-size:60px;"">+</div>","null","fixation","","","","","","","","","","","25","","",""
"revaluation","313","1424453","0.0-4.0-2.1-0.63","spark_pilot_2","7121","6","8","Female","","false","","","","","[511,643]","./assets/img/ocean/memory/17.jpg","[""ArrowUp"",""ArrowLeft""]","value training","ocean","26","{""ArrowUp,ArrowLeft"":26,""ArrowUp,ArrowRight"":10,""ArrowDown,ArrowLeft"":5,""ArrowDown,ArrowRight"":17}","true","ArrowUp,ArrowLeft","false","","","original","2","26","","",""
"html-keyboard-response","314","1424961","0.0-4.0-2.1-1.63","spark_pilot_2","7121","6","8","Female","","","","","","","null","<div style=""font-size:60px;"">+</div>","null","fixation","","","","","","","","","","","27","","",""
"revaluation","315","1430982","0.0-4.0-2.1-0.64","spark_pilot_2","7121","6","8","Female","","false","","","","","[393,454]","./assets/img/ocean/memory/1.jpg","[""ArrowUp"",""ArrowLeft""]","value training","ocean","26","{""ArrowUp,ArrowLeft"":26,""ArrowUp,ArrowRight"":10,""ArrowDown,ArrowLeft"":5,""ArrowDown,ArrowRight"":17}","true","ArrowUp,ArrowLeft","false","","","original","2","28","","",""
"html-keyboard-response","316","1431491","0.0-4.0-2.1-1.64","spark_pilot_2","7121","6","8","Female","","","","","","","null","<div style=""font-size:60px;"">+</div>","null","fixation","","","","","","","","","","","29","","",""
