"trial_type","trial_index","time_elapsed","internal_node_id","task_version","subject_id","assigned_condition","age","gender","browser_interaction","success","timeout","failed_images","failed_audio","failed_video","rt","stimulus","response","task_part","environment","score","rewardMap","correct","fullState","isCatch","numberMissed","duration","condition","order","trial_num","key_press","ground_truth","bonus"
"pavlovia","0","5221","0.0-0.0","spark_pilot_2","7395","3","16","Male","[{""event"":""blur"",""trial"":1,""time"":29813},{""event"":""focus"",""trial"":1,""time"":32356},{""event"":""fullscreenenter"",""trial"":2,""time"":68646}]","","","","","","","","","","","","","","","","","","","","","","",""
"preload","1","60716","0.0-1.0","spark_pilot_2","7395","3","16","Male","[{""event"":""blur"",""trial"":1,""time"":29813},{""event"":""focus"",""trial"":1,""time"":32356},{""event"":""fullscreenenter"",""trial"":2,""time"":68646}]","true","false","[]","[]","[]","","","","","","","","","","","","","","","","","",""
"fullscreen","2","69590","0.0-2.0","spark_pilot_2","7395","3","16","Male","","true","","","","","","","","","","","","","","","","","","","","","",""
"audio-button-response","3","71729","0.0-3.0-0.0-0.0","spark_pilot_2","7395","3","16","Male","","","","","","","2120","./assets/audio/audiotest/turtle.mp3","2","audio_test","","","","","","","","","","","","","",""
"learning-instructions","4","79725","0.0-3.0-1.0-0.0","spark_pilot_2","7395","3","16","Male","","","","","","","1000.8000001907349","<p> Welcome! Please remember to stay in fullscreen mode and don't click away from the experiment. </p>","","instructions","","","","","","","","","","","","","",""
"learning-instructions","5","89779","0.0-3.0-1.0-0.1","spark_pilot_2","7395","3","16","Male","","","","","","","1636.5","<p> Today you will be playing a game to earn treasure. </p>
            <p> At the end of the experiment, you will earn a bonus based on how much treasure you find. </p>
            <img src='./assets/img/instructions/treasure.jpg' class='instructions-image'>","","instructions","","","","","","","","","","","","","",""
"learning-instructions","6","101219","0.0-3.0-1.0-0.2","spark_pilot_2","7395","3","16","Male","","","","","","","3116","<p> Animals have hidden treasure in treasure chests. </p>
            <p> You need to first find an animal and then choose which of their treasure chests to search. </p>
            <img src='./assets/img/space/animals/cat.jpg' class='instructions-image'>","","instructions","","","","","","","","","","","","","",""
"learning-instructions","7","115023","0.0-3.0-1.0-0.3","spark_pilot_2","7395","3","16","Male","","","","","","","640","<p> In each round, you will search for treasure in a different place. In the real game, there will be two rounds. </p>
            <p> You will begin with a separate, practice round where you will search for treasure in outer space. </p>
            <img src='./assets/img/space/0.jpg' class='instructions-image'>","","instructions","","","","","","","","","","","","","",""
"learning-instructions","8","127010","0.0-3.0-1.0-0.4","spark_pilot_2","7395","3","16","Male","","","","","","","508.40000009536743","<p> On every turn, you will see a picture of the place that you are in, but the specific image may be different each time. </p>
            <p> For example, both of these images mean you are in outer space. </p>
            <img src='./assets/img/instructions/outerspace.jpg' class='instructions-image'>","","instructions","","","","","","","","","","","","","",""
"learning-instructions","9","137225","0.0-3.0-1.0-0.5","spark_pilot_2","7395","3","16","Male","","","","","","","2369.7000000476837","<p> You need to decide which direction to travel in. </p>
            <p> You can choose between going <b>up or down</b> by using the arrow keys. </p>
            <img src='./assets/img/instructions/updown.jpg' class='instructions-image'>","","instructions","","","","","","","","","","","","","",""
"learning-instructions","10","146883","0.0-3.0-1.0-0.6","spark_pilot_2","7395","3","16","Male","","","","","","","830.8999998569489","<p> You will have <b>2 seconds</b> to make your choice. </p>
            <p> If you do not make a choice within 2 seconds, you will not find an animal or earn treasure. </p>
            <img src='./assets/img/instructions/2seconds.jpg' class='instructions-image'>","","instructions","","","","","","","","","","","","","",""
"learning-instructions","11","155235","0.0-3.0-1.0-0.7","spark_pilot_2","7395","3","16","Male","","","","","","","1311.5","<p> Let’s try practicing that now! </p>
            <p> When you see a picture of the place you are in, press the <b>up</b> key to travel up. </p>
            <img src='./assets/img/instructions/pressUp.jpg' class='instructions-image'>","","instructions","","","","","","","","","","","","","",""
"revaluation","12","159261","0.0-3.0-2.0-0.0","spark_pilot_2","7395","3","16","Male","","","true","","","","[]","./assets/img/space/0.jpg","[]","first stage practice","space","-5","null","null","","false","","","","","","","",""
"html-keyboard-response","13","159780","0.0-3.0-2.0-1.0","spark_pilot_2","7395","3","16","Male","","","","","","","null","<div style=""font-size:60px;"">+</div>","null","fixation","","","","","","","","","","","","","",""
"revaluation","14","163812","0.0-3.0-2.0-0.1","spark_pilot_2","7395","3","16","Male","","","false","","","","[888.2000000476837]","./assets/img/space/1.jpg","[""ArrowUp""]","first stage practice","space","0","null","null","ArrowUp","false","","","","","","","",""
"html-keyboard-response","15","164330","0.0-3.0-2.0-1.1","spark_pilot_2","7395","3","16","Male","","","","","","","null","<div style=""font-size:60px;"">+</div>","null","fixation","","","","","","","","","","","","","",""
"revaluation","16","168351","0.0-3.0-2.0-0.2","spark_pilot_2","7395","3","16","Male","","","false","","","","[1847.5999999046326]","./assets/img/space/2.jpg","[""ArrowUp""]","first stage practice","space","0","null","null","ArrowUp","false","","","","","","","",""
"html-keyboard-response","17","168860","0.0-3.0-2.0-1.2","spark_pilot_2","7395","3","16","Male","","","","","","","null","<div style=""font-size:60px;"">+</div>","null","fixation","","","","","","","","","","","","","",""
"learning-instructions","18","175195","0.0-3.0-3.0-0.0","spark_pilot_2","7395","3","16","Male","","","","","","","1611.5","<p> Great job! Now try pressing the <b>down</b> key to travel down. </p>
            <img src='./assets/img/instructions/pressDown.jpg' class='instructions-image'>","","instructions","","","","","","","","","","","","","",""
"revaluation","19","179220","0.0-3.0-4.0-0.0","spark_pilot_2","7395","3","16","Male","","","false","","","","[630.0999999046326]","./assets/img/space/3.jpg","[""ArrowDown""]","first stage practice","space","0","null","null","ArrowDown","false","","","","","","","",""
"html-keyboard-response","20","179730","0.0-3.0-4.0-1.0","spark_pilot_2","7395","3","16","Male","","","","","","","null","<div style=""font-size:60px;"">+</div>","null","fixation","","","","","","","","","","","","","",""
"revaluation","21","183761","0.0-3.0-4.0-0.1","spark_pilot_2","7395","3","16","Male","","","false","","","","[599.2000000476837]","./assets/img/space/4.jpg","[""ArrowDown""]","first stage practice","space","0","null","null","ArrowDown","false","","","","","","","",""
"html-keyboard-response","22","184271","0.0-3.0-4.0-1.1","spark_pilot_2","7395","3","16","Male","","","","","","","null","<div style=""font-size:60px;"">+</div>","null","fixation","","","","","","","","","","","","","",""
"revaluation","23","188291","0.0-3.0-4.0-0.2","spark_pilot_2","7395","3","16","Male","","","false","","","","[538.7000000476837]","./assets/img/space/5.jpg","[""ArrowDown""]","first stage practice","space","0","null","null","ArrowDown","false","","","","","","","",""
"html-keyboard-response","24","188793","0.0-3.0-4.0-1.2","spark_pilot_2","7395","3","16","Male","","","","","","","null","<div style=""font-size:60px;"">+</div>","null","fixation","","","","","","","","","","","","","",""
"learning-instructions","25","200017","0.0-3.0-5.0-0.0","spark_pilot_2","7395","3","16","Male","","","","","","","1313.1000001430511","<p> The animals don’t move, so the animal in the upper part of a place will stay in the upper part of a place, and the animal in the lower part of a place will stay in the lower part of a place. </p>","","instructions","","","","","","","","","","","","","",""
"learning-instructions","26","211701","0.0-3.0-5.0-0.1","spark_pilot_2","7395","3","16","Male","","","","","","","2489.100000143051","<p> Each animal has two treasure chests for you to choose from. </p>
            <p> The amount of treasure in each chest can range from <b> 0 to 40 pieces.</b></p>","","instructions","","","","","","","","","","","","","",""
"learning-instructions","27","223451","0.0-3.0-5.0-0.2","spark_pilot_2","7395","3","16","Male","","","","","","","487.09999990463257","<p> You should decide which chest to search for treasure by using the <b>left</b> and <b>right</b> arrow keys. </p>
            <p><b> Pay attention to which animal is on the screen, as the animals have different treasure chests. </b></p>
            <img src='./assets/img/instructions/leftright.jpg' class='instructions-image'>","","instructions","","","","","","","","","","","","","",""
"learning-instructions","28","230929","0.0-3.0-5.0-0.3","spark_pilot_2","7395","3","16","Male","","","","","","","1115.0999999046326","<p> Let’s try practicing that now. </p>
            <p> When you see an animal, choose which chest to search for treasure. </p>
            <img src='./assets/img/instructions/chooseChest.jpg' class='instructions-image'>","","instructions","","","","","","","","","","","","","",""
"revaluation","29","234968","0.0-3.0-6.0-0.0","spark_pilot_2","7395","3","16","Male","","","false","","","","[1029.1000001430511]","./assets/img/space/animals/cat.jpg","[""ArrowRight""]","second stage practice","space","36","{""ArrowUp,ArrowLeft"":3,""ArrowUp,ArrowRight"":36,""ArrowDown,ArrowLeft"":15,""ArrowDown,ArrowRight"":23}","true","ArrowUp,ArrowRight","","","","","","","","",""
"html-keyboard-response","30","235480","0.0-3.0-6.0-1.0","spark_pilot_2","7395","3","16","Male","","","","","","","null","<div style=""font-size:60px;"">+</div>","null","fixation","","","","","","","","","","","","","",""
"revaluation","31","239514","0.0-3.0-6.0-0.1","spark_pilot_2","7395","3","16","Male","","","false","","","","[1930.5]","./assets/img/space/animals/rabbit.jpg","[""ArrowLeft""]","second stage practice","space","15","{""ArrowUp,ArrowLeft"":3,""ArrowUp,ArrowRight"":36,""ArrowDown,ArrowLeft"":15,""ArrowDown,ArrowRight"":23}","false","ArrowDown,ArrowLeft","","","","","","","","",""
"html-keyboard-response","32","240035","0.0-3.0-6.0-1.1","spark_pilot_2","7395","3","16","Male","","","","","","","null","<div style=""font-size:60px;"">+</div>","null","fixation","","","","","","","","","","","","","",""
"revaluation","33","244061","0.0-3.0-6.0-0.2","spark_pilot_2","7395","3","16","Male","","","false","","","","[462]","./assets/img/space/animals/rabbit.jpg","[""ArrowRight""]","second stage practice","space","23","{""ArrowUp,ArrowLeft"":3,""ArrowUp,ArrowRight"":36,""ArrowDown,ArrowLeft"":15,""ArrowDown,ArrowRight"":23}","true","ArrowDown,ArrowRight","","","","","","","","",""
"html-keyboard-response","34","244580","0.0-3.0-6.0-1.2","spark_pilot_2","7395","3","16","Male","","","","","","","null","<div style=""font-size:60px;"">+</div>","null","fixation","","","","","","","","","","","","","",""
"revaluation","35","248621","0.0-3.0-6.0-0.3","spark_pilot_2","7395","3","16","Male","","","false","","","","[867.5]","./assets/img/space/animals/cat.jpg","[""ArrowRight""]","second stage practice","space","36","{""ArrowUp,ArrowLeft"":3,""ArrowUp,ArrowRight"":36,""ArrowDown,ArrowLeft"":15,""ArrowDown,ArrowRight"":23}","true","ArrowUp,ArrowRight","","","","","","","","",""
"html-keyboard-response","36","249130","0.0-3.0-6.0-1.3","spark_pilot_2","7395","3","16","Male","","","","","","","null","<div style=""font-size:60px;"">+</div>","null","fixation","","","","","","","","","","","","","",""
"learning-instructions","37","267793","0.0-3.0-7.0-0.0","spark_pilot_2","7395","3","16","Male","","","","","","","1820.5","<p> Great job. Now let’s try putting it together. </p>
            <p> On each turn, you will first see a picture to remind you of the place you are in, and you need to choose whether to go up or down. </p>
            <p> Then you will see an animal and choose which of its chests to search for treasure. </p>","","instructions","","","","","","","","","","","","","",""
"learning-instructions","38","277687","0.0-3.0-7.0-0.1","spark_pilot_2","7395","3","16","Male","","","","","","","1623","<p> When you choose whether to go up or down, try to go to the animal with the chest with the most treasure. </p>
            <p> Try practicing that now! </p>","","instructions","","","","","","","","","","","","","",""
"revaluation","39","283711","0.0-3.0-8.0-0.0","spark_pilot_2","7395","3","16","Male","","","false","","","","[1590.9000000953674,499.40000009536743]","./assets/img/space/6.jpg","[""ArrowUp"",""ArrowRight""]","full practice","space","36","{""ArrowUp,ArrowLeft"":3,""ArrowUp,ArrowRight"":36,""ArrowDown,ArrowLeft"":15,""ArrowDown,ArrowRight"":23}","true","ArrowUp,ArrowRight","false","","","","","","","",""
"html-keyboard-response","40","284230","0.0-3.0-8.0-1.0","spark_pilot_2","7395","3","16","Male","","","","","","","null","<div style=""font-size:60px;"">+</div>","null","fixation","","","","","","","","","","","","","",""
"revaluation","41","290260","0.0-3.0-8.0-0.1","spark_pilot_2","7395","3","16","Male","","","false","","","","[361.2999999523163,321.59999990463257]","./assets/img/space/7.jpg","[""ArrowDown"",""ArrowRight""]","full practice","space","23","{""ArrowUp,ArrowLeft"":3,""ArrowUp,ArrowRight"":36,""ArrowDown,ArrowLeft"":15,""ArrowDown,ArrowRight"":23}","false","ArrowDown,ArrowRight","false","","","","","","","",""
"html-keyboard-response","42","290780","0.0-3.0-8.0-1.1","spark_pilot_2","7395","3","16","Male","","","","","","","null","<div style=""font-size:60px;"">+</div>","null","fixation","","","","","","","","","","","","","",""
"revaluation","43","296816","0.0-3.0-8.0-0.2","spark_pilot_2","7395","3","16","Male","","","false","","","","[551.5,376.2999999523163]","./assets/img/space/8.jpg","[""ArrowUp"",""ArrowRight""]","full practice","space","36","{""ArrowUp,ArrowLeft"":3,""ArrowUp,ArrowRight"":36,""ArrowDown,ArrowLeft"":15,""ArrowDown,ArrowRight"":23}","true","ArrowUp,ArrowRight","false","","","","","","","",""
"html-keyboard-response","44","297340","0.0-3.0-8.0-1.2","spark_pilot_2","7395","3","16","Male","","","","","","","null","<div style=""font-size:60px;"">+</div>","null","fixation","","","","","","","","","","","","","",""
"revaluation","45","303392","0.0-3.0-8.0-0.3","spark_pilot_2","7395","3","16","Male","","","false","","","","[390.5,339.2000000476837]","./assets/img/space/9.jpg","[""ArrowDown"",""ArrowLeft""]","full practice","space","15","{""ArrowUp,ArrowLeft"":3,""ArrowUp,ArrowRight"":36,""ArrowDown,ArrowLeft"":15,""ArrowDown,ArrowRight"":23}","false","ArrowDown,ArrowLeft","false","","","","","","","",""
"html-keyboard-response","46","303901","0.0-3.0-8.0-1.3","spark_pilot_2","7395","3","16","Male","","","","","","","null","<div style=""font-size:60px;"">+</div>","null","fixation","","","","","","","","","","","","","",""
"revaluation","47","309912","0.0-3.0-8.0-0.4","spark_pilot_2","7395","3","16","Male","","","false","","","","[312.40000009536743,499.40000009536743]","./assets/img/space/10.jpg","[""ArrowUp"",""ArrowRight""]","full practice","space","36","{""ArrowUp,ArrowLeft"":3,""ArrowUp,ArrowRight"":36,""ArrowDown,ArrowLeft"":15,""ArrowDown,ArrowRight"":23}","true","ArrowUp,ArrowRight","false","","","","","","","",""
"html-keyboard-response","48","310414","0.0-3.0-8.0-1.4","spark_pilot_2","7395","3","16","Male","","","","","","","null","<div style=""font-size:60px;"">+</div>","null","fixation","","","","","","","","","","","","","",""
"learning-instructions","49","324843","0.0-3.0-9.0-0.0","spark_pilot_2","7395","3","16","Male","","","","","","","1939.7000000476837","<p> One last thing: sometimes, you will see a robber. The robber can be anywhere in the picture. </p>
            <p> If you do not stop them, you will lose treasure. </p>
            <img src='./assets/img/instructions/robber.jpg' class='instructions-image'>","","instructions","","","","","","","","","","","","","",""
"learning-instructions","50","333016","0.0-3.0-9.0-0.1","spark_pilot_2","7395","3","16","Male","","","","","","","1003.4000000953674","<p> If you see the robber, you should <b>press the space bar</b> rather than using the arrow keys. </p>
            <p> Try practicing that now! </p>","","instructions","","","","","","","","","","","","","",""
"revaluation","51","337041","0.0-3.0-10.0-0.0","spark_pilot_2","7395","3","16","Male","","","false","","","","[910.5]","./assets/img/space/catch/0.jpg","[""spaceBar""]","catch practice","space","0","{""ArrowUp,ArrowLeft"":3,""ArrowUp,ArrowRight"":36,""ArrowDown,ArrowLeft"":15,""ArrowDown,ArrowRight"":23}","true","spaceBar","true","","","","","","","",""
"html-keyboard-response","52","337560","0.0-3.0-10.0-1.0","spark_pilot_2","7395","3","16","Male","","","","","","","null","<div style=""font-size:60px;"">+</div>","null","fixation","","","","","","","","","","","","","",""
"revaluation","53","341580","0.0-3.0-10.0-0.1","spark_pilot_2","7395","3","16","Male","","","false","","","","[751.9000000953674]","./assets/img/space/catch/1.jpg","[""spaceBar""]","catch practice","space","0","{""ArrowUp,ArrowLeft"":3,""ArrowUp,ArrowRight"":36,""ArrowDown,ArrowLeft"":15,""ArrowDown,ArrowRight"":23}","true","spaceBar","true","","","","","","","",""
"html-keyboard-response","54","342090","0.0-3.0-10.0-1.1","spark_pilot_2","7395","3","16","Male","","","","","","","null","<div style=""font-size:60px;"">+</div>","null","fixation","","","","","","","","","","","","","",""
"revaluation","55","346110","0.0-3.0-10.0-0.2","spark_pilot_2","7395","3","16","Male","","","false","","","","[613.8999998569489]","./assets/img/space/catch/2.jpg","[""spaceBar""]","catch practice","space","0","{""ArrowUp,ArrowLeft"":3,""ArrowUp,ArrowRight"":36,""ArrowDown,ArrowLeft"":15,""ArrowDown,ArrowRight"":23}","true","spaceBar","true","","","","","","","",""
"html-keyboard-response","56","346613","0.0-3.0-10.0-1.2","spark_pilot_2","7395","3","16","Male","","","","","","","null","<div style=""font-size:60px;"">+</div>","null","fixation","","","","","","","","","","","","","",""
"learning-instructions","57","361821","0.0-3.0-11.0-0.0","spark_pilot_2","7395","3","16","Male","","","","","","","1577.5","<p> After you explore a place to find treasure, it will be time to play a different game. </p>
            <p> During this game, red dots will appear on the screen and fall down slowly. </p>
            <p><b> You must click on them before they reach the bottom. </b></p>
            <img src='./assets/img/instructions/dotGame.jpg' class='instructions-image'>","","instructions","","","","","","","","","","","","","",""
"learning-instructions","58","368427","0.0-3.0-11.0-0.1","spark_pilot_2","7395","3","16","Male","","","","","","","935","<p> For every dot you click, you will earn additional treasure. </p>
            <p> Let’s try practicing that now. </p>","","instructions","","","","","","","","","","","","","",""
"revaluation","59","383436","0.0-3.0-12.0-0.0","spark_pilot_2","7395","3","16","Male","","","","","","","[95]","","","rest practice","","10","","","","","0","15000","","","","","",""
"learning-instructions","60","389693","0.0-3.0-13.0-0.0-0.0","spark_pilot_2","7395","3","16","Male","","","","","","","1000.5999999046326","<p> Now, you will practice a shortened version of the game to get a sense of how it all fits together. </p>","","instructions","","","","","","","","","","","","","",""
"learning-instructions","61","393921","0.0-3.0-13.0-0.0-0.1","spark_pilot_2","7395","3","16","Male","","","","","","","1037.2999999523163","<p>This time you are searching for treasure in outer space.</p>","","instructions","","","","","","","","","","","","","",""
"learning-instructions","62","411037","0.0-3.0-13.0-1.0-0.0","spark_pilot_2","7395","3","16","Male","","","","","","","2284","<p> Remember, when you see a picture of the place, use the up and down keys to <b>find an animal</b>.</p>
            <p> When you encounter an animal, you should use the left and right keys to <b>select a treasure chest</b>.</p>
            <p> Don't forget to look out for the robber! </p>","","instructions","","","","","","","","","","","","","",""
"revaluation","63","417101","0.0-3.0-13.0-2.0-0.0","spark_pilot_2","7395","3","16","Male","","","false","","","","[969.7999999523163,478]","./assets/img/space/11.jpg","[""ArrowUp"",""ArrowRight""]","practice block","space","36","{""ArrowUp,ArrowLeft"":3,""ArrowUp,ArrowRight"":36,""ArrowDown,ArrowLeft"":15,""ArrowDown,ArrowRight"":23}","true","ArrowUp,ArrowRight","false","","","","","","","",""
"html-keyboard-response","64","417611","0.0-3.0-13.0-2.0-1.0","spark_pilot_2","7395","3","16","Male","","","","","","","null","<div style=""font-size:60px;"">+</div>","null","fixation","","","","","","","","","","","","","",""
"revaluation","65","423652","0.0-3.0-13.0-2.0-0.1","spark_pilot_2","7395","3","16","Male","","","false","","","","[785.3999998569489,1242.2999999523163]","./assets/img/space/12.jpg","[""ArrowDown"",""ArrowRight""]","practice block","space","23","{""ArrowUp,ArrowLeft"":3,""ArrowUp,ArrowRight"":36,""ArrowDown,ArrowLeft"":15,""ArrowDown,ArrowRight"":23}","false","ArrowDown,ArrowRight","false","","","","","","","",""
"html-keyboard-response","66","424171","0.0-3.0-13.0-2.0-1.1","spark_pilot_2","7395","3","16","Male","","","","","","","null","<div style=""font-size:60px;"">+</div>","null","fixation","","","","","","","","","","","","","",""
"revaluation","67","430211","0.0-3.0-13.0-2.0-0.2","spark_pilot_2","7395","3","16","Male","","","false","","","","[1049.9000000953674,600.5]","./assets/img/space/13.jpg","[""ArrowUp"",""ArrowRight""]","practice block","space","36","{""ArrowUp,ArrowLeft"":3,""ArrowUp,ArrowRight"":36,""ArrowDown,ArrowLeft"":15,""ArrowDown,ArrowRight"":23}","true","ArrowUp,ArrowRight","false","","","","","","","",""
"html-keyboard-response","68","430730","0.0-3.0-13.0-2.0-1.2","spark_pilot_2","7395","3","16","Male","","","","","","","null","<div style=""font-size:60px;"">+</div>","null","fixation","","","","","","","","","","","","","",""
"revaluation","69","436770","0.0-3.0-13.0-2.0-0.3","spark_pilot_2","7395","3","16","Male","","","false","","","","[1428.0999999046326,618.7000000476837]","./assets/img/space/14.jpg","[""ArrowDown"",""ArrowRight""]","practice block","space","23","{""ArrowUp,ArrowLeft"":3,""ArrowUp,ArrowRight"":36,""ArrowDown,ArrowLeft"":15,""ArrowDown,ArrowRight"":23}","false","ArrowDown,ArrowRight","false","","","","","","","",""
"html-keyboard-response","70","437280","0.0-3.0-13.0-2.0-1.3","spark_pilot_2","7395","3","16","Male","","","","","","","null","<div style=""font-size:60px;"">+</div>","null","fixation","","","","","","","","","","","","","",""
"revaluation","71","443287","0.0-3.0-13.0-2.0-0.4","spark_pilot_2","7395","3","16","Male","","","false","","","","[1068.2999999523163,803]","./assets/img/space/11.jpg","[""ArrowUp"",""ArrowRight""]","practice block","space","36","{""ArrowUp,ArrowLeft"":3,""ArrowUp,ArrowRight"":36,""ArrowDown,ArrowLeft"":15,""ArrowDown,ArrowRight"":23}","true","ArrowUp,ArrowRight","false","","","","","","","",""
"html-keyboard-response","72","443792","0.0-3.0-13.0-2.0-1.4","spark_pilot_2","7395","3","16","Male","","","","","","","null","<div style=""font-size:60px;"">+</div>","null","fixation","","","","","","","","","","","","","",""
"revaluation","73","449805","0.0-3.0-13.0-2.0-0.5","spark_pilot_2","7395","3","16","Male","","","false","","","","[1223.7999999523163,537.3000001907349]","./assets/img/space/12.jpg","[""ArrowDown"",""ArrowRight""]","practice block","space","23","{""ArrowUp,ArrowLeft"":3,""ArrowUp,ArrowRight"":36,""ArrowDown,ArrowLeft"":15,""ArrowDown,ArrowRight"":23}","false","ArrowDown,ArrowRight","false","","","","","","","",""
"html-keyboard-response","74","450307","0.0-3.0-13.0-2.0-1.5","spark_pilot_2","7395","3","16","Male","","","","","","","null","<div style=""font-size:60px;"">+</div>","null","fixation","","","","","","","","","","","","","",""
"revaluation","75","456317","0.0-3.0-13.0-2.0-0.6","spark_pilot_2","7395","3","16","Male","","","false","","","","[1461.2999999523163,429.2999999523163]","./assets/img/space/13.jpg","[""ArrowUp"",""ArrowRight""]","practice block","space","36","{""ArrowUp,ArrowLeft"":3,""ArrowUp,ArrowRight"":36,""ArrowDown,ArrowLeft"":15,""ArrowDown,ArrowRight"":23}","true","ArrowUp,ArrowRight","false","","","","","","","",""
"html-keyboard-response","76","456819","0.0-3.0-13.0-2.0-1.6","spark_pilot_2","7395","3","16","Male","","","","","","","null","<div style=""font-size:60px;"">+</div>","null","fixation","","","","","","","","","","","","","",""
"revaluation","77","462828","0.0-3.0-13.0-2.0-0.7","spark_pilot_2","7395","3","16","Male","","","false","","","","[984.4000000953674,372.39999985694885]","./assets/img/space/14.jpg","[""ArrowUp"",""ArrowRight""]","practice block","space","36","{""ArrowUp,ArrowLeft"":3,""ArrowUp,ArrowRight"":36,""ArrowDown,ArrowLeft"":15,""ArrowDown,ArrowRight"":23}","true","ArrowUp,ArrowRight","false","","","","","","","",""
"html-keyboard-response","78","463330","0.0-3.0-13.0-2.0-1.7","spark_pilot_2","7395","3","16","Male","","","","","","","null","<div style=""font-size:60px;"">+</div>","null","fixation","","","","","","","","","","","","","",""
"revaluation","79","467338","0.0-3.0-13.0-2.0-0.8","spark_pilot_2","7395","3","16","Male","","","false","","","","[1089.5999999046326]","./assets/img/space/catch/3.jpg","[""spaceBar""]","practice block","space","0","{""ArrowUp,ArrowLeft"":3,""ArrowUp,ArrowRight"":36,""ArrowDown,ArrowLeft"":15,""ArrowDown,ArrowRight"":23}","true","spaceBar","true","","","","","","","",""
"html-keyboard-response","80","467839","0.0-3.0-13.0-2.0-1.8","spark_pilot_2","7395","3","16","Male","","","","","","","null","<div style=""font-size:60px;"">+</div>","null","fixation","","","","","","","","","","","","","",""
"learning-instructions","81","483063","0.0-3.0-13.0-3.0-0.0","spark_pilot_2","7395","3","16","Male","","","","","","","2269.699999809265","<p> Now, you will travel with a friend who will choose whether you go up or down first. </p>
            <p> On these turns, you will just see the animal that they found. You will still get to choose which chest to search for treasure.</p>","","instructions","","","","","","","","","","","","","",""
"revaluation","82","487091","0.0-3.0-13.0-4.0-0.0","spark_pilot_2","7395","3","16","Male","","","false","","","","[1398.7999999523163]","./assets/img/space/animals/rabbit.jpg","[""ArrowRight""]","practice block","space","23","{""ArrowUp,ArrowLeft"":3,""ArrowUp,ArrowRight"":36,""ArrowDown,ArrowLeft"":15,""ArrowDown,ArrowRight"":23}","true","ArrowDown,ArrowRight","","","","","","","","",""
"html-keyboard-response","83","487610","0.0-3.0-13.0-4.0-1.0","spark_pilot_2","7395","3","16","Male","","","","","","","null","<div style=""font-size:60px;"">+</div>","null","fixation","","","","","","","","","","","","","",""
"revaluation","84","491621","0.0-3.0-13.0-4.0-0.1","spark_pilot_2","7395","3","16","Male","","","false","","","","[765.2999999523163]","./assets/img/space/animals/cat.jpg","[""ArrowRight""]","practice block","space","36","{""ArrowUp,ArrowLeft"":3,""ArrowUp,ArrowRight"":36,""ArrowDown,ArrowLeft"":15,""ArrowDown,ArrowRight"":23}","true","ArrowUp,ArrowRight","","","","","","","","",""
"html-keyboard-response","85","492140","0.0-3.0-13.0-4.0-1.1","spark_pilot_2","7395","3","16","Male","","","","","","","null","<div style=""font-size:60px;"">+</div>","null","fixation","","","","","","","","","","","","","",""
"revaluation","86","496161","0.0-3.0-13.0-4.0-0.2","spark_pilot_2","7395","3","16","Male","","","false","","","","[515.8999998569489]","./assets/img/space/animals/cat.jpg","[""ArrowRight""]","practice block","space","36","{""ArrowUp,ArrowLeft"":3,""ArrowUp,ArrowRight"":36,""ArrowDown,ArrowLeft"":15,""ArrowDown,ArrowRight"":23}","true","ArrowUp,ArrowRight","","","","","","","","",""
"html-keyboard-response","87","496670","0.0-3.0-13.0-4.0-1.2","spark_pilot_2","7395","3","16","Male","","","","","","","null","<div style=""font-size:60px;"">+</div>","null","fixation","","","","","","","","","","","","","",""
"revaluation","88","500711","0.0-3.0-13.0-4.0-0.3","spark_pilot_2","7395","3","16","Male","","","false","","","","[413]","./assets/img/space/animals/rabbit.jpg","[""ArrowRight""]","practice block","space","23","{""ArrowUp,ArrowLeft"":3,""ArrowUp,ArrowRight"":36,""ArrowDown,ArrowLeft"":15,""ArrowDown,ArrowRight"":23}","true","ArrowDown,ArrowRight","","","","","","","","",""
"html-keyboard-response","89","501220","0.0-3.0-13.0-4.0-1.3","spark_pilot_2","7395","3","16","Male","","","","","","","null","<div style=""font-size:60px;"">+</div>","null","fixation","","","","","","","","","","","","","",""
"learning-instructions","90","509825","0.0-3.0-13.0-5.0-0.0","spark_pilot_2","7395","3","16","Male","","","","","","","1222.7999999523163","<p> Time to play the dot game! </p>
            <p> For 15 seconds, click the red dots on the following screen as they appear. </p>","","instructions","","","","","","","","","","","","","",""
"revaluation","91","524827","0.0-3.0-13.0-6.0-0.0","spark_pilot_2","7395","3","16","Male","","","","","","","[76]","","","rest practice","","10","","","","","0","15000","","","","","",""
"learning-instructions","92","531769","0.0-3.0-13.0-7.0-0.0","spark_pilot_2","7395","3","16","Male","","","","","","","805.4000000953674","<p> You have almost finished this part of the game! </p>
            <p> We are going to ask you to make a few more choices. </p>","","instructions","","","","","","","","","","","","","",""
"learning-instructions","93","546783","0.0-3.0-13.0-7.0-0.1","spark_pilot_2","7395","3","16","Male","","","","","","","999.1000001430511","<p> First, you need to decide whether to go up or down. When you see each picture, use the arrow keys to make your choice. </p>
            <p><b>You will not see which animal you found, but try to get to the one that will give you the most treasure.</b></p>","","instructions","","","","","","","","","","","","","",""
"revaluation","94","547690","0.0-3.0-13.0-8.0","spark_pilot_2","7395","3","16","Male","","","false","","","","[903.9000000953674]","./assets/img/space/15.jpg","[""ArrowUp""]","practice block","space","0","{""ArrowUp,ArrowLeft"":3,""ArrowUp,ArrowRight"":36,""ArrowDown,ArrowLeft"":15,""ArrowDown,ArrowRight"":23}","true","ArrowUp","false","","","","","","","",""
"html-keyboard-response","95","548210","0.0-3.0-13.0-9.0","spark_pilot_2","7395","3","16","Male","","","","","","","null","<div style=""font-size:60px;"">+</div>","null","fixation","","","","","","","","","","","","","",""
"learning-instructions","96","560515","0.0-3.0-13.0-10.0-0.0","spark_pilot_2","7395","3","16","Male","","","","","","","840.7000000476837","<p> Now you will see the animals again and can search their chests for treasure. </p>
            <p> This time, you will not see how much treasure you earned, but you will earn more bonus money for making better choices. </p>","","instructions","","","","","","","","","","","","","",""
"revaluation","97","561590","0.0-3.0-13.0-11.0-0.0","spark_pilot_2","7395","3","16","Male","","","false","","","","[1072.7999999523163]","./assets/img/space/animals/cat.jpg","[""ArrowRight""]","practice block","space","0","{""ArrowUp,ArrowLeft"":3,""ArrowUp,ArrowRight"":36,""ArrowDown,ArrowLeft"":15,""ArrowDown,ArrowRight"":23}","true","ArrowUp,ArrowRight","","","","","","","","",""
"html-keyboard-response","98","562111","0.0-3.0-13.0-11.0-1.0","spark_pilot_2","7395","3","16","Male","","","","","","","null","<div style=""font-size:60px;"">+</div>","null","fixation","","","","","","","","","","","","","",""
"revaluation","99","563168","0.0-3.0-13.0-11.0-0.1","spark_pilot_2","7395","3","16","Male","","","false","","","","[1051.5]","./assets/img/space/animals/rabbit.jpg","[""ArrowRight""]","practice block","space","0","{""ArrowUp,ArrowLeft"":3,""ArrowUp,ArrowRight"":36,""ArrowDown,ArrowLeft"":15,""ArrowDown,ArrowRight"":23}","true","ArrowDown,ArrowRight","","","","","","","","",""
"html-keyboard-response","100","563671","0.0-3.0-13.0-11.0-1.1","spark_pilot_2","7395","3","16","Male","","","","","","","null","<div style=""font-size:60px;"">+</div>","null","fixation","","","","","","","","","","","","","",""
"learning-instructions","101","568853","0.0-3.0-14.0-0.0","spark_pilot_2","7395","3","16","Male","","","","","","","590.5999999046326","<p> Before you start, we're going to ask you a few questions about how the game works. </p>","","instructions","","","","","","","","","","","","","",""
"comp-q","102","575490","0.0-3.0-15.0-0.0-0.0","spark_pilot_2","7395","3","16","Male","","","","","","","1050.7000000476837","<p> <b> True or False? </b> </p>
            <p> There can be 50 pieces of treasure in a given animal's chest. </p>","1","comp_question","","","","true","","","","","","","","","",""
"comp-q","103","583907","0.0-3.0-15.0-0.0-1.0","spark_pilot_2","7395","3","16","Male","","","","","","","1754.2000000476837","<p> <b> That's right! </b> The amount of treasure in each chest can range from 0 to 40 pieces. </p>","0","comp_answer","","","","","","","","","","","","","",""
"comp-q","104","591843","0.0-3.0-15.0-0.1-0.1","spark_pilot_2","7395","3","16","Male","","","","","","","821","<p> <b> True or False? </b> </p><p> In this game, all animals have the same amount of treasure in their left and right chests. </p>","1","comp_question","","","","true","","","","","","","","","",""
"comp-q","105","598590","0.0-3.0-15.0-0.1-1.1","spark_pilot_2","7395","3","16","Male","","","","","","","1516","<p> <b> That's right! </b> Animals have different amounts of treasure in their treasure chests. </p>","0","comp_answer","","","","","","","","","","","","","",""
"comp-q","106","605069","0.0-3.0-15.0-0.2-0.2","spark_pilot_2","7395","3","16","Male","","","","","","","635.2000000476837","<p> <b> True or False? </b> </p><p> The same animal will always be there if you go up in the same place. </p>","0","comp_question","","","","true","","","","","","","","","",""
"comp-q","107","612315","0.0-3.0-15.0-0.2-1.2","spark_pilot_2","7395","3","16","Male","","","","","","","801","<p> <b> That's right! </b> One animal lives in the upper part and one lives in the lower part of every place. </p>","0","comp_answer","","","","","","","","","","","","","",""
"comp-q","108","618873","0.0-3.0-15.0-0.3-0.3","spark_pilot_2","7395","3","16","Male","","","","","","","1040","<p> <b> True or False? </b> </p><p> If you see a different picture, it means you are in a new place. </p>","1","comp_question","","","","true","","","","","","","","","",""
"comp-q","109","630679","0.0-3.0-15.0-0.3-1.3","spark_pilot_2","7395","3","16","Male","","","","","","","405.39999985694885","<p> <b> That's right! </b> Lots of different images may show the same place. For example,  you may see three different images that all remind you that you are in outer space. </p>","0","comp_answer","","","","","","","","","","","","","",""
"learning-instructions","110","642175","0.0-3.0-16.0-0.0","spark_pilot_2","7395","3","16","Male","","","","","","","1581.0999999046326","<p> Good job. Remember to do your best because the amount of treasure you earn will be converted into bonus money. </p>
            <p> It’s time to start the real game! </p>","","instructions","","","","","","","","","","","","","",""
"learning-instructions","111","645477","0.0-4.0-0.0-0.0","spark_pilot_2","7395","3","16","Male","","","","","","","592.6000001430511","<p> This time you are searching for treasure in the <b>ocean</b>.</p>","","instructions","","","","","","","","","","","","","",""
"learning-instructions","112","663848","0.0-4.0-0.0-0.1","spark_pilot_2","7395","3","16","Male","","","","","","","1015.5","<p><b>New</b> animals with <b>new</b> treasure chests live here. You need to explore to discover where the animal with the best treasure chest is.</p>
                    <p> Like before, once you figure out which animal has the chest with the most treasure, you should try to get to that animal and select that chest! </p>","","instructions","","","","","","","","","","","","","",""
"learning-instructions","113","679631","0.0-4.0-1.0-0.0","spark_pilot_2","7395","3","16","Male","","","","","","","1047.7000000476837","<p> Remember, when you see a picture of the place, use the up and down keys to <b>find an animal</b>.</p>
            <p> When you encounter an animal, you should use the left and right keys to <b>select a treasure chest</b>.</p>
            <p> Don't forget to look out for the robber! </p>","","instructions","","","","","","","","","","","","","",""
"revaluation","114","685681","0.0-4.0-2.0-0.0","spark_pilot_2","7395","3","16","Male","","","false","","","","[1134.4000000953674,626.7999999523163]","./assets/img/ocean/memory/2.jpg","[""ArrowUp"",""ArrowRight""]","value training","ocean","10","{""ArrowUp,ArrowLeft"":23,""ArrowUp,ArrowRight"":10,""ArrowDown,ArrowLeft"":8,""ArrowDown,ArrowRight"":30}","false","ArrowUp,ArrowRight","false","","","original","1","0","","",""
"html-keyboard-response","115","686201","0.0-4.0-2.0-1.0","spark_pilot_2","7395","3","16","Male","","","","","","","null","<div style=""font-size:60px;"">+</div>","null","fixation","","","","","","","","","","","1","","",""
"revaluation","116","692231","0.0-4.0-2.0-0.1","spark_pilot_2","7395","3","16","Male","","","false","","","","[348.2000000476837,921.4000000953674]","./assets/img/ocean/memory/8.jpg","[""ArrowDown"",""ArrowLeft""]","value training","ocean","8","{""ArrowUp,ArrowLeft"":23,""ArrowUp,ArrowRight"":10,""ArrowDown,ArrowLeft"":8,""ArrowDown,ArrowRight"":30}","false","ArrowDown,ArrowLeft","false","","","original","1","2","","",""
"html-keyboard-response","117","692750","0.0-4.0-2.0-1.1","spark_pilot_2","7395","3","16","Male","","","","","","","null","<div style=""font-size:60px;"">+</div>","null","fixation","","","","","","","","","","","3","","",""
"revaluation","118","698791","0.0-4.0-2.0-0.2","spark_pilot_2","7395","3","16","Male","","","false","","","","[739.3000001907349,758.3000001907349]","./assets/img/ocean/memory/29.jpg","[""ArrowUp"",""ArrowRight""]","value training","ocean","10","{""ArrowUp,ArrowLeft"":23,""ArrowUp,ArrowRight"":10,""ArrowDown,ArrowLeft"":8,""ArrowDown,ArrowRight"":30}","false","ArrowUp,ArrowRight","false","","","original","1","4","","",""
"html-keyboard-response","119","699301","0.0-4.0-2.0-1.2","spark_pilot_2","7395","3","16","Male","","","","","","","null","<div style=""font-size:60px;"">+</div>","null","fixation","","","","","","","","","","","5","","",""
"revaluation","120","705322","0.0-4.0-2.0-0.3","spark_pilot_2","7395","3","16","Male","","","false","","","","[320.7999999523163,1855.0999999046326]","./assets/img/ocean/memory/41.jpg","[""ArrowDown"",""ArrowRight""]","value training","ocean","30","{""ArrowUp,ArrowLeft"":23,""ArrowUp,ArrowRight"":10,""ArrowDown,ArrowLeft"":8,""ArrowDown,ArrowRight"":30}","true","ArrowDown,ArrowRight","false","","","original","1","6","","",""
"html-keyboard-response","121","705841","0.0-4.0-2.0-1.3","spark_pilot_2","7395","3","16","Male","","","","","","","null","<div style=""font-size:60px;"">+</div>","null","fixation","","","","","","","","","","","7","","",""
"revaluation","122","711865","0.0-4.0-2.0-0.4","spark_pilot_2","7395","3","16","Male","","","false","","","","[709.7000000476837,569.5]","./assets/img/ocean/memory/26.jpg","[""ArrowUp"",""ArrowRight""]","value training","ocean","10","{""ArrowUp,ArrowLeft"":23,""ArrowUp,ArrowRight"":10,""ArrowDown,ArrowLeft"":8,""ArrowDown,ArrowRight"":30}","false","ArrowUp,ArrowRight","false","","","original","1","8","","",""
"html-keyboard-response","123","712367","0.0-4.0-2.0-1.4","spark_pilot_2","7395","3","16","Male","","","","","","","null","<div style=""font-size:60px;"">+</div>","null","fixation","","","","","","","","","","","9","","",""
"revaluation","124","718376","0.0-4.0-2.0-0.5","spark_pilot_2","7395","3","16","Male","","","false","","","","[357.5,316.5]","./assets/img/ocean/memory/7.jpg","[""ArrowUp"",""ArrowLeft""]","value training","ocean","23","{""ArrowUp,ArrowLeft"":23,""ArrowUp,ArrowRight"":10,""ArrowDown,ArrowLeft"":8,""ArrowDown,ArrowRight"":30}","false","ArrowUp,ArrowLeft","false","","","original","1","10","","",""
"html-keyboard-response","125","718877","0.0-4.0-2.0-1.5","spark_pilot_2","7395","3","16","Male","","","","","","","null","<div style=""font-size:60px;"">+</div>","null","fixation","","","","","","","","","","","11","","",""
"revaluation","126","724885","0.0-4.0-2.0-0.6","spark_pilot_2","7395","3","16","Male","","","false","","","","[402.19999980926514,1128.2000000476837]","./assets/img/ocean/memory/1.jpg","[""ArrowDown"",""ArrowRight""]","value training","ocean","30","{""ArrowUp,ArrowLeft"":23,""ArrowUp,ArrowRight"":10,""ArrowDown,ArrowLeft"":8,""ArrowDown,ArrowRight"":30}","true","ArrowDown,ArrowRight","false","","","original","1","12","","",""
"html-keyboard-response","127","725387","0.0-4.0-2.0-1.6","spark_pilot_2","7395","3","16","Male","","","","","","","null","<div style=""font-size:60px;"">+</div>","null","fixation","","","","","","","","","","","13","","",""
"revaluation","128","731396","0.0-4.0-2.0-0.7","spark_pilot_2","7395","3","16","Male","","","false","","","","[707.0999999046326,330.59999990463257]","./assets/img/ocean/memory/37.jpg","[""ArrowDown"",""ArrowRight""]","value training","ocean","30","{""ArrowUp,ArrowLeft"":23,""ArrowUp,ArrowRight"":10,""ArrowDown,ArrowLeft"":8,""ArrowDown,ArrowRight"":30}","true","ArrowDown,ArrowRight","false","","","original","1","14","","",""
"html-keyboard-response","129","731897","0.0-4.0-2.0-1.7","spark_pilot_2","7395","3","16","Male","","","","","","","null","<div style=""font-size:60px;"">+</div>","null","fixation","","","","","","","","","","","15","","",""
"revaluation","130","737905","0.0-4.0-2.0-0.8","spark_pilot_2","7395","3","16","Male","","","false","","","","[462.59999990463257,363.39999985694885]","./assets/img/ocean/memory/13.jpg","[""ArrowDown"",""ArrowRight""]","value training","ocean","30","{""ArrowUp,ArrowLeft"":23,""ArrowUp,ArrowRight"":10,""ArrowDown,ArrowLeft"":8,""ArrowDown,ArrowRight"":30}","true","ArrowDown,ArrowRight","false","","","original","1","16","","",""
"html-keyboard-response","131","738407","0.0-4.0-2.0-1.8","spark_pilot_2","7395","3","16","Male","","","","","","","null","<div style=""font-size:60px;"">+</div>","null","fixation","","","","","","","","","","","17","","",""
"revaluation","132","744417","0.0-4.0-2.0-0.9","spark_pilot_2","7395","3","16","Male","","","false","","","","[1113.2000000476837,447.89999985694885]","./assets/img/ocean/memory/15.jpg","[""ArrowDown"",""ArrowRight""]","value training","ocean","30","{""ArrowUp,ArrowLeft"":23,""ArrowUp,ArrowRight"":10,""ArrowDown,ArrowLeft"":8,""ArrowDown,ArrowRight"":30}","true","ArrowDown,ArrowRight","false","","","original","1","18","","",""
"html-keyboard-response","133","744919","0.0-4.0-2.0-1.9","spark_pilot_2","7395","3","16","Male","","","","","","","null","<div style=""font-size:60px;"">+</div>","null","fixation","","","","","","","","","","","19","","",""
"revaluation","134","750927","0.0-4.0-2.0-0.10","spark_pilot_2","7395","3","16","Male","","","false","","","","[938.9000000953674,524.2000000476837]","./assets/img/ocean/memory/8.jpg","[""ArrowDown"",""ArrowRight""]","value training","ocean","30","{""ArrowUp,ArrowLeft"":23,""ArrowUp,ArrowRight"":10,""ArrowDown,ArrowLeft"":8,""ArrowDown,ArrowRight"":30}","true","ArrowDown,ArrowRight","false","","","original","1","20","","",""
"html-keyboard-response","135","751428","0.0-4.0-2.0-1.10","spark_pilot_2","7395","3","16","Male","","","","","","","null","<div style=""font-size:60px;"">+</div>","null","fixation","","","","","","","","","","","21","","",""
"revaluation","136","757439","0.0-4.0-2.0-0.11","spark_pilot_2","7395","3","16","Male","","","false","","","","[1397.5,358.7999999523163]","./assets/img/ocean/memory/4.jpg","[""ArrowDown"",""ArrowRight""]","value training","ocean","30","{""ArrowUp,ArrowLeft"":23,""ArrowUp,ArrowRight"":10,""ArrowDown,ArrowLeft"":8,""ArrowDown,ArrowRight"":30}","true","ArrowDown,ArrowRight","false","","","original","1","22","","",""
"html-keyboard-response","137","757940","0.0-4.0-2.0-1.11","spark_pilot_2","7395","3","16","Male","","","","","","","null","<div style=""font-size:60px;"">+</div>","null","fixation","","","","","","","","","","","23","","",""
"revaluation","138","763947","0.0-4.0-2.0-0.12","spark_pilot_2","7395","3","16","Male","","","false","","","","[1165.5,442.10000014305115]","./assets/img/ocean/memory/0.jpg","[""ArrowDown"",""ArrowRight""]","value training","ocean","30","{""ArrowUp,ArrowLeft"":23,""ArrowUp,ArrowRight"":10,""ArrowDown,ArrowLeft"":8,""ArrowDown,ArrowRight"":30}","true","ArrowDown,ArrowRight","false","","","original","1","24","","",""
"html-keyboard-response","139","764449","0.0-4.0-2.0-1.12","spark_pilot_2","7395","3","16","Male","","","","","","","null","<div style=""font-size:60px;"">+</div>","null","fixation","","","","","","","","","","","25","","",""
"revaluation","140","770455","0.0-4.0-2.0-0.13","spark_pilot_2","7395","3","16","Male","","","false","","","","[532.2000000476837,356.39999985694885]","./assets/img/ocean/memory/13.jpg","[""ArrowDown"",""ArrowRight""]","value training","ocean","30","{""ArrowUp,ArrowLeft"":23,""ArrowUp,ArrowRight"":10,""ArrowDown,ArrowLeft"":8,""ArrowDown,ArrowRight"":30}","true","ArrowDown,ArrowRight","false","","","original","1","26","","",""
"html-keyboard-response","141","770956","0.0-4.0-2.0-1.13","spark_pilot_2","7395","3","16","Male","","","","","","","null","<div style=""font-size:60px;"">+</div>","null","fixation","","","","","","","","","","","27","","",""
"revaluation","142","776963","0.0-4.0-2.0-0.14","spark_pilot_2","7395","3","16","Male","","","false","","","","[403.90000009536743,352.5]","./assets/img/ocean/memory/36.jpg","[""ArrowDown"",""ArrowRight""]","value training","ocean","30","{""ArrowUp,ArrowLeft"":23,""ArrowUp,ArrowRight"":10,""ArrowDown,ArrowLeft"":8,""ArrowDown,ArrowRight"":30}","true","ArrowDown,ArrowRight","false","","","original","1","28","","",""
"html-keyboard-response","143","777465","0.0-4.0-2.0-1.14","spark_pilot_2","7395","3","16","Male","","","","","","","null","<div style=""font-size:60px;"">+</div>","null","fixation","","","","","","","","","","","29","","",""
"revaluation","144","783472","0.0-4.0-2.0-0.15","spark_pilot_2","7395","3","16","Male","","","false","","","","[925.7000000476837,464.2000000476837]","./assets/img/ocean/memory/26.jpg","[""ArrowDown"",""ArrowRight""]","value training","ocean","30","{""ArrowUp,ArrowLeft"":23,""ArrowUp,ArrowRight"":10,""ArrowDown,ArrowLeft"":8,""ArrowDown,ArrowRight"":30}","true","ArrowDown,ArrowRight","false","","","original","1","30","","",""
"html-keyboard-response","145","783973","0.0-4.0-2.0-1.15","spark_pilot_2","7395","3","16","Male","","","","","","","null","<div style=""font-size:60px;"">+</div>","null","fixation","","","","","","","","","","","31","","",""
"revaluation","146","787984","0.0-4.0-2.0-0.16","spark_pilot_2","7395","3","16","Male","","","false","","","","[803.0999999046326]","./assets/img/ocean/catch/2.jpg","[""spaceBar""]","value training","ocean","0","{""ArrowUp,ArrowLeft"":23,""ArrowUp,ArrowRight"":10,""ArrowDown,ArrowLeft"":8,""ArrowDown,ArrowRight"":30}","true","spaceBar","true","","","original","1","32","","",""
"html-keyboard-response","147","788486","0.0-4.0-2.0-1.16","spark_pilot_2","7395","3","16","Male","","","","","","","null","<div style=""font-size:60px;"">+</div>","null","fixation","","","","","","","","","","","33","","",""
"revaluation","148","794496","0.0-4.0-2.0-0.17","spark_pilot_2","7395","3","16","Male","","","false","","","","[1387.2000000476837,371.7999999523163]","./assets/img/ocean/memory/14.jpg","[""ArrowDown"",""ArrowRight""]","value training","ocean","30","{""ArrowUp,ArrowLeft"":23,""ArrowUp,ArrowRight"":10,""ArrowDown,ArrowLeft"":8,""ArrowDown,ArrowRight"":30}","true","ArrowDown,ArrowRight","false","","","original","1","34","","",""
"html-keyboard-response","149","794999","0.0-4.0-2.0-1.17","spark_pilot_2","7395","3","16","Male","","","","","","","null","<div style=""font-size:60px;"">+</div>","null","fixation","","","","","","","","","","","35","","",""
"revaluation","150","799007","0.0-4.0-2.0-0.18","spark_pilot_2","7395","3","16","Male","","","false","","","","[1043.9000000953674]","./assets/img/ocean/catch/5.jpg","[""spaceBar""]","value training","ocean","0","{""ArrowUp,ArrowLeft"":23,""ArrowUp,ArrowRight"":10,""ArrowDown,ArrowLeft"":8,""ArrowDown,ArrowRight"":30}","true","spaceBar","true","","","original","1","36","","",""
"html-keyboard-response","151","799508","0.0-4.0-2.0-1.18","spark_pilot_2","7395","3","16","Male","","","","","","","null","<div style=""font-size:60px;"">+</div>","null","fixation","","","","","","","","","","","37","","",""
"revaluation","152","805527","0.0-4.0-2.0-0.19","spark_pilot_2","7395","3","16","Male","","","false","","","","[646.2000000476837,447.2999999523163]","./assets/img/ocean/memory/2.jpg","[""ArrowDown"",""ArrowRight""]","value training","ocean","30","{""ArrowUp,ArrowLeft"":23,""ArrowUp,ArrowRight"":10,""ArrowDown,ArrowLeft"":8,""ArrowDown,ArrowRight"":30}","true","ArrowDown,ArrowRight","false","","","original","1","38","","",""
"html-keyboard-response","153","806028","0.0-4.0-2.0-1.19","spark_pilot_2","7395","3","16","Male","","","","","","","null","<div style=""font-size:60px;"">+</div>","null","fixation","","","","","","","","","","","39","","",""
"revaluation","154","812036","0.0-4.0-2.0-0.20","spark_pilot_2","7395","3","16","Male","","","false","","","","[679.9000000953674,300.60000014305115]","./assets/img/ocean/memory/40.jpg","[""ArrowDown"",""ArrowRight""]","value training","ocean","30","{""ArrowUp,ArrowLeft"":23,""ArrowUp,ArrowRight"":10,""ArrowDown,ArrowLeft"":8,""ArrowDown,ArrowRight"":30}","true","ArrowDown,ArrowRight","false","","","original","1","40","","",""
"html-keyboard-response","155","812538","0.0-4.0-2.0-1.20","spark_pilot_2","7395","3","16","Male","","","","","","","null","<div style=""font-size:60px;"">+</div>","null","fixation","","","","","","","","","","","41","","",""
"revaluation","156","818547","0.0-4.0-2.0-0.21","spark_pilot_2","7395","3","16","Male","","","false","","","","[1402.5,402.7999999523163]","./assets/img/ocean/memory/41.jpg","[""ArrowDown"",""ArrowRight""]","value training","ocean","30","{""ArrowUp,ArrowLeft"":23,""ArrowUp,ArrowRight"":10,""ArrowDown,ArrowLeft"":8,""ArrowDown,ArrowRight"":30}","true","ArrowDown,ArrowRight","false","","","original","1","42","","",""
"html-keyboard-response","157","819048","0.0-4.0-2.0-1.21","spark_pilot_2","7395","3","16","Male","","","","","","","null","<div style=""font-size:60px;"">+</div>","null","fixation","","","","","","","","","","","43","","",""
"revaluation","158","823056","0.0-4.0-2.0-0.22","spark_pilot_2","7395","3","16","Male","","","false","","","","[894]","./assets/img/ocean/catch/0.jpg","[""spaceBar""]","value training","ocean","0","{""ArrowUp,ArrowLeft"":23,""ArrowUp,ArrowRight"":10,""ArrowDown,ArrowLeft"":8,""ArrowDown,ArrowRight"":30}","true","spaceBar","true","","","original","1","44","","",""
"html-keyboard-response","159","823557","0.0-4.0-2.0-1.22","spark_pilot_2","7395","3","16","Male","","","","","","","null","<div style=""font-size:60px;"">+</div>","null","fixation","","","","","","","","","","","45","","",""
"revaluation","160","829567","0.0-4.0-2.0-0.23","spark_pilot_2","7395","3","16","Male","","","false","","","","[793.9000000953674,436.60000014305115]","./assets/img/ocean/memory/1.jpg","[""ArrowDown"",""ArrowRight""]","value training","ocean","30","{""ArrowUp,ArrowLeft"":23,""ArrowUp,ArrowRight"":10,""ArrowDown,ArrowLeft"":8,""ArrowDown,ArrowRight"":30}","true","ArrowDown,ArrowRight","false","","","original","1","46","","",""
"html-keyboard-response","161","830069","0.0-4.0-2.0-1.23","spark_pilot_2","7395","3","16","Male","","","","","","","null","<div style=""font-size:60px;"">+</div>","null","fixation","","","","","","","","","","","47","","",""
"revaluation","162","836077","0.0-4.0-2.0-0.24","spark_pilot_2","7395","3","16","Male","","","false","","","","[921.5,407.5]","./assets/img/ocean/memory/4.jpg","[""ArrowDown"",""ArrowRight""]","value training","ocean","30","{""ArrowUp,ArrowLeft"":23,""ArrowUp,ArrowRight"":10,""ArrowDown,ArrowLeft"":8,""ArrowDown,ArrowRight"":30}","true","ArrowDown,ArrowRight","false","","","original","1","48","","",""
"html-keyboard-response","163","836578","0.0-4.0-2.0-1.24","spark_pilot_2","7395","3","16","Male","","","","","","","null","<div style=""font-size:60px;"">+</div>","null","fixation","","","","","","","","","","","49","","",""
"revaluation","164","842586","0.0-4.0-2.0-0.25","spark_pilot_2","7395","3","16","Male","","","false","","","","[1232.5,523.0999999046326]","./assets/img/ocean/memory/30.jpg","[""ArrowDown"",""ArrowRight""]","value training","ocean","30","{""ArrowUp,ArrowLeft"":23,""ArrowUp,ArrowRight"":10,""ArrowDown,ArrowLeft"":8,""ArrowDown,ArrowRight"":30}","true","ArrowDown,ArrowRight","false","","","original","1","50","","",""
"html-keyboard-response","165","843088","0.0-4.0-2.0-1.25","spark_pilot_2","7395","3","16","Male","","","","","","","null","<div style=""font-size:60px;"">+</div>","null","fixation","","","","","","","","","","","51","","",""
"revaluation","166","849097","0.0-4.0-2.0-0.26","spark_pilot_2","7395","3","16","Male","","","false","","","","[1015.5999999046326,448.40000009536743]","./assets/img/ocean/memory/14.jpg","[""ArrowDown"",""ArrowRight""]","value training","ocean","30","{""ArrowUp,ArrowLeft"":23,""ArrowUp,ArrowRight"":10,""ArrowDown,ArrowLeft"":8,""ArrowDown,ArrowRight"":30}","true","ArrowDown,ArrowRight","false","","","original","1","52","","",""
"html-keyboard-response","167","849599","0.0-4.0-2.0-1.26","spark_pilot_2","7395","3","16","Male","","","","","","","null","<div style=""font-size:60px;"">+</div>","null","fixation","","","","","","","","","","","53","","",""
"revaluation","168","855610","0.0-4.0-2.0-0.27","spark_pilot_2","7395","3","16","Male","","","false","","","","[676.4000000953674,737.1000001430511]","./assets/img/ocean/memory/40.jpg","[""ArrowDown"",""ArrowRight""]","value training","ocean","30","{""ArrowUp,ArrowLeft"":23,""ArrowUp,ArrowRight"":10,""ArrowDown,ArrowLeft"":8,""ArrowDown,ArrowRight"":30}","true","ArrowDown,ArrowRight","false","","","original","1","54","","",""
"html-keyboard-response","169","856111","0.0-4.0-2.0-1.27","spark_pilot_2","7395","3","16","Male","","","","","","","null","<div style=""font-size:60px;"">+</div>","null","fixation","","","","","","","","","","","55","","",""
"revaluation","170","860119","0.0-4.0-2.0-0.28","spark_pilot_2","7395","3","16","Male","","","false","","","","[972.2999999523163]","./assets/img/ocean/catch/4.jpg","[""spaceBar""]","value training","ocean","0","{""ArrowUp,ArrowLeft"":23,""ArrowUp,ArrowRight"":10,""ArrowDown,ArrowLeft"":8,""ArrowDown,ArrowRight"":30}","true","spaceBar","true","","","original","1","56","","",""
"html-keyboard-response","171","860621","0.0-4.0-2.0-1.28","spark_pilot_2","7395","3","16","Male","","","","","","","null","<div style=""font-size:60px;"">+</div>","null","fixation","","","","","","","","","","","57","","",""
"revaluation","172","866645","0.0-4.0-2.0-0.29","spark_pilot_2","7395","3","16","Male","","","false","","","","[1260.7999999523163,443.80000019073486]","./assets/img/ocean/memory/17.jpg","[""ArrowDown"",""ArrowRight""]","value training","ocean","30","{""ArrowUp,ArrowLeft"":23,""ArrowUp,ArrowRight"":10,""ArrowDown,ArrowLeft"":8,""ArrowDown,ArrowRight"":30}","true","ArrowDown,ArrowRight","false","","","original","1","58","","",""
"html-keyboard-response","173","867147","0.0-4.0-2.0-1.29","spark_pilot_2","7395","3","16","Male","","","","","","","null","<div style=""font-size:60px;"">+</div>","null","fixation","","","","","","","","","","","59","","",""
"revaluation","174","873155","0.0-4.0-2.0-0.30","spark_pilot_2","7395","3","16","Male","","","false","","","","[889.7999999523163,419.2999999523163]","./assets/img/ocean/memory/32.jpg","[""ArrowDown"",""ArrowRight""]","value training","ocean","30","{""ArrowUp,ArrowLeft"":23,""ArrowUp,ArrowRight"":10,""ArrowDown,ArrowLeft"":8,""ArrowDown,ArrowRight"":30}","true","ArrowDown,ArrowRight","false","","","original","1","60","","",""
"html-keyboard-response","175","873657","0.0-4.0-2.0-1.30","spark_pilot_2","7395","3","16","Male","","","","","","","null","<div style=""font-size:60px;"">+</div>","null","fixation","","","","","","","","","","","61","","",""
"revaluation","176","879666","0.0-4.0-2.0-0.31","spark_pilot_2","7395","3","16","Male","","","false","","","","[1117.4000000953674,537]","./assets/img/ocean/memory/0.jpg","[""ArrowDown"",""ArrowRight""]","value training","ocean","30","{""ArrowUp,ArrowLeft"":23,""ArrowUp,ArrowRight"":10,""ArrowDown,ArrowLeft"":8,""ArrowDown,ArrowRight"":30}","true","ArrowDown,ArrowRight","false","","","original","1","62","","",""
"html-keyboard-response","177","880167","0.0-4.0-2.0-1.31","spark_pilot_2","7395","3","16","Male","","","","","","","null","<div style=""font-size:60px;"">+</div>","null","fixation","","","","","","","","","","","63","","",""
"revaluation","178","886173","0.0-4.0-2.0-0.32","spark_pilot_2","7395","3","16","Male","","","false","","","","[816.8999998569489,590.5999999046326]","./assets/img/ocean/memory/3.jpg","[""ArrowDown"",""ArrowRight""]","value training","ocean","30","{""ArrowUp,ArrowLeft"":23,""ArrowUp,ArrowRight"":10,""ArrowDown,ArrowLeft"":8,""ArrowDown,ArrowRight"":30}","true","ArrowDown,ArrowRight","false","","","original","1","64","","",""
"html-keyboard-response","179","886675","0.0-4.0-2.0-1.32","spark_pilot_2","7395","3","16","Male","","","","","","","null","<div style=""font-size:60px;"">+</div>","null","fixation","","","","","","","","","","","65","","",""
"revaluation","180","892684","0.0-4.0-2.0-0.33","spark_pilot_2","7395","3","16","Male","","","false","","","","[692.7000000476837,757.1000001430511]","./assets/img/ocean/memory/17.jpg","[""ArrowDown"",""ArrowRight""]","value training","ocean","30","{""ArrowUp,ArrowLeft"":23,""ArrowUp,ArrowRight"":10,""ArrowDown,ArrowLeft"":8,""ArrowDown,ArrowRight"":30}","true","ArrowDown,ArrowRight","false","","","original","1","66","","",""
"html-keyboard-response","181","893186","0.0-4.0-2.0-1.33","spark_pilot_2","7395","3","16","Male","","","","","","","null","<div style=""font-size:60px;"">+</div>","null","fixation","","","","","","","","","","","67","","",""
"revaluation","182","897192","0.0-4.0-2.0-0.34","spark_pilot_2","7395","3","16","Male","","","false","","","","[860.3000001907349]","./assets/img/ocean/catch/3.jpg","[""spaceBar""]","value training","ocean","0","{""ArrowUp,ArrowLeft"":23,""ArrowUp,ArrowRight"":10,""ArrowDown,ArrowLeft"":8,""ArrowDown,ArrowRight"":30}","true","spaceBar","true","","","original","1","68","","",""
"html-keyboard-response","183","897695","0.0-4.0-2.0-1.34","spark_pilot_2","7395","3","16","Male","","","","","","","null","<div style=""font-size:60px;"">+</div>","null","fixation","","","","","","","","","","","69","","",""
"revaluation","184","903703","0.0-4.0-2.0-0.35","spark_pilot_2","7395","3","16","Male","","","false","","","","[1097.7999999523163,350.90000009536743]","./assets/img/ocean/memory/9.jpg","[""ArrowDown"",""ArrowRight""]","value training","ocean","30","{""ArrowUp,ArrowLeft"":23,""ArrowUp,ArrowRight"":10,""ArrowDown,ArrowLeft"":8,""ArrowDown,ArrowRight"":30}","true","ArrowDown,ArrowRight","false","","","original","1","70","","",""
"html-keyboard-response","185","904204","0.0-4.0-2.0-1.35","spark_pilot_2","7395","3","16","Male","","","","","","","null","<div style=""font-size:60px;"">+</div>","null","fixation","","","","","","","","","","","71","","",""
"revaluation","186","910210","0.0-4.0-2.0-0.36","spark_pilot_2","7395","3","16","Male","","","false","","","","[610,487.40000009536743]","./assets/img/ocean/memory/7.jpg","[""ArrowDown"",""ArrowRight""]","value training","ocean","30","{""ArrowUp,ArrowLeft"":23,""ArrowUp,ArrowRight"":10,""ArrowDown,ArrowLeft"":8,""ArrowDown,ArrowRight"":30}","true","ArrowDown,ArrowRight","false","","","original","1","72","","",""
"html-keyboard-response","187","910712","0.0-4.0-2.0-1.36","spark_pilot_2","7395","3","16","Male","","","","","","","null","<div style=""font-size:60px;"">+</div>","null","fixation","","","","","","","","","","","73","","",""
"revaluation","188","916719","0.0-4.0-2.0-0.37","spark_pilot_2","7395","3","16","Male","","","false","","","","[748.2999999523163,351.2999999523163]","./assets/img/ocean/memory/3.jpg","[""ArrowDown"",""ArrowRight""]","value training","ocean","30","{""ArrowUp,ArrowLeft"":23,""ArrowUp,ArrowRight"":10,""ArrowDown,ArrowLeft"":8,""ArrowDown,ArrowRight"":30}","true","ArrowDown,ArrowRight","false","","","original","1","74","","",""
"html-keyboard-response","189","917221","0.0-4.0-2.0-1.37","spark_pilot_2","7395","3","16","Male","","","","","","","null","<div style=""font-size:60px;"">+</div>","null","fixation","","","","","","","","","","","75","","",""
"revaluation","190","921227","0.0-4.0-2.0-0.38","spark_pilot_2","7395","3","16","Male","","","false","","","","[927.7000000476837]","./assets/img/ocean/catch/1.jpg","[""spaceBar""]","value training","ocean","0","{""ArrowUp,ArrowLeft"":23,""ArrowUp,ArrowRight"":10,""ArrowDown,ArrowLeft"":8,""ArrowDown,ArrowRight"":30}","true","spaceBar","true","","","original","1","76","","",""
"html-keyboard-response","191","921728","0.0-4.0-2.0-1.38","spark_pilot_2","7395","3","16","Male","","","","","","","null","<div style=""font-size:60px;"">+</div>","null","fixation","","","","","","","","","","","77","","",""
"revaluation","192","927737","0.0-4.0-2.0-0.39","spark_pilot_2","7395","3","16","Male","","","false","","","","[759,389]","./assets/img/ocean/memory/15.jpg","[""ArrowDown"",""ArrowRight""]","value training","ocean","30","{""ArrowUp,ArrowLeft"":23,""ArrowUp,ArrowRight"":10,""ArrowDown,ArrowLeft"":8,""ArrowDown,ArrowRight"":30}","true","ArrowDown,ArrowRight","false","","","original","1","78","","",""
"html-keyboard-response","193","928239","0.0-4.0-2.0-1.39","spark_pilot_2","7395","3","16","Male","","","","","","","null","<div style=""font-size:60px;"">+</div>","null","fixation","","","","","","","","","","","79","","",""
"revaluation","194","934248","0.0-4.0-2.0-0.40","spark_pilot_2","7395","3","16","Male","","","false","","","","[698.2999999523163,315.2999999523163]","./assets/img/ocean/memory/36.jpg","[""ArrowDown"",""ArrowRight""]","value training","ocean","30","{""ArrowUp,ArrowLeft"":23,""ArrowUp,ArrowRight"":10,""ArrowDown,ArrowLeft"":8,""ArrowDown,ArrowRight"":30}","true","ArrowDown,ArrowRight","false","","","original","1","80","","",""
"html-keyboard-response","195","934749","0.0-4.0-2.0-1.40","spark_pilot_2","7395","3","16","Male","","","","","","","null","<div style=""font-size:60px;"">+</div>","null","fixation","","","","","","","","","","","81","","",""
"revaluation","196","940757","0.0-4.0-2.0-0.41","spark_pilot_2","7395","3","16","Male","","","false","","","","[1179.4000000953674,653.7000000476837]","./assets/img/ocean/memory/30.jpg","[""ArrowDown"",""ArrowRight""]","value training","ocean","30","{""ArrowUp,ArrowLeft"":23,""ArrowUp,ArrowRight"":10,""ArrowDown,ArrowLeft"":8,""ArrowDown,ArrowRight"":30}","true","ArrowDown,ArrowRight","false","","","original","1","82","","",""
"html-keyboard-response","197","941259","0.0-4.0-2.0-1.41","spark_pilot_2","7395","3","16","Male","","","","","","","null","<div style=""font-size:60px;"">+</div>","null","fixation","","","","","","","","","","","83","","",""
"revaluation","198","947267","0.0-4.0-2.0-0.42","spark_pilot_2","7395","3","16","Male","","","false","","","","[1002.5,327.2000000476837]","./assets/img/ocean/memory/32.jpg","[""ArrowDown"",""ArrowRight""]","value training","ocean","30","{""ArrowUp,ArrowLeft"":23,""ArrowUp,ArrowRight"":10,""ArrowDown,ArrowLeft"":8,""ArrowDown,ArrowRight"":30}","true","ArrowDown,ArrowRight","false","","","original","1","84","","",""
"html-keyboard-response","199","947783","0.0-4.0-2.0-1.42","spark_pilot_2","7395","3","16","Male","","","","","","","null","<div style=""font-size:60px;"">+</div>","null","fixation","","","","","","","","","","","85","","",""
"revaluation","200","951791","0.0-4.0-2.0-0.43","spark_pilot_2","7395","3","16","Male","","","false","","","","[834.4000000953674]","./assets/img/ocean/catch/7.jpg","[""spaceBar""]","value training","ocean","0","{""ArrowUp,ArrowLeft"":23,""ArrowUp,ArrowRight"":10,""ArrowDown,ArrowLeft"":8,""ArrowDown,ArrowRight"":30}","true","spaceBar","true","","","original","1","86","","",""
"html-keyboard-response","201","952293","0.0-4.0-2.0-1.43","spark_pilot_2","7395","3","16","Male","","","","","","","null","<div style=""font-size:60px;"">+</div>","null","fixation","","","","","","","","","","","87","","",""
"revaluation","202","956301","0.0-4.0-2.0-0.44","spark_pilot_2","7395","3","16","Male","","","false","","","","[878.7000000476837]","./assets/img/ocean/catch/6.jpg","[""spaceBar""]","value training","ocean","0","{""ArrowUp,ArrowLeft"":23,""ArrowUp,ArrowRight"":10,""ArrowDown,ArrowLeft"":8,""ArrowDown,ArrowRight"":30}","true","spaceBar","true","","","original","1","88","","",""
"html-keyboard-response","203","956803","0.0-4.0-2.0-1.44","spark_pilot_2","7395","3","16","Male","","","","","","","null","<div style=""font-size:60px;"">+</div>","null","fixation","","","","","","","","","","","89","","",""
"revaluation","204","962810","0.0-4.0-2.0-0.45","spark_pilot_2","7395","3","16","Male","","","false","","","","[740.5999999046326,424.09999990463257]","./assets/img/ocean/memory/9.jpg","[""ArrowDown"",""ArrowRight""]","value training","ocean","30","{""ArrowUp,ArrowLeft"":23,""ArrowUp,ArrowRight"":10,""ArrowDown,ArrowLeft"":8,""ArrowDown,ArrowRight"":30}","true","ArrowDown,ArrowRight","false","","","original","1","90","","",""
"html-keyboard-response","205","963312","0.0-4.0-2.0-1.45","spark_pilot_2","7395","3","16","Male","","","","","","","null","<div style=""font-size:60px;"">+</div>","null","fixation","","","","","","","","","","","91","","",""
"revaluation","206","969321","0.0-4.0-2.0-0.46","spark_pilot_2","7395","3","16","Male","","","false","","","","[856.7999999523163,408.5]","./assets/img/ocean/memory/29.jpg","[""ArrowDown"",""ArrowRight""]","value training","ocean","30","{""ArrowUp,ArrowLeft"":23,""ArrowUp,ArrowRight"":10,""ArrowDown,ArrowLeft"":8,""ArrowDown,ArrowRight"":30}","true","ArrowDown,ArrowRight","false","","","original","1","92","","",""
"html-keyboard-response","207","969822","0.0-4.0-2.0-1.46","spark_pilot_2","7395","3","16","Male","","","","","","","null","<div style=""font-size:60px;"">+</div>","null","fixation","","","","","","","","","","","93","","",""
"revaluation","208","975830","0.0-4.0-2.0-0.47","spark_pilot_2","7395","3","16","Male","","","false","","","","[1109.6999998092651,355.89999985694885]","./assets/img/ocean/memory/24.jpg","[""ArrowDown"",""ArrowRight""]","value training","ocean","30","{""ArrowUp,ArrowLeft"":23,""ArrowUp,ArrowRight"":10,""ArrowDown,ArrowLeft"":8,""ArrowDown,ArrowRight"":30}","true","ArrowDown,ArrowRight","false","","","original","1","94","","",""
"html-keyboard-response","209","976332","0.0-4.0-2.0-1.47","spark_pilot_2","7395","3","16","Male","","","","","","","null","<div style=""font-size:60px;"">+</div>","null","fixation","","","","","","","","","","","95","","",""
"revaluation","210","982341","0.0-4.0-2.0-0.48","spark_pilot_2","7395","3","16","Male","","","false","","","","[844.0999999046326,271.69999980926514]","./assets/img/ocean/memory/37.jpg","[""ArrowDown"",""ArrowRight""]","value training","ocean","30","{""ArrowUp,ArrowLeft"":23,""ArrowUp,ArrowRight"":10,""ArrowDown,ArrowLeft"":8,""ArrowDown,ArrowRight"":30}","true","ArrowDown,ArrowRight","false","","","original","1","96","","",""
"html-keyboard-response","211","982843","0.0-4.0-2.0-1.48","spark_pilot_2","7395","3","16","Male","","","","","","","null","<div style=""font-size:60px;"">+</div>","null","fixation","","","","","","","","","","","97","","",""
"revaluation","212","988850","0.0-4.0-2.0-0.49","spark_pilot_2","7395","3","16","Male","","","false","","","","[720.5999999046326,368.09999990463257]","./assets/img/ocean/memory/24.jpg","[""ArrowDown"",""ArrowRight""]","value training","ocean","30","{""ArrowUp,ArrowLeft"":23,""ArrowUp,ArrowRight"":10,""ArrowDown,ArrowLeft"":8,""ArrowDown,ArrowRight"":30}","true","ArrowDown,ArrowRight","false","","","original","1","98","","",""
"html-keyboard-response","213","989352","0.0-4.0-2.0-1.49","spark_pilot_2","7395","3","16","Male","","","","","","","null","<div style=""font-size:60px;"">+</div>","null","fixation","","","","","","","","","","","99","","",""
"learning-instructions","214","1006362","0.0-4.0-3.0-0.0","spark_pilot_2","7395","3","16","Male","","","","","","","4127.099999904633","<p> Now, you will travel with a friend who will choose whether you go up or down first. </p>
            <p> On these turns, you will just see the animal that they found. You will still get to choose which chest to search for treasure.</p>","","instructions","","","","","","","","","","","","","",""
"revaluation","215","1010402","0.0-4.0-4.0-0.0","spark_pilot_2","7395","3","16","Male","","","false","","","","[1173.5999999046326]","./assets/img/ocean/animals/octopus.jpg","[""ArrowRight""]","revaluation","ocean","30","{""ArrowUp,ArrowLeft"":23,""ArrowUp,ArrowRight"":10,""ArrowDown,ArrowLeft"":8,""ArrowDown,ArrowRight"":30}","true","ArrowDown,ArrowRight","","","","original","1","0","","",""
"html-keyboard-response","216","1010921","0.0-4.0-4.0-1.0","spark_pilot_2","7395","3","16","Male","","","","","","","null","<div style=""font-size:60px;"">+</div>","null","fixation","","","","","","","","","","","1","","",""
"revaluation","217","1014941","0.0-4.0-4.0-0.1","spark_pilot_2","7395","3","16","Male","","","false","","","","[796.2000000476837]","./assets/img/ocean/animals/octopus.jpg","[""ArrowRight""]","revaluation","ocean","30","{""ArrowUp,ArrowLeft"":23,""ArrowUp,ArrowRight"":10,""ArrowDown,ArrowLeft"":8,""ArrowDown,ArrowRight"":30}","true","ArrowDown,ArrowRight","","","","original","1","2","","",""
"html-keyboard-response","218","1015451","0.0-4.0-4.0-1.1","spark_pilot_2","7395","3","16","Male","","","","","","","null","<div style=""font-size:60px;"">+</div>","null","fixation","","","","","","","","","","","3","","",""
"revaluation","219","1019471","0.0-4.0-4.0-0.2","spark_pilot_2","7395","3","16","Male","","","false","","","","[502.09999990463257]","./assets/img/ocean/animals/octopus.jpg","[""ArrowRight""]","revaluation","ocean","30","{""ArrowUp,ArrowLeft"":23,""ArrowUp,ArrowRight"":10,""ArrowDown,ArrowLeft"":8,""ArrowDown,ArrowRight"":30}","true","ArrowDown,ArrowRight","","","","original","1","4","","",""
"html-keyboard-response","220","1019981","0.0-4.0-4.0-1.2","spark_pilot_2","7395","3","16","Male","","","","","","","null","<div style=""font-size:60px;"">+</div>","null","fixation","","","","","","","","","","","5","","",""
"revaluation","221","1024011","0.0-4.0-4.0-0.3","spark_pilot_2","7395","3","16","Male","","","false","","","","[788.7999999523163]","./assets/img/ocean/animals/seahorse.jpg","[""ArrowLeft""]","revaluation","ocean","23","{""ArrowUp,ArrowLeft"":23,""ArrowUp,ArrowRight"":10,""ArrowDown,ArrowLeft"":8,""ArrowDown,ArrowRight"":30}","true","ArrowUp,ArrowLeft","","","","original","1","6","","",""
"html-keyboard-response","222","1024531","0.0-4.0-4.0-1.3","spark_pilot_2","7395","3","16","Male","","","","","","","null","<div style=""font-size:60px;"">+</div>","null","fixation","","","","","","","","","","","7","","",""
"revaluation","223","1028562","0.0-4.0-4.0-0.4","spark_pilot_2","7395","3","16","Male","","","false","","","","[780.6000001430511]","./assets/img/ocean/animals/octopus.jpg","[""ArrowRight""]","revaluation","ocean","30","{""ArrowUp,ArrowLeft"":23,""ArrowUp,ArrowRight"":10,""ArrowDown,ArrowLeft"":8,""ArrowDown,ArrowRight"":30}","true","ArrowDown,ArrowRight","","","","original","1","8","","",""
"html-keyboard-response","224","1029071","0.0-4.0-4.0-1.4","spark_pilot_2","7395","3","16","Male","","","","","","","null","<div style=""font-size:60px;"">+</div>","null","fixation","","","","","","","","","","","9","","",""
"revaluation","225","1033082","0.0-4.0-4.0-0.5","spark_pilot_2","7395","3","16","Male","","","false","","","","[925.8999998569489]","./assets/img/ocean/animals/seahorse.jpg","[""ArrowLeft""]","revaluation","ocean","23","{""ArrowUp,ArrowLeft"":23,""ArrowUp,ArrowRight"":10,""ArrowDown,ArrowLeft"":8,""ArrowDown,ArrowRight"":30}","true","ArrowUp,ArrowLeft","","","","original","1","10","","",""
"html-keyboard-response","226","1033584","0.0-4.0-4.0-1.5","spark_pilot_2","7395","3","16","Male","","","","","","","null","<div style=""font-size:60px;"">+</div>","null","fixation","","","","","","","","","","","11","","",""
"revaluation","227","1037590","0.0-4.0-4.0-0.6","spark_pilot_2","7395","3","16","Male","","","false","","","","[849.5]","./assets/img/ocean/animals/seahorse.jpg","[""ArrowLeft""]","revaluation","ocean","23","{""ArrowUp,ArrowLeft"":23,""ArrowUp,ArrowRight"":10,""ArrowDown,ArrowLeft"":8,""ArrowDown,ArrowRight"":30}","true","ArrowUp,ArrowLeft","","","","original","1","12","","",""
"html-keyboard-response","228","1038097","0.0-4.0-4.0-1.6","spark_pilot_2","7395","3","16","Male","","","","","","","null","<div style=""font-size:60px;"">+</div>","null","fixation","","","","","","","","","","","13","","",""
"revaluation","229","1042106","0.0-4.0-4.0-0.7","spark_pilot_2","7395","3","16","Male","","","false","","","","[977.6000001430511]","./assets/img/ocean/animals/seahorse.jpg","[""ArrowLeft""]","revaluation","ocean","23","{""ArrowUp,ArrowLeft"":23,""ArrowUp,ArrowRight"":10,""ArrowDown,ArrowLeft"":8,""ArrowDown,ArrowRight"":30}","true","ArrowUp,ArrowLeft","","","","original","1","14","","",""
"html-keyboard-response","230","1042608","0.0-4.0-4.0-1.7","spark_pilot_2","7395","3","16","Male","","","","","","","null","<div style=""font-size:60px;"">+</div>","null","fixation","","","","","","","","","","","15","","",""
"revaluation","231","1046615","0.0-4.0-4.0-0.8","spark_pilot_2","7395","3","16","Male","","","false","","","","[882.5]","./assets/img/ocean/animals/octopus.jpg","[""ArrowRight""]","revaluation","ocean","30","{""ArrowUp,ArrowLeft"":23,""ArrowUp,ArrowRight"":10,""ArrowDown,ArrowLeft"":8,""ArrowDown,ArrowRight"":30}","true","ArrowDown,ArrowRight","","","","original","1","16","","",""
"html-keyboard-response","232","1047116","0.0-4.0-4.0-1.8","spark_pilot_2","7395","3","16","Male","","","","","","","null","<div style=""font-size:60px;"">+</div>","null","fixation","","","","","","","","","","","17","","",""
"revaluation","233","1051122","0.0-4.0-4.0-0.9","spark_pilot_2","7395","3","16","Male","","","false","","","","[952]","./assets/img/ocean/animals/octopus.jpg","[""ArrowRight""]","revaluation","ocean","30","{""ArrowUp,ArrowLeft"":23,""ArrowUp,ArrowRight"":10,""ArrowDown,ArrowLeft"":8,""ArrowDown,ArrowRight"":30}","true","ArrowDown,ArrowRight","","","","original","1","18","","",""
"html-keyboard-response","234","1051624","0.0-4.0-4.0-1.9","spark_pilot_2","7395","3","16","Male","","","","","","","null","<div style=""font-size:60px;"">+</div>","null","fixation","","","","","","","","","","","19","","",""
"revaluation","235","1055629","0.0-4.0-4.0-0.10","spark_pilot_2","7395","3","16","Male","","","false","","","","[1371.7000000476837]","./assets/img/ocean/animals/octopus.jpg","[""ArrowRight""]","revaluation","ocean","30","{""ArrowUp,ArrowLeft"":23,""ArrowUp,ArrowRight"":10,""ArrowDown,ArrowLeft"":8,""ArrowDown,ArrowRight"":30}","true","ArrowDown,ArrowRight","","","","original","1","20","","",""
"html-keyboard-response","236","1056131","0.0-4.0-4.0-1.10","spark_pilot_2","7395","3","16","Male","","","","","","","null","<div style=""font-size:60px;"">+</div>","null","fixation","","","","","","","","","","","21","","",""
"revaluation","237","1060137","0.0-4.0-4.0-0.11","spark_pilot_2","7395","3","16","Male","","","false","","","","[654.7999999523163]","./assets/img/ocean/animals/seahorse.jpg","[""ArrowLeft""]","revaluation","ocean","23","{""ArrowUp,ArrowLeft"":23,""ArrowUp,ArrowRight"":10,""ArrowDown,ArrowLeft"":8,""ArrowDown,ArrowRight"":30}","true","ArrowUp,ArrowLeft","","","","original","1","22","","",""
"html-keyboard-response","238","1060638","0.0-4.0-4.0-1.11","spark_pilot_2","7395","3","16","Male","","","","","","","null","<div style=""font-size:60px;"">+</div>","null","fixation","","","","","","","","","","","23","","",""
"revaluation","239","1064646","0.0-4.0-4.0-0.12","spark_pilot_2","7395","3","16","Male","","","false","","","","[750.2000000476837]","./assets/img/ocean/animals/seahorse.jpg","[""ArrowLeft""]","revaluation","ocean","23","{""ArrowUp,ArrowLeft"":23,""ArrowUp,ArrowRight"":10,""ArrowDown,ArrowLeft"":8,""ArrowDown,ArrowRight"":30}","true","ArrowUp,ArrowLeft","","","","original","1","24","","",""
"html-keyboard-response","240","1065148","0.0-4.0-4.0-1.12","spark_pilot_2","7395","3","16","Male","","","","","","","null","<div style=""font-size:60px;"">+</div>","null","fixation","","","","","","","","","","","25","","",""
"revaluation","241","1069155","0.0-4.0-4.0-0.13","spark_pilot_2","7395","3","16","Male","","","false","","","","[872.1999998092651]","./assets/img/ocean/animals/seahorse.jpg","[""ArrowLeft""]","revaluation","ocean","23","{""ArrowUp,ArrowLeft"":23,""ArrowUp,ArrowRight"":10,""ArrowDown,ArrowLeft"":8,""ArrowDown,ArrowRight"":30}","true","ArrowUp,ArrowLeft","","","","original","1","26","","",""
"html-keyboard-response","242","1069656","0.0-4.0-4.0-1.13","spark_pilot_2","7395","3","16","Male","","","","","","","null","<div style=""font-size:60px;"">+</div>","null","fixation","","","","","","","","","","","27","","",""
"revaluation","243","1073664","0.0-4.0-4.0-0.14","spark_pilot_2","7395","3","16","Male","","","false","","","","[685.8000001907349]","./assets/img/ocean/animals/octopus.jpg","[""ArrowRight""]","revaluation","ocean","30","{""ArrowUp,ArrowLeft"":23,""ArrowUp,ArrowRight"":10,""ArrowDown,ArrowLeft"":8,""ArrowDown,ArrowRight"":30}","true","ArrowDown,ArrowRight","","","","original","1","28","","",""
"html-keyboard-response","244","1074166","0.0-4.0-4.0-1.14","spark_pilot_2","7395","3","16","Male","","","","","","","null","<div style=""font-size:60px;"">+</div>","null","fixation","","","","","","","","","","","29","","",""
"revaluation","245","1078175","0.0-4.0-4.0-0.15","spark_pilot_2","7395","3","16","Male","","","false","","","","[937.6000001430511]","./assets/img/ocean/animals/seahorse.jpg","[""ArrowLeft""]","revaluation","ocean","23","{""ArrowUp,ArrowLeft"":23,""ArrowUp,ArrowRight"":10,""ArrowDown,ArrowLeft"":8,""ArrowDown,ArrowRight"":30}","true","ArrowUp,ArrowLeft","","","","original","1","30","","",""
"html-keyboard-response","246","1078686","0.0-4.0-4.0-1.15","spark_pilot_2","7395","3","16","Male","","","","","","","null","<div style=""font-size:60px;"">+</div>","null","fixation","","","","","","","","","","","31","","",""
"revaluation","247","1082694","0.0-4.0-4.0-0.16","spark_pilot_2","7395","3","16","Male","","","false","","","","[658]","./assets/img/ocean/animals/octopus.jpg","[""ArrowRight""]","revaluation","ocean","30","{""ArrowUp,ArrowLeft"":23,""ArrowUp,ArrowRight"":10,""ArrowDown,ArrowLeft"":8,""ArrowDown,ArrowRight"":30}","true","ArrowDown,ArrowRight","","","","original","1","32","","",""
"html-keyboard-response","248","1083196","0.0-4.0-4.0-1.16","spark_pilot_2","7395","3","16","Male","","","","","","","null","<div style=""font-size:60px;"">+</div>","null","fixation","","","","","","","","","","","33","","",""
"revaluation","249","1087202","0.0-4.0-4.0-0.17","spark_pilot_2","7395","3","16","Male","","","false","","","","[796.6000001430511]","./assets/img/ocean/animals/seahorse.jpg","[""ArrowLeft""]","revaluation","ocean","23","{""ArrowUp,ArrowLeft"":23,""ArrowUp,ArrowRight"":10,""ArrowDown,ArrowLeft"":8,""ArrowDown,ArrowRight"":30}","true","ArrowUp,ArrowLeft","","","","original","1","34","","",""
"html-keyboard-response","250","1087703","0.0-4.0-4.0-1.17","spark_pilot_2","7395","3","16","Male","","","","","","","null","<div style=""font-size:60px;"">+</div>","null","fixation","","","","","","","","","","","35","","",""
"learning-instructions","251","1103523","0.0-4.0-5.0-0.0","spark_pilot_2","7395","3","16","Male","","","","","","","2127.199999809265","<p> Time to play the dot game! </p>
            <p> For one minute, click the red dots on the following screen as they appear. </p>
            <p><b> Don't look away, as you will earn bonus for clicking dots</b>. </p>","","instructions","","","","","","","","","","","","","",""
"revaluation","252","1163523","0.0-4.0-6.0-0.0","spark_pilot_2","7395","3","16","Male","","","","","","","[69,79,65,52,60,60,73]","","","rest","","70","","","","","0","60000","","","","","",""
"learning-instructions","253","1171008","0.0-4.0-7.0-0.0","spark_pilot_2","7395","3","16","Male","","","","","","","1383.4000000953674","<p> You have almost finished this part of the game! </p>
            <p> We are going to ask you to make a few more choices. </p>","","instructions","","","","","","","","","","","","","",""
"learning-instructions","254","1186631","0.0-4.0-7.0-0.1","spark_pilot_2","7395","3","16","Male","","","","","","","1655.7999999523163","<p> First, you need to decide whether to go up or down. When you see each picture, use the arrow keys to make your choice. </p>
            <p><b>You will not see which animal you found, but try to get to the one that will give you the most treasure.</b></p>","","instructions","","","","","","","","","","","","","",""
"revaluation","255","1187696","0.0-4.0-8.0-0.0","spark_pilot_2","7395","3","16","Male","","","false","","","","[1062.8999998569489]","./assets/img/ocean/test/3.jpg","[""ArrowUp""]","first stage test","ocean","0","{""ArrowUp,ArrowLeft"":23,""ArrowUp,ArrowRight"":10,""ArrowDown,ArrowLeft"":8,""ArrowDown,ArrowRight"":30}","false","ArrowUp","false","","","original","1","","","",""
"html-keyboard-response","256","1188202","0.0-4.0-8.0-1.0","spark_pilot_2","7395","3","16","Male","","","","","","","null","<div style=""font-size:60px;"">+</div>","null","fixation","","","","","","","","","","","","","",""
"revaluation","257","1189228","0.0-4.0-8.0-0.1","spark_pilot_2","7395","3","16","Male","","","false","","","","[1020.5]","./assets/img/ocean/test/0.jpg","[""ArrowUp""]","first stage test","ocean","0","{""ArrowUp,ArrowLeft"":23,""ArrowUp,ArrowRight"":10,""ArrowDown,ArrowLeft"":8,""ArrowDown,ArrowRight"":30}","false","ArrowUp","false","","","original","1","","","",""
"html-keyboard-response","258","1189742","0.0-4.0-8.0-1.1","spark_pilot_2","7395","3","16","Male","","","","","","","null","<div style=""font-size:60px;"">+</div>","null","fixation","","","","","","","","","","","","","",""
"revaluation","259","1190163","0.0-4.0-8.0-0.2","spark_pilot_2","7395","3","16","Male","","","false","","","","[414.40000009536743]","./assets/img/ocean/test/1.jpg","[""ArrowDown""]","first stage test","ocean","0","{""ArrowUp,ArrowLeft"":23,""ArrowUp,ArrowRight"":10,""ArrowDown,ArrowLeft"":8,""ArrowDown,ArrowRight"":30}","true","ArrowDown","false","","","original","1","","","",""
"html-keyboard-response","260","1190667","0.0-4.0-8.0-1.2","spark_pilot_2","7395","3","16","Male","","","","","","","null","<div style=""font-size:60px;"">+</div>","null","fixation","","","","","","","","","","","","","",""
"revaluation","261","1191175","0.0-4.0-8.0-0.3","spark_pilot_2","7395","3","16","Male","","","false","","","","[501.40000009536743]","./assets/img/ocean/test/2.jpg","[""ArrowUp""]","first stage test","ocean","0","{""ArrowUp,ArrowLeft"":23,""ArrowUp,ArrowRight"":10,""ArrowDown,ArrowLeft"":8,""ArrowDown,ArrowRight"":30}","false","ArrowUp","false","","","original","1","","","",""
"html-keyboard-response","262","1191682","0.0-4.0-8.0-1.3","spark_pilot_2","7395","3","16","Male","","","","","","","null","<div style=""font-size:60px;"">+</div>","null","fixation","","","","","","","","","","","","","",""
"learning-instructions","263","1204741","0.0-4.0-9.0-0.0","spark_pilot_2","7395","3","16","Male","","","","","","","1726.7000000476837","<p> Now you will see the animals again and can search their chests for treasure. </p>
            <p> This time, you will not see how much treasure you earned, but you will earn more bonus money for making better choices. </p>","","instructions","","","","","","","","","","","","","",""
"revaluation","264","1206405","0.0-4.0-10.0-0.0","spark_pilot_2","7395","3","16","Male","","","false","","","","[1662.9000000953674]","./assets/img/ocean/animals/seahorse.jpg","[""ArrowLeft""]","second stage test","ocean","0","{""ArrowUp,ArrowLeft"":23,""ArrowUp,ArrowRight"":10,""ArrowDown,ArrowLeft"":8,""ArrowDown,ArrowRight"":30}","true","ArrowUp,ArrowLeft","","","","original","1","","","",""
"html-keyboard-response","265","1206922","0.0-4.0-10.0-1.0","spark_pilot_2","7395","3","16","Male","","","","","","","null","<div style=""font-size:60px;"">+</div>","null","fixation","","","","","","","","","","","","","",""
"revaluation","266","1207906","0.0-4.0-10.0-0.1","spark_pilot_2","7395","3","16","Male","","","false","","","","[979.7999999523163]","./assets/img/ocean/animals/seahorse.jpg","[""ArrowLeft""]","second stage test","ocean","0","{""ArrowUp,ArrowLeft"":23,""ArrowUp,ArrowRight"":10,""ArrowDown,ArrowLeft"":8,""ArrowDown,ArrowRight"":30}","true","ArrowUp,ArrowLeft","","","","original","1","","","",""
"html-keyboard-response","267","1208412","0.0-4.0-10.0-1.1","spark_pilot_2","7395","3","16","Male","","","","","","","null","<div style=""font-size:60px;"">+</div>","null","fixation","","","","","","","","","","","","","",""
"revaluation","268","1209157","0.0-4.0-10.0-0.2","spark_pilot_2","7395","3","16","Male","","","false","","","","[740.2999999523163]","./assets/img/ocean/animals/seahorse.jpg","[""ArrowLeft""]","second stage test","ocean","0","{""ArrowUp,ArrowLeft"":23,""ArrowUp,ArrowRight"":10,""ArrowDown,ArrowLeft"":8,""ArrowDown,ArrowRight"":30}","true","ArrowUp,ArrowLeft","","","","original","1","","","",""
"html-keyboard-response","269","1209662","0.0-4.0-10.0-1.2","spark_pilot_2","7395","3","16","Male","","","","","","","null","<div style=""font-size:60px;"">+</div>","null","fixation","","","","","","","","","","","","","",""
"revaluation","270","1210279","0.0-4.0-10.0-0.3","spark_pilot_2","7395","3","16","Male","","","false","","","","[611.7999999523163]","./assets/img/ocean/animals/seahorse.jpg","[""ArrowLeft""]","second stage test","ocean","0","{""ArrowUp,ArrowLeft"":23,""ArrowUp,ArrowRight"":10,""ArrowDown,ArrowLeft"":8,""ArrowDown,ArrowRight"":30}","true","ArrowUp,ArrowLeft","","","","original","1","","","",""
"html-keyboard-response","271","1210782","0.0-4.0-10.0-1.3","spark_pilot_2","7395","3","16","Male","","","","","","","null","<div style=""font-size:60px;"">+</div>","null","fixation","","","","","","","","","","","","","",""
"revaluation","272","1211731","0.0-4.0-10.0-0.4","spark_pilot_2","7395","3","16","Male","","","false","","","","[940.9000000953674]","./assets/img/ocean/animals/octopus.jpg","[""ArrowRight""]","second stage test","ocean","0","{""ArrowUp,ArrowLeft"":23,""ArrowUp,ArrowRight"":10,""ArrowDown,ArrowLeft"":8,""ArrowDown,ArrowRight"":30}","true","ArrowDown,ArrowRight","","","","original","1","","","",""
"html-keyboard-response","273","1212242","0.0-4.0-10.0-1.4","spark_pilot_2","7395","3","16","Male","","","","","","","null","<div style=""font-size:60px;"">+</div>","null","fixation","","","","","","","","","","","","","",""
"revaluation","274","1212994","0.0-4.0-10.0-0.5","spark_pilot_2","7395","3","16","Male","","","false","","","","[744.4000000953674]","./assets/img/ocean/animals/octopus.jpg","[""ArrowRight""]","second stage test","ocean","0","{""ArrowUp,ArrowLeft"":23,""ArrowUp,ArrowRight"":10,""ArrowDown,ArrowLeft"":8,""ArrowDown,ArrowRight"":30}","true","ArrowDown,ArrowRight","","","","original","1","","","",""
"html-keyboard-response","275","1213507","0.0-4.0-10.0-1.5","spark_pilot_2","7395","3","16","Male","","","","","","","null","<div style=""font-size:60px;"">+</div>","null","fixation","","","","","","","","","","","","","",""
"revaluation","276","1214167","0.0-4.0-10.0-0.6","spark_pilot_2","7395","3","16","Male","","","false","","","","[656.0999999046326]","./assets/img/ocean/animals/octopus.jpg","[""ArrowRight""]","second stage test","ocean","0","{""ArrowUp,ArrowLeft"":23,""ArrowUp,ArrowRight"":10,""ArrowDown,ArrowLeft"":8,""ArrowDown,ArrowRight"":30}","true","ArrowDown,ArrowRight","","","","original","1","","","",""
"html-keyboard-response","277","1214672","0.0-4.0-10.0-1.6","spark_pilot_2","7395","3","16","Male","","","","","","","null","<div style=""font-size:60px;"">+</div>","null","fixation","","","","","","","","","","","","","",""
"revaluation","278","1215177","0.0-4.0-10.0-0.7","spark_pilot_2","7395","3","16","Male","","","false","","","","[498.5]","./assets/img/ocean/animals/octopus.jpg","[""ArrowRight""]","second stage test","ocean","0","{""ArrowUp,ArrowLeft"":23,""ArrowUp,ArrowRight"":10,""ArrowDown,ArrowLeft"":8,""ArrowDown,ArrowRight"":30}","true","ArrowDown,ArrowRight","","","","original","1","","","",""
"html-keyboard-response","279","1215682","0.0-4.0-10.0-1.7","spark_pilot_2","7395","3","16","Male","","","","","","","null","<div style=""font-size:60px;"">+</div>","null","fixation","","","","","","","","","","","","","",""
"learning-instructions","280","1219517","0.0-4.0-0.1-0.2","spark_pilot_2","7395","3","16","Male","","","","","","","1032.4000000953674","<p> This time you are searching for treasure in the <b>canyon</b>.</p>","","instructions","","","","","","","","","","","","","",""
"learning-instructions","281","1238843","0.0-4.0-0.1-0.3","spark_pilot_2","7395","3","16","Male","","","","","","","2077.7999999523163","<p><b>New</b> animals with <b>new</b> treasure chests live here. You need to explore to discover where the animal with the best treasure chest is.</p>
                    <p> Like before, once you figure out which animal has the chest with the most treasure, you should try to get to that animal and select that chest! </p>","","instructions","","","","","","","","","","","","","",""
"learning-instructions","282","1256547","0.0-4.0-1.1-0.1","spark_pilot_2","7395","3","16","Male","","","","","","","2970.5","<p> Remember, when you see a picture of the place, use the up and down keys to <b>find an animal</b>.</p>
            <p> When you encounter an animal, you should use the left and right keys to <b>select a treasure chest</b>.</p>
            <p> Don't forget to look out for the robber! </p>","","instructions","","","","","","","","","","","","","",""
"revaluation","283","1262583","0.0-4.0-2.1-0.50","spark_pilot_2","7395","3","16","Male","","","false","","","","[968.2999999523163,774.1000001430511]","./assets/img/canyon/memory/2.jpg","[""ArrowUp"",""ArrowRight""]","value training","canyon","10","{""ArrowUp,ArrowLeft"":26,""ArrowUp,ArrowRight"":10,""ArrowDown,ArrowLeft"":5,""ArrowDown,ArrowRight"":17}","false","ArrowUp,ArrowRight","false","","","revaluation","2","0","","",""
"html-keyboard-response","284","1263092","0.0-4.0-2.1-1.50","spark_pilot_2","7395","3","16","Male","","","","","","","null","<div style=""font-size:60px;"">+</div>","null","fixation","","","","","","","","","","","1","","",""
"revaluation","285","1269143","0.0-4.0-2.1-0.51","spark_pilot_2","7395","3","16","Male","","","false","","","","[444.19999980926514,297.40000009536743]","./assets/img/canyon/memory/9.jpg","[""ArrowUp"",""ArrowLeft""]","value training","canyon","26","{""ArrowUp,ArrowLeft"":26,""ArrowUp,ArrowRight"":10,""ArrowDown,ArrowLeft"":5,""ArrowDown,ArrowRight"":17}","true","ArrowUp,ArrowLeft","false","","","revaluation","2","2","","",""
"html-keyboard-response","286","1269653","0.0-4.0-2.1-1.51","spark_pilot_2","7395","3","16","Male","","","","","","","null","<div style=""font-size:60px;"">+</div>","null","fixation","","","","","","","","","","","3","","",""
"revaluation","287","1273672","0.0-4.0-2.1-0.52","spark_pilot_2","7395","3","16","Male","","","false","","","","[988.0999999046326]","./assets/img/canyon/catch/3.jpg","[""spaceBar""]","value training","canyon","0","{""ArrowUp,ArrowLeft"":26,""ArrowUp,ArrowRight"":10,""ArrowDown,ArrowLeft"":5,""ArrowDown,ArrowRight"":17}","true","spaceBar","true","","","revaluation","2","4","","",""
"html-keyboard-response","288","1274182","0.0-4.0-2.1-1.52","spark_pilot_2","7395","3","16","Male","","","","","","","null","<div style=""font-size:60px;"">+</div>","null","fixation","","","","","","","","","","","5","","",""
"revaluation","289","1278202","0.0-4.0-2.1-0.53","spark_pilot_2","7395","3","16","Male","","","false","","","","[854.1999998092651]","./assets/img/canyon/catch/1.jpg","[""spaceBar""]","value training","canyon","0","{""ArrowUp,ArrowLeft"":26,""ArrowUp,ArrowRight"":10,""ArrowDown,ArrowLeft"":5,""ArrowDown,ArrowRight"":17}","true","spaceBar","true","","","revaluation","2","6","","",""
"html-keyboard-response","290","1278712","0.0-4.0-2.1-1.53","spark_pilot_2","7395","3","16","Male","","","","","","","null","<div style=""font-size:60px;"">+</div>","null","fixation","","","","","","","","","","","7","","",""
"revaluation","291","1282733","0.0-4.0-2.1-0.54","spark_pilot_2","7395","3","16","Male","","","false","","","","[765.4000000953674]","./assets/img/canyon/catch/0.jpg","[""spaceBar""]","value training","canyon","0","{""ArrowUp,ArrowLeft"":26,""ArrowUp,ArrowRight"":10,""ArrowDown,ArrowLeft"":5,""ArrowDown,ArrowRight"":17}","true","spaceBar","true","","","revaluation","2","8","","",""
"html-keyboard-response","292","1283242","0.0-4.0-2.1-1.54","spark_pilot_2","7395","3","16","Male","","","","","","","null","<div style=""font-size:60px;"">+</div>","null","fixation","","","","","","","","","","","9","","",""
"revaluation","293","1289250","0.0-4.0-2.1-0.55","spark_pilot_2","7395","3","16","Male","","","false","","","","[813.5,1027.1999998092651]","./assets/img/canyon/memory/26.jpg","[""ArrowDown"",""ArrowRight""]","value training","canyon","17","{""ArrowUp,ArrowLeft"":26,""ArrowUp,ArrowRight"":10,""ArrowDown,ArrowLeft"":5,""ArrowDown,ArrowRight"":17}","false","ArrowDown,ArrowRight","false","","","revaluation","2","10","","",""
"html-keyboard-response","294","1289752","0.0-4.0-2.1-1.55","spark_pilot_2","7395","3","16","Male","","","","","","","null","<div style=""font-size:60px;"">+</div>","null","fixation","","","","","","","","","","","11","","",""
"revaluation","295","1295771","0.0-4.0-2.1-0.56","spark_pilot_2","7395","3","16","Male","","","false","","","","[1164.5999999046326,632.5999999046326]","./assets/img/canyon/memory/36.jpg","[""ArrowDown"",""ArrowLeft""]","value training","canyon","5","{""ArrowUp,ArrowLeft"":26,""ArrowUp,ArrowRight"":10,""ArrowDown,ArrowLeft"":5,""ArrowDown,ArrowRight"":17}","false","ArrowDown,ArrowLeft","false","","","revaluation","2","12","","",""
"html-keyboard-response","296","1296273","0.0-4.0-2.1-1.56","spark_pilot_2","7395","3","16","Male","","","","","","","null","<div style=""font-size:60px;"">+</div>","null","fixation","","","","","","","","","","","13","","",""
"revaluation","297","1302280","0.0-4.0-2.1-0.57","spark_pilot_2","7395","3","16","Male","","","false","","","","[748.2999999523163,1880.5]","./assets/img/canyon/memory/17.jpg","[""ArrowUp"",""ArrowRight""]","value training","canyon","10","{""ArrowUp,ArrowLeft"":26,""ArrowUp,ArrowRight"":10,""ArrowDown,ArrowLeft"":5,""ArrowDown,ArrowRight"":17}","false","ArrowUp,ArrowRight","false","","","revaluation","2","14","","",""
"html-keyboard-response","298","1302782","0.0-4.0-2.1-1.57","spark_pilot_2","7395","3","16","Male","","","","","","","null","<div style=""font-size:60px;"">+</div>","null","fixation","","","","","","","","","","","15","","",""
"revaluation","299","1308791","0.0-4.0-2.1-0.58","spark_pilot_2","7395","3","16","Male","","","false","","","","[775.7000000476837,341.2999999523163]","./assets/img/canyon/memory/8.jpg","[""ArrowUp"",""ArrowLeft""]","value training","canyon","26","{""ArrowUp,ArrowLeft"":26,""ArrowUp,ArrowRight"":10,""ArrowDown,ArrowLeft"":5,""ArrowDown,ArrowRight"":17}","true","ArrowUp,ArrowLeft","false","","","revaluation","2","16","","",""
"html-keyboard-response","300","1309293","0.0-4.0-2.1-1.58","spark_pilot_2","7395","3","16","Male","","","","","","","null","<div style=""font-size:60px;"">+</div>","null","fixation","","","","","","","","","","","17","","",""
"revaluation","301","1315300","0.0-4.0-2.1-0.59","spark_pilot_2","7395","3","16","Male","","","false","","","","[689.2999999523163,829.2999999523163]","./assets/img/canyon/memory/8.jpg","[""ArrowUp"",""ArrowLeft""]","value training","canyon","26","{""ArrowUp,ArrowLeft"":26,""ArrowUp,ArrowRight"":10,""ArrowDown,ArrowLeft"":5,""ArrowDown,ArrowRight"":17}","true","ArrowUp,ArrowLeft","false","","","revaluation","2","18","","",""
"html-keyboard-response","302","1315803","0.0-4.0-2.1-1.59","spark_pilot_2","7395","3","16","Male","","","","","","","null","<div style=""font-size:60px;"">+</div>","null","fixation","","","","","","","","","","","19","","",""
"revaluation","303","1321817","0.0-4.0-2.1-0.60","spark_pilot_2","7395","3","16","Male","","","false","","","","[738.9000000953674,313.90000009536743]","./assets/img/canyon/memory/30.jpg","[""ArrowUp"",""ArrowLeft""]","value training","canyon","26","{""ArrowUp,ArrowLeft"":26,""ArrowUp,ArrowRight"":10,""ArrowDown,ArrowLeft"":5,""ArrowDown,ArrowRight"":17}","true","ArrowUp,ArrowLeft","false","","","revaluation","2","20","","",""
"html-keyboard-response","304","1322318","0.0-4.0-2.1-1.60","spark_pilot_2","7395","3","16","Male","","","","","","","null","<div style=""font-size:60px;"">+</div>","null","fixation","","","","","","","","","","","21","","",""
"revaluation","305","1328323","0.0-4.0-2.1-0.61","spark_pilot_2","7395","3","16","Male","","","false","","","","[552.9000000953674,443.7999999523163]","./assets/img/canyon/memory/13.jpg","[""ArrowUp"",""ArrowLeft""]","value training","canyon","26","{""ArrowUp,ArrowLeft"":26,""ArrowUp,ArrowRight"":10,""ArrowDown,ArrowLeft"":5,""ArrowDown,ArrowRight"":17}","true","ArrowUp,ArrowLeft","false","","","revaluation","2","22","","",""
"html-keyboard-response","306","1328826","0.0-4.0-2.1-1.61","spark_pilot_2","7395","3","16","Male","","","","","","","null","<div style=""font-size:60px;"">+</div>","null","fixation","","","","","","","","","","","23","","",""
"revaluation","307","1334831","0.0-4.0-2.1-0.62","spark_pilot_2","7395","3","16","Male","","","false","","","","[499,626.7000000476837]","./assets/img/canyon/memory/37.jpg","[""ArrowUp"",""ArrowLeft""]","value training","canyon","26","{""ArrowUp,ArrowLeft"":26,""ArrowUp,ArrowRight"":10,""ArrowDown,ArrowLeft"":5,""ArrowDown,ArrowRight"":17}","true","ArrowUp,ArrowLeft","false","","","revaluation","2","24","","",""
