"trial_type","trial_index","time_elapsed","internal_node_id","task_version","subject_id","assigned_condition","age","gender","success","timeout","failed_images","failed_audio","failed_video","browser_interaction","rt","stimulus","response","task_part","environment","score","rewardMap","correct","fullState","isCatch","numberMissed","duration","condition","order","trial_num","key_press","ground_truth","bonus"
"pavlovia","0","1408","0.0-0.0","spark_pilot_2","7463","7","20","Male","","","","","","","","","","","","","","","","","","","","","","","",""
"preload","1","21109","0.0-1.0","spark_pilot_2","7463","7","20","Male","true","false","[]","[]","[]","[{""event"":""fullscreenenter"",""trial"":2,""time"":23027}]","","","","","","","","","","","","","","","","","",""
"fullscreen","2","24026","0.0-2.0","spark_pilot_2","7463","7","20","Male","true","","","","","","","","","","","","","","","","","","","","","","",""
"audio-button-response","3","25816","0.0-3.0-0.0-0.0","spark_pilot_2","7463","7","20","Male","","","","","","","1776","./assets/audio/audiotest/turtle.mp3","2","audio_test","","","","","","","","","","","","","",""
"learning-instructions","4","34699","0.0-3.0-1.0-0.0","spark_pilot_2","7463","7","20","Male","","","","","","","1903.2000000011176","<p> Welcome! Please remember to stay in fullscreen mode and don't click away from the experiment. </p>","","instructions","","","","","","","","","","","","","",""
"learning-instructions","5","43532","0.0-3.0-1.0-0.1","spark_pilot_2","7463","7","20","Male","","","","","","","426.90000000037253","<p> Today you will be playing a game to earn treasure. </p>
            <p> At the end of the experiment, you will earn a bonus based on how much treasure you find. </p>
            <img src='./assets/img/instructions/treasure.jpg' class='instructions-image'>","","instructions","","","","","","","","","","","","","",""
"learning-instructions","6","52250","0.0-3.0-1.0-0.2","spark_pilot_2","7463","7","20","Male","","","","","","","461.5","<p> Animals have hidden treasure in treasure chests. </p>
            <p> You need to first find an animal and then choose which of their treasure chests to search. </p>
            <img src='./assets/img/space/animals/cat.jpg' class='instructions-image'>","","instructions","","","","","","","","","","","","","",""
"learning-instructions","7","66233","0.0-3.0-1.0-0.3","spark_pilot_2","7463","7","20","Male","","","","","","","839.3000000007451","<p> In each round, you will search for treasure in a different place. In the real game, there will be two rounds. </p>
            <p> You will begin with a separate, practice round where you will search for treasure in outer space. </p>
            <img src='./assets/img/space/0.jpg' class='instructions-image'>","","instructions","","","","","","","","","","","","","",""
"learning-instructions","8","78483","0.0-3.0-1.0-0.4","spark_pilot_2","7463","7","20","Male","","","","","","","838.4000000003725","<p> On every turn, you will see a picture of the place that you are in, but the specific image may be different each time. </p>
            <p> For example, both of these images mean you are in outer space. </p>
            <img src='./assets/img/instructions/outerspace.jpg' class='instructions-image'>","","instructions","","","","","","","","","","","","","",""
"learning-instructions","9","86733","0.0-3.0-1.0-0.5","spark_pilot_2","7463","7","20","Male","","","","","","","426.8999999985099","<p> You need to decide which direction to travel in. </p>
            <p> You can choose between going <b>up or down</b> by using the arrow keys. </p>
            <img src='./assets/img/instructions/updown.jpg' class='instructions-image'>","","instructions","","","","","","","","","","","","","",""
"learning-instructions","10","96599","0.0-3.0-1.0-0.6","spark_pilot_2","7463","7","20","Male","","","","","","","1055.800000000745","<p> You will have <b>2 seconds</b> to make your choice. </p>
            <p> If you do not make a choice within 2 seconds, you will not find an animal or earn treasure. </p>
            <img src='./assets/img/instructions/2seconds.jpg' class='instructions-image'>","","instructions","","","","","","","","","","","","","",""
"learning-instructions","11","104049","0.0-3.0-1.0-0.7","spark_pilot_2","7463","7","20","Male","","","","","","","415.5","<p> Let’s try practicing that now! </p>
            <p> When you see a picture of the place you are in, press the <b>up</b> key to travel up. </p>
            <img src='./assets/img/instructions/pressUp.jpg' class='instructions-image'>","","instructions","","","","","","","","","","","","","",""
"revaluation","12","108078","0.0-3.0-2.0-0.0","spark_pilot_2","7463","7","20","Male","","false","","","","","[1393.0999999996275]","./assets/img/space/0.jpg","[""ArrowUp""]","first stage practice","space","0","null","null","ArrowUp","false","","","","","","","",""
"html-keyboard-response","13","108581","0.0-3.0-2.0-1.0","spark_pilot_2","7463","7","20","Male","","","","","","","null","<div style=""font-size:60px;"">+</div>","null","fixation","","","","","","","","","","","","","",""
"revaluation","14","112601","0.0-3.0-2.0-0.1","spark_pilot_2","7463","7","20","Male","","true","","","","","[]","./assets/img/space/1.jpg","[]","first stage practice","space","-5","null","null","","false","","","","","","","",""
"html-keyboard-response","15","113110","0.0-3.0-2.0-1.1","spark_pilot_2","7463","7","20","Male","","","","","","","null","<div style=""font-size:60px;"">+</div>","null","fixation","","","","","","","","","","","","","",""
"revaluation","16","117126","0.0-3.0-2.0-0.2","spark_pilot_2","7463","7","20","Male","","false","","","","","[489]","./assets/img/space/2.jpg","[""ArrowUp""]","first stage practice","space","0","null","null","ArrowUp","false","","","","","","","",""
"html-keyboard-response","17","117640","0.0-3.0-2.0-1.2","spark_pilot_2","7463","7","20","Male","","","","","","","null","<div style=""font-size:60px;"">+</div>","null","fixation","","","","","","","","","","","","","",""
"learning-instructions","18","123267","0.0-3.0-3.0-0.0","spark_pilot_2","7463","7","20","Male","","","","","","","929","<p> Great job! Now try pressing the <b>down</b> key to travel down. </p>
            <img src='./assets/img/instructions/pressDown.jpg' class='instructions-image'>","","instructions","","","","","","","","","","","","","",""
"revaluation","19","127289","0.0-3.0-4.0-0.0","spark_pilot_2","7463","7","20","Male","","false","","","","","[973]","./assets/img/space/3.jpg","[""ArrowDown""]","first stage practice","space","0","null","null","ArrowDown","false","","","","","","","",""
"html-keyboard-response","20","127800","0.0-3.0-4.0-1.0","spark_pilot_2","7463","7","20","Male","","","","","","","null","<div style=""font-size:60px;"">+</div>","null","fixation","","","","","","","","","","","","","",""
"revaluation","21","131822","0.0-3.0-4.0-0.1","spark_pilot_2","7463","7","20","Male","","false","","","","","[303]","./assets/img/space/4.jpg","[""ArrowDown""]","first stage practice","space","0","null","null","ArrowDown","false","","","","","","","",""
"html-keyboard-response","22","132335","0.0-3.0-4.0-1.1","spark_pilot_2","7463","7","20","Male","","","","","","","null","<div style=""font-size:60px;"">+</div>","null","fixation","","","","","","","","","","","","","",""
"revaluation","23","136360","0.0-3.0-4.0-0.2","spark_pilot_2","7463","7","20","Male","","false","","","","","[50]","./assets/img/space/5.jpg","[""ArrowDown""]","first stage practice","space","0","null","null","ArrowDown","false","","","","","","","",""
"html-keyboard-response","24","136870","0.0-3.0-4.0-1.2","spark_pilot_2","7463","7","20","Male","","","","","","","null","<div style=""font-size:60px;"">+</div>","null","fixation","","","","","","","","","","","","","",""
"learning-instructions","25","147250","0.0-3.0-5.0-0.0","spark_pilot_2","7463","7","20","Male","","","","","","","528.7000000011176","<p> The animals don’t move, so the animal in the upper part of a place will stay in the upper part of a place, and the animal in the lower part of a place will stay in the lower part of a place. </p>","","instructions","","","","","","","","","","","","","",""
"learning-instructions","26","157166","0.0-3.0-5.0-0.1","spark_pilot_2","7463","7","20","Male","","","","","","","786.5","<p> Each animal has two treasure chests for you to choose from. </p>
            <p> The amount of treasure in each chest can range from <b> 0 to 40 pieces.</b></p>","","instructions","","","","","","","","","","","","","",""
"learning-instructions","27","169550","0.0-3.0-5.0-0.2","spark_pilot_2","7463","7","20","Male","","","","","","","1201.7000000011176","<p> You should decide which chest to search for treasure by using the <b>left</b> and <b>right</b> arrow keys. </p>
            <p><b> Pay attention to which animal is on the screen, as the animals have different treasure chests. </b></p>
            <img src='./assets/img/instructions/leftright.jpg' class='instructions-image'>","","instructions","","","","","","","","","","","","","",""
"learning-instructions","28","177333","0.0-3.0-5.0-0.3","spark_pilot_2","7463","7","20","Male","","","","","","","1422.300000000745","<p> Let’s try practicing that now. </p>
            <p> When you see an animal, choose which chest to search for treasure. </p>
            <img src='./assets/img/instructions/chooseChest.jpg' class='instructions-image'>","","instructions","","","","","","","","","","","","","",""
"revaluation","29","181346","0.0-3.0-6.0-0.0","spark_pilot_2","7463","7","20","Male","","true","","","","","[]","./assets/img/space/animals/rabbit.jpg","[]","second stage practice","space","-5","{""ArrowUp,ArrowLeft"":3,""ArrowUp,ArrowRight"":36,""ArrowDown,ArrowLeft"":15,""ArrowDown,ArrowRight"":23}","false","ArrowDown","","","","","","","","",""
"html-keyboard-response","30","181851","0.0-3.0-6.0-1.0","spark_pilot_2","7463","7","20","Male","","","","","","","null","<div style=""font-size:60px;"">+</div>","null","fixation","","","","","","","","","","","","","",""
"revaluation","31","185877","0.0-3.0-6.0-0.1","spark_pilot_2","7463","7","20","Male","","false","","","","","[361.90000000037253]","./assets/img/space/animals/cat.jpg","[""ArrowRight""]","second stage practice","space","36","{""ArrowUp,ArrowLeft"":3,""ArrowUp,ArrowRight"":36,""ArrowDown,ArrowLeft"":15,""ArrowDown,ArrowRight"":23}","true","ArrowUp,ArrowRight","","","","","","","","",""
"html-keyboard-response","32","186386","0.0-3.0-6.0-1.1","spark_pilot_2","7463","7","20","Male","","","","","","","null","<div style=""font-size:60px;"">+</div>","null","fixation","","","","","","","","","","","","","",""
"revaluation","33","190404","0.0-3.0-6.0-0.2","spark_pilot_2","7463","7","20","Male","","false","","","","","[133.09999999962747]","./assets/img/space/animals/rabbit.jpg","[""ArrowLeft""]","second stage practice","space","15","{""ArrowUp,ArrowLeft"":3,""ArrowUp,ArrowRight"":36,""ArrowDown,ArrowLeft"":15,""ArrowDown,ArrowRight"":23}","false","ArrowDown,ArrowLeft","","","","","","","","",""
"html-keyboard-response","34","190918","0.0-3.0-6.0-1.2","spark_pilot_2","7463","7","20","Male","","","","","","","null","<div style=""font-size:60px;"">+</div>","null","fixation","","","","","","","","","","","","","",""
"revaluation","35","194942","0.0-3.0-6.0-0.3","spark_pilot_2","7463","7","20","Male","","false","","","","","[404.09999999962747]","./assets/img/space/animals/cat.jpg","[""ArrowRight""]","second stage practice","space","36","{""ArrowUp,ArrowLeft"":3,""ArrowUp,ArrowRight"":36,""ArrowDown,ArrowLeft"":15,""ArrowDown,ArrowRight"":23}","true","ArrowUp,ArrowRight","","","","","","","","",""
"html-keyboard-response","36","195451","0.0-3.0-6.0-1.3","spark_pilot_2","7463","7","20","Male","","","","","","","null","<div style=""font-size:60px;"">+</div>","null","fixation","","","","","","","","","","","","","",""
"learning-instructions","37","214150","0.0-3.0-7.0-0.0","spark_pilot_2","7463","7","20","Male","","","","","","","1886.9000000003725","<p> Great job. Now let’s try putting it together. </p>
            <p> On each turn, you will first see a picture to remind you of the place you are in, and you need to choose whether to go up or down. </p>
            <p> Then you will see an animal and choose which of its chests to search for treasure. </p>","","instructions","","","","","","","","","","","","","",""
"learning-instructions","38","223000","0.0-3.0-7.0-0.1","spark_pilot_2","7463","7","20","Male","","","","","","","593.5","<p> When you choose whether to go up or down, try to go to the animal with the chest with the most treasure. </p>
            <p> Try practicing that now! </p>","","instructions","","","","","","","","","","","","","",""
"revaluation","39","229027","0.0-3.0-8.0-0.0","spark_pilot_2","7463","7","20","Male","","false","","","","","[1106.300000000745,851.5]","./assets/img/space/6.jpg","[""ArrowUp"",""ArrowRight""]","full practice","space","36","{""ArrowUp,ArrowLeft"":3,""ArrowUp,ArrowRight"":36,""ArrowDown,ArrowLeft"":15,""ArrowDown,ArrowRight"":23}","true","ArrowUp,ArrowRight","false","","","","","","","",""
"html-keyboard-response","40","229536","0.0-3.0-8.0-1.0","spark_pilot_2","7463","7","20","Male","","","","","","","null","<div style=""font-size:60px;"">+</div>","null","fixation","","","","","","","","","","","","","",""
"revaluation","41","235560","0.0-3.0-8.0-0.1","spark_pilot_2","7463","7","20","Male","","false","","","","","[765.5,343.7999999988824]","./assets/img/space/7.jpg","[""ArrowUp"",""ArrowRight""]","full practice","space","36","{""ArrowUp,ArrowLeft"":3,""ArrowUp,ArrowRight"":36,""ArrowDown,ArrowLeft"":15,""ArrowDown,ArrowRight"":23}","true","ArrowUp,ArrowRight","false","","","","","","","",""
"html-keyboard-response","42","236064","0.0-3.0-8.0-1.1","spark_pilot_2","7463","7","20","Male","","","","","","","null","<div style=""font-size:60px;"">+</div>","null","fixation","","","","","","","","","","","","","",""
"revaluation","43","242088","0.0-3.0-8.0-0.2","spark_pilot_2","7463","7","20","Male","","false","","","","","[639.5,354.59999999962747]","./assets/img/space/8.jpg","[""ArrowUp"",""ArrowRight""]","full practice","space","36","{""ArrowUp,ArrowLeft"":3,""ArrowUp,ArrowRight"":36,""ArrowDown,ArrowLeft"":15,""ArrowDown,ArrowRight"":23}","true","ArrowUp,ArrowRight","false","","","","","","","",""
"html-keyboard-response","44","242593","0.0-3.0-8.0-1.2","spark_pilot_2","7463","7","20","Male","","","","","","","null","<div style=""font-size:60px;"">+</div>","null","fixation","","","","","","","","","","","","","",""
"revaluation","45","248616","0.0-3.0-8.0-0.3","spark_pilot_2","7463","7","20","Male","","false","","","","","[641.6999999992549,451.30000000074506]","./assets/img/space/9.jpg","[""ArrowUp"",""ArrowRight""]","full practice","space","36","{""ArrowUp,ArrowLeft"":3,""ArrowUp,ArrowRight"":36,""ArrowDown,ArrowLeft"":15,""ArrowDown,ArrowRight"":23}","true","ArrowUp,ArrowRight","false","","","","","","","",""
"html-keyboard-response","46","249119","0.0-3.0-8.0-1.3","spark_pilot_2","7463","7","20","Male","","","","","","","null","<div style=""font-size:60px;"">+</div>","null","fixation","","","","","","","","","","","","","",""
"revaluation","47","255144","0.0-3.0-8.0-0.4","spark_pilot_2","7463","7","20","Male","","false","","","","","[583.4000000003725,346.8999999985099]","./assets/img/space/10.jpg","[""ArrowUp"",""ArrowRight""]","full practice","space","36","{""ArrowUp,ArrowLeft"":3,""ArrowUp,ArrowRight"":36,""ArrowDown,ArrowLeft"":15,""ArrowDown,ArrowRight"":23}","true","ArrowUp,ArrowRight","false","","","","","","","",""
"html-keyboard-response","48","255650","0.0-3.0-8.0-1.4","spark_pilot_2","7463","7","20","Male","","","","","","","null","<div style=""font-size:60px;"">+</div>","null","fixation","","","","","","","","","","","","","",""
"learning-instructions","49","266467","0.0-3.0-9.0-0.0","spark_pilot_2","7463","7","20","Male","","","","","","","472.90000000037253","<p> One last thing: sometimes, you will see a robber. The robber can be anywhere in the picture. </p>
            <p> If you do not stop them, you will lose treasure. </p>
            <img src='./assets/img/instructions/robber.jpg' class='instructions-image'>","","instructions","","","","","","","","","","","","","",""
"learning-instructions","50","275000","0.0-3.0-9.0-0.1","spark_pilot_2","7463","7","20","Male","","","","","","","1368.300000000745","<p> If you see the robber, you should <b>press the space bar</b> rather than using the arrow keys. </p>
            <p> Try practicing that now! </p>","","instructions","","","","","","","","","","","","","",""
"revaluation","51","279015","0.0-3.0-10.0-0.0","spark_pilot_2","7463","7","20","Male","","false","","","","","[853.1999999992549]","./assets/img/space/catch/0.jpg","[""spaceBar""]","catch practice","space","0","{""ArrowUp,ArrowLeft"":3,""ArrowUp,ArrowRight"":36,""ArrowDown,ArrowLeft"":15,""ArrowDown,ArrowRight"":23}","true","spaceBar","true","","","","","","","",""
"html-keyboard-response","52","279522","0.0-3.0-10.0-1.0","spark_pilot_2","7463","7","20","Male","","","","","","","null","<div style=""font-size:60px;"">+</div>","null","fixation","","","","","","","","","","","","","",""
"revaluation","53","283544","0.0-3.0-10.0-0.1","spark_pilot_2","7463","7","20","Male","","false","","","","","[482.5]","./assets/img/space/catch/1.jpg","[""spaceBar""]","catch practice","space","0","{""ArrowUp,ArrowLeft"":3,""ArrowUp,ArrowRight"":36,""ArrowDown,ArrowLeft"":15,""ArrowDown,ArrowRight"":23}","true","spaceBar","true","","","","","","","",""
"html-keyboard-response","54","284056","0.0-3.0-10.0-1.1","spark_pilot_2","7463","7","20","Male","","","","","","","null","<div style=""font-size:60px;"">+</div>","null","fixation","","","","","","","","","","","","","",""
"revaluation","55","288075","0.0-3.0-10.0-0.2","spark_pilot_2","7463","7","20","Male","","false","","","","","[607.8000000007451]","./assets/img/space/catch/2.jpg","[""spaceBar""]","catch practice","space","0","{""ArrowUp,ArrowLeft"":3,""ArrowUp,ArrowRight"":36,""ArrowDown,ArrowLeft"":15,""ArrowDown,ArrowRight"":23}","true","spaceBar","true","","","","","","","",""
"html-keyboard-response","56","288582","0.0-3.0-10.0-1.2","spark_pilot_2","7463","7","20","Male","","","","","","","null","<div style=""font-size:60px;"">+</div>","null","fixation","","","","","","","","","","","","","",""
"learning-instructions","57","302934","0.0-3.0-11.0-0.0","spark_pilot_2","7463","7","20","Male","","","","","","","769","<p> After you explore a place to find treasure, it will be time to play a different game. </p>
            <p> During this game, red dots will appear on the screen and fall down slowly. </p>
            <p><b> You must click on them before they reach the bottom. </b></p>
            <img src='./assets/img/instructions/dotGame.jpg' class='instructions-image'>","","instructions","","","","","","","","","","","","","",""
"learning-instructions","58","309184","0.0-3.0-11.0-0.1","spark_pilot_2","7463","7","20","Male","","","","","","","507","<p> For every dot you click, you will earn additional treasure. </p>
            <p> Let’s try practicing that now. </p>","","instructions","","","","","","","","","","","","","",""
"revaluation","59","324201","0.0-3.0-12.0-0.0","spark_pilot_2","7463","7","20","Male","","","","","","","[55]","","","rest practice","","10","","","","","0","15000","","","","","",""
"learning-instructions","60","330184","0.0-3.0-13.0-0.0-0.0","spark_pilot_2","7463","7","20","Male","","","","","","","723.1999999992549","<p> Now, you will practice a shortened version of the game to get a sense of how it all fits together. </p>","","instructions","","","","","","","","","","","","","",""
"learning-instructions","61","334185","0.0-3.0-13.0-0.0-0.1","spark_pilot_2","7463","7","20","Male","","","","","","","814.6999999992549","<p>This time you are searching for treasure in outer space.</p>","","instructions","","","","","","","","","","","","","",""
"learning-instructions","62","349451","0.0-3.0-13.0-1.0-0.0","spark_pilot_2","7463","7","20","Male","","","","","","","491.30000000074506","<p> Remember, when you see a picture of the place, use the up and down keys to <b>find an animal</b>.</p>
            <p> When you encounter an animal, you should use the left and right keys to <b>select a treasure chest</b>.</p>
            <p> Don't forget to look out for the robber! </p>","","instructions","","","","","","","","","","","","","",""
"revaluation","63","355478","0.0-3.0-13.0-2.0-0.0","spark_pilot_2","7463","7","20","Male","","false","","","","","[1497.9000000003725,951.1999999992549]","./assets/img/space/11.jpg","[""ArrowUp"",""ArrowLeft""]","practice block","space","3","{""ArrowUp,ArrowLeft"":3,""ArrowUp,ArrowRight"":36,""ArrowDown,ArrowLeft"":15,""ArrowDown,ArrowRight"":23}","false","ArrowUp,ArrowLeft","false","","","","","","","",""
"html-keyboard-response","64","355992","0.0-3.0-13.0-2.0-1.0","spark_pilot_2","7463","7","20","Male","","","","","","","null","<div style=""font-size:60px;"">+</div>","null","fixation","","","","","","","","","","","","","",""
"revaluation","65","362024","0.0-3.0-13.0-2.0-0.1","spark_pilot_2","7463","7","20","Male","","false","","","","","[990.6000000014901,392.7000000011176]","./assets/img/space/12.jpg","[""ArrowUp"",""ArrowRight""]","practice block","space","36","{""ArrowUp,ArrowLeft"":3,""ArrowUp,ArrowRight"":36,""ArrowDown,ArrowLeft"":15,""ArrowDown,ArrowRight"":23}","true","ArrowUp,ArrowRight","false","","","","","","","",""
"html-keyboard-response","66","362535","0.0-3.0-13.0-2.0-1.1","spark_pilot_2","7463","7","20","Male","","","","","","","null","<div style=""font-size:60px;"">+</div>","null","fixation","","","","","","","","","","","","","",""
"revaluation","67","368565","0.0-3.0-13.0-2.0-0.2","spark_pilot_2","7463","7","20","Male","","false","","","","","[704.5999999996275,374.2999999988824]","./assets/img/space/13.jpg","[""ArrowUp"",""ArrowRight""]","practice block","space","36","{""ArrowUp,ArrowLeft"":3,""ArrowUp,ArrowRight"":36,""ArrowDown,ArrowLeft"":15,""ArrowDown,ArrowRight"":23}","true","ArrowUp,ArrowRight","false","","","","","","","",""
"html-keyboard-response","68","369077","0.0-3.0-13.0-2.0-1.2","spark_pilot_2","7463","7","20","Male","","","","","","","null","<div style=""font-size:60px;"">+</div>","null","fixation","","","","","","","","","","","","","",""
"revaluation","69","375103","0.0-3.0-13.0-2.0-0.3","spark_pilot_2","7463","7","20","Male","","false","","","","","[774.0999999996275,355.59999999962747]","./assets/img/space/14.jpg","[""ArrowUp"",""ArrowRight""]","practice block","space","36","{""ArrowUp,ArrowLeft"":3,""ArrowUp,ArrowRight"":36,""ArrowDown,ArrowLeft"":15,""ArrowDown,ArrowRight"":23}","true","ArrowUp,ArrowRight","false","","","","","","","",""
"html-keyboard-response","70","375611","0.0-3.0-13.0-2.0-1.3","spark_pilot_2","7463","7","20","Male","","","","","","","null","<div style=""font-size:60px;"">+</div>","null","fixation","","","","","","","","","","","","","",""
"revaluation","71","381638","0.0-3.0-13.0-2.0-0.4","spark_pilot_2","7463","7","20","Male","","false","","","","","[912.3000000007451,602.8999999985099]","./assets/img/space/11.jpg","[""ArrowUp"",""ArrowRight""]","practice block","space","36","{""ArrowUp,ArrowLeft"":3,""ArrowUp,ArrowRight"":36,""ArrowDown,ArrowLeft"":15,""ArrowDown,ArrowRight"":23}","true","ArrowUp,ArrowRight","false","","","","","","","",""
"html-keyboard-response","72","382149","0.0-3.0-13.0-2.0-1.4","spark_pilot_2","7463","7","20","Male","","","","","","","null","<div style=""font-size:60px;"">+</div>","null","fixation","","","","","","","","","","","","","",""
"revaluation","73","388171","0.0-3.0-13.0-2.0-0.5","spark_pilot_2","7463","7","20","Male","","false","","","","","[937,468]","./assets/img/space/12.jpg","[""ArrowUp"",""ArrowRight""]","practice block","space","36","{""ArrowUp,ArrowLeft"":3,""ArrowUp,ArrowRight"":36,""ArrowDown,ArrowLeft"":15,""ArrowDown,ArrowRight"":23}","true","ArrowUp,ArrowRight","false","","","","","","","",""
"html-keyboard-response","74","388677","0.0-3.0-13.0-2.0-1.5","spark_pilot_2","7463","7","20","Male","","","","","","","null","<div style=""font-size:60px;"">+</div>","null","fixation","","","","","","","","","","","","","",""
"revaluation","75","394709","0.0-3.0-13.0-2.0-0.6","spark_pilot_2","7463","7","20","Male","","false","","","","","[669.0999999996275,416.59999999962747]","./assets/img/space/13.jpg","[""ArrowUp"",""ArrowRight""]","practice block","space","36","{""ArrowUp,ArrowLeft"":3,""ArrowUp,ArrowRight"":36,""ArrowDown,ArrowLeft"":15,""ArrowDown,ArrowRight"":23}","true","ArrowUp,ArrowRight","false","","","","","","","",""
"html-keyboard-response","76","395221","0.0-3.0-13.0-2.0-1.6","spark_pilot_2","7463","7","20","Male","","","","","","","null","<div style=""font-size:60px;"">+</div>","null","fixation","","","","","","","","","","","","","",""
"revaluation","77","401245","0.0-3.0-13.0-2.0-0.7","spark_pilot_2","7463","7","20","Male","","false","","","","","[619.1999999992549,440.80000000074506]","./assets/img/space/14.jpg","[""ArrowUp"",""ArrowRight""]","practice block","space","36","{""ArrowUp,ArrowLeft"":3,""ArrowUp,ArrowRight"":36,""ArrowDown,ArrowLeft"":15,""ArrowDown,ArrowRight"":23}","true","ArrowUp,ArrowRight","false","","","","","","","",""
"html-keyboard-response","78","401754","0.0-3.0-13.0-2.0-1.7","spark_pilot_2","7463","7","20","Male","","","","","","","null","<div style=""font-size:60px;"">+</div>","null","fixation","","","","","","","","","","","","","",""
"revaluation","79","405770","0.0-3.0-13.0-2.0-0.8","spark_pilot_2","7463","7","20","Male","","false","","","","","[793.8000000007451]","./assets/img/space/catch/3.jpg","[""spaceBar""]","practice block","space","0","{""ArrowUp,ArrowLeft"":3,""ArrowUp,ArrowRight"":36,""ArrowDown,ArrowLeft"":15,""ArrowDown,ArrowRight"":23}","true","spaceBar","true","","","","","","","",""
"html-keyboard-response","80","406277","0.0-3.0-13.0-2.0-1.8","spark_pilot_2","7463","7","20","Male","","","","","","","null","<div style=""font-size:60px;"">+</div>","null","fixation","","","","","","","","","","","","","",""
"learning-instructions","81","419801","0.0-3.0-13.0-3.0-0.0","spark_pilot_2","7463","7","20","Male","","","","","","","570.4000000003725","<p> Now, you will travel with a friend who will choose whether you go up or down first. </p>
            <p> On these turns, you will just see the animal that they found. You will still get to choose which chest to search for treasure.</p>","","instructions","","","","","","","","","","","","","",""
"revaluation","82","423821","0.0-3.0-13.0-4.0-0.0","spark_pilot_2","7463","7","20","Male","","false","","","","","[1391.199999999255]","./assets/img/space/animals/rabbit.jpg","[""ArrowRight""]","practice block","space","23","{""ArrowUp,ArrowLeft"":3,""ArrowUp,ArrowRight"":36,""ArrowDown,ArrowLeft"":15,""ArrowDown,ArrowRight"":23}","true","ArrowDown,ArrowRight","","","","","","","","",""
"html-keyboard-response","83","424333","0.0-3.0-13.0-4.0-1.0","spark_pilot_2","7463","7","20","Male","","","","","","","null","<div style=""font-size:60px;"">+</div>","null","fixation","","","","","","","","","","","","","",""
"revaluation","84","428357","0.0-3.0-13.0-4.0-0.1","spark_pilot_2","7463","7","20","Male","","false","","","","","[432.19999999925494]","./assets/img/space/animals/cat.jpg","[""ArrowLeft""]","practice block","space","3","{""ArrowUp,ArrowLeft"":3,""ArrowUp,ArrowRight"":36,""ArrowDown,ArrowLeft"":15,""ArrowDown,ArrowRight"":23}","false","ArrowUp,ArrowLeft","","","","","","","","",""
"html-keyboard-response","85","428868","0.0-3.0-13.0-4.0-1.1","spark_pilot_2","7463","7","20","Male","","","","","","","null","<div style=""font-size:60px;"">+</div>","null","fixation","","","","","","","","","","","","","",""
"revaluation","86","432891","0.0-3.0-13.0-4.0-0.2","spark_pilot_2","7463","7","20","Male","","false","","","","","[404.30000000074506]","./assets/img/space/animals/rabbit.jpg","[""ArrowRight""]","practice block","space","23","{""ArrowUp,ArrowLeft"":3,""ArrowUp,ArrowRight"":36,""ArrowDown,ArrowLeft"":15,""ArrowDown,ArrowRight"":23}","true","ArrowDown,ArrowRight","","","","","","","","",""
"html-keyboard-response","87","433403","0.0-3.0-13.0-4.0-1.2","spark_pilot_2","7463","7","20","Male","","","","","","","null","<div style=""font-size:60px;"">+</div>","null","fixation","","","","","","","","","","","","","",""
"revaluation","88","437421","0.0-3.0-13.0-4.0-0.3","spark_pilot_2","7463","7","20","Male","","false","","","","","[495.09999999962747]","./assets/img/space/animals/cat.jpg","[""ArrowRight""]","practice block","space","36","{""ArrowUp,ArrowLeft"":3,""ArrowUp,ArrowRight"":36,""ArrowDown,ArrowLeft"":15,""ArrowDown,ArrowRight"":23}","true","ArrowUp,ArrowRight","","","","","","","","",""
"html-keyboard-response","89","437928","0.0-3.0-13.0-4.0-1.3","spark_pilot_2","7463","7","20","Male","","","","","","","null","<div style=""font-size:60px;"">+</div>","null","fixation","","","","","","","","","","","","","",""
"learning-instructions","90","445885","0.0-3.0-13.0-5.0-0.0","spark_pilot_2","7463","7","20","Male","","","","","","","589.9000000003725","<p> Time to play the dot game! </p>
            <p> For 15 seconds, click the red dots on the following screen as they appear. </p>","","instructions","","","","","","","","","","","","","",""
"revaluation","91","460892","0.0-3.0-13.0-6.0-0.0","spark_pilot_2","7463","7","20","Male","","","","","","","[60]","","","rest practice","","10","","","","","0","15000","","","","","",""
"learning-instructions","92","467702","0.0-3.0-13.0-7.0-0.0","spark_pilot_2","7463","7","20","Male","","","","","","","689.7999999988824","<p> You have almost finished this part of the game! </p>
            <p> We are going to ask you to make a few more choices. </p>","","instructions","","","","","","","","","","","","","",""
"learning-instructions","93","482135","0.0-3.0-13.0-7.0-0.1","spark_pilot_2","7463","7","20","Male","","","","","","","429.8999999985099","<p> First, you need to decide whether to go up or down. When you see each picture, use the arrow keys to make your choice. </p>
            <p><b>You will not see which animal you found, but try to get to the one that will give you the most treasure.</b></p>","","instructions","","","","","","","","","","","","","",""
"revaluation","94","483485","0.0-3.0-13.0-8.0","spark_pilot_2","7463","7","20","Male","","false","","","","","[1346.199999999255]","./assets/img/space/15.jpg","[""ArrowUp""]","practice block","space","0","{""ArrowUp,ArrowLeft"":3,""ArrowUp,ArrowRight"":36,""ArrowDown,ArrowLeft"":15,""ArrowDown,ArrowRight"":23}","true","ArrowUp","false","","","","","","","",""
"html-keyboard-response","95","483991","0.0-3.0-13.0-9.0","spark_pilot_2","7463","7","20","Male","","","","","","","null","<div style=""font-size:60px;"">+</div>","null","fixation","","","","","","","","","","","","","",""
"learning-instructions","96","496369","0.0-3.0-13.0-10.0-0.0","spark_pilot_2","7463","7","20","Male","","","","","","","1004.3000000007451","<p> Now you will see the animals again and can search their chests for treasure. </p>
            <p> This time, you will not see how much treasure you earned, but you will earn more bonus money for making better choices. </p>","","instructions","","","","","","","","","","","","","",""
"revaluation","97","497093","0.0-3.0-13.0-11.0-0.0","spark_pilot_2","7463","7","20","Male","","false","","","","","[720.8000000007451]","./assets/img/space/animals/cat.jpg","[""ArrowRight""]","practice block","space","0","{""ArrowUp,ArrowLeft"":3,""ArrowUp,ArrowRight"":36,""ArrowDown,ArrowLeft"":15,""ArrowDown,ArrowRight"":23}","true","ArrowUp,ArrowRight","","","","","","","","",""
"html-keyboard-response","98","497600","0.0-3.0-13.0-11.0-1.0","spark_pilot_2","7463","7","20","Male","","","","","","","null","<div style=""font-size:60px;"">+</div>","null","fixation","","","","","","","","","","","","","",""
"revaluation","99","498172","0.0-3.0-13.0-11.0-0.1","spark_pilot_2","7463","7","20","Male","","false","","","","","[567.5]","./assets/img/space/animals/rabbit.jpg","[""ArrowRight""]","practice block","space","0","{""ArrowUp,ArrowLeft"":3,""ArrowUp,ArrowRight"":36,""ArrowDown,ArrowLeft"":15,""ArrowDown,ArrowRight"":23}","true","ArrowDown,ArrowRight","","","","","","","","",""
"html-keyboard-response","100","498678","0.0-3.0-13.0-11.0-1.1","spark_pilot_2","7463","7","20","Male","","","","","","","null","<div style=""font-size:60px;"">+</div>","null","fixation","","","","","","","","","","","","","",""
"learning-instructions","101","503685","0.0-3.0-14.0-0.0","spark_pilot_2","7463","7","20","Male","","","","","","","427","<p> Before you start, we're going to ask you a few questions about how the game works. </p>","","instructions","","","","","","","","","","","","","",""
"comp-q","102","510386","0.0-3.0-15.0-0.0-0.0","spark_pilot_2","7463","7","20","Male","","","","","","","1117.7000000011176","<p> <b> True or False? </b> </p>
            <p> There can be 50 pieces of treasure in a given animal's chest. </p>","1","comp_question","","","","true","","","","","","","","","",""
"comp-q","103","517869","0.0-3.0-15.0-0.0-1.0","spark_pilot_2","7463","7","20","Male","","","","","","","829.8000000007451","<p> <b> That's right! </b> The amount of treasure in each chest can range from 0 to 40 pieces. </p>","0","comp_answer","","","","","","","","","","","","","",""
"comp-q","104","525470","0.0-3.0-15.0-0.1-0.1","spark_pilot_2","7463","7","20","Male","","","","","","","484","<p> <b> True or False? </b> </p><p> In this game, all animals have the same amount of treasure in their left and right chests. </p>","1","comp_question","","","","true","","","","","","","","","",""
"comp-q","105","531352","0.0-3.0-15.0-0.1-1.1","spark_pilot_2","7463","7","20","Male","","","","","","","654.2999999988824","<p> <b> That's right! </b> Animals have different amounts of treasure in their treasure chests. </p>","0","comp_answer","","","","","","","","","","","","","",""
"comp-q","106","537685","0.0-3.0-15.0-0.2-0.2","spark_pilot_2","7463","7","20","Male","","","","","","","491.2000000011176","<p> <b> True or False? </b> </p><p> The same animal will always be there if you go up in the same place. </p>","1","comp_question","","","","false","","","","","","","","","",""
"comp-q","107","544952","0.0-3.0-15.0-0.2-1.2","spark_pilot_2","7463","7","20","Male","","","","","","","963.1999999992549","<p> <b>Incorrect.</b> One animal lives in the upper part and one lives in the lower part of every place. </p>","0","comp_answer","","","","","","","","","","","","","",""
"comp-q","108","551236","0.0-3.0-15.0-0.3-0.3","spark_pilot_2","7463","7","20","Male","","","","","","","457.7000000011176","<p> <b> True or False? </b> </p><p> The same animal will always be there if you go up in the same place. </p>","0","comp_question","","","","true","","","","","","","","","",""
"comp-q","109","558220","0.0-3.0-15.0-0.3-1.3","spark_pilot_2","7463","7","20","Male","","","","","","","545.7000000011176","<p> <b> That's right! </b> One animal lives in the upper part and one lives in the lower part of every place. </p>","0","comp_answer","","","","","","","","","","","","","",""
"comp-q","110","564169","0.0-3.0-15.0-0.4-0.4","spark_pilot_2","7463","7","20","Male","","","","","","","425.90000000037253","<p> <b> True or False? </b> </p><p> If you see a different picture, it means you are in a new place. </p>","0","comp_question","","","","false","","","","","","","","","",""
"comp-q","111","575886","0.0-3.0-15.0-0.4-1.4","spark_pilot_2","7463","7","20","Male","","","","","","","627.6999999992549","<p> <b>Incorrect.</b> Lots of different images may show the same place. For example,  you may see three different images that all remind you that you are in outer space. </p>","0","comp_answer","","","","","","","","","","","","","",""
"comp-q","112","582019","0.0-3.0-15.0-0.5-0.5","spark_pilot_2","7463","7","20","Male","","","","","","","627.5","<p> <b> True or False? </b> </p><p> If you see a different picture, it means you are in a new place. </p>","1","comp_question","","","","true","","","","","","","","","",""
"comp-q","113","594770","0.0-3.0-15.0-0.5-1.5","spark_pilot_2","7463","7","20","Male","","","","","","","1528.2999999988824","<p> <b> That's right! </b> Lots of different images may show the same place. For example,  you may see three different images that all remind you that you are in outer space. </p>","0","comp_answer","","","","","","","","","","","","","",""
"learning-instructions","114","605785","0.0-3.0-16.0-0.0","spark_pilot_2","7463","7","20","Male","","","","","","","1167.6000000014901","<p> Good job. Remember to do your best because the amount of treasure you earn will be converted into bonus money. </p>
            <p> It’s time to start the real game! </p>","","instructions","","","","","","","","","","","","","",""
"learning-instructions","115","617436","0.0-4.0-0.0-0.0","spark_pilot_2","7463","7","20","Male","","","","","","","7735.4000000003725","<p> This time you are searching for treasure in the <b>canyon</b>.</p>","","instructions","","","","","","","","","","","","","",""
"learning-instructions","116","637336","0.0-4.0-0.0-0.1","spark_pilot_2","7463","7","20","Male","","","","","","","1056.0999999996275","<p><b>New</b> animals with <b>new</b> treasure chests live here. You need to explore to discover where the animal with the best treasure chest is.</p>
                    <p> Like before, once you figure out which animal has the chest with the most treasure, you should try to get to that animal and select that chest! </p>","","instructions","","","","","","","","","","","","","",""
"learning-instructions","117","655419","0.0-4.0-1.0-0.0","spark_pilot_2","7463","7","20","Male","","","","","","","3353.10000000149","<p> Remember, when you see a picture of the place, use the up and down keys to <b>find an animal</b>.</p>
            <p> When you encounter an animal, you should use the left and right keys to <b>select a treasure chest</b>.</p>
            <p> Don't forget to look out for the robber! </p>","","instructions","","","","","","","","","","","","","",""
"revaluation","118","659432","0.0-4.0-2.0-0.0","spark_pilot_2","7463","7","20","Male","","true","","","","","[]","./assets/img/canyon/memory/41.jpg","[]","value training","canyon","-5","{""ArrowUp,ArrowLeft"":23,""ArrowUp,ArrowRight"":10,""ArrowDown,ArrowLeft"":8,""ArrowDown,ArrowRight"":30}","false","","false","","","original","1","0","","",""
"html-keyboard-response","119","659946","0.0-4.0-2.0-1.0","spark_pilot_2","7463","7","20","Male","","","","","","","null","<div style=""font-size:60px;"">+</div>","null","fixation","","","","","","","","","","","1","","",""
"revaluation","120","665973","0.0-4.0-2.0-0.1","spark_pilot_2","7463","7","20","Male","","false","","","","","[378.19999999925494,333.7999999988824]","./assets/img/canyon/memory/8.jpg","[""ArrowDown"",""ArrowRight""]","value training","canyon","30","{""ArrowUp,ArrowLeft"":23,""ArrowUp,ArrowRight"":10,""ArrowDown,ArrowLeft"":8,""ArrowDown,ArrowRight"":30}","true","ArrowDown,ArrowRight","false","","","original","1","2","","",""
"html-keyboard-response","121","666481","0.0-4.0-2.0-1.1","spark_pilot_2","7463","7","20","Male","","","","","","","null","<div style=""font-size:60px;"">+</div>","null","fixation","","","","","","","","","","","3","","",""
"revaluation","122","670496","0.0-4.0-2.0-0.2","spark_pilot_2","7463","7","20","Male","","false","","","","","[529.5999999996275]","./assets/img/canyon/catch/6.jpg","[""ArrowDown""]","value training","canyon","-10","{""ArrowUp,ArrowLeft"":23,""ArrowUp,ArrowRight"":10,""ArrowDown,ArrowLeft"":8,""ArrowDown,ArrowRight"":30}","false","ArrowDown","true","","","original","1","4","","",""
"html-keyboard-response","123","671004","0.0-4.0-2.0-1.2","spark_pilot_2","7463","7","20","Male","","","","","","","null","<div style=""font-size:60px;"">+</div>","null","fixation","","","","","","","","","","","5","","",""
"revaluation","124","677036","0.0-4.0-2.0-0.3","spark_pilot_2","7463","7","20","Male","","false","","","","","[1160,563.8000000007451]","./assets/img/canyon/memory/27.jpg","[""ArrowUp"",""ArrowRight""]","value training","canyon","10","{""ArrowUp,ArrowLeft"":23,""ArrowUp,ArrowRight"":10,""ArrowDown,ArrowLeft"":8,""ArrowDown,ArrowRight"":30}","false","ArrowUp,ArrowRight","false","","","original","1","6","","",""
"html-keyboard-response","125","677546","0.0-4.0-2.0-1.3","spark_pilot_2","7463","7","20","Male","","","","","","","null","<div style=""font-size:60px;"">+</div>","null","fixation","","","","","","","","","","","7","","",""
"revaluation","126","683570","0.0-4.0-2.0-0.4","spark_pilot_2","7463","7","20","Male","","false","","","","","[801,403.40000000037253]","./assets/img/canyon/memory/40.jpg","[""ArrowUp"",""ArrowRight""]","value training","canyon","10","{""ArrowUp,ArrowLeft"":23,""ArrowUp,ArrowRight"":10,""ArrowDown,ArrowLeft"":8,""ArrowDown,ArrowRight"":30}","false","ArrowUp,ArrowRight","false","","","original","1","8","","",""
"html-keyboard-response","127","684081","0.0-4.0-2.0-1.4","spark_pilot_2","7463","7","20","Male","","","","","","","null","<div style=""font-size:60px;"">+</div>","null","fixation","","","","","","","","","","","9","","",""
"revaluation","128","688098","0.0-4.0-2.0-0.5","spark_pilot_2","7463","7","20","Male","","false","","","","","[802]","./assets/img/canyon/catch/4.jpg","[""spaceBar""]","value training","canyon","0","{""ArrowUp,ArrowLeft"":23,""ArrowUp,ArrowRight"":10,""ArrowDown,ArrowLeft"":8,""ArrowDown,ArrowRight"":30}","true","spaceBar","true","","","original","1","10","","",""
"html-keyboard-response","129","688609","0.0-4.0-2.0-1.5","spark_pilot_2","7463","7","20","Male","","","","","","","null","<div style=""font-size:60px;"">+</div>","null","fixation","","","","","","","","","","","11","","",""
"revaluation","130","694631","0.0-4.0-2.0-0.6","spark_pilot_2","7463","7","20","Male","","false","","","","","[729.2000000011176,495.69999999925494]","./assets/img/canyon/memory/11.jpg","[""ArrowUp"",""ArrowLeft""]","value training","canyon","23","{""ArrowUp,ArrowLeft"":23,""ArrowUp,ArrowRight"":10,""ArrowDown,ArrowLeft"":8,""ArrowDown,ArrowRight"":30}","false","ArrowUp,ArrowLeft","false","","","original","1","12","","",""
"html-keyboard-response","131","695137","0.0-4.0-2.0-1.6","spark_pilot_2","7463","7","20","Male","","","","","","","null","<div style=""font-size:60px;"">+</div>","null","fixation","","","","","","","","","","","13","","",""
"revaluation","132","701163","0.0-4.0-2.0-0.7","spark_pilot_2","7463","7","20","Male","","false","","","","","[858,430.7999999988824]","./assets/img/canyon/memory/7.jpg","[""ArrowUp"",""ArrowLeft""]","value training","canyon","23","{""ArrowUp,ArrowLeft"":23,""ArrowUp,ArrowRight"":10,""ArrowDown,ArrowLeft"":8,""ArrowDown,ArrowRight"":30}","false","ArrowUp,ArrowLeft","false","","","original","1","14","","",""
"html-keyboard-response","133","701670","0.0-4.0-2.0-1.7","spark_pilot_2","7463","7","20","Male","","","","","","","null","<div style=""font-size:60px;"">+</div>","null","fixation","","","","","","","","","","","15","","",""
"revaluation","134","707697","0.0-4.0-2.0-0.8","spark_pilot_2","7463","7","20","Male","","false","","","","","[591.5,470.59999999962747]","./assets/img/canyon/memory/37.jpg","[""ArrowUp"",""ArrowLeft""]","value training","canyon","23","{""ArrowUp,ArrowLeft"":23,""ArrowUp,ArrowRight"":10,""ArrowDown,ArrowLeft"":8,""ArrowDown,ArrowRight"":30}","false","ArrowUp,ArrowLeft","false","","","original","1","16","","",""
"html-keyboard-response","135","708208","0.0-4.0-2.0-1.8","spark_pilot_2","7463","7","20","Male","","","","","","","null","<div style=""font-size:60px;"">+</div>","null","fixation","","","","","","","","","","","17","","",""
"revaluation","136","714235","0.0-4.0-2.0-0.9","spark_pilot_2","7463","7","20","Male","","false","","","","","[926.5999999996275,459.80000000074506]","./assets/img/canyon/memory/8.jpg","[""ArrowDown"",""ArrowLeft""]","value training","canyon","8","{""ArrowUp,ArrowLeft"":23,""ArrowUp,ArrowRight"":10,""ArrowDown,ArrowLeft"":8,""ArrowDown,ArrowRight"":30}","false","ArrowDown,ArrowLeft","false","","","original","1","18","","",""
"html-keyboard-response","137","714746","0.0-4.0-2.0-1.9","spark_pilot_2","7463","7","20","Male","","","","","","","null","<div style=""font-size:60px;"">+</div>","null","fixation","","","","","","","","","","","19","","",""
"revaluation","138","720774","0.0-4.0-2.0-0.10","spark_pilot_2","7463","7","20","Male","","false","","","","","[658.2999999988824,380.7999999988824]","./assets/img/canyon/memory/41.jpg","[""ArrowDown"",""ArrowRight""]","value training","canyon","30","{""ArrowUp,ArrowLeft"":23,""ArrowUp,ArrowRight"":10,""ArrowDown,ArrowLeft"":8,""ArrowDown,ArrowRight"":30}","true","ArrowDown,ArrowRight","false","","","original","1","20","","",""
"html-keyboard-response","139","721279","0.0-4.0-2.0-1.10","spark_pilot_2","7463","7","20","Male","","","","","","","null","<div style=""font-size:60px;"">+</div>","null","fixation","","","","","","","","","","","21","","",""
"revaluation","140","727302","0.0-4.0-2.0-0.11","spark_pilot_2","7463","7","20","Male","","false","","","","","[736.5999999996275,429.7999999988824]","./assets/img/canyon/memory/3.jpg","[""ArrowDown"",""ArrowRight""]","value training","canyon","30","{""ArrowUp,ArrowLeft"":23,""ArrowUp,ArrowRight"":10,""ArrowDown,ArrowLeft"":8,""ArrowDown,ArrowRight"":30}","true","ArrowDown,ArrowRight","false","","","original","1","22","","",""
"html-keyboard-response","141","727808","0.0-4.0-2.0-1.11","spark_pilot_2","7463","7","20","Male","","","","","","","null","<div style=""font-size:60px;"">+</div>","null","fixation","","","","","","","","","","","23","","",""
"revaluation","142","733830","0.0-4.0-2.0-0.12","spark_pilot_2","7463","7","20","Male","","false","","","","","[550.6999999992549,353.5]","./assets/img/canyon/memory/1.jpg","[""ArrowDown"",""ArrowRight""]","value training","canyon","30","{""ArrowUp,ArrowLeft"":23,""ArrowUp,ArrowRight"":10,""ArrowDown,ArrowLeft"":8,""ArrowDown,ArrowRight"":30}","true","ArrowDown,ArrowRight","false","","","original","1","24","","",""
"html-keyboard-response","143","734335","0.0-4.0-2.0-1.12","spark_pilot_2","7463","7","20","Male","","","","","","","null","<div style=""font-size:60px;"">+</div>","null","fixation","","","","","","","","","","","25","","",""
"revaluation","144","740357","0.0-4.0-2.0-0.13","spark_pilot_2","7463","7","20","Male","","false","","","","","[606.4000000003725,270.5]","./assets/img/canyon/memory/0.jpg","[""ArrowDown"",""ArrowRight""]","value training","canyon","30","{""ArrowUp,ArrowLeft"":23,""ArrowUp,ArrowRight"":10,""ArrowDown,ArrowLeft"":8,""ArrowDown,ArrowRight"":30}","true","ArrowDown,ArrowRight","false","","","original","1","26","","",""
"html-keyboard-response","145","740863","0.0-4.0-2.0-1.13","spark_pilot_2","7463","7","20","Male","","","","","","","null","<div style=""font-size:60px;"">+</div>","null","fixation","","","","","","","","","","","27","","",""
"revaluation","146","746885","0.0-4.0-2.0-0.14","spark_pilot_2","7463","7","20","Male","","false","","","","","[852.5,285.2999999988824]","./assets/img/canyon/memory/20.jpg","[""ArrowDown"",""ArrowRight""]","value training","canyon","30","{""ArrowUp,ArrowLeft"":23,""ArrowUp,ArrowRight"":10,""ArrowDown,ArrowLeft"":8,""ArrowDown,ArrowRight"":30}","true","ArrowDown,ArrowRight","false","","","original","1","28","","",""
"html-keyboard-response","147","747391","0.0-4.0-2.0-1.14","spark_pilot_2","7463","7","20","Male","","","","","","","null","<div style=""font-size:60px;"">+</div>","null","fixation","","","","","","","","","","","29","","",""
"revaluation","148","753414","0.0-4.0-2.0-0.15","spark_pilot_2","7463","7","20","Male","","false","","","","","[729.8000000007451,327]","./assets/img/canyon/memory/25.jpg","[""ArrowDown"",""ArrowRight""]","value training","canyon","30","{""ArrowUp,ArrowLeft"":23,""ArrowUp,ArrowRight"":10,""ArrowDown,ArrowLeft"":8,""ArrowDown,ArrowRight"":30}","true","ArrowDown,ArrowRight","false","","","original","1","30","","",""
"html-keyboard-response","149","753919","0.0-4.0-2.0-1.15","spark_pilot_2","7463","7","20","Male","","","","","","","null","<div style=""font-size:60px;"">+</div>","null","fixation","","","","","","","","","","","31","","",""
"revaluation","150","759940","0.0-4.0-2.0-0.16","spark_pilot_2","7463","7","20","Male","","false","","","","","[591.6000000014901,329.90000000037253]","./assets/img/canyon/memory/33.jpg","[""ArrowDown"",""ArrowRight""]","value training","canyon","30","{""ArrowUp,ArrowLeft"":23,""ArrowUp,ArrowRight"":10,""ArrowDown,ArrowLeft"":8,""ArrowDown,ArrowRight"":30}","true","ArrowDown,ArrowRight","false","","","original","1","32","","",""
"html-keyboard-response","151","760446","0.0-4.0-2.0-1.16","spark_pilot_2","7463","7","20","Male","","","","","","","null","<div style=""font-size:60px;"">+</div>","null","fixation","","","","","","","","","","","33","","",""
"revaluation","152","766469","0.0-4.0-2.0-0.17","spark_pilot_2","7463","7","20","Male","","false","","","","","[913,361]","./assets/img/canyon/memory/20.jpg","[""ArrowDown"",""ArrowRight""]","value training","canyon","30","{""ArrowUp,ArrowLeft"":23,""ArrowUp,ArrowRight"":10,""ArrowDown,ArrowLeft"":8,""ArrowDown,ArrowRight"":30}","true","ArrowDown,ArrowRight","false","","","original","1","34","","",""
"html-keyboard-response","153","766974","0.0-4.0-2.0-1.17","spark_pilot_2","7463","7","20","Male","","","","","","","null","<div style=""font-size:60px;"">+</div>","null","fixation","","","","","","","","","","","35","","",""
"revaluation","154","772997","0.0-4.0-2.0-0.18","spark_pilot_2","7463","7","20","Male","","false","","","","","[642.8000000007451,379.2999999988824]","./assets/img/canyon/memory/37.jpg","[""ArrowDown"",""ArrowRight""]","value training","canyon","30","{""ArrowUp,ArrowLeft"":23,""ArrowUp,ArrowRight"":10,""ArrowDown,ArrowLeft"":8,""ArrowDown,ArrowRight"":30}","true","ArrowDown,ArrowRight","false","","","original","1","36","","",""
"html-keyboard-response","155","773502","0.0-4.0-2.0-1.18","spark_pilot_2","7463","7","20","Male","","","","","","","null","<div style=""font-size:60px;"">+</div>","null","fixation","","","","","","","","","","","37","","",""
"revaluation","156","777518","0.0-4.0-2.0-0.19","spark_pilot_2","7463","7","20","Male","","false","","","","","[696.4000000003725]","./assets/img/canyon/catch/5.jpg","[""spaceBar""]","value training","canyon","0","{""ArrowUp,ArrowLeft"":23,""ArrowUp,ArrowRight"":10,""ArrowDown,ArrowLeft"":8,""ArrowDown,ArrowRight"":30}","true","spaceBar","true","","","original","1","38","","",""
"html-keyboard-response","157","778030","0.0-4.0-2.0-1.19","spark_pilot_2","7463","7","20","Male","","","","","","","null","<div style=""font-size:60px;"">+</div>","null","fixation","","","","","","","","","","","39","","",""
"revaluation","158","784051","0.0-4.0-2.0-0.20","spark_pilot_2","7463","7","20","Male","","false","","","","","[824.6999999992549,465.59999999962747]","./assets/img/canyon/memory/2.jpg","[""ArrowDown"",""ArrowRight""]","value training","canyon","30","{""ArrowUp,ArrowLeft"":23,""ArrowUp,ArrowRight"":10,""ArrowDown,ArrowLeft"":8,""ArrowDown,ArrowRight"":30}","true","ArrowDown,ArrowRight","false","","","original","1","40","","",""
"html-keyboard-response","159","784558","0.0-4.0-2.0-1.20","spark_pilot_2","7463","7","20","Male","","","","","","","null","<div style=""font-size:60px;"">+</div>","null","fixation","","","","","","","","","","","41","","",""
"revaluation","160","790580","0.0-4.0-2.0-0.21","spark_pilot_2","7463","7","20","Male","","false","","","","","[607.9000000003725,317.30000000074506]","./assets/img/canyon/memory/7.jpg","[""ArrowDown"",""ArrowRight""]","value training","canyon","30","{""ArrowUp,ArrowLeft"":23,""ArrowUp,ArrowRight"":10,""ArrowDown,ArrowLeft"":8,""ArrowDown,ArrowRight"":30}","true","ArrowDown,ArrowRight","false","","","original","1","42","","",""
"html-keyboard-response","161","791085","0.0-4.0-2.0-1.21","spark_pilot_2","7463","7","20","Male","","","","","","","null","<div style=""font-size:60px;"">+</div>","null","fixation","","","","","","","","","","","43","","",""
"revaluation","162","795102","0.0-4.0-2.0-0.22","spark_pilot_2","7463","7","20","Male","","false","","","","","[659.5]","./assets/img/canyon/catch/3.jpg","[""spaceBar""]","value training","canyon","0","{""ArrowUp,ArrowLeft"":23,""ArrowUp,ArrowRight"":10,""ArrowDown,ArrowLeft"":8,""ArrowDown,ArrowRight"":30}","true","spaceBar","true","","","original","1","44","","",""
"html-keyboard-response","163","795613","0.0-4.0-2.0-1.22","spark_pilot_2","7463","7","20","Male","","","","","","","null","<div style=""font-size:60px;"">+</div>","null","fixation","","","","","","","","","","","45","","",""
"revaluation","164","801635","0.0-4.0-2.0-0.23","spark_pilot_2","7463","7","20","Male","","false","","","","","[779.8000000007451,379.69999999925494]","./assets/img/canyon/memory/11.jpg","[""ArrowDown"",""ArrowRight""]","value training","canyon","30","{""ArrowUp,ArrowLeft"":23,""ArrowUp,ArrowRight"":10,""ArrowDown,ArrowLeft"":8,""ArrowDown,ArrowRight"":30}","true","ArrowDown,ArrowRight","false","","","original","1","46","","",""
"html-keyboard-response","165","802141","0.0-4.0-2.0-1.23","spark_pilot_2","7463","7","20","Male","","","","","","","null","<div style=""font-size:60px;"">+</div>","null","fixation","","","","","","","","","","","47","","",""
"revaluation","166","808163","0.0-4.0-2.0-0.24","spark_pilot_2","7463","7","20","Male","","false","","","","","[461.59999999962747,337.2999999988824]","./assets/img/canyon/memory/1.jpg","[""ArrowDown"",""ArrowRight""]","value training","canyon","30","{""ArrowUp,ArrowLeft"":23,""ArrowUp,ArrowRight"":10,""ArrowDown,ArrowLeft"":8,""ArrowDown,ArrowRight"":30}","true","ArrowDown,ArrowRight","false","","","original","1","48","","",""
"html-keyboard-response","167","808669","0.0-4.0-2.0-1.24","spark_pilot_2","7463","7","20","Male","","","","","","","null","<div style=""font-size:60px;"">+</div>","null","fixation","","","","","","","","","","","49","","",""
"revaluation","168","814690","0.0-4.0-2.0-0.25","spark_pilot_2","7463","7","20","Male","","false","","","","","[588.4000000003725,306.8999999985099]","./assets/img/canyon/memory/2.jpg","[""ArrowDown"",""ArrowRight""]","value training","canyon","30","{""ArrowUp,ArrowLeft"":23,""ArrowUp,ArrowRight"":10,""ArrowDown,ArrowLeft"":8,""ArrowDown,ArrowRight"":30}","true","ArrowDown,ArrowRight","false","","","original","1","50","","",""
"html-keyboard-response","169","815197","0.0-4.0-2.0-1.25","spark_pilot_2","7463","7","20","Male","","","","","","","null","<div style=""font-size:60px;"">+</div>","null","fixation","","","","","","","","","","","51","","",""
"revaluation","170","819214","0.0-4.0-2.0-0.26","spark_pilot_2","7463","7","20","Male","","false","","","","","[794.8000000007451]","./assets/img/canyon/catch/2.jpg","[""spaceBar""]","value training","canyon","0","{""ArrowUp,ArrowLeft"":23,""ArrowUp,ArrowRight"":10,""ArrowDown,ArrowLeft"":8,""ArrowDown,ArrowRight"":30}","true","spaceBar","true","","","original","1","52","","",""
"html-keyboard-response","171","819724","0.0-4.0-2.0-1.26","spark_pilot_2","7463","7","20","Male","","","","","","","null","<div style=""font-size:60px;"">+</div>","null","fixation","","","","","","","","","","","53","","",""
"revaluation","172","825747","0.0-4.0-2.0-0.27","spark_pilot_2","7463","7","20","Male","","false","","","","","[544.2999999988824,333.09999999962747]","./assets/img/canyon/memory/39.jpg","[""ArrowDown"",""ArrowRight""]","value training","canyon","30","{""ArrowUp,ArrowLeft"":23,""ArrowUp,ArrowRight"":10,""ArrowDown,ArrowLeft"":8,""ArrowDown,ArrowRight"":30}","true","ArrowDown,ArrowRight","false","","","original","1","54","","",""
"html-keyboard-response","173","826252","0.0-4.0-2.0-1.27","spark_pilot_2","7463","7","20","Male","","","","","","","null","<div style=""font-size:60px;"">+</div>","null","fixation","","","","","","","","","","","55","","",""
"revaluation","174","832274","0.0-4.0-2.0-0.28","spark_pilot_2","7463","7","20","Male","","false","","","","","[524.3000000007451,521.2999999988824]","./assets/img/canyon/memory/27.jpg","[""ArrowDown"",""ArrowRight""]","value training","canyon","30","{""ArrowUp,ArrowLeft"":23,""ArrowUp,ArrowRight"":10,""ArrowDown,ArrowLeft"":8,""ArrowDown,ArrowRight"":30}","true","ArrowDown,ArrowRight","false","","","original","1","56","","",""
"html-keyboard-response","175","832780","0.0-4.0-2.0-1.28","spark_pilot_2","7463","7","20","Male","","","","","","","null","<div style=""font-size:60px;"">+</div>","null","fixation","","","","","","","","","","","57","","",""
"revaluation","176","836797","0.0-4.0-2.0-0.29","spark_pilot_2","7463","7","20","Male","","false","","","","","[691.4000000003725]","./assets/img/canyon/catch/7.jpg","[""spaceBar""]","value training","canyon","0","{""ArrowUp,ArrowLeft"":23,""ArrowUp,ArrowRight"":10,""ArrowDown,ArrowLeft"":8,""ArrowDown,ArrowRight"":30}","true","spaceBar","true","","","original","1","58","","",""
"html-keyboard-response","177","837308","0.0-4.0-2.0-1.29","spark_pilot_2","7463","7","20","Male","","","","","","","null","<div style=""font-size:60px;"">+</div>","null","fixation","","","","","","","","","","","59","","",""
"revaluation","178","843325","0.0-4.0-2.0-0.30","spark_pilot_2","7463","7","20","Male","","false","","","","","[750.5,748.0999999996275]","./assets/img/canyon/memory/32.jpg","[""ArrowDown"",""ArrowRight""]","value training","canyon","30","{""ArrowUp,ArrowLeft"":23,""ArrowUp,ArrowRight"":10,""ArrowDown,ArrowLeft"":8,""ArrowDown,ArrowRight"":30}","true","ArrowDown,ArrowRight","false","","","original","1","60","","",""
"html-keyboard-response","179","843829","0.0-4.0-2.0-1.30","spark_pilot_2","7463","7","20","Male","","","","","","","null","<div style=""font-size:60px;"">+</div>","null","fixation","","","","","","","","","","","61","","",""
"revaluation","180","849839","0.0-4.0-2.0-0.31","spark_pilot_2","7463","7","20","Male","","false","","","","","[778.7000000011176,528.8999999985099]","./assets/img/canyon/memory/29.jpg","[""ArrowDown"",""ArrowRight""]","value training","canyon","30","{""ArrowUp,ArrowLeft"":23,""ArrowUp,ArrowRight"":10,""ArrowDown,ArrowLeft"":8,""ArrowDown,ArrowRight"":30}","true","ArrowDown,ArrowRight","false","","","original","1","62","","",""
"html-keyboard-response","181","850345","0.0-4.0-2.0-1.31","spark_pilot_2","7463","7","20","Male","","","","","","","null","<div style=""font-size:60px;"">+</div>","null","fixation","","","","","","","","","","","63","","",""
"revaluation","182","854357","0.0-4.0-2.0-0.32","spark_pilot_2","7463","7","20","Male","","false","","","","","[1172.5]","./assets/img/canyon/catch/0.jpg","[""spaceBar""]","value training","canyon","0","{""ArrowUp,ArrowLeft"":23,""ArrowUp,ArrowRight"":10,""ArrowDown,ArrowLeft"":8,""ArrowDown,ArrowRight"":30}","true","spaceBar","true","","","original","1","64","","",""
"html-keyboard-response","183","854866","0.0-4.0-2.0-1.32","spark_pilot_2","7463","7","20","Male","","","","","","","null","<div style=""font-size:60px;"">+</div>","null","fixation","","","","","","","","","","","65","","",""
"revaluation","184","860884","0.0-4.0-2.0-0.33","spark_pilot_2","7463","7","20","Male","","false","","","","","[623.3000000007451,294.2999999988824]","./assets/img/canyon/memory/35.jpg","[""ArrowUp"",""ArrowRight""]","value training","canyon","10","{""ArrowUp,ArrowLeft"":23,""ArrowUp,ArrowRight"":10,""ArrowDown,ArrowLeft"":8,""ArrowDown,ArrowRight"":30}","false","ArrowUp,ArrowRight","false","","","original","1","66","","",""
"html-keyboard-response","185","861388","0.0-4.0-2.0-1.33","spark_pilot_2","7463","7","20","Male","","","","","","","null","<div style=""font-size:60px;"">+</div>","null","fixation","","","","","","","","","","","67","","",""
"revaluation","186","867406","0.0-4.0-2.0-0.34","spark_pilot_2","7463","7","20","Male","","false","","","","","[746.8000000007451,513.5999999996275]","./assets/img/canyon/memory/35.jpg","[""ArrowDown"",""ArrowRight""]","value training","canyon","30","{""ArrowUp,ArrowLeft"":23,""ArrowUp,ArrowRight"":10,""ArrowDown,ArrowLeft"":8,""ArrowDown,ArrowRight"":30}","true","ArrowDown,ArrowRight","false","","","original","1","68","","",""
"html-keyboard-response","187","867913","0.0-4.0-2.0-1.34","spark_pilot_2","7463","7","20","Male","","","","","","","null","<div style=""font-size:60px;"">+</div>","null","fixation","","","","","","","","","","","69","","",""
"revaluation","188","871928","0.0-4.0-2.0-0.35","spark_pilot_2","7463","7","20","Male","","false","","","","","[1082.5]","./assets/img/canyon/catch/1.jpg","[""spaceBar""]","value training","canyon","0","{""ArrowUp,ArrowLeft"":23,""ArrowUp,ArrowRight"":10,""ArrowDown,ArrowLeft"":8,""ArrowDown,ArrowRight"":30}","true","spaceBar","true","","","original","1","70","","",""
"html-keyboard-response","189","872437","0.0-4.0-2.0-1.35","spark_pilot_2","7463","7","20","Male","","","","","","","null","<div style=""font-size:60px;"">+</div>","null","fixation","","","","","","","","","","","71","","",""
"revaluation","190","878460","0.0-4.0-2.0-0.36","spark_pilot_2","7463","7","20","Male","","false","","","","","[705.5999999996275,319.90000000037253]","./assets/img/canyon/memory/21.jpg","[""ArrowUp"",""ArrowLeft""]","value training","canyon","23","{""ArrowUp,ArrowLeft"":23,""ArrowUp,ArrowRight"":10,""ArrowDown,ArrowLeft"":8,""ArrowDown,ArrowRight"":30}","false","ArrowUp,ArrowLeft","false","","","original","1","72","","",""
"html-keyboard-response","191","878964","0.0-4.0-2.0-1.36","spark_pilot_2","7463","7","20","Male","","","","","","","null","<div style=""font-size:60px;"">+</div>","null","fixation","","","","","","","","","","","73","","",""
"revaluation","192","884984","0.0-4.0-2.0-0.37","spark_pilot_2","7463","7","20","Male","","false","","","","","[808.0999999996275,346.1000000014901]","./assets/img/canyon/memory/39.jpg","[""ArrowDown"",""ArrowRight""]","value training","canyon","30","{""ArrowUp,ArrowLeft"":23,""ArrowUp,ArrowRight"":10,""ArrowDown,ArrowLeft"":8,""ArrowDown,ArrowRight"":30}","true","ArrowDown,ArrowRight","false","","","original","1","74","","",""
"html-keyboard-response","193","885491","0.0-4.0-2.0-1.37","spark_pilot_2","7463","7","20","Male","","","","","","","null","<div style=""font-size:60px;"">+</div>","null","fixation","","","","","","","","","","","75","","",""
"revaluation","194","889507","0.0-4.0-2.0-0.38","spark_pilot_2","7463","7","20","Male","","true","","","","","[]","./assets/img/canyon/memory/6.jpg","[]","value training","canyon","-5","{""ArrowUp,ArrowLeft"":23,""ArrowUp,ArrowRight"":10,""ArrowDown,ArrowLeft"":8,""ArrowDown,ArrowRight"":30}","false","","false","","","original","1","76","","",""
"html-keyboard-response","195","890017","0.0-4.0-2.0-1.38","spark_pilot_2","7463","7","20","Male","","","","","","","null","<div style=""font-size:60px;"">+</div>","null","fixation","","","","","","","","","","","77","","",""
"revaluation","196","896040","0.0-4.0-2.0-0.39","spark_pilot_2","7463","7","20","Male","","true","","","","","[1610.4000000003725]","./assets/img/canyon/memory/33.jpg","[""ArrowDown""]","value training","canyon","-5","{""ArrowUp,ArrowLeft"":23,""ArrowUp,ArrowRight"":10,""ArrowDown,ArrowLeft"":8,""ArrowDown,ArrowRight"":30}","false","ArrowDown","false","","","original","1","78","","",""
"html-keyboard-response","197","896545","0.0-4.0-2.0-1.39","spark_pilot_2","7463","7","20","Male","","","","","","","null","<div style=""font-size:60px;"">+</div>","null","fixation","","","","","","","","","","","79","","",""
"revaluation","198","902566","0.0-4.0-2.0-0.40","spark_pilot_2","7463","7","20","Male","","false","","","","","[580.7000000011176,433.2999999988824]","./assets/img/canyon/memory/10.jpg","[""ArrowDown"",""ArrowRight""]","value training","canyon","30","{""ArrowUp,ArrowLeft"":23,""ArrowUp,ArrowRight"":10,""ArrowDown,ArrowLeft"":8,""ArrowDown,ArrowRight"":30}","true","ArrowDown,ArrowRight","false","","","original","1","80","","",""
"html-keyboard-response","199","903072","0.0-4.0-2.0-1.40","spark_pilot_2","7463","7","20","Male","","","","","","","null","<div style=""font-size:60px;"">+</div>","null","fixation","","","","","","","","","","","81","","",""
"revaluation","200","909093","0.0-4.0-2.0-0.41","spark_pilot_2","7463","7","20","Male","","false","","","","","[570.5,489.3999999985099]","./assets/img/canyon/memory/10.jpg","[""ArrowDown"",""ArrowRight""]","value training","canyon","30","{""ArrowUp,ArrowLeft"":23,""ArrowUp,ArrowRight"":10,""ArrowDown,ArrowLeft"":8,""ArrowDown,ArrowRight"":30}","true","ArrowDown,ArrowRight","false","","","original","1","82","","",""
"html-keyboard-response","201","909599","0.0-4.0-2.0-1.41","spark_pilot_2","7463","7","20","Male","","","","","","","null","<div style=""font-size:60px;"">+</div>","null","fixation","","","","","","","","","","","83","","",""
"revaluation","202","915622","0.0-4.0-2.0-0.42","spark_pilot_2","7463","7","20","Male","","false","","","","","[636.2999999988824,418.69999999925494]","./assets/img/canyon/memory/6.jpg","[""ArrowDown"",""ArrowRight""]","value training","canyon","30","{""ArrowUp,ArrowLeft"":23,""ArrowUp,ArrowRight"":10,""ArrowDown,ArrowLeft"":8,""ArrowDown,ArrowRight"":30}","true","ArrowDown,ArrowRight","false","","","original","1","84","","",""
"html-keyboard-response","203","916132","0.0-4.0-2.0-1.42","spark_pilot_2","7463","7","20","Male","","","","","","","null","<div style=""font-size:60px;"">+</div>","null","fixation","","","","","","","","","","","85","","",""
"revaluation","204","922159","0.0-4.0-2.0-0.43","spark_pilot_2","7463","7","20","Male","","false","","","","","[723.3000000007451,452.80000000074506]","./assets/img/canyon/memory/32.jpg","[""ArrowDown"",""ArrowRight""]","value training","canyon","30","{""ArrowUp,ArrowLeft"":23,""ArrowUp,ArrowRight"":10,""ArrowDown,ArrowLeft"":8,""ArrowDown,ArrowRight"":30}","true","ArrowDown,ArrowRight","false","","","original","1","86","","",""
"html-keyboard-response","205","922672","0.0-4.0-2.0-1.43","spark_pilot_2","7463","7","20","Male","","","","","","","null","<div style=""font-size:60px;"">+</div>","null","fixation","","","","","","","","","","","87","","",""
"revaluation","206","928703","0.0-4.0-2.0-0.44","spark_pilot_2","7463","7","20","Male","","false","","","","","[719.1000000014901,775.9000000003725]","./assets/img/canyon/memory/21.jpg","[""ArrowDown"",""ArrowRight""]","value training","canyon","30","{""ArrowUp,ArrowLeft"":23,""ArrowUp,ArrowRight"":10,""ArrowDown,ArrowLeft"":8,""ArrowDown,ArrowRight"":30}","true","ArrowDown,ArrowRight","false","","","original","1","88","","",""
"html-keyboard-response","207","929214","0.0-4.0-2.0-1.44","spark_pilot_2","7463","7","20","Male","","","","","","","null","<div style=""font-size:60px;"">+</div>","null","fixation","","","","","","","","","","","89","","",""
"revaluation","208","935239","0.0-4.0-2.0-0.45","spark_pilot_2","7463","7","20","Male","","false","","","","","[708.4000000003725,312.2000000011176]","./assets/img/canyon/memory/25.jpg","[""ArrowDown"",""ArrowRight""]","value training","canyon","30","{""ArrowUp,ArrowLeft"":23,""ArrowUp,ArrowRight"":10,""ArrowDown,ArrowLeft"":8,""ArrowDown,ArrowRight"":30}","true","ArrowDown,ArrowRight","false","","","original","1","90","","",""
"html-keyboard-response","209","935747","0.0-4.0-2.0-1.45","spark_pilot_2","7463","7","20","Male","","","","","","","null","<div style=""font-size:60px;"">+</div>","null","fixation","","","","","","","","","","","91","","",""
"revaluation","210","941774","0.0-4.0-2.0-0.46","spark_pilot_2","7463","7","20","Male","","false","","","","","[625.9000000003725,383]","./assets/img/canyon/memory/40.jpg","[""ArrowDown"",""ArrowRight""]","value training","canyon","30","{""ArrowUp,ArrowLeft"":23,""ArrowUp,ArrowRight"":10,""ArrowDown,ArrowLeft"":8,""ArrowDown,ArrowRight"":30}","true","ArrowDown,ArrowRight","false","","","original","1","92","","",""
"html-keyboard-response","211","942285","0.0-4.0-2.0-1.46","spark_pilot_2","7463","7","20","Male","","","","","","","null","<div style=""font-size:60px;"">+</div>","null","fixation","","","","","","","","","","","93","","",""
"revaluation","212","948307","0.0-4.0-2.0-0.47","spark_pilot_2","7463","7","20","Male","","false","","","","","[581.2999999988824,528.5]","./assets/img/canyon/memory/0.jpg","[""ArrowDown"",""ArrowRight""]","value training","canyon","30","{""ArrowUp,ArrowLeft"":23,""ArrowUp,ArrowRight"":10,""ArrowDown,ArrowLeft"":8,""ArrowDown,ArrowRight"":30}","true","ArrowDown,ArrowRight","false","","","original","1","94","","",""
"html-keyboard-response","213","948813","0.0-4.0-2.0-1.47","spark_pilot_2","7463","7","20","Male","","","","","","","null","<div style=""font-size:60px;"">+</div>","null","fixation","","","","","","","","","","","95","","",""
"revaluation","214","954839","0.0-4.0-2.0-0.48","spark_pilot_2","7463","7","20","Male","","false","","","","","[485.7000000011176,334.09999999962747]","./assets/img/canyon/memory/29.jpg","[""ArrowDown"",""ArrowRight""]","value training","canyon","30","{""ArrowUp,ArrowLeft"":23,""ArrowUp,ArrowRight"":10,""ArrowDown,ArrowLeft"":8,""ArrowDown,ArrowRight"":30}","true","ArrowDown,ArrowRight","false","","","original","1","96","","",""
"html-keyboard-response","215","955346","0.0-4.0-2.0-1.48","spark_pilot_2","7463","7","20","Male","","","","","","","null","<div style=""font-size:60px;"">+</div>","null","fixation","","","","","","","","","","","97","","",""
"revaluation","216","961372","0.0-4.0-2.0-0.49","spark_pilot_2","7463","7","20","Male","","false","","","","","[1179.199999999255,1310.7999999988824]","./assets/img/canyon/memory/3.jpg","[""ArrowDown"",""ArrowRight""]","value training","canyon","30","{""ArrowUp,ArrowLeft"":23,""ArrowUp,ArrowRight"":10,""ArrowDown,ArrowLeft"":8,""ArrowDown,ArrowRight"":30}","true","ArrowDown,ArrowRight","false","","","original","1","98","","",""
"html-keyboard-response","217","961884","0.0-4.0-2.0-1.49","spark_pilot_2","7463","7","20","Male","","","","","","","null","<div style=""font-size:60px;"">+</div>","null","fixation","","","","","","","","","","","99","","",""
"learning-instructions","218","976062","0.0-4.0-3.0-0.0","spark_pilot_2","7463","7","20","Male","","","","","","","1259.4000000003725","<p> Now, you will travel with a friend who will choose whether you go up or down first. </p>
            <p> On these turns, you will just see the animal that they found. You will still get to choose which chest to search for treasure.</p>","","instructions","","","","","","","","","","","","","",""
"revaluation","219","980084","0.0-4.0-4.0-0.0","spark_pilot_2","7463","7","20","Male","","false","","","","","[1036.9000000003725]","./assets/img/canyon/animals/giraffe.jpg","[""ArrowRight""]","revaluation","canyon","10","{""ArrowUp,ArrowLeft"":23,""ArrowUp,ArrowRight"":10,""ArrowDown,ArrowLeft"":8,""ArrowDown,ArrowRight"":30}","false","ArrowUp,ArrowRight","","","","original","1","0","","",""
"html-keyboard-response","220","980595","0.0-4.0-4.0-1.0","spark_pilot_2","7463","7","20","Male","","","","","","","null","<div style=""font-size:60px;"">+</div>","null","fixation","","","","","","","","","","","1","","",""
"revaluation","221","984610","0.0-4.0-4.0-0.1","spark_pilot_2","7463","7","20","Male","","false","","","","","[458.2999999988824]","./assets/img/canyon/animals/giraffe.jpg","[""ArrowLeft""]","revaluation","canyon","23","{""ArrowUp,ArrowLeft"":23,""ArrowUp,ArrowRight"":10,""ArrowDown,ArrowLeft"":8,""ArrowDown,ArrowRight"":30}","true","ArrowUp,ArrowLeft","","","","original","1","2","","",""
"html-keyboard-response","222","985113","0.0-4.0-4.0-1.1","spark_pilot_2","7463","7","20","Male","","","","","","","null","<div style=""font-size:60px;"">+</div>","null","fixation","","","","","","","","","","","3","","",""
"revaluation","223","989129","0.0-4.0-4.0-0.2","spark_pilot_2","7463","7","20","Male","","false","","","","","[426]","./assets/img/canyon/animals/giraffe.jpg","[""ArrowLeft""]","revaluation","canyon","23","{""ArrowUp,ArrowLeft"":23,""ArrowUp,ArrowRight"":10,""ArrowDown,ArrowLeft"":8,""ArrowDown,ArrowRight"":30}","true","ArrowUp,ArrowLeft","","","","original","1","4","","",""
"html-keyboard-response","224","989633","0.0-4.0-4.0-1.2","spark_pilot_2","7463","7","20","Male","","","","","","","null","<div style=""font-size:60px;"">+</div>","null","fixation","","","","","","","","","","","5","","",""
"revaluation","225","993649","0.0-4.0-4.0-0.3","spark_pilot_2","7463","7","20","Male","","false","","","","","[552.5999999996275]","./assets/img/canyon/animals/lion.jpg","[""ArrowLeft""]","revaluation","canyon","8","{""ArrowUp,ArrowLeft"":23,""ArrowUp,ArrowRight"":10,""ArrowDown,ArrowLeft"":8,""ArrowDown,ArrowRight"":30}","false","ArrowDown,ArrowLeft","","","","original","1","6","","",""
"html-keyboard-response","226","994155","0.0-4.0-4.0-1.3","spark_pilot_2","7463","7","20","Male","","","","","","","null","<div style=""font-size:60px;"">+</div>","null","fixation","","","","","","","","","","","7","","",""
"revaluation","227","998172","0.0-4.0-4.0-0.4","spark_pilot_2","7463","7","20","Male","","false","","","","","[498.2000000011176]","./assets/img/canyon/animals/giraffe.jpg","[""ArrowRight""]","revaluation","canyon","10","{""ArrowUp,ArrowLeft"":23,""ArrowUp,ArrowRight"":10,""ArrowDown,ArrowLeft"":8,""ArrowDown,ArrowRight"":30}","false","ArrowUp,ArrowRight","","","","original","1","8","","",""
"html-keyboard-response","228","998681","0.0-4.0-4.0-1.4","spark_pilot_2","7463","7","20","Male","","","","","","","null","<div style=""font-size:60px;"">+</div>","null","fixation","","","","","","","","","","","9","","",""
"revaluation","229","1002697","0.0-4.0-4.0-0.5","spark_pilot_2","7463","7","20","Male","","false","","","","","[786.5999999996275]","./assets/img/canyon/animals/lion.jpg","[""ArrowLeft""]","revaluation","canyon","8","{""ArrowUp,ArrowLeft"":23,""ArrowUp,ArrowRight"":10,""ArrowDown,ArrowLeft"":8,""ArrowDown,ArrowRight"":30}","false","ArrowDown,ArrowLeft","","","","original","1","10","","",""
"html-keyboard-response","230","1003204","0.0-4.0-4.0-1.5","spark_pilot_2","7463","7","20","Male","","","","","","","null","<div style=""font-size:60px;"">+</div>","null","fixation","","","","","","","","","","","11","","",""
"revaluation","231","1007224","0.0-4.0-4.0-0.6","spark_pilot_2","7463","7","20","Male","","false","","","","","[778.2000000011176]","./assets/img/canyon/animals/lion.jpg","[""ArrowRight""]","revaluation","canyon","30","{""ArrowUp,ArrowLeft"":23,""ArrowUp,ArrowRight"":10,""ArrowDown,ArrowLeft"":8,""ArrowDown,ArrowRight"":30}","true","ArrowDown,ArrowRight","","","","original","1","12","","",""
"html-keyboard-response","232","1007730","0.0-4.0-4.0-1.6","spark_pilot_2","7463","7","20","Male","","","","","","","null","<div style=""font-size:60px;"">+</div>","null","fixation","","","","","","","","","","","13","","",""
"revaluation","233","1011747","0.0-4.0-4.0-0.7","spark_pilot_2","7463","7","20","Male","","false","","","","","[512.3000000007451]","./assets/img/canyon/animals/lion.jpg","[""ArrowRight""]","revaluation","canyon","30","{""ArrowUp,ArrowLeft"":23,""ArrowUp,ArrowRight"":10,""ArrowDown,ArrowLeft"":8,""ArrowDown,ArrowRight"":30}","true","ArrowDown,ArrowRight","","","","original","1","14","","",""
"html-keyboard-response","234","1012258","0.0-4.0-4.0-1.7","spark_pilot_2","7463","7","20","Male","","","","","","","null","<div style=""font-size:60px;"">+</div>","null","fixation","","","","","","","","","","","15","","",""
"revaluation","235","1016274","0.0-4.0-4.0-0.8","spark_pilot_2","7463","7","20","Male","","false","","","","","[591.1999999992549]","./assets/img/canyon/animals/lion.jpg","[""ArrowRight""]","revaluation","canyon","30","{""ArrowUp,ArrowLeft"":23,""ArrowUp,ArrowRight"":10,""ArrowDown,ArrowLeft"":8,""ArrowDown,ArrowRight"":30}","true","ArrowDown,ArrowRight","","","","original","1","16","","",""
"html-keyboard-response","236","1016788","0.0-4.0-4.0-1.8","spark_pilot_2","7463","7","20","Male","","","","","","","null","<div style=""font-size:60px;"">+</div>","null","fixation","","","","","","","","","","","17","","",""
"revaluation","237","1020808","0.0-4.0-4.0-0.9","spark_pilot_2","7463","7","20","Male","","false","","","","","[1120]","./assets/img/canyon/animals/giraffe.jpg","[""ArrowLeft""]","revaluation","canyon","23","{""ArrowUp,ArrowLeft"":23,""ArrowUp,ArrowRight"":10,""ArrowDown,ArrowLeft"":8,""ArrowDown,ArrowRight"":30}","true","ArrowUp,ArrowLeft","","","","original","1","18","","",""
"html-keyboard-response","238","1021314","0.0-4.0-4.0-1.9","spark_pilot_2","7463","7","20","Male","","","","","","","null","<div style=""font-size:60px;"">+</div>","null","fixation","","","","","","","","","","","19","","",""
"revaluation","239","1025330","0.0-4.0-4.0-0.10","spark_pilot_2","7463","7","20","Male","","false","","","","","[582.2999999988824]","./assets/img/canyon/animals/giraffe.jpg","[""ArrowLeft""]","revaluation","canyon","23","{""ArrowUp,ArrowLeft"":23,""ArrowUp,ArrowRight"":10,""ArrowDown,ArrowLeft"":8,""ArrowDown,ArrowRight"":30}","true","ArrowUp,ArrowLeft","","","","original","1","20","","",""
"html-keyboard-response","240","1025841","0.0-4.0-4.0-1.10","spark_pilot_2","7463","7","20","Male","","","","","","","null","<div style=""font-size:60px;"">+</div>","null","fixation","","","","","","","","","","","21","","",""
"revaluation","241","1029858","0.0-4.0-4.0-0.11","spark_pilot_2","7463","7","20","Male","","false","","","","","[452.2000000011176]","./assets/img/canyon/animals/lion.jpg","[""ArrowRight""]","revaluation","canyon","30","{""ArrowUp,ArrowLeft"":23,""ArrowUp,ArrowRight"":10,""ArrowDown,ArrowLeft"":8,""ArrowDown,ArrowRight"":30}","true","ArrowDown,ArrowRight","","","","original","1","22","","",""
"html-keyboard-response","242","1030371","0.0-4.0-4.0-1.11","spark_pilot_2","7463","7","20","Male","","","","","","","null","<div style=""font-size:60px;"">+</div>","null","fixation","","","","","","","","","","","23","","",""
"revaluation","243","1034391","0.0-4.0-4.0-0.12","spark_pilot_2","7463","7","20","Male","","false","","","","","[634.8000000007451]","./assets/img/canyon/animals/giraffe.jpg","[""ArrowLeft""]","revaluation","canyon","23","{""ArrowUp,ArrowLeft"":23,""ArrowUp,ArrowRight"":10,""ArrowDown,ArrowLeft"":8,""ArrowDown,ArrowRight"":30}","true","ArrowUp,ArrowLeft","","","","original","1","24","","",""
"html-keyboard-response","244","1034897","0.0-4.0-4.0-1.12","spark_pilot_2","7463","7","20","Male","","","","","","","null","<div style=""font-size:60px;"">+</div>","null","fixation","","","","","","","","","","","25","","",""
"revaluation","245","1038913","0.0-4.0-4.0-0.13","spark_pilot_2","7463","7","20","Male","","false","","","","","[953.9000000003725]","./assets/img/canyon/animals/giraffe.jpg","[""ArrowLeft""]","revaluation","canyon","23","{""ArrowUp,ArrowLeft"":23,""ArrowUp,ArrowRight"":10,""ArrowDown,ArrowLeft"":8,""ArrowDown,ArrowRight"":30}","true","ArrowUp,ArrowLeft","","","","original","1","26","","",""
"html-keyboard-response","246","1039425","0.0-4.0-4.0-1.13","spark_pilot_2","7463","7","20","Male","","","","","","","null","<div style=""font-size:60px;"">+</div>","null","fixation","","","","","","","","","","","27","","",""
"revaluation","247","1043441","0.0-4.0-4.0-0.14","spark_pilot_2","7463","7","20","Male","","false","","","","","[648.1999999992549]","./assets/img/canyon/animals/giraffe.jpg","[""ArrowLeft""]","revaluation","canyon","23","{""ArrowUp,ArrowLeft"":23,""ArrowUp,ArrowRight"":10,""ArrowDown,ArrowLeft"":8,""ArrowDown,ArrowRight"":30}","true","ArrowUp,ArrowLeft","","","","original","1","28","","",""
"html-keyboard-response","248","1043954","0.0-4.0-4.0-1.14","spark_pilot_2","7463","7","20","Male","","","","","","","null","<div style=""font-size:60px;"">+</div>","null","fixation","","","","","","","","","","","29","","",""
"revaluation","249","1047969","0.0-4.0-4.0-0.15","spark_pilot_2","7463","7","20","Male","","false","","","","","[1009.5]","./assets/img/canyon/animals/lion.jpg","[""ArrowRight""]","revaluation","canyon","30","{""ArrowUp,ArrowLeft"":23,""ArrowUp,ArrowRight"":10,""ArrowDown,ArrowLeft"":8,""ArrowDown,ArrowRight"":30}","true","ArrowDown,ArrowRight","","","","original","1","30","","",""
"html-keyboard-response","250","1048480","0.0-4.0-4.0-1.15","spark_pilot_2","7463","7","20","Male","","","","","","","null","<div style=""font-size:60px;"">+</div>","null","fixation","","","","","","","","","","","31","","",""
"revaluation","251","1052505","0.0-4.0-4.0-0.16","spark_pilot_2","7463","7","20","Male","","false","","","","","[785.5]","./assets/img/canyon/animals/lion.jpg","[""ArrowRight""]","revaluation","canyon","30","{""ArrowUp,ArrowLeft"":23,""ArrowUp,ArrowRight"":10,""ArrowDown,ArrowLeft"":8,""ArrowDown,ArrowRight"":30}","true","ArrowDown,ArrowRight","","","","original","1","32","","",""
"html-keyboard-response","252","1053013","0.0-4.0-4.0-1.16","spark_pilot_2","7463","7","20","Male","","","","","","","null","<div style=""font-size:60px;"">+</div>","null","fixation","","","","","","","","","","","33","","",""
"revaluation","253","1057030","0.0-4.0-4.0-0.17","spark_pilot_2","7463","7","20","Male","","false","","","","","[446]","./assets/img/canyon/animals/lion.jpg","[""ArrowRight""]","revaluation","canyon","30","{""ArrowUp,ArrowLeft"":23,""ArrowUp,ArrowRight"":10,""ArrowDown,ArrowLeft"":8,""ArrowDown,ArrowRight"":30}","true","ArrowDown,ArrowRight","","","","original","1","34","","",""
"html-keyboard-response","254","1057537","0.0-4.0-4.0-1.17","spark_pilot_2","7463","7","20","Male","","","","","","","null","<div style=""font-size:60px;"">+</div>","null","fixation","","","","","","","","","","","35","","",""
"learning-instructions","255","1069728","0.0-4.0-5.0-0.0","spark_pilot_2","7463","7","20","Male","","","","","","","760.5999999996275","<p> Time to play the dot game! </p>
            <p> For one minute, click the red dots on the following screen as they appear. </p>
            <p><b> Don't look away, as you will earn bonus for clicking dots</b>. </p>","","instructions","","","","","","","","","","","","","",""
"revaluation","256","1129734","0.0-4.0-6.0-0.0","spark_pilot_2","7463","7","20","Male","","","","","","","[56,85,108,55,77,75,61,67]","","","rest","","80","","","","","0","60000","","","","","",""
"learning-instructions","257","1136627","0.0-4.0-7.0-0.0","spark_pilot_2","7463","7","20","Male","","","","","","","759.9000000003725","<p> You have almost finished this part of the game! </p>
            <p> We are going to ask you to make a few more choices. </p>","","instructions","","","","","","","","","","","","","",""
"learning-instructions","258","1151194","0.0-4.0-7.0-0.1","spark_pilot_2","7463","7","20","Male","","","","","","","591","<p> First, you need to decide whether to go up or down. When you see each picture, use the arrow keys to make your choice. </p>
            <p><b>You will not see which animal you found, but try to get to the one that will give you the most treasure.</b></p>","","instructions","","","","","","","","","","","","","",""
"revaluation","259","1152154","0.0-4.0-8.0-0.0","spark_pilot_2","7463","7","20","Male","","false","","","","","[956.1999999992549]","./assets/img/canyon/test/0.jpg","[""ArrowDown""]","first stage test","canyon","0","{""ArrowUp,ArrowLeft"":23,""ArrowUp,ArrowRight"":10,""ArrowDown,ArrowLeft"":8,""ArrowDown,ArrowRight"":30}","true","ArrowDown","false","","","original","1","","","",""
"html-keyboard-response","260","1152659","0.0-4.0-8.0-1.0","spark_pilot_2","7463","7","20","Male","","","","","","","null","<div style=""font-size:60px;"">+</div>","null","fixation","","","","","","","","","","","","","",""
"revaluation","261","1153625","0.0-4.0-8.0-0.1","spark_pilot_2","7463","7","20","Male","","false","","","","","[961.1999999992549]","./assets/img/canyon/test/1.jpg","[""ArrowDown""]","first stage test","canyon","0","{""ArrowUp,ArrowLeft"":23,""ArrowUp,ArrowRight"":10,""ArrowDown,ArrowLeft"":8,""ArrowDown,ArrowRight"":30}","true","ArrowDown","false","","","original","1","","","",""
"html-keyboard-response","262","1154133","0.0-4.0-8.0-1.1","spark_pilot_2","7463","7","20","Male","","","","","","","null","<div style=""font-size:60px;"">+</div>","null","fixation","","","","","","","","","","","","","",""
"revaluation","263","1154677","0.0-4.0-8.0-0.2","spark_pilot_2","7463","7","20","Male","","false","","","","","[539.1999999992549]","./assets/img/canyon/test/2.jpg","[""ArrowDown""]","first stage test","canyon","0","{""ArrowUp,ArrowLeft"":23,""ArrowUp,ArrowRight"":10,""ArrowDown,ArrowLeft"":8,""ArrowDown,ArrowRight"":30}","true","ArrowDown","false","","","original","1","","","",""
"html-keyboard-response","264","1155187","0.0-4.0-8.0-1.2","spark_pilot_2","7463","7","20","Male","","","","","","","null","<div style=""font-size:60px;"">+</div>","null","fixation","","","","","","","","","","","","","",""
"revaluation","265","1155548","0.0-4.0-8.0-0.3","spark_pilot_2","7463","7","20","Male","","false","","","","","[356.09999999962747]","./assets/img/canyon/test/3.jpg","[""ArrowDown""]","first stage test","canyon","0","{""ArrowUp,ArrowLeft"":23,""ArrowUp,ArrowRight"":10,""ArrowDown,ArrowLeft"":8,""ArrowDown,ArrowRight"":30}","true","ArrowDown","false","","","original","1","","","",""
"html-keyboard-response","266","1156050","0.0-4.0-8.0-1.3","spark_pilot_2","7463","7","20","Male","","","","","","","null","<div style=""font-size:60px;"">+</div>","null","fixation","","","","","","","","","","","","","",""
"learning-instructions","267","1167844","0.0-4.0-9.0-0.0","spark_pilot_2","7463","7","20","Male","","","","","","","451.40000000037253","<p> Now you will see the animals again and can search their chests for treasure. </p>
            <p> This time, you will not see how much treasure you earned, but you will earn more bonus money for making better choices. </p>","","instructions","","","","","","","","","","","","","",""
"revaluation","268","1168425","0.0-4.0-10.0-0.0","spark_pilot_2","7463","7","20","Male","","false","","","","","[578]","./assets/img/canyon/animals/giraffe.jpg","[""ArrowLeft""]","second stage test","canyon","0","{""ArrowUp,ArrowLeft"":23,""ArrowUp,ArrowRight"":10,""ArrowDown,ArrowLeft"":8,""ArrowDown,ArrowRight"":30}","true","ArrowUp,ArrowLeft","","","","original","1","","","",""
"html-keyboard-response","269","1168930","0.0-4.0-10.0-1.0","spark_pilot_2","7463","7","20","Male","","","","","","","null","<div style=""font-size:60px;"">+</div>","null","fixation","","","","","","","","","","","","","",""
"revaluation","270","1169823","0.0-4.0-10.0-0.1","spark_pilot_2","7463","7","20","Male","","false","","","","","[888.7000000011176]","./assets/img/canyon/animals/giraffe.jpg","[""ArrowLeft""]","second stage test","canyon","0","{""ArrowUp,ArrowLeft"":23,""ArrowUp,ArrowRight"":10,""ArrowDown,ArrowLeft"":8,""ArrowDown,ArrowRight"":30}","true","ArrowUp,ArrowLeft","","","","original","1","","","",""
"html-keyboard-response","271","1170332","0.0-4.0-10.0-1.1","spark_pilot_2","7463","7","20","Male","","","","","","","null","<div style=""font-size:60px;"">+</div>","null","fixation","","","","","","","","","","","","","",""
"revaluation","272","1170961","0.0-4.0-10.0-0.2","spark_pilot_2","7463","7","20","Male","","false","","","","","[624.8999999985099]","./assets/img/canyon/animals/giraffe.jpg","[""ArrowLeft""]","second stage test","canyon","0","{""ArrowUp,ArrowLeft"":23,""ArrowUp,ArrowRight"":10,""ArrowDown,ArrowLeft"":8,""ArrowDown,ArrowRight"":30}","true","ArrowUp,ArrowLeft","","","","original","1","","","",""
"html-keyboard-response","273","1171464","0.0-4.0-10.0-1.2","spark_pilot_2","7463","7","20","Male","","","","","","","null","<div style=""font-size:60px;"">+</div>","null","fixation","","","","","","","","","","","","","",""
"revaluation","274","1172115","0.0-4.0-10.0-0.3","spark_pilot_2","7463","7","20","Male","","false","","","","","[646.1999999992549]","./assets/img/canyon/animals/giraffe.jpg","[""ArrowLeft""]","second stage test","canyon","0","{""ArrowUp,ArrowLeft"":23,""ArrowUp,ArrowRight"":10,""ArrowDown,ArrowLeft"":8,""ArrowDown,ArrowRight"":30}","true","ArrowUp,ArrowLeft","","","","original","1","","","",""
"html-keyboard-response","275","1172620","0.0-4.0-10.0-1.3","spark_pilot_2","7463","7","20","Male","","","","","","","null","<div style=""font-size:60px;"">+</div>","null","fixation","","","","","","","","","","","","","",""
"revaluation","276","1173236","0.0-4.0-10.0-0.4","spark_pilot_2","7463","7","20","Male","","false","","","","","[611.6999999992549]","./assets/img/canyon/animals/lion.jpg","[""ArrowRight""]","second stage test","canyon","0","{""ArrowUp,ArrowLeft"":23,""ArrowUp,ArrowRight"":10,""ArrowDown,ArrowLeft"":8,""ArrowDown,ArrowRight"":30}","true","ArrowDown,ArrowRight","","","","original","1","","","",""
"html-keyboard-response","277","1173748","0.0-4.0-10.0-1.4","spark_pilot_2","7463","7","20","Male","","","","","","","null","<div style=""font-size:60px;"">+</div>","null","fixation","","","","","","","","","","","","","",""
"revaluation","278","1174209","0.0-4.0-10.0-0.5","spark_pilot_2","7463","7","20","Male","","false","","","","","[456.5]","./assets/img/canyon/animals/lion.jpg","[""ArrowRight""]","second stage test","canyon","0","{""ArrowUp,ArrowLeft"":23,""ArrowUp,ArrowRight"":10,""ArrowDown,ArrowLeft"":8,""ArrowDown,ArrowRight"":30}","true","ArrowDown,ArrowRight","","","","original","1","","","",""
"html-keyboard-response","279","1174716","0.0-4.0-10.0-1.5","spark_pilot_2","7463","7","20","Male","","","","","","","null","<div style=""font-size:60px;"">+</div>","null","fixation","","","","","","","","","","","","","",""
"revaluation","280","1175105","0.0-4.0-10.0-0.6","spark_pilot_2","7463","7","20","Male","","false","","","","","[384.59999999962747]","./assets/img/canyon/animals/lion.jpg","[""ArrowRight""]","second stage test","canyon","0","{""ArrowUp,ArrowLeft"":23,""ArrowUp,ArrowRight"":10,""ArrowDown,ArrowLeft"":8,""ArrowDown,ArrowRight"":30}","true","ArrowDown,ArrowRight","","","","original","1","","","",""
"html-keyboard-response","281","1175607","0.0-4.0-10.0-1.6","spark_pilot_2","7463","7","20","Male","","","","","","","null","<div style=""font-size:60px;"">+</div>","null","fixation","","","","","","","","","","","","","",""
"revaluation","282","1175995","0.0-4.0-10.0-0.7","spark_pilot_2","7463","7","20","Male","","false","","","","","[383.2999999988824]","./assets/img/canyon/animals/lion.jpg","[""ArrowRight""]","second stage test","canyon","0","{""ArrowUp,ArrowLeft"":23,""ArrowUp,ArrowRight"":10,""ArrowDown,ArrowLeft"":8,""ArrowDown,ArrowRight"":30}","true","ArrowDown,ArrowRight","","","","original","1","","","",""
"html-keyboard-response","283","1176498","0.0-4.0-10.0-1.7","spark_pilot_2","7463","7","20","Male","","","","","","","null","<div style=""font-size:60px;"">+</div>","null","fixation","","","","","","","","","","","","","",""
"learning-instructions","284","1179611","0.0-4.0-0.1-0.2","spark_pilot_2","7463","7","20","Male","","","","","","","405.2000000011176","<p> This time you are searching for treasure in the <b>ocean</b>.</p>","","instructions","","","","","","","","","","","","","",""
"learning-instructions","285","1197561","0.0-4.0-0.1-0.3","spark_pilot_2","7463","7","20","Male","","","","","","","696.5999999996275","<p><b>New</b> animals with <b>new</b> treasure chests live here. You need to explore to discover where the animal with the best treasure chest is.</p>
                    <p> Like before, once you figure out which animal has the chest with the most treasure, you should try to get to that animal and select that chest! </p>","","instructions","","","","","","","","","","","","","",""
"learning-instructions","286","1212910","0.0-4.0-1.1-0.1","spark_pilot_2","7463","7","20","Male","","","","","","","617","<p> Remember, when you see a picture of the place, use the up and down keys to <b>find an animal</b>.</p>
            <p> When you encounter an animal, you should use the left and right keys to <b>select a treasure chest</b>.</p>
            <p> Don't forget to look out for the robber! </p>","","instructions","","","","","","","","","","","","","",""
"revaluation","287","1218937","0.0-4.0-2.1-0.50","spark_pilot_2","7463","7","20","Male","","false","","","","","[972.5,1010.5]","./assets/img/ocean/memory/35.jpg","[""ArrowDown"",""ArrowRight""]","value training","ocean","17","{""ArrowUp,ArrowLeft"":26,""ArrowUp,ArrowRight"":10,""ArrowDown,ArrowLeft"":5,""ArrowDown,ArrowRight"":17}","false","ArrowDown,ArrowRight","false","","","revaluation","2","0","","",""
"html-keyboard-response","288","1219450","0.0-4.0-2.1-1.50","spark_pilot_2","7463","7","20","Male","","","","","","","null","<div style=""font-size:60px;"">+</div>","null","fixation","","","","","","","","","","","1","","",""
"revaluation","289","1225482","0.0-4.0-2.1-0.51","spark_pilot_2","7463","7","20","Male","","false","","","","","[729.0999999996275,753]","./assets/img/ocean/memory/20.jpg","[""ArrowDown"",""ArrowLeft""]","value training","ocean","5","{""ArrowUp,ArrowLeft"":26,""ArrowUp,ArrowRight"":10,""ArrowDown,ArrowLeft"":5,""ArrowDown,ArrowRight"":17}","false","ArrowDown,ArrowLeft","false","","","revaluation","2","2","","",""
"html-keyboard-response","290","1225994","0.0-4.0-2.1-1.51","spark_pilot_2","7463","7","20","Male","","","","","","","null","<div style=""font-size:60px;"">+</div>","null","fixation","","","","","","","","","","","3","","",""
"revaluation","291","1232026","0.0-4.0-2.1-0.52","spark_pilot_2","7463","7","20","Male","","false","","","","","[323.7000000011176,443.09999999962747]","./assets/img/ocean/memory/8.jpg","[""ArrowUp"",""ArrowLeft""]","value training","ocean","26","{""ArrowUp,ArrowLeft"":26,""ArrowUp,ArrowRight"":10,""ArrowDown,ArrowLeft"":5,""ArrowDown,ArrowRight"":17}","true","ArrowUp,ArrowLeft","false","","","revaluation","2","4","","",""
"html-keyboard-response","292","1232536","0.0-4.0-2.1-1.52","spark_pilot_2","7463","7","20","Male","","","","","","","null","<div style=""font-size:60px;"">+</div>","null","fixation","","","","","","","","","","","5","","",""
"revaluation","293","1238565","0.0-4.0-2.1-0.53","spark_pilot_2","7463","7","20","Male","","false","","","","","[910.9000000003725,446.5]","./assets/img/ocean/memory/40.jpg","[""ArrowDown"",""ArrowRight""]","value training","ocean","17","{""ArrowUp,ArrowLeft"":26,""ArrowUp,ArrowRight"":10,""ArrowDown,ArrowLeft"":5,""ArrowDown,ArrowRight"":17}","false","ArrowDown,ArrowRight","false","","","revaluation","2","6","","",""
"html-keyboard-response","294","1239070","0.0-4.0-2.1-1.53","spark_pilot_2","7463","7","20","Male","","","","","","","null","<div style=""font-size:60px;"">+</div>","null","fixation","","","","","","","","","","","7","","",""
"revaluation","295","1243088","0.0-4.0-2.1-0.54","spark_pilot_2","7463","7","20","Male","","false","","","","","[1156]","./assets/img/ocean/catch/5.jpg","[""spaceBar""]","value training","ocean","0","{""ArrowUp,ArrowLeft"":26,""ArrowUp,ArrowRight"":10,""ArrowDown,ArrowLeft"":5,""ArrowDown,ArrowRight"":17}","true","spaceBar","true","","","revaluation","2","8","","",""
"html-keyboard-response","296","1243600","0.0-4.0-2.1-1.54","spark_pilot_2","7463","7","20","Male","","","","","","","null","<div style=""font-size:60px;"">+</div>","null","fixation","","","","","","","","","","","9","","",""
"revaluation","297","1249622","0.0-4.0-2.1-0.55","spark_pilot_2","7463","7","20","Male","","false","","","","","[735.7000000011176,679.5]","./assets/img/ocean/memory/6.jpg","[""ArrowUp"",""ArrowLeft""]","value training","ocean","26","{""ArrowUp,ArrowLeft"":26,""ArrowUp,ArrowRight"":10,""ArrowDown,ArrowLeft"":5,""ArrowDown,ArrowRight"":17}","true","ArrowUp,ArrowLeft","false","","","revaluation","2","10","","",""
"html-keyboard-response","298","1250128","0.0-4.0-2.1-1.55","spark_pilot_2","7463","7","20","Male","","","","","","","null","<div style=""font-size:60px;"">+</div>","null","fixation","","","","","","","","","","","11","","",""
"revaluation","299","1254149","0.0-4.0-2.1-0.56","spark_pilot_2","7463","7","20","Male","","false","","","","","[774.2000000011176]","./assets/img/ocean/catch/3.jpg","[""spaceBar""]","value training","ocean","0","{""ArrowUp,ArrowLeft"":26,""ArrowUp,ArrowRight"":10,""ArrowDown,ArrowLeft"":5,""ArrowDown,ArrowRight"":17}","true","spaceBar","true","","","revaluation","2","12","","",""
"html-keyboard-response","300","1254656","0.0-4.0-2.1-1.56","spark_pilot_2","7463","7","20","Male","","","","","","","null","<div style=""font-size:60px;"">+</div>","null","fixation","","","","","","","","","","","13","","",""
"revaluation","301","1258677","0.0-4.0-2.1-0.57","spark_pilot_2","7463","7","20","Male","","false","","","","","[834.9000000003725]","./assets/img/ocean/catch/2.jpg","[""spaceBar""]","value training","ocean","0","{""ArrowUp,ArrowLeft"":26,""ArrowUp,ArrowRight"":10,""ArrowDown,ArrowLeft"":5,""ArrowDown,ArrowRight"":17}","true","spaceBar","true","","","revaluation","2","14","","",""
"html-keyboard-response","302","1259183","0.0-4.0-2.1-1.57","spark_pilot_2","7463","7","20","Male","","","","","","","null","<div style=""font-size:60px;"">+</div>","null","fixation","","","","","","","","","","","15","","",""
"revaluation","303","1263205","0.0-4.0-2.1-0.58","spark_pilot_2","7463","7","20","Male","","false","","","","","[946.5]","./assets/img/ocean/catch/4.jpg","[""spaceBar""]","value training","ocean","0","{""ArrowUp,ArrowLeft"":26,""ArrowUp,ArrowRight"":10,""ArrowDown,ArrowLeft"":5,""ArrowDown,ArrowRight"":17}","true","spaceBar","true","","","revaluation","2","16","","",""
"html-keyboard-response","304","1263711","0.0-4.0-2.1-1.58","spark_pilot_2","7463","7","20","Male","","","","","","","null","<div style=""font-size:60px;"">+</div>","null","fixation","","","","","","","","","","","17","","",""
"revaluation","305","1269743","0.0-4.0-2.1-0.59","spark_pilot_2","7463","7","20","Male","","false","","","","","[1279.7999999988824,1276.4000000003725]","./assets/img/ocean/memory/27.jpg","[""ArrowUp"",""ArrowLeft""]","value training","ocean","26","{""ArrowUp,ArrowLeft"":26,""ArrowUp,ArrowRight"":10,""ArrowDown,ArrowLeft"":5,""ArrowDown,ArrowRight"":17}","true","ArrowUp,ArrowLeft","false","","","revaluation","2","18","","",""
"html-keyboard-response","306","1270255","0.0-4.0-2.1-1.59","spark_pilot_2","7463","7","20","Male","","","","","","","null","<div style=""font-size:60px;"">+</div>","null","fixation","","","","","","","","","","","19","","",""
"revaluation","307","1276287","0.0-4.0-2.1-0.60","spark_pilot_2","7463","7","20","Male","","false","","","","","[683.4000000003725,403.2999999988824]","./assets/img/ocean/memory/7.jpg","[""ArrowUp"",""ArrowLeft""]","value training","ocean","26","{""ArrowUp,ArrowLeft"":26,""ArrowUp,ArrowRight"":10,""ArrowDown,ArrowLeft"":5,""ArrowDown,ArrowRight"":17}","true","ArrowUp,ArrowLeft","false","","","revaluation","2","20","","",""
"html-keyboard-response","308","1276798","0.0-4.0-2.1-1.60","spark_pilot_2","7463","7","20","Male","","","","","","","null","<div style=""font-size:60px;"">+</div>","null","fixation","","","","","","","","","","","21","","",""
