"trial_type","trial_index","time_elapsed","internal_node_id","task_version","subject_id","assigned_condition","age","gender","success","timeout","failed_images","failed_audio","failed_video","browser_interaction","rt","stimulus","response","task_part","environment","score","rewardMap","correct","fullState","isCatch","numberMissed","duration","condition","order","trial_num","key_press","ground_truth","bonus"
"pavlovia","0","1401","0.0-0.0","spark_pilot_2","7793","3","22","Female","","","","","","","","","","","","","","","","","","","","","","","",""
"preload","1","47590","0.0-1.0","spark_pilot_2","7793","3","22","Female","true","false","[]","[]","[]","[{""event"":""fullscreenenter"",""trial"":2,""time"":84752}]","","","","","","","","","","","","","","","","","",""
"fullscreen","2","85736","0.0-2.0","spark_pilot_2","7793","3","22","Female","true","","","","","","","","","","","","","","","","","","","","","","",""
"audio-button-response","3","121286","0.0-3.0-0.0-0.0","spark_pilot_2","7793","3","22","Female","","","","","","","30480","./assets/audio/audiotest/turtle.mp3","4","audio_test","","","","","","","","","","","","","",""
"audio-button-response","4","124668","0.0-3.0-0.1-0.1","spark_pilot_2","7793","3","22","Female","","","","","","","2371","./assets/audio/audiotest/turtle.mp3","4","audio_test","","","","","","","","","","","","","",""
"audio-button-response","5","127949","0.0-3.0-0.2-0.2","spark_pilot_2","7793","3","22","Female","","","","","","","2272","./assets/audio/audiotest/turtle.mp3","2","audio_test","","","","","","","","","","","","","",""
"learning-instructions","6","136226","0.0-3.0-1.0-0.0","spark_pilot_2","7793","3","22","Female","","","","","","","1255","<p> Welcome! Please remember to stay in fullscreen mode and don't click away from the experiment. </p>","","instructions","","","","","","","","","","","","","",""
"learning-instructions","7","152478","0.0-3.0-1.0-0.1","spark_pilot_2","7793","3","22","Female","","","","","","","7811.899999976158","<p> Today you will be playing a game to earn treasure. </p>
            <p> At the end of the experiment, you will earn a bonus based on how much treasure you find. </p>
            <img src='./assets/img/instructions/treasure.jpg' class='instructions-image'>","","instructions","","","","","","","","","","","","","",""
"learning-instructions","8","163886","0.0-3.0-1.0-0.2","spark_pilot_2","7793","3","22","Female","","","","","","","3110.600000023842","<p> Animals have hidden treasure in treasure chests. </p>
            <p> You need to first find an animal and then choose which of their treasure chests to search. </p>
            <img src='./assets/img/space/animals/cat.jpg' class='instructions-image'>","","instructions","","","","","","","","","","","","","",""
"learning-instructions","9","177977","0.0-3.0-1.0-0.3","spark_pilot_2","7793","3","22","Female","","","","","","","890.7999999523163","<p> In each round, you will search for treasure in a different place. In the real game, there will be two rounds. </p>
            <p> You will begin with a separate, practice round where you will search for treasure in outer space. </p>
            <img src='./assets/img/space/0.jpg' class='instructions-image'>","","instructions","","","","","","","","","","","","","",""
"learning-instructions","10","190356","0.0-3.0-1.0-0.4","spark_pilot_2","7793","3","22","Female","","","","","","","910.1999999880791","<p> On every turn, you will see a picture of the place that you are in, but the specific image may be different each time. </p>
            <p> For example, both of these images mean you are in outer space. </p>
            <img src='./assets/img/instructions/outerspace.jpg' class='instructions-image'>","","instructions","","","","","","","","","","","","","",""
"learning-instructions","11","198989","0.0-3.0-1.0-0.5","spark_pilot_2","7793","3","22","Female","","","","","","","773","<p> You need to decide which direction to travel in. </p>
            <p> You can choose between going <b>up or down</b> by using the arrow keys. </p>
            <img src='./assets/img/instructions/updown.jpg' class='instructions-image'>","","instructions","","","","","","","","","","","","","",""
"learning-instructions","12","209098","0.0-3.0-1.0-0.6","spark_pilot_2","7793","3","22","Female","","","","","","","1251.699999988079","<p> You will have <b>2 seconds</b> to make your choice. </p>
            <p> If you do not make a choice within 2 seconds, you will not find an animal or earn treasure. </p>
            <img src='./assets/img/instructions/2seconds.jpg' class='instructions-image'>","","instructions","","","","","","","","","","","","","",""
"learning-instructions","13","216868","0.0-3.0-1.0-0.7","spark_pilot_2","7793","3","22","Female","","","","","","","701.3000000119209","<p> Let’s try practicing that now! </p>
            <p> When you see a picture of the place you are in, press the <b>up</b> key to travel up. </p>
            <img src='./assets/img/instructions/pressUp.jpg' class='instructions-image'>","","instructions","","","","","","","","","","","","","",""
"revaluation","14","220904","0.0-3.0-2.0-0.0","spark_pilot_2","7793","3","22","Female","","false","","","","","[841.6000000238419]","./assets/img/space/0.jpg","[""ArrowUp""]","first stage practice","space","0","null","null","ArrowUp","false","","","","","","","",""
"html-keyboard-response","15","221418","0.0-3.0-2.0-1.0","spark_pilot_2","7793","3","22","Female","","","","","","","null","<div style=""font-size:60px;"">+</div>","null","fixation","","","","","","","","","","","","","",""
"revaluation","16","225444","0.0-3.0-2.0-0.1","spark_pilot_2","7793","3","22","Female","","false","","","","","[1208.5999999642372]","./assets/img/space/1.jpg","[""ArrowUp""]","first stage practice","space","0","null","null","ArrowUp","false","","","","","","","",""
"html-keyboard-response","17","225960","0.0-3.0-2.0-1.1","spark_pilot_2","7793","3","22","Female","","","","","","","null","<div style=""font-size:60px;"">+</div>","null","fixation","","","","","","","","","","","","","",""
"revaluation","18","229977","0.0-3.0-2.0-0.2","spark_pilot_2","7793","3","22","Female","","false","","","","","[634.7999999523163]","./assets/img/space/2.jpg","[""ArrowUp""]","first stage practice","space","0","null","null","ArrowUp","false","","","","","","","",""
"html-keyboard-response","19","230492","0.0-3.0-2.0-1.2","spark_pilot_2","7793","3","22","Female","","","","","","","null","<div style=""font-size:60px;"">+</div>","null","fixation","","","","","","","","","","","","","",""
"learning-instructions","20","236557","0.0-3.0-3.0-0.0","spark_pilot_2","7793","3","22","Female","","","","","","","1350.0999999642372","<p> Great job! Now try pressing the <b>down</b> key to travel down. </p>
            <img src='./assets/img/instructions/pressDown.jpg' class='instructions-image'>","","instructions","","","","","","","","","","","","","",""
"revaluation","21","240575","0.0-3.0-4.0-0.0","spark_pilot_2","7793","3","22","Female","","false","","","","","[360.4000000357628]","./assets/img/space/3.jpg","[""ArrowDown""]","first stage practice","space","0","null","null","ArrowDown","false","","","","","","","",""
"html-keyboard-response","22","241089","0.0-3.0-4.0-1.0","spark_pilot_2","7793","3","22","Female","","","","","","","null","<div style=""font-size:60px;"">+</div>","null","fixation","","","","","","","","","","","","","",""
"revaluation","23","245119","0.0-3.0-4.0-0.1","spark_pilot_2","7793","3","22","Female","","false","","","","","[447]","./assets/img/space/4.jpg","[""ArrowDown""]","first stage practice","space","0","null","null","ArrowDown","false","","","","","","","",""
"html-keyboard-response","24","245634","0.0-3.0-4.0-1.1","spark_pilot_2","7793","3","22","Female","","","","","","","null","<div style=""font-size:60px;"">+</div>","null","fixation","","","","","","","","","","","","","",""
"revaluation","25","249654","0.0-3.0-4.0-0.2","spark_pilot_2","7793","3","22","Female","","false","","","","","[701.4000000357628]","./assets/img/space/5.jpg","[""ArrowDown""]","first stage practice","space","0","null","null","ArrowDown","false","","","","","","","",""
"html-keyboard-response","26","250169","0.0-3.0-4.0-1.2","spark_pilot_2","7793","3","22","Female","","","","","","","null","<div style=""font-size:60px;"">+</div>","null","fixation","","","","","","","","","","","","","",""
"learning-instructions","27","261750","0.0-3.0-5.0-0.0","spark_pilot_2","7793","3","22","Female","","","","","","","1683.5999999642372","<p> The animals don’t move, so the animal in the upper part of a place will stay in the upper part of a place, and the animal in the lower part of a place will stay in the lower part of a place. </p>","","instructions","","","","","","","","","","","","","",""
"learning-instructions","28","271686","0.0-3.0-5.0-0.1","spark_pilot_2","7793","3","22","Female","","","","","","","760.4000000357628","<p> Each animal has two treasure chests for you to choose from. </p>
            <p> The amount of treasure in each chest can range from <b> 0 to 40 pieces.</b></p>","","instructions","","","","","","","","","","","","","",""
"learning-instructions","29","283590","0.0-3.0-5.0-0.2","spark_pilot_2","7793","3","22","Female","","","","","","","663.5","<p> You should decide which chest to search for treasure by using the <b>left</b> and <b>right</b> arrow keys. </p>
            <p><b> Pay attention to which animal is on the screen, as the animals have different treasure chests. </b></p>
            <img src='./assets/img/instructions/leftright.jpg' class='instructions-image'>","","instructions","","","","","","","","","","","","","",""
"learning-instructions","30","290685","0.0-3.0-5.0-0.3","spark_pilot_2","7793","3","22","Female","","","","","","","709.1000000238419","<p> Let’s try practicing that now. </p>
            <p> When you see an animal, choose which chest to search for treasure. </p>
            <img src='./assets/img/instructions/chooseChest.jpg' class='instructions-image'>","","instructions","","","","","","","","","","","","","",""
"revaluation","31","294713","0.0-3.0-6.0-0.0","spark_pilot_2","7793","3","22","Female","","false","","","","","[992]","./assets/img/space/animals/cat.jpg","[""ArrowLeft""]","second stage practice","space","3","{""ArrowUp,ArrowLeft"":3,""ArrowUp,ArrowRight"":36,""ArrowDown,ArrowLeft"":15,""ArrowDown,ArrowRight"":23}","false","ArrowUp,ArrowLeft","","","","","","","","",""
"html-keyboard-response","32","295228","0.0-3.0-6.0-1.0","spark_pilot_2","7793","3","22","Female","","","","","","","null","<div style=""font-size:60px;"">+</div>","null","fixation","","","","","","","","","","","","","",""
"revaluation","33","299260","0.0-3.0-6.0-0.1","spark_pilot_2","7793","3","22","Female","","false","","","","","[1167.8999999761581]","./assets/img/space/animals/rabbit.jpg","[""ArrowLeft""]","second stage practice","space","15","{""ArrowUp,ArrowLeft"":3,""ArrowUp,ArrowRight"":36,""ArrowDown,ArrowLeft"":15,""ArrowDown,ArrowRight"":23}","false","ArrowDown,ArrowLeft","","","","","","","","",""
"html-keyboard-response","34","299776","0.0-3.0-6.0-1.1","spark_pilot_2","7793","3","22","Female","","","","","","","null","<div style=""font-size:60px;"">+</div>","null","fixation","","","","","","","","","","","","","",""
"revaluation","35","303795","0.0-3.0-6.0-0.2","spark_pilot_2","7793","3","22","Female","","false","","","","","[299.5]","./assets/img/space/animals/rabbit.jpg","[""ArrowRight""]","second stage practice","space","23","{""ArrowUp,ArrowLeft"":3,""ArrowUp,ArrowRight"":36,""ArrowDown,ArrowLeft"":15,""ArrowDown,ArrowRight"":23}","true","ArrowDown,ArrowRight","","","","","","","","",""
"html-keyboard-response","36","304300","0.0-3.0-6.0-1.2","spark_pilot_2","7793","3","22","Female","","","","","","","null","<div style=""font-size:60px;"">+</div>","null","fixation","","","","","","","","","","","","","",""
"revaluation","37","308321","0.0-3.0-6.0-0.3","spark_pilot_2","7793","3","22","Female","","false","","","","","[316.5999999642372]","./assets/img/space/animals/cat.jpg","[""ArrowRight""]","second stage practice","space","36","{""ArrowUp,ArrowLeft"":3,""ArrowUp,ArrowRight"":36,""ArrowDown,ArrowLeft"":15,""ArrowDown,ArrowRight"":23}","true","ArrowUp,ArrowRight","","","","","","","","",""
"html-keyboard-response","38","308837","0.0-3.0-6.0-1.3","spark_pilot_2","7793","3","22","Female","","","","","","","null","<div style=""font-size:60px;"">+</div>","null","fixation","","","","","","","","","","","","","",""
"learning-instructions","39","326889","0.0-3.0-7.0-0.0","spark_pilot_2","7793","3","22","Female","","","","","","","1113.9000000357628","<p> Great job. Now let’s try putting it together. </p>
            <p> On each turn, you will first see a picture to remind you of the place you are in, and you need to choose whether to go up or down. </p>
            <p> Then you will see an animal and choose which of its chests to search for treasure. </p>","","instructions","","","","","","","","","","","","","",""
"learning-instructions","40","336789","0.0-3.0-7.0-0.1","spark_pilot_2","7793","3","22","Female","","","","","","","1603.199999988079","<p> When you choose whether to go up or down, try to go to the animal with the chest with the most treasure. </p>
            <p> Try practicing that now! </p>","","instructions","","","","","","","","","","","","","",""
"revaluation","41","342821","0.0-3.0-8.0-0.0","spark_pilot_2","7793","3","22","Female","","false","","","","","[1049.0999999642372,838.6000000238419]","./assets/img/space/6.jpg","[""ArrowUp"",""ArrowLeft""]","full practice","space","3","{""ArrowUp,ArrowLeft"":3,""ArrowUp,ArrowRight"":36,""ArrowDown,ArrowLeft"":15,""ArrowDown,ArrowRight"":23}","false","ArrowUp,ArrowLeft","false","","","","","","","",""
"html-keyboard-response","42","343333","0.0-3.0-8.0-1.0","spark_pilot_2","7793","3","22","Female","","","","","","","null","<div style=""font-size:60px;"">+</div>","null","fixation","","","","","","","","","","","","","",""
"revaluation","43","349369","0.0-3.0-8.0-0.1","spark_pilot_2","7793","3","22","Female","","false","","","","","[913.5,530]","./assets/img/space/7.jpg","[""ArrowUp"",""ArrowLeft""]","full practice","space","3","{""ArrowUp,ArrowLeft"":3,""ArrowUp,ArrowRight"":36,""ArrowDown,ArrowLeft"":15,""ArrowDown,ArrowRight"":23}","false","ArrowUp,ArrowLeft","false","","","","","","","",""
"html-keyboard-response","44","349884","0.0-3.0-8.0-1.1","spark_pilot_2","7793","3","22","Female","","","","","","","null","<div style=""font-size:60px;"">+</div>","null","fixation","","","","","","","","","","","","","",""
"revaluation","45","355928","0.0-3.0-8.0-0.2","spark_pilot_2","7793","3","22","Female","","false","","","","","[1323.3999999761581,348.4000000357628]","./assets/img/space/8.jpg","[""ArrowUp"",""ArrowRight""]","full practice","space","36","{""ArrowUp,ArrowLeft"":3,""ArrowUp,ArrowRight"":36,""ArrowDown,ArrowLeft"":15,""ArrowDown,ArrowRight"":23}","true","ArrowUp,ArrowRight","false","","","","","","","",""
"html-keyboard-response","46","356444","0.0-3.0-8.0-1.2","spark_pilot_2","7793","3","22","Female","","","","","","","null","<div style=""font-size:60px;"">+</div>","null","fixation","","","","","","","","","","","","","",""
"revaluation","47","362466","0.0-3.0-8.0-0.3","spark_pilot_2","7793","3","22","Female","","false","","","","","[472.5999999642372,297.80000001192093]","./assets/img/space/9.jpg","[""ArrowUp"",""ArrowRight""]","full practice","space","36","{""ArrowUp,ArrowLeft"":3,""ArrowUp,ArrowRight"":36,""ArrowDown,ArrowLeft"":15,""ArrowDown,ArrowRight"":23}","true","ArrowUp,ArrowRight","false","","","","","","","",""
"html-keyboard-response","48","362982","0.0-3.0-8.0-1.3","spark_pilot_2","7793","3","22","Female","","","","","","","null","<div style=""font-size:60px;"">+</div>","null","fixation","","","","","","","","","","","","","",""
"revaluation","49","368995","0.0-3.0-8.0-0.4","spark_pilot_2","7793","3","22","Female","","false","","","","","[575,358.10000002384186]","./assets/img/space/10.jpg","[""ArrowUp"",""ArrowLeft""]","full practice","space","3","{""ArrowUp,ArrowLeft"":3,""ArrowUp,ArrowRight"":36,""ArrowDown,ArrowLeft"":15,""ArrowDown,ArrowRight"":23}","false","ArrowUp,ArrowLeft","false","","","","","","","",""
"html-keyboard-response","50","369497","0.0-3.0-8.0-1.4","spark_pilot_2","7793","3","22","Female","","","","","","","null","<div style=""font-size:60px;"">+</div>","null","fixation","","","","","","","","","","","","","",""
"learning-instructions","51","382898","0.0-3.0-9.0-0.0","spark_pilot_2","7793","3","22","Female","","","","","","","3049","<p> One last thing: sometimes, you will see a robber. The robber can be anywhere in the picture. </p>
            <p> If you do not stop them, you will lose treasure. </p>
            <img src='./assets/img/instructions/robber.jpg' class='instructions-image'>","","instructions","","","","","","","","","","","","","",""
"learning-instructions","52","391040","0.0-3.0-9.0-0.1","spark_pilot_2","7793","3","22","Female","","","","","","","940.8000000119209","<p> If you see the robber, you should <b>press the space bar</b> rather than using the arrow keys. </p>
            <p> Try practicing that now! </p>","","instructions","","","","","","","","","","","","","",""
"revaluation","53","395059","0.0-3.0-10.0-0.0","spark_pilot_2","7793","3","22","Female","","false","","","","","[708.0999999642372]","./assets/img/space/catch/0.jpg","[""spaceBar""]","catch practice","space","0","{""ArrowUp,ArrowLeft"":3,""ArrowUp,ArrowRight"":36,""ArrowDown,ArrowLeft"":15,""ArrowDown,ArrowRight"":23}","true","spaceBar","true","","","","","","","",""
"html-keyboard-response","54","395575","0.0-3.0-10.0-1.0","spark_pilot_2","7793","3","22","Female","","","","","","","null","<div style=""font-size:60px;"">+</div>","null","fixation","","","","","","","","","","","","","",""
"revaluation","55","399599","0.0-3.0-10.0-0.1","spark_pilot_2","7793","3","22","Female","","false","","","","","[690.3999999761581]","./assets/img/space/catch/1.jpg","[""spaceBar""]","catch practice","space","0","{""ArrowUp,ArrowLeft"":3,""ArrowUp,ArrowRight"":36,""ArrowDown,ArrowLeft"":15,""ArrowDown,ArrowRight"":23}","true","spaceBar","true","","","","","","","",""
"html-keyboard-response","56","400114","0.0-3.0-10.0-1.1","spark_pilot_2","7793","3","22","Female","","","","","","","null","<div style=""font-size:60px;"">+</div>","null","fixation","","","","","","","","","","","","","",""
"revaluation","57","404140","0.0-3.0-10.0-0.2","spark_pilot_2","7793","3","22","Female","","false","","","","","[313.2999999523163]","./assets/img/space/catch/2.jpg","[""spaceBar""]","catch practice","space","0","{""ArrowUp,ArrowLeft"":3,""ArrowUp,ArrowRight"":36,""ArrowDown,ArrowLeft"":15,""ArrowDown,ArrowRight"":23}","true","spaceBar","true","","","","","","","",""
"html-keyboard-response","58","404655","0.0-3.0-10.0-1.2","spark_pilot_2","7793","3","22","Female","","","","","","","null","<div style=""font-size:60px;"">+</div>","null","fixation","","","","","","","","","","","","","",""
"learning-instructions","59","422088","0.0-3.0-11.0-0.0","spark_pilot_2","7793","3","22","Female","","","","","","","3788.400000035763","<p> After you explore a place to find treasure, it will be time to play a different game. </p>
            <p> During this game, red dots will appear on the screen and fall down slowly. </p>
            <p><b> You must click on them before they reach the bottom. </b></p>
            <img src='./assets/img/instructions/dotGame.jpg' class='instructions-image'>","","instructions","","","","","","","","","","","","","",""
"learning-instructions","60","428138","0.0-3.0-11.0-0.1","spark_pilot_2","7793","3","22","Female","","","","","","","329.10000002384186","<p> For every dot you click, you will earn additional treasure. </p>
            <p> Let’s try practicing that now. </p>","","instructions","","","","","","","","","","","","","",""
"revaluation","61","443150","0.0-3.0-12.0-0.0","spark_pilot_2","7793","3","22","Female","","","","","","","[84]","","","rest practice","","10","","","","","0","15000","","","","","",""
"learning-instructions","62","450191","0.0-3.0-13.0-0.0-0.0","spark_pilot_2","7793","3","22","Female","","","","","","","1762.1000000238419","<p> Now, you will practice a shortened version of the game to get a sense of how it all fits together. </p>","","instructions","","","","","","","","","","","","","",""
"learning-instructions","63","454170","0.0-3.0-13.0-0.0-0.1","spark_pilot_2","7793","3","22","Female","","","","","","","761.4000000357628","<p>This time you are searching for treasure in outer space.</p>","","instructions","","","","","","","","","","","","","",""
"learning-instructions","64","469791","0.0-3.0-13.0-1.0-0.0","spark_pilot_2","7793","3","22","Female","","","","","","","802.1000000238419","<p> Remember, when you see a picture of the place, use the up and down keys to <b>find an animal</b>.</p>
            <p> When you encounter an animal, you should use the left and right keys to <b>select a treasure chest</b>.</p>
            <p> Don't forget to look out for the robber! </p>","","instructions","","","","","","","","","","","","","",""
"revaluation","65","475814","0.0-3.0-13.0-2.0-0.0","spark_pilot_2","7793","3","22","Female","","false","","","","","[857.5,305.5]","./assets/img/space/11.jpg","[""ArrowUp"",""ArrowRight""]","practice block","space","36","{""ArrowUp,ArrowLeft"":3,""ArrowUp,ArrowRight"":36,""ArrowDown,ArrowLeft"":15,""ArrowDown,ArrowRight"":23}","true","ArrowUp,ArrowRight","false","","","","","","","",""
"html-keyboard-response","66","476329","0.0-3.0-13.0-2.0-1.0","spark_pilot_2","7793","3","22","Female","","","","","","","null","<div style=""font-size:60px;"">+</div>","null","fixation","","","","","","","","","","","","","",""
"revaluation","67","482366","0.0-3.0-13.0-2.0-0.1","spark_pilot_2","7793","3","22","Female","","false","","","","","[618.5,268.60000002384186]","./assets/img/space/12.jpg","[""ArrowUp"",""ArrowRight""]","practice block","space","36","{""ArrowUp,ArrowLeft"":3,""ArrowUp,ArrowRight"":36,""ArrowDown,ArrowLeft"":15,""ArrowDown,ArrowRight"":23}","true","ArrowUp,ArrowRight","false","","","","","","","",""
"html-keyboard-response","68","482879","0.0-3.0-13.0-2.0-1.1","spark_pilot_2","7793","3","22","Female","","","","","","","null","<div style=""font-size:60px;"">+</div>","null","fixation","","","","","","","","","","","","","",""
"revaluation","69","488916","0.0-3.0-13.0-2.0-0.2","spark_pilot_2","7793","3","22","Female","","false","","","","","[858.3000000119209,520]","./assets/img/space/13.jpg","[""ArrowDown"",""ArrowLeft""]","practice block","space","15","{""ArrowUp,ArrowLeft"":3,""ArrowUp,ArrowRight"":36,""ArrowDown,ArrowLeft"":15,""ArrowDown,ArrowRight"":23}","false","ArrowDown,ArrowLeft","false","","","","","","","",""
"html-keyboard-response","70","489417","0.0-3.0-13.0-2.0-1.2","spark_pilot_2","7793","3","22","Female","","","","","","","null","<div style=""font-size:60px;"">+</div>","null","fixation","","","","","","","","","","","","","",""
"revaluation","71","495457","0.0-3.0-13.0-2.0-0.3","spark_pilot_2","7793","3","22","Female","","false","","","","","[600.2999999523163,258.39999997615814]","./assets/img/space/14.jpg","[""ArrowUp"",""ArrowRight""]","practice block","space","36","{""ArrowUp,ArrowLeft"":3,""ArrowUp,ArrowRight"":36,""ArrowDown,ArrowLeft"":15,""ArrowDown,ArrowRight"":23}","true","ArrowUp,ArrowRight","false","","","","","","","",""
"html-keyboard-response","72","495970","0.0-3.0-13.0-2.0-1.3","spark_pilot_2","7793","3","22","Female","","","","","","","null","<div style=""font-size:60px;"">+</div>","null","fixation","","","","","","","","","","","","","",""
"revaluation","73","501979","0.0-3.0-13.0-2.0-0.4","spark_pilot_2","7793","3","22","Female","","false","","","","","[517.6999999880791,234.4000000357628]","./assets/img/space/11.jpg","[""ArrowUp"",""ArrowRight""]","practice block","space","36","{""ArrowUp,ArrowLeft"":3,""ArrowUp,ArrowRight"":36,""ArrowDown,ArrowLeft"":15,""ArrowDown,ArrowRight"":23}","true","ArrowUp,ArrowRight","false","","","","","","","",""
"html-keyboard-response","74","502481","0.0-3.0-13.0-2.0-1.4","spark_pilot_2","7793","3","22","Female","","","","","","","null","<div style=""font-size:60px;"">+</div>","null","fixation","","","","","","","","","","","","","",""
"revaluation","75","508486","0.0-3.0-13.0-2.0-0.5","spark_pilot_2","7793","3","22","Female","","false","","","","","[738.5,277.10000002384186]","./assets/img/space/12.jpg","[""ArrowUp"",""ArrowLeft""]","practice block","space","3","{""ArrowUp,ArrowLeft"":3,""ArrowUp,ArrowRight"":36,""ArrowDown,ArrowLeft"":15,""ArrowDown,ArrowRight"":23}","false","ArrowUp,ArrowLeft","false","","","","","","","",""
"html-keyboard-response","76","508987","0.0-3.0-13.0-2.0-1.5","spark_pilot_2","7793","3","22","Female","","","","","","","null","<div style=""font-size:60px;"">+</div>","null","fixation","","","","","","","","","","","","","",""
"revaluation","77","514994","0.0-3.0-13.0-2.0-0.6","spark_pilot_2","7793","3","22","Female","","false","","","","","[310.80000001192093,291.19999998807907]","./assets/img/space/13.jpg","[""ArrowDown"",""ArrowRight""]","practice block","space","23","{""ArrowUp,ArrowLeft"":3,""ArrowUp,ArrowRight"":36,""ArrowDown,ArrowLeft"":15,""ArrowDown,ArrowRight"":23}","false","ArrowDown,ArrowRight","false","","","","","","","",""
"html-keyboard-response","78","515495","0.0-3.0-13.0-2.0-1.6","spark_pilot_2","7793","3","22","Female","","","","","","","null","<div style=""font-size:60px;"">+</div>","null","fixation","","","","","","","","","","","","","",""
"revaluation","79","521504","0.0-3.0-13.0-2.0-0.7","spark_pilot_2","7793","3","22","Female","","false","","","","","[552.8000000119209,291.30000001192093]","./assets/img/space/14.jpg","[""ArrowUp"",""ArrowRight""]","practice block","space","36","{""ArrowUp,ArrowLeft"":3,""ArrowUp,ArrowRight"":36,""ArrowDown,ArrowLeft"":15,""ArrowDown,ArrowRight"":23}","true","ArrowUp,ArrowRight","false","","","","","","","",""
"html-keyboard-response","80","522006","0.0-3.0-13.0-2.0-1.7","spark_pilot_2","7793","3","22","Female","","","","","","","null","<div style=""font-size:60px;"">+</div>","null","fixation","","","","","","","","","","","","","",""
"revaluation","81","526012","0.0-3.0-13.0-2.0-0.8","spark_pilot_2","7793","3","22","Female","","false","","","","","[702.3000000119209]","./assets/img/space/catch/3.jpg","[""spaceBar""]","practice block","space","0","{""ArrowUp,ArrowLeft"":3,""ArrowUp,ArrowRight"":36,""ArrowDown,ArrowLeft"":15,""ArrowDown,ArrowRight"":23}","true","spaceBar","true","","","","","","","",""
"html-keyboard-response","82","526513","0.0-3.0-13.0-2.0-1.8","spark_pilot_2","7793","3","22","Female","","","","","","","null","<div style=""font-size:60px;"">+</div>","null","fixation","","","","","","","","","","","","","",""
"learning-instructions","83","550387","0.0-3.0-13.0-3.0-0.0","spark_pilot_2","7793","3","22","Female","","","","","","","5875.800000011921","<p> Now, you will travel with a friend who will choose whether you go up or down first. </p>
            <p> On these turns, you will just see the animal that they found. You will still get to choose which chest to search for treasure.</p>","","instructions","","","","","","","","","","","","","",""
"revaluation","84","554406","0.0-3.0-13.0-4.0-0.0","spark_pilot_2","7793","3","22","Female","","false","","","","","[871.3999999761581]","./assets/img/space/animals/cat.jpg","[""ArrowRight""]","practice block","space","36","{""ArrowUp,ArrowLeft"":3,""ArrowUp,ArrowRight"":36,""ArrowDown,ArrowLeft"":15,""ArrowDown,ArrowRight"":23}","true","ArrowUp,ArrowRight","","","","","","","","",""
"html-keyboard-response","85","554920","0.0-3.0-13.0-4.0-1.0","spark_pilot_2","7793","3","22","Female","","","","","","","null","<div style=""font-size:60px;"">+</div>","null","fixation","","","","","","","","","","","","","",""
"revaluation","86","558944","0.0-3.0-13.0-4.0-0.1","spark_pilot_2","7793","3","22","Female","","false","","","","","[608.8000000119209]","./assets/img/space/animals/rabbit.jpg","[""ArrowLeft""]","practice block","space","15","{""ArrowUp,ArrowLeft"":3,""ArrowUp,ArrowRight"":36,""ArrowDown,ArrowLeft"":15,""ArrowDown,ArrowRight"":23}","false","ArrowDown,ArrowLeft","","","","","","","","",""
"html-keyboard-response","87","559461","0.0-3.0-13.0-4.0-1.1","spark_pilot_2","7793","3","22","Female","","","","","","","null","<div style=""font-size:60px;"">+</div>","null","fixation","","","","","","","","","","","","","",""
"revaluation","88","563482","0.0-3.0-13.0-4.0-0.2","spark_pilot_2","7793","3","22","Female","","false","","","","","[648.1000000238419]","./assets/img/space/animals/rabbit.jpg","[""ArrowLeft""]","practice block","space","15","{""ArrowUp,ArrowLeft"":3,""ArrowUp,ArrowRight"":36,""ArrowDown,ArrowLeft"":15,""ArrowDown,ArrowRight"":23}","false","ArrowDown,ArrowLeft","","","","","","","","",""
"html-keyboard-response","89","563998","0.0-3.0-13.0-4.0-1.2","spark_pilot_2","7793","3","22","Female","","","","","","","null","<div style=""font-size:60px;"">+</div>","null","fixation","","","","","","","","","","","","","",""
"revaluation","90","568028","0.0-3.0-13.0-4.0-0.3","spark_pilot_2","7793","3","22","Female","","false","","","","","[382.19999998807907]","./assets/img/space/animals/cat.jpg","[""ArrowRight""]","practice block","space","36","{""ArrowUp,ArrowLeft"":3,""ArrowUp,ArrowRight"":36,""ArrowDown,ArrowLeft"":15,""ArrowDown,ArrowRight"":23}","true","ArrowUp,ArrowRight","","","","","","","","",""
"html-keyboard-response","91","568544","0.0-3.0-13.0-4.0-1.3","spark_pilot_2","7793","3","22","Female","","","","","","","null","<div style=""font-size:60px;"">+</div>","null","fixation","","","","","","","","","","","","","",""
"learning-instructions","92","577660","0.0-3.0-13.0-5.0-0.0","spark_pilot_2","7793","3","22","Female","","","","","","","1727.7999999523163","<p> Time to play the dot game! </p>
            <p> For 15 seconds, click the red dots on the following screen as they appear. </p>","","instructions","","","","","","","","","","","","","",""
"revaluation","93","592662","0.0-3.0-13.0-6.0-0.0","spark_pilot_2","7793","3","22","Female","","","","","","","[88]","","","rest practice","","10","","","","","0","15000","","","","","",""
"learning-instructions","94","599813","0.0-3.0-13.0-7.0-0.0","spark_pilot_2","7793","3","22","Female","","","","","","","1001.8999999761581","<p> You have almost finished this part of the game! </p>
            <p> We are going to ask you to make a few more choices. </p>","","instructions","","","","","","","","","","","","","",""
"learning-instructions","95","724999","0.0-3.0-13.0-7.0-0.1","spark_pilot_2","7793","3","22","Female","","","","","","","111116.69999998808","<p> First, you need to decide whether to go up or down. When you see each picture, use the arrow keys to make your choice. </p>
            <p><b>You will not see which animal you found, but try to get to the one that will give you the most treasure.</b></p>","","instructions","","","","","","","","","","","","","",""
"revaluation","96","725738","0.0-3.0-13.0-8.0","spark_pilot_2","7793","3","22","Female","","false","","","","","[736.1999999880791]","./assets/img/space/15.jpg","[""ArrowUp""]","practice block","space","0","{""ArrowUp,ArrowLeft"":3,""ArrowUp,ArrowRight"":36,""ArrowDown,ArrowLeft"":15,""ArrowDown,ArrowRight"":23}","true","ArrowUp","false","","","","","","","",""
"html-keyboard-response","97","726240","0.0-3.0-13.0-9.0","spark_pilot_2","7793","3","22","Female","","","","","","","null","<div style=""font-size:60px;"">+</div>","null","fixation","","","","","","","","","","","","","",""
"learning-instructions","98","739962","0.0-3.0-13.0-10.0-0.0","spark_pilot_2","7793","3","22","Female","","","","","","","2022.0999999642372","<p> Now you will see the animals again and can search their chests for treasure. </p>
            <p> This time, you will not see how much treasure you earned, but you will earn more bonus money for making better choices. </p>","","instructions","","","","","","","","","","","","","",""
"revaluation","99","740957","0.0-3.0-13.0-11.0-0.0","spark_pilot_2","7793","3","22","Female","","false","","","","","[992.1999999880791]","./assets/img/space/animals/cat.jpg","[""ArrowRight""]","practice block","space","0","{""ArrowUp,ArrowLeft"":3,""ArrowUp,ArrowRight"":36,""ArrowDown,ArrowLeft"":15,""ArrowDown,ArrowRight"":23}","true","ArrowUp,ArrowRight","","","","","","","","",""
"html-keyboard-response","100","741467","0.0-3.0-13.0-11.0-1.0","spark_pilot_2","7793","3","22","Female","","","","","","","null","<div style=""font-size:60px;"">+</div>","null","fixation","","","","","","","","","","","","","",""
"revaluation","101","741948","0.0-3.0-13.0-11.0-0.1","spark_pilot_2","7793","3","22","Female","","false","","","","","[477.5]","./assets/img/space/animals/rabbit.jpg","[""ArrowLeft""]","practice block","space","0","{""ArrowUp,ArrowLeft"":3,""ArrowUp,ArrowRight"":36,""ArrowDown,ArrowLeft"":15,""ArrowDown,ArrowRight"":23}","false","ArrowDown,ArrowLeft","","","","","","","","",""
"html-keyboard-response","102","742463","0.0-3.0-13.0-11.0-1.1","spark_pilot_2","7793","3","22","Female","","","","","","","null","<div style=""font-size:60px;"">+</div>","null","fixation","","","","","","","","","","","","","",""
"learning-instructions","103","755122","0.0-3.0-14.0-0.0","spark_pilot_2","7793","3","22","Female","","","","","","","8082","<p> Before you start, we're going to ask you a few questions about how the game works. </p>","","instructions","","","","","","","","","","","","","",""
"comp-q","104","764449","0.0-3.0-15.0-0.0-0.0","spark_pilot_2","7793","3","22","Female","","","","","","","3714","<p> <b> True or False? </b> </p>
            <p> There can be 50 pieces of treasure in a given animal's chest. </p>","1","comp_question","","","","true","","","","","","","","","",""
"comp-q","105","772113","0.0-3.0-15.0-0.0-1.0","spark_pilot_2","7793","3","22","Female","","","","","","","972.5","<p> <b> That's right! </b> The amount of treasure in each chest can range from 0 to 40 pieces. </p>","0","comp_answer","","","","","","","","","","","","","",""
"comp-q","106","780303","0.0-3.0-15.0-0.1-0.1","spark_pilot_2","7793","3","22","Female","","","","","","","1043.0999999642372","<p> <b> True or False? </b> </p><p> In this game, all animals have the same amount of treasure in their left and right chests. </p>","1","comp_question","","","","true","","","","","","","","","",""
"comp-q","107","787558","0.0-3.0-15.0-0.1-1.1","spark_pilot_2","7793","3","22","Female","","","","","","","1997.800000011921","<p> <b> That's right! </b> Animals have different amounts of treasure in their treasure chests. </p>","0","comp_answer","","","","","","","","","","","","","",""
"comp-q","108","794750","0.0-3.0-15.0-0.2-0.2","spark_pilot_2","7793","3","22","Female","","","","","","","1329.5","<p> <b> True or False? </b> </p><p> The same animal will always be there if you go up in the same place. </p>","0","comp_question","","","","true","","","","","","","","","",""
"comp-q","109","802303","0.0-3.0-15.0-0.2-1.2","spark_pilot_2","7793","3","22","Female","","","","","","","1082.5","<p> <b> That's right! </b> One animal lives in the upper part and one lives in the lower part of every place. </p>","0","comp_answer","","","","","","","","","","","","","",""
"comp-q","110","808563","0.0-3.0-15.0-0.3-0.3","spark_pilot_2","7793","3","22","Female","","","","","","","712.3999999761581","<p> <b> True or False? </b> </p><p> If you see a different picture, it means you are in a new place. </p>","0","comp_question","","","","false","","","","","","","","","",""
"comp-q","111","825620","0.0-3.0-15.0-0.3-1.3","spark_pilot_2","7793","3","22","Female","","","","","","","5929.599999964237","<p> <b>Incorrect.</b> Lots of different images may show the same place. For example,  you may see three different images that all remind you that you are in outer space. </p>","0","comp_answer","","","","","","","","","","","","","",""
"comp-q","112","831982","0.0-3.0-15.0-0.4-0.4","spark_pilot_2","7793","3","22","Female","","","","","","","851","<p> <b> True or False? </b> </p><p> If you see a different picture, it means you are in a new place. </p>","1","comp_question","","","","true","","","","","","","","","",""
"comp-q","113","844193","0.0-3.0-15.0-0.4-1.4","spark_pilot_2","7793","3","22","Female","","","","","","","941.4000000357628","<p> <b> That's right! </b> Lots of different images may show the same place. For example,  you may see three different images that all remind you that you are in outer space. </p>","0","comp_answer","","","","","","","","","","","","","",""
"learning-instructions","114","855761","0.0-3.0-16.0-0.0","spark_pilot_2","7793","3","22","Female","","","","","","","1671","<p> Good job. Remember to do your best because the amount of treasure you earn will be converted into bonus money. </p>
            <p> It’s time to start the real game! </p>","","instructions","","","","","","","","","","","","","",""
"learning-instructions","115","859160","0.0-4.0-0.0-0.0","spark_pilot_2","7793","3","22","Female","","","","","","","679.7000000476837","<p> This time you are searching for treasure in the <b>ocean</b>.</p>","","instructions","","","","","","","","","","","","","",""
"learning-instructions","116","877209","0.0-4.0-0.0-0.1","spark_pilot_2","7793","3","22","Female","","","","","","","688.3000000119209","<p><b>New</b> animals with <b>new</b> treasure chests live here. You need to explore to discover where the animal with the best treasure chest is.</p>
                    <p> Like before, once you figure out which animal has the chest with the most treasure, you should try to get to that animal and select that chest! </p>","","instructions","","","","","","","","","","","","","",""
"learning-instructions","117","892730","0.0-4.0-1.0-0.0","spark_pilot_2","7793","3","22","Female","","","","","","","789.7999999523163","<p> Remember, when you see a picture of the place, use the up and down keys to <b>find an animal</b>.</p>
            <p> When you encounter an animal, you should use the left and right keys to <b>select a treasure chest</b>.</p>
            <p> Don't forget to look out for the robber! </p>","","instructions","","","","","","","","","","","","","",""
"revaluation","118","898769","0.0-4.0-2.0-0.0","spark_pilot_2","7793","3","22","Female","","false","","","","","[1634.4000000357628,647.2999999523163]","./assets/img/ocean/memory/40.jpg","[""ArrowUp"",""ArrowRight""]","value training","ocean","10","{""ArrowUp,ArrowLeft"":23,""ArrowUp,ArrowRight"":10,""ArrowDown,ArrowLeft"":8,""ArrowDown,ArrowRight"":30}","false","ArrowUp,ArrowRight","false","","","original","1","0","","",""
"html-keyboard-response","119","899288","0.0-4.0-2.0-1.0","spark_pilot_2","7793","3","22","Female","","","","","","","null","<div style=""font-size:60px;"">+</div>","null","fixation","","","","","","","","","","","1","","",""
"revaluation","120","905309","0.0-4.0-2.0-0.1","spark_pilot_2","7793","3","22","Female","","false","","","","","[617.5,435.80000001192093]","./assets/img/ocean/memory/23.jpg","[""ArrowDown"",""ArrowRight""]","value training","ocean","30","{""ArrowUp,ArrowLeft"":23,""ArrowUp,ArrowRight"":10,""ArrowDown,ArrowLeft"":8,""ArrowDown,ArrowRight"":30}","true","ArrowDown,ArrowRight","false","","","original","1","2","","",""
"html-keyboard-response","121","905810","0.0-4.0-2.0-1.1","spark_pilot_2","7793","3","22","Female","","","","","","","null","<div style=""font-size:60px;"">+</div>","null","fixation","","","","","","","","","","","3","","",""
"revaluation","122","911839","0.0-4.0-2.0-0.2","spark_pilot_2","7793","3","22","Female","","false","","","","","[405.4000000357628,567.3000000119209]","./assets/img/ocean/memory/2.jpg","[""ArrowDown"",""ArrowLeft""]","value training","ocean","8","{""ArrowUp,ArrowLeft"":23,""ArrowUp,ArrowRight"":10,""ArrowDown,ArrowLeft"":8,""ArrowDown,ArrowRight"":30}","false","ArrowDown,ArrowLeft","false","","","original","1","4","","",""
"html-keyboard-response","123","912355","0.0-4.0-2.0-1.2","spark_pilot_2","7793","3","22","Female","","","","","","","null","<div style=""font-size:60px;"">+</div>","null","fixation","","","","","","","","","","","5","","",""
"revaluation","124","918387","0.0-4.0-2.0-0.3","spark_pilot_2","7793","3","22","Female","","false","","","","","[550.1999999880791,609.5]","./assets/img/ocean/memory/27.jpg","[""ArrowDown"",""ArrowRight""]","value training","ocean","30","{""ArrowUp,ArrowLeft"":23,""ArrowUp,ArrowRight"":10,""ArrowDown,ArrowLeft"":8,""ArrowDown,ArrowRight"":30}","true","ArrowDown,ArrowRight","false","","","original","1","6","","",""
"html-keyboard-response","125","918904","0.0-4.0-2.0-1.3","spark_pilot_2","7793","3","22","Female","","","","","","","null","<div style=""font-size:60px;"">+</div>","null","fixation","","","","","","","","","","","7","","",""
"revaluation","126","924911","0.0-4.0-2.0-0.4","spark_pilot_2","7793","3","22","Female","","false","","","","","[352.5,279.69999998807907]","./assets/img/ocean/memory/28.jpg","[""ArrowDown"",""ArrowRight""]","value training","ocean","30","{""ArrowUp,ArrowLeft"":23,""ArrowUp,ArrowRight"":10,""ArrowDown,ArrowLeft"":8,""ArrowDown,ArrowRight"":30}","true","ArrowDown,ArrowRight","false","","","original","1","8","","",""
"html-keyboard-response","127","925412","0.0-4.0-2.0-1.4","spark_pilot_2","7793","3","22","Female","","","","","","","null","<div style=""font-size:60px;"">+</div>","null","fixation","","","","","","","","","","","9","","",""
"revaluation","128","931417","0.0-4.0-2.0-0.5","spark_pilot_2","7793","3","22","Female","","false","","","","","[444.30000001192093,484]","./assets/img/ocean/memory/37.jpg","[""ArrowDown"",""ArrowRight""]","value training","ocean","30","{""ArrowUp,ArrowLeft"":23,""ArrowUp,ArrowRight"":10,""ArrowDown,ArrowLeft"":8,""ArrowDown,ArrowRight"":30}","true","ArrowDown,ArrowRight","false","","","original","1","10","","",""
"html-keyboard-response","129","931919","0.0-4.0-2.0-1.5","spark_pilot_2","7793","3","22","Female","","","","","","","null","<div style=""font-size:60px;"">+</div>","null","fixation","","","","","","","","","","","11","","",""
"revaluation","130","935924","0.0-4.0-2.0-0.6","spark_pilot_2","7793","3","22","Female","","false","","","","","[528.1999999880791]","./assets/img/ocean/catch/5.jpg","[""ArrowDown""]","value training","ocean","-10","{""ArrowUp,ArrowLeft"":23,""ArrowUp,ArrowRight"":10,""ArrowDown,ArrowLeft"":8,""ArrowDown,ArrowRight"":30}","false","ArrowDown","true","","","original","1","12","","",""
"html-keyboard-response","131","936425","0.0-4.0-2.0-1.6","spark_pilot_2","7793","3","22","Female","","","","","","","null","<div style=""font-size:60px;"">+</div>","null","fixation","","","","","","","","","","","13","","",""
"revaluation","132","940430","0.0-4.0-2.0-0.7","spark_pilot_2","7793","3","22","Female","","false","","","","","[810.7999999523163]","./assets/img/ocean/catch/0.jpg","[""spaceBar""]","value training","ocean","0","{""ArrowUp,ArrowLeft"":23,""ArrowUp,ArrowRight"":10,""ArrowDown,ArrowLeft"":8,""ArrowDown,ArrowRight"":30}","true","spaceBar","true","","","original","1","14","","",""
"html-keyboard-response","133","940943","0.0-4.0-2.0-1.7","spark_pilot_2","7793","3","22","Female","","","","","","","null","<div style=""font-size:60px;"">+</div>","null","fixation","","","","","","","","","","","15","","",""
"revaluation","134","946950","0.0-4.0-2.0-0.8","spark_pilot_2","7793","3","22","Female","","false","","","","","[911.5999999642372,301.10000002384186]","./assets/img/ocean/memory/29.jpg","[""ArrowDown"",""ArrowRight""]","value training","ocean","30","{""ArrowUp,ArrowLeft"":23,""ArrowUp,ArrowRight"":10,""ArrowDown,ArrowLeft"":8,""ArrowDown,ArrowRight"":30}","true","ArrowDown,ArrowRight","false","","","original","1","16","","",""
"html-keyboard-response","135","947452","0.0-4.0-2.0-1.8","spark_pilot_2","7793","3","22","Female","","","","","","","null","<div style=""font-size:60px;"">+</div>","null","fixation","","","","","","","","","","","17","","",""
"revaluation","136","953456","0.0-4.0-2.0-0.9","spark_pilot_2","7793","3","22","Female","","false","","","","","[555.5,395.30000001192093]","./assets/img/ocean/memory/4.jpg","[""ArrowDown"",""ArrowRight""]","value training","ocean","30","{""ArrowUp,ArrowLeft"":23,""ArrowUp,ArrowRight"":10,""ArrowDown,ArrowLeft"":8,""ArrowDown,ArrowRight"":30}","true","ArrowDown,ArrowRight","false","","","original","1","18","","",""
"html-keyboard-response","137","953958","0.0-4.0-2.0-1.9","spark_pilot_2","7793","3","22","Female","","","","","","","null","<div style=""font-size:60px;"">+</div>","null","fixation","","","","","","","","","","","19","","",""
"revaluation","138","959963","0.0-4.0-2.0-0.10","spark_pilot_2","7793","3","22","Female","","false","","","","","[598.8999999761581,717.6000000238419]","./assets/img/ocean/memory/36.jpg","[""ArrowDown"",""ArrowRight""]","value training","ocean","30","{""ArrowUp,ArrowLeft"":23,""ArrowUp,ArrowRight"":10,""ArrowDown,ArrowLeft"":8,""ArrowDown,ArrowRight"":30}","true","ArrowDown,ArrowRight","false","","","original","1","20","","",""
"html-keyboard-response","139","960465","0.0-4.0-2.0-1.10","spark_pilot_2","7793","3","22","Female","","","","","","","null","<div style=""font-size:60px;"">+</div>","null","fixation","","","","","","","","","","","21","","",""
"revaluation","140","966471","0.0-4.0-2.0-0.11","spark_pilot_2","7793","3","22","Female","","false","","","","","[741.0999999642372,290.10000002384186]","./assets/img/ocean/memory/15.jpg","[""ArrowDown"",""ArrowRight""]","value training","ocean","30","{""ArrowUp,ArrowLeft"":23,""ArrowUp,ArrowRight"":10,""ArrowDown,ArrowLeft"":8,""ArrowDown,ArrowRight"":30}","true","ArrowDown,ArrowRight","false","","","original","1","22","","",""
"html-keyboard-response","141","966973","0.0-4.0-2.0-1.11","spark_pilot_2","7793","3","22","Female","","","","","","","null","<div style=""font-size:60px;"">+</div>","null","fixation","","","","","","","","","","","23","","",""
"revaluation","142","972979","0.0-4.0-2.0-0.12","spark_pilot_2","7793","3","22","Female","","false","","","","","[553.1999999880791,452.0999999642372]","./assets/img/ocean/memory/19.jpg","[""ArrowDown"",""ArrowRight""]","value training","ocean","30","{""ArrowUp,ArrowLeft"":23,""ArrowUp,ArrowRight"":10,""ArrowDown,ArrowLeft"":8,""ArrowDown,ArrowRight"":30}","true","ArrowDown,ArrowRight","false","","","original","1","24","","",""
"html-keyboard-response","143","973486","0.0-4.0-2.0-1.12","spark_pilot_2","7793","3","22","Female","","","","","","","null","<div style=""font-size:60px;"">+</div>","null","fixation","","","","","","","","","","","25","","",""
"revaluation","144","977490","0.0-4.0-2.0-0.13","spark_pilot_2","7793","3","22","Female","","false","","","","","[809.9000000357628]","./assets/img/ocean/catch/4.jpg","[""spaceBar""]","value training","ocean","0","{""ArrowUp,ArrowLeft"":23,""ArrowUp,ArrowRight"":10,""ArrowDown,ArrowLeft"":8,""ArrowDown,ArrowRight"":30}","true","spaceBar","true","","","original","1","26","","",""
"html-keyboard-response","145","977992","0.0-4.0-2.0-1.13","spark_pilot_2","7793","3","22","Female","","","","","","","null","<div style=""font-size:60px;"">+</div>","null","fixation","","","","","","","","","","","27","","",""
"revaluation","146","983998","0.0-4.0-2.0-0.14","spark_pilot_2","7793","3","22","Female","","false","","","","","[1714.7000000476837,873]","./assets/img/ocean/memory/19.jpg","[""ArrowDown"",""ArrowRight""]","value training","ocean","30","{""ArrowUp,ArrowLeft"":23,""ArrowUp,ArrowRight"":10,""ArrowDown,ArrowLeft"":8,""ArrowDown,ArrowRight"":30}","true","ArrowDown,ArrowRight","false","","","original","1","28","","",""
"html-keyboard-response","147","984499","0.0-4.0-2.0-1.14","spark_pilot_2","7793","3","22","Female","","","","","","","null","<div style=""font-size:60px;"">+</div>","null","fixation","","","","","","","","","","","29","","",""
"revaluation","148","990519","0.0-4.0-2.0-0.15","spark_pilot_2","7793","3","22","Female","","false","","","","","[537.4000000357628,381.69999998807907]","./assets/img/ocean/memory/18.jpg","[""ArrowDown"",""ArrowRight""]","value training","ocean","30","{""ArrowUp,ArrowLeft"":23,""ArrowUp,ArrowRight"":10,""ArrowDown,ArrowLeft"":8,""ArrowDown,ArrowRight"":30}","true","ArrowDown,ArrowRight","false","","","original","1","30","","",""
"html-keyboard-response","149","991021","0.0-4.0-2.0-1.15","spark_pilot_2","7793","3","22","Female","","","","","","","null","<div style=""font-size:60px;"">+</div>","null","fixation","","","","","","","","","","","31","","",""
"revaluation","150","997028","0.0-4.0-2.0-0.16","spark_pilot_2","7793","3","22","Female","","false","","","","","[434.4000000357628,394.5999999642372]","./assets/img/ocean/memory/17.jpg","[""ArrowDown"",""ArrowRight""]","value training","ocean","30","{""ArrowUp,ArrowLeft"":23,""ArrowUp,ArrowRight"":10,""ArrowDown,ArrowLeft"":8,""ArrowDown,ArrowRight"":30}","true","ArrowDown,ArrowRight","false","","","original","1","32","","",""
"html-keyboard-response","151","997530","0.0-4.0-2.0-1.16","spark_pilot_2","7793","3","22","Female","","","","","","","null","<div style=""font-size:60px;"">+</div>","null","fixation","","","","","","","","","","","33","","",""
"revaluation","152","1003535","0.0-4.0-2.0-0.17","spark_pilot_2","7793","3","22","Female","","false","","","","","[715.8999999761581,565.6999999880791]","./assets/img/ocean/memory/28.jpg","[""ArrowDown"",""ArrowRight""]","value training","ocean","30","{""ArrowUp,ArrowLeft"":23,""ArrowUp,ArrowRight"":10,""ArrowDown,ArrowLeft"":8,""ArrowDown,ArrowRight"":30}","true","ArrowDown,ArrowRight","false","","","original","1","34","","",""
"html-keyboard-response","153","1004037","0.0-4.0-2.0-1.17","spark_pilot_2","7793","3","22","Female","","","","","","","null","<div style=""font-size:60px;"">+</div>","null","fixation","","","","","","","","","","","35","","",""
"revaluation","154","1010044","0.0-4.0-2.0-0.18","spark_pilot_2","7793","3","22","Female","","false","","","","","[642.1000000238419,957.9000000357628]","./assets/img/ocean/memory/36.jpg","[""ArrowDown"",""ArrowRight""]","value training","ocean","30","{""ArrowUp,ArrowLeft"":23,""ArrowUp,ArrowRight"":10,""ArrowDown,ArrowLeft"":8,""ArrowDown,ArrowRight"":30}","true","ArrowDown,ArrowRight","false","","","original","1","36","","",""
"html-keyboard-response","155","1010545","0.0-4.0-2.0-1.18","spark_pilot_2","7793","3","22","Female","","","","","","","null","<div style=""font-size:60px;"">+</div>","null","fixation","","","","","","","","","","","37","","",""
"revaluation","156","1016551","0.0-4.0-2.0-0.19","spark_pilot_2","7793","3","22","Female","","false","","","","","[1680.300000011921,480.89999997615814]","./assets/img/ocean/memory/9.jpg","[""ArrowDown"",""ArrowRight""]","value training","ocean","30","{""ArrowUp,ArrowLeft"":23,""ArrowUp,ArrowRight"":10,""ArrowDown,ArrowLeft"":8,""ArrowDown,ArrowRight"":30}","true","ArrowDown,ArrowRight","false","","","original","1","38","","",""
"html-keyboard-response","157","1017052","0.0-4.0-2.0-1.19","spark_pilot_2","7793","3","22","Female","","","","","","","null","<div style=""font-size:60px;"">+</div>","null","fixation","","","","","","","","","","","39","","",""
"revaluation","158","1023057","0.0-4.0-2.0-0.20","spark_pilot_2","7793","3","22","Female","","true","","","","","[1414.800000011921]","./assets/img/ocean/memory/25.jpg","[""ArrowDown""]","value training","ocean","-5","{""ArrowUp,ArrowLeft"":23,""ArrowUp,ArrowRight"":10,""ArrowDown,ArrowLeft"":8,""ArrowDown,ArrowRight"":30}","false","ArrowDown","false","","","original","1","40","","",""
"html-keyboard-response","159","1023559","0.0-4.0-2.0-1.20","spark_pilot_2","7793","3","22","Female","","","","","","","null","<div style=""font-size:60px;"">+</div>","null","fixation","","","","","","","","","","","41","","",""
"revaluation","160","1029566","0.0-4.0-2.0-0.21","spark_pilot_2","7793","3","22","Female","","false","","","","","[636.5999999642372,345.80000001192093]","./assets/img/ocean/memory/27.jpg","[""ArrowDown"",""ArrowRight""]","value training","ocean","30","{""ArrowUp,ArrowLeft"":23,""ArrowUp,ArrowRight"":10,""ArrowDown,ArrowLeft"":8,""ArrowDown,ArrowRight"":30}","true","ArrowDown,ArrowRight","false","","","original","1","42","","",""
"html-keyboard-response","161","1030067","0.0-4.0-2.0-1.21","spark_pilot_2","7793","3","22","Female","","","","","","","null","<div style=""font-size:60px;"">+</div>","null","fixation","","","","","","","","","","","43","","",""
"revaluation","162","1036074","0.0-4.0-2.0-0.22","spark_pilot_2","7793","3","22","Female","","false","","","","","[569.5,287.80000001192093]","./assets/img/ocean/memory/14.jpg","[""ArrowDown"",""ArrowRight""]","value training","ocean","30","{""ArrowUp,ArrowLeft"":23,""ArrowUp,ArrowRight"":10,""ArrowDown,ArrowLeft"":8,""ArrowDown,ArrowRight"":30}","true","ArrowDown,ArrowRight","false","","","original","1","44","","",""
"html-keyboard-response","163","1036576","0.0-4.0-2.0-1.22","spark_pilot_2","7793","3","22","Female","","","","","","","null","<div style=""font-size:60px;"">+</div>","null","fixation","","","","","","","","","","","45","","",""
"revaluation","164","1042584","0.0-4.0-2.0-0.23","spark_pilot_2","7793","3","22","Female","","false","","","","","[660.8999999761581,278.19999998807907]","./assets/img/ocean/memory/41.jpg","[""ArrowDown"",""ArrowRight""]","value training","ocean","30","{""ArrowUp,ArrowLeft"":23,""ArrowUp,ArrowRight"":10,""ArrowDown,ArrowLeft"":8,""ArrowDown,ArrowRight"":30}","true","ArrowDown,ArrowRight","false","","","original","1","46","","",""
"html-keyboard-response","165","1043086","0.0-4.0-2.0-1.23","spark_pilot_2","7793","3","22","Female","","","","","","","null","<div style=""font-size:60px;"">+</div>","null","fixation","","","","","","","","","","","47","","",""
"revaluation","166","1049091","0.0-4.0-2.0-0.24","spark_pilot_2","7793","3","22","Female","","false","","","","","[701.1000000238419,273.30000001192093]","./assets/img/ocean/memory/14.jpg","[""ArrowDown"",""ArrowRight""]","value training","ocean","30","{""ArrowUp,ArrowLeft"":23,""ArrowUp,ArrowRight"":10,""ArrowDown,ArrowLeft"":8,""ArrowDown,ArrowRight"":30}","true","ArrowDown,ArrowRight","false","","","original","1","48","","",""
"html-keyboard-response","167","1049592","0.0-4.0-2.0-1.24","spark_pilot_2","7793","3","22","Female","","","","","","","null","<div style=""font-size:60px;"">+</div>","null","fixation","","","","","","","","","","","49","","",""
"revaluation","168","1055600","0.0-4.0-2.0-0.25","spark_pilot_2","7793","3","22","Female","","false","","","","","[482.9000000357628,251.80000001192093]","./assets/img/ocean/memory/39.jpg","[""ArrowDown"",""ArrowRight""]","value training","ocean","30","{""ArrowUp,ArrowLeft"":23,""ArrowUp,ArrowRight"":10,""ArrowDown,ArrowLeft"":8,""ArrowDown,ArrowRight"":30}","true","ArrowDown,ArrowRight","false","","","original","1","50","","",""
"html-keyboard-response","169","1056103","0.0-4.0-2.0-1.25","spark_pilot_2","7793","3","22","Female","","","","","","","null","<div style=""font-size:60px;"">+</div>","null","fixation","","","","","","","","","","","51","","",""
"revaluation","170","1062109","0.0-4.0-2.0-0.26","spark_pilot_2","7793","3","22","Female","","false","","","","","[882.8999999761581,341.60000002384186]","./assets/img/ocean/memory/15.jpg","[""ArrowDown"",""ArrowRight""]","value training","ocean","30","{""ArrowUp,ArrowLeft"":23,""ArrowUp,ArrowRight"":10,""ArrowDown,ArrowLeft"":8,""ArrowDown,ArrowRight"":30}","true","ArrowDown,ArrowRight","false","","","original","1","52","","",""
"html-keyboard-response","171","1062612","0.0-4.0-2.0-1.26","spark_pilot_2","7793","3","22","Female","","","","","","","null","<div style=""font-size:60px;"">+</div>","null","fixation","","","","","","","","","","","53","","",""
"revaluation","172","1066617","0.0-4.0-2.0-0.27","spark_pilot_2","7793","3","22","Female","","false","","","","","[454.80000001192093]","./assets/img/ocean/catch/3.jpg","[""ArrowDown""]","value training","ocean","-10","{""ArrowUp,ArrowLeft"":23,""ArrowUp,ArrowRight"":10,""ArrowDown,ArrowLeft"":8,""ArrowDown,ArrowRight"":30}","false","ArrowDown","true","","","original","1","54","","",""
"html-keyboard-response","173","1067118","0.0-4.0-2.0-1.27","spark_pilot_2","7793","3","22","Female","","","","","","","null","<div style=""font-size:60px;"">+</div>","null","fixation","","","","","","","","","","","55","","",""
"revaluation","174","1073124","0.0-4.0-2.0-0.28","spark_pilot_2","7793","3","22","Female","","false","","","","","[1529.4000000357628,689.8999999761581]","./assets/img/ocean/memory/4.jpg","[""ArrowDown"",""ArrowRight""]","value training","ocean","30","{""ArrowUp,ArrowLeft"":23,""ArrowUp,ArrowRight"":10,""ArrowDown,ArrowLeft"":8,""ArrowDown,ArrowRight"":30}","true","ArrowDown,ArrowRight","false","","","original","1","56","","",""
"html-keyboard-response","175","1073626","0.0-4.0-2.0-1.28","spark_pilot_2","7793","3","22","Female","","","","","","","null","<div style=""font-size:60px;"">+</div>","null","fixation","","","","","","","","","","","57","","",""
"revaluation","176","1079633","0.0-4.0-2.0-0.29","spark_pilot_2","7793","3","22","Female","","false","","","","","[400.5,340.30000001192093]","./assets/img/ocean/memory/8.jpg","[""ArrowDown"",""ArrowRight""]","value training","ocean","30","{""ArrowUp,ArrowLeft"":23,""ArrowUp,ArrowRight"":10,""ArrowDown,ArrowLeft"":8,""ArrowDown,ArrowRight"":30}","true","ArrowDown,ArrowRight","false","","","original","1","58","","",""
"html-keyboard-response","177","1080135","0.0-4.0-2.0-1.29","spark_pilot_2","7793","3","22","Female","","","","","","","null","<div style=""font-size:60px;"">+</div>","null","fixation","","","","","","","","","","","59","","",""
"revaluation","178","1084139","0.0-4.0-2.0-0.30","spark_pilot_2","7793","3","22","Female","","false","","","","","[442.39999997615814]","./assets/img/ocean/catch/2.jpg","[""ArrowDown""]","value training","ocean","-10","{""ArrowUp,ArrowLeft"":23,""ArrowUp,ArrowRight"":10,""ArrowDown,ArrowLeft"":8,""ArrowDown,ArrowRight"":30}","false","ArrowDown","true","","","original","1","60","","",""
"html-keyboard-response","179","1084640","0.0-4.0-2.0-1.30","spark_pilot_2","7793","3","22","Female","","","","","","","null","<div style=""font-size:60px;"">+</div>","null","fixation","","","","","","","","","","","61","","",""
"revaluation","180","1090645","0.0-4.0-2.0-0.31","spark_pilot_2","7793","3","22","Female","","false","","","","","[457,275.80000001192093]","./assets/img/ocean/memory/18.jpg","[""ArrowDown"",""ArrowRight""]","value training","ocean","30","{""ArrowUp,ArrowLeft"":23,""ArrowUp,ArrowRight"":10,""ArrowDown,ArrowLeft"":8,""ArrowDown,ArrowRight"":30}","true","ArrowDown,ArrowRight","false","","","original","1","62","","",""
"html-keyboard-response","181","1091146","0.0-4.0-2.0-1.31","spark_pilot_2","7793","3","22","Female","","","","","","","null","<div style=""font-size:60px;"">+</div>","null","fixation","","","","","","","","","","","63","","",""
"revaluation","182","1097153","0.0-4.0-2.0-0.32","spark_pilot_2","7793","3","22","Female","","false","","","","","[540.1000000238419,338.89999997615814]","./assets/img/ocean/memory/8.jpg","[""ArrowDown"",""ArrowRight""]","value training","ocean","30","{""ArrowUp,ArrowLeft"":23,""ArrowUp,ArrowRight"":10,""ArrowDown,ArrowLeft"":8,""ArrowDown,ArrowRight"":30}","true","ArrowDown,ArrowRight","false","","","original","1","64","","",""
"html-keyboard-response","183","1097655","0.0-4.0-2.0-1.32","spark_pilot_2","7793","3","22","Female","","","","","","","null","<div style=""font-size:60px;"">+</div>","null","fixation","","","","","","","","","","","65","","",""
"revaluation","184","1103662","0.0-4.0-2.0-0.33","spark_pilot_2","7793","3","22","Female","","false","","","","","[622.3000000119209,271.5]","./assets/img/ocean/memory/37.jpg","[""ArrowDown"",""ArrowRight""]","value training","ocean","30","{""ArrowUp,ArrowLeft"":23,""ArrowUp,ArrowRight"":10,""ArrowDown,ArrowLeft"":8,""ArrowDown,ArrowRight"":30}","true","ArrowDown,ArrowRight","false","","","original","1","66","","",""
"html-keyboard-response","185","1104164","0.0-4.0-2.0-1.33","spark_pilot_2","7793","3","22","Female","","","","","","","null","<div style=""font-size:60px;"">+</div>","null","fixation","","","","","","","","","","","67","","",""
"revaluation","186","1108179","0.0-4.0-2.0-0.34","spark_pilot_2","7793","3","22","Female","","false","","","","","[1283.800000011921]","./assets/img/ocean/catch/7.jpg","[""spaceBar""]","value training","ocean","0","{""ArrowUp,ArrowLeft"":23,""ArrowUp,ArrowRight"":10,""ArrowDown,ArrowLeft"":8,""ArrowDown,ArrowRight"":30}","true","spaceBar","true","","","original","1","68","","",""
"html-keyboard-response","187","1108690","0.0-4.0-2.0-1.34","spark_pilot_2","7793","3","22","Female","","","","","","","null","<div style=""font-size:60px;"">+</div>","null","fixation","","","","","","","","","","","69","","",""
"revaluation","188","1114696","0.0-4.0-2.0-0.35","spark_pilot_2","7793","3","22","Female","","false","","","","","[546.1999999880791,444.69999998807907]","./assets/img/ocean/memory/29.jpg","[""ArrowDown"",""ArrowRight""]","value training","ocean","30","{""ArrowUp,ArrowLeft"":23,""ArrowUp,ArrowRight"":10,""ArrowDown,ArrowLeft"":8,""ArrowDown,ArrowRight"":30}","true","ArrowDown,ArrowRight","false","","","original","1","70","","",""
"html-keyboard-response","189","1115198","0.0-4.0-2.0-1.35","spark_pilot_2","7793","3","22","Female","","","","","","","null","<div style=""font-size:60px;"">+</div>","null","fixation","","","","","","","","","","","71","","",""
"revaluation","190","1121204","0.0-4.0-2.0-0.36","spark_pilot_2","7793","3","22","Female","","false","","","","","[520,418.4000000357628]","./assets/img/ocean/memory/40.jpg","[""ArrowDown"",""ArrowRight""]","value training","ocean","30","{""ArrowUp,ArrowLeft"":23,""ArrowUp,ArrowRight"":10,""ArrowDown,ArrowLeft"":8,""ArrowDown,ArrowRight"":30}","true","ArrowDown,ArrowRight","false","","","original","1","72","","",""
"html-keyboard-response","191","1121706","0.0-4.0-2.0-1.36","spark_pilot_2","7793","3","22","Female","","","","","","","null","<div style=""font-size:60px;"">+</div>","null","fixation","","","","","","","","","","","73","","",""
"revaluation","192","1127711","0.0-4.0-2.0-0.37","spark_pilot_2","7793","3","22","Female","","false","","","","","[781.5999999642372,390.69999998807907]","./assets/img/ocean/memory/9.jpg","[""ArrowDown"",""ArrowRight""]","value training","ocean","30","{""ArrowUp,ArrowLeft"":23,""ArrowUp,ArrowRight"":10,""ArrowDown,ArrowLeft"":8,""ArrowDown,ArrowRight"":30}","true","ArrowDown,ArrowRight","false","","","original","1","74","","",""
"html-keyboard-response","193","1128214","0.0-4.0-2.0-1.37","spark_pilot_2","7793","3","22","Female","","","","","","","null","<div style=""font-size:60px;"">+</div>","null","fixation","","","","","","","","","","","75","","",""
"revaluation","194","1134219","0.0-4.0-2.0-0.38","spark_pilot_2","7793","3","22","Female","","false","","","","","[554.1999999880791,322.89999997615814]","./assets/img/ocean/memory/2.jpg","[""ArrowDown"",""ArrowRight""]","value training","ocean","30","{""ArrowUp,ArrowLeft"":23,""ArrowUp,ArrowRight"":10,""ArrowDown,ArrowLeft"":8,""ArrowDown,ArrowRight"":30}","true","ArrowDown,ArrowRight","false","","","original","1","76","","",""
"html-keyboard-response","195","1134722","0.0-4.0-2.0-1.38","spark_pilot_2","7793","3","22","Female","","","","","","","null","<div style=""font-size:60px;"">+</div>","null","fixation","","","","","","","","","","","77","","",""
"revaluation","196","1140741","0.0-4.0-2.0-0.39","spark_pilot_2","7793","3","22","Female","","false","","","","","[596.0999999642372,296.4000000357628]","./assets/img/ocean/memory/39.jpg","[""ArrowDown"",""ArrowRight""]","value training","ocean","30","{""ArrowUp,ArrowLeft"":23,""ArrowUp,ArrowRight"":10,""ArrowDown,ArrowLeft"":8,""ArrowDown,ArrowRight"":30}","true","ArrowDown,ArrowRight","false","","","original","1","78","","",""
"html-keyboard-response","197","1141244","0.0-4.0-2.0-1.39","spark_pilot_2","7793","3","22","Female","","","","","","","null","<div style=""font-size:60px;"">+</div>","null","fixation","","","","","","","","","","","79","","",""
"revaluation","198","1147250","0.0-4.0-2.0-0.40","spark_pilot_2","7793","3","22","Female","","false","","","","","[484.5999999642372,412.19999998807907]","./assets/img/ocean/memory/7.jpg","[""ArrowDown"",""ArrowRight""]","value training","ocean","30","{""ArrowUp,ArrowLeft"":23,""ArrowUp,ArrowRight"":10,""ArrowDown,ArrowLeft"":8,""ArrowDown,ArrowRight"":30}","true","ArrowDown,ArrowRight","false","","","original","1","80","","",""
"html-keyboard-response","199","1147760","0.0-4.0-2.0-1.40","spark_pilot_2","7793","3","22","Female","","","","","","","null","<div style=""font-size:60px;"">+</div>","null","fixation","","","","","","","","","","","81","","",""
"revaluation","200","1151763","0.0-4.0-2.0-0.41","spark_pilot_2","7793","3","22","Female","","false","","","","","[888.5]","./assets/img/ocean/catch/6.jpg","[""spaceBar""]","value training","ocean","0","{""ArrowUp,ArrowLeft"":23,""ArrowUp,ArrowRight"":10,""ArrowDown,ArrowLeft"":8,""ArrowDown,ArrowRight"":30}","true","spaceBar","true","","","original","1","82","","",""
"html-keyboard-response","201","1152266","0.0-4.0-2.0-1.41","spark_pilot_2","7793","3","22","Female","","","","","","","null","<div style=""font-size:60px;"">+</div>","null","fixation","","","","","","","","","","","83","","",""
"revaluation","202","1158271","0.0-4.0-2.0-0.42","spark_pilot_2","7793","3","22","Female","","false","","","","","[681.9000000357628,360.89999997615814]","./assets/img/ocean/memory/23.jpg","[""ArrowDown"",""ArrowRight""]","value training","ocean","30","{""ArrowUp,ArrowLeft"":23,""ArrowUp,ArrowRight"":10,""ArrowDown,ArrowLeft"":8,""ArrowDown,ArrowRight"":30}","true","ArrowDown,ArrowRight","false","","","original","1","84","","",""
"html-keyboard-response","203","1158774","0.0-4.0-2.0-1.42","spark_pilot_2","7793","3","22","Female","","","","","","","null","<div style=""font-size:60px;"">+</div>","null","fixation","","","","","","","","","","","85","","",""
"revaluation","204","1164781","0.0-4.0-2.0-0.43","spark_pilot_2","7793","3","22","Female","","false","","","","","[742.5,391.39999997615814]","./assets/img/ocean/memory/7.jpg","[""ArrowDown"",""ArrowRight""]","value training","ocean","30","{""ArrowUp,ArrowLeft"":23,""ArrowUp,ArrowRight"":10,""ArrowDown,ArrowLeft"":8,""ArrowDown,ArrowRight"":30}","true","ArrowDown,ArrowRight","false","","","original","1","86","","",""
"html-keyboard-response","205","1165283","0.0-4.0-2.0-1.43","spark_pilot_2","7793","3","22","Female","","","","","","","null","<div style=""font-size:60px;"">+</div>","null","fixation","","","","","","","","","","","87","","",""
"revaluation","206","1171289","0.0-4.0-2.0-0.44","spark_pilot_2","7793","3","22","Female","","false","","","","","[495.19999998807907,934.4000000357628]","./assets/img/ocean/memory/25.jpg","[""ArrowDown"",""ArrowRight""]","value training","ocean","30","{""ArrowUp,ArrowLeft"":23,""ArrowUp,ArrowRight"":10,""ArrowDown,ArrowLeft"":8,""ArrowDown,ArrowRight"":30}","true","ArrowDown,ArrowRight","false","","","original","1","88","","",""
"html-keyboard-response","207","1171791","0.0-4.0-2.0-1.44","spark_pilot_2","7793","3","22","Female","","","","","","","null","<div style=""font-size:60px;"">+</div>","null","fixation","","","","","","","","","","","89","","",""
"revaluation","208","1177797","0.0-4.0-2.0-0.45","spark_pilot_2","7793","3","22","Female","","false","","","","","[745.5,854.6999999880791]","./assets/img/ocean/memory/10.jpg","[""ArrowDown"",""ArrowRight""]","value training","ocean","30","{""ArrowUp,ArrowLeft"":23,""ArrowUp,ArrowRight"":10,""ArrowDown,ArrowLeft"":8,""ArrowDown,ArrowRight"":30}","true","ArrowDown,ArrowRight","false","","","original","1","90","","",""
"html-keyboard-response","209","1178299","0.0-4.0-2.0-1.45","spark_pilot_2","7793","3","22","Female","","","","","","","null","<div style=""font-size:60px;"">+</div>","null","fixation","","","","","","","","","","","91","","",""
"revaluation","210","1184305","0.0-4.0-2.0-0.46","spark_pilot_2","7793","3","22","Female","","false","","","","","[639.8000000119209,1077.5999999642372]","./assets/img/ocean/memory/41.jpg","[""ArrowDown"",""ArrowRight""]","value training","ocean","30","{""ArrowUp,ArrowLeft"":23,""ArrowUp,ArrowRight"":10,""ArrowDown,ArrowLeft"":8,""ArrowDown,ArrowRight"":30}","true","ArrowDown,ArrowRight","false","","","original","1","92","","",""
"html-keyboard-response","211","1184807","0.0-4.0-2.0-1.46","spark_pilot_2","7793","3","22","Female","","","","","","","null","<div style=""font-size:60px;"">+</div>","null","fixation","","","","","","","","","","","93","","",""
"revaluation","212","1190814","0.0-4.0-2.0-0.47","spark_pilot_2","7793","3","22","Female","","false","","","","","[560.1000000238419,297.69999998807907]","./assets/img/ocean/memory/17.jpg","[""ArrowDown"",""ArrowRight""]","value training","ocean","30","{""ArrowUp,ArrowLeft"":23,""ArrowUp,ArrowRight"":10,""ArrowDown,ArrowLeft"":8,""ArrowDown,ArrowRight"":30}","true","ArrowDown,ArrowRight","false","","","original","1","94","","",""
"html-keyboard-response","213","1191316","0.0-4.0-2.0-1.47","spark_pilot_2","7793","3","22","Female","","","","","","","null","<div style=""font-size:60px;"">+</div>","null","fixation","","","","","","","","","","","95","","",""
"revaluation","214","1195322","0.0-4.0-2.0-0.48","spark_pilot_2","7793","3","22","Female","","false","","","","","[742.5]","./assets/img/ocean/catch/1.jpg","[""spaceBar""]","value training","ocean","0","{""ArrowUp,ArrowLeft"":23,""ArrowUp,ArrowRight"":10,""ArrowDown,ArrowLeft"":8,""ArrowDown,ArrowRight"":30}","true","spaceBar","true","","","original","1","96","","",""
"html-keyboard-response","215","1195824","0.0-4.0-2.0-1.48","spark_pilot_2","7793","3","22","Female","","","","","","","null","<div style=""font-size:60px;"">+</div>","null","fixation","","","","","","","","","","","97","","",""
"revaluation","216","1201829","0.0-4.0-2.0-0.49","spark_pilot_2","7793","3","22","Female","","false","","","","","[634.3000000119209,412.7999999523163]","./assets/img/ocean/memory/10.jpg","[""ArrowDown"",""ArrowRight""]","value training","ocean","30","{""ArrowUp,ArrowLeft"":23,""ArrowUp,ArrowRight"":10,""ArrowDown,ArrowLeft"":8,""ArrowDown,ArrowRight"":30}","true","ArrowDown,ArrowRight","false","","","original","1","98","","",""
"html-keyboard-response","217","1202331","0.0-4.0-2.0-1.49","spark_pilot_2","7793","3","22","Female","","","","","","","null","<div style=""font-size:60px;"">+</div>","null","fixation","","","","","","","","","","","99","","",""
"learning-instructions","218","1217864","0.0-4.0-3.0-0.0","spark_pilot_2","7793","3","22","Female","","","","","","","2346.100000023842","<p> Now, you will travel with a friend who will choose whether you go up or down first. </p>
            <p> On these turns, you will just see the animal that they found. You will still get to choose which chest to search for treasure.</p>","","instructions","","","","","","","","","","","","","",""
"revaluation","219","1221888","0.0-4.0-4.0-0.0","spark_pilot_2","7793","3","22","Female","","false","","","","","[954.2999999523163]","./assets/img/ocean/animals/seahorse.jpg","[""ArrowRight""]","revaluation","ocean","30","{""ArrowUp,ArrowLeft"":23,""ArrowUp,ArrowRight"":10,""ArrowDown,ArrowLeft"":8,""ArrowDown,ArrowRight"":30}","true","ArrowDown,ArrowRight","","","","original","1","0","","",""
"html-keyboard-response","220","1222404","0.0-4.0-4.0-1.0","spark_pilot_2","7793","3","22","Female","","","","","","","null","<div style=""font-size:60px;"">+</div>","null","fixation","","","","","","","","","","","1","","",""
"revaluation","221","1226430","0.0-4.0-4.0-0.1","spark_pilot_2","7793","3","22","Female","","false","","","","","[753.5]","./assets/img/ocean/animals/octopus.jpg","[""ArrowLeft""]","revaluation","ocean","23","{""ArrowUp,ArrowLeft"":23,""ArrowUp,ArrowRight"":10,""ArrowDown,ArrowLeft"":8,""ArrowDown,ArrowRight"":30}","true","ArrowUp,ArrowLeft","","","","original","1","2","","",""
"html-keyboard-response","222","1226946","0.0-4.0-4.0-1.1","spark_pilot_2","7793","3","22","Female","","","","","","","null","<div style=""font-size:60px;"">+</div>","null","fixation","","","","","","","","","","","3","","",""
"revaluation","223","1230961","0.0-4.0-4.0-0.2","spark_pilot_2","7793","3","22","Female","","false","","","","","[482.19999998807907]","./assets/img/ocean/animals/octopus.jpg","[""ArrowRight""]","revaluation","ocean","10","{""ArrowUp,ArrowLeft"":23,""ArrowUp,ArrowRight"":10,""ArrowDown,ArrowLeft"":8,""ArrowDown,ArrowRight"":30}","false","ArrowUp,ArrowRight","","","","original","1","4","","",""
"html-keyboard-response","224","1231476","0.0-4.0-4.0-1.2","spark_pilot_2","7793","3","22","Female","","","","","","","null","<div style=""font-size:60px;"">+</div>","null","fixation","","","","","","","","","","","5","","",""
"revaluation","225","1235498","0.0-4.0-4.0-0.3","spark_pilot_2","7793","3","22","Female","","false","","","","","[811.6000000238419]","./assets/img/ocean/animals/octopus.jpg","[""ArrowLeft""]","revaluation","ocean","23","{""ArrowUp,ArrowLeft"":23,""ArrowUp,ArrowRight"":10,""ArrowDown,ArrowLeft"":8,""ArrowDown,ArrowRight"":30}","true","ArrowUp,ArrowLeft","","","","original","1","6","","",""
"html-keyboard-response","226","1236015","0.0-4.0-4.0-1.3","spark_pilot_2","7793","3","22","Female","","","","","","","null","<div style=""font-size:60px;"">+</div>","null","fixation","","","","","","","","","","","7","","",""
"revaluation","227","1240037","0.0-4.0-4.0-0.4","spark_pilot_2","7793","3","22","Female","","false","","","","","[712.5]","./assets/img/ocean/animals/seahorse.jpg","[""ArrowRight""]","revaluation","ocean","30","{""ArrowUp,ArrowLeft"":23,""ArrowUp,ArrowRight"":10,""ArrowDown,ArrowLeft"":8,""ArrowDown,ArrowRight"":30}","true","ArrowDown,ArrowRight","","","","original","1","8","","",""
"html-keyboard-response","228","1240551","0.0-4.0-4.0-1.4","spark_pilot_2","7793","3","22","Female","","","","","","","null","<div style=""font-size:60px;"">+</div>","null","fixation","","","","","","","","","","","9","","",""
"revaluation","229","1244572","0.0-4.0-4.0-0.5","spark_pilot_2","7793","3","22","Female","","false","","","","","[505.69999998807907]","./assets/img/ocean/animals/octopus.jpg","[""ArrowLeft""]","revaluation","ocean","23","{""ArrowUp,ArrowLeft"":23,""ArrowUp,ArrowRight"":10,""ArrowDown,ArrowLeft"":8,""ArrowDown,ArrowRight"":30}","true","ArrowUp,ArrowLeft","","","","original","1","10","","",""
"html-keyboard-response","230","1245087","0.0-4.0-4.0-1.5","spark_pilot_2","7793","3","22","Female","","","","","","","null","<div style=""font-size:60px;"">+</div>","null","fixation","","","","","","","","","","","11","","",""
"revaluation","231","1249093","0.0-4.0-4.0-0.6","spark_pilot_2","7793","3","22","Female","","false","","","","","[840.8000000119209]","./assets/img/ocean/animals/octopus.jpg","[""ArrowLeft""]","revaluation","ocean","23","{""ArrowUp,ArrowLeft"":23,""ArrowUp,ArrowRight"":10,""ArrowDown,ArrowLeft"":8,""ArrowDown,ArrowRight"":30}","true","ArrowUp,ArrowLeft","","","","original","1","12","","",""
"html-keyboard-response","232","1249594","0.0-4.0-4.0-1.6","spark_pilot_2","7793","3","22","Female","","","","","","","null","<div style=""font-size:60px;"">+</div>","null","fixation","","","","","","","","","","","13","","",""
"revaluation","233","1253598","0.0-4.0-4.0-0.7","spark_pilot_2","7793","3","22","Female","","false","","","","","[464.10000002384186]","./assets/img/ocean/animals/seahorse.jpg","[""ArrowRight""]","revaluation","ocean","30","{""ArrowUp,ArrowLeft"":23,""ArrowUp,ArrowRight"":10,""ArrowDown,ArrowLeft"":8,""ArrowDown,ArrowRight"":30}","true","ArrowDown,ArrowRight","","","","original","1","14","","",""
"html-keyboard-response","234","1254100","0.0-4.0-4.0-1.7","spark_pilot_2","7793","3","22","Female","","","","","","","null","<div style=""font-size:60px;"">+</div>","null","fixation","","","","","","","","","","","15","","",""
"revaluation","235","1258105","0.0-4.0-4.0-0.8","spark_pilot_2","7793","3","22","Female","","false","","","","","[707.6000000238419]","./assets/img/ocean/animals/octopus.jpg","[""ArrowLeft""]","revaluation","ocean","23","{""ArrowUp,ArrowLeft"":23,""ArrowUp,ArrowRight"":10,""ArrowDown,ArrowLeft"":8,""ArrowDown,ArrowRight"":30}","true","ArrowUp,ArrowLeft","","","","original","1","16","","",""
"html-keyboard-response","236","1258607","0.0-4.0-4.0-1.8","spark_pilot_2","7793","3","22","Female","","","","","","","null","<div style=""font-size:60px;"">+</div>","null","fixation","","","","","","","","","","","17","","",""
"revaluation","237","1262612","0.0-4.0-4.0-0.9","spark_pilot_2","7793","3","22","Female","","false","","","","","[1171.6000000238419]","./assets/img/ocean/animals/seahorse.jpg","[""ArrowRight""]","revaluation","ocean","30","{""ArrowUp,ArrowLeft"":23,""ArrowUp,ArrowRight"":10,""ArrowDown,ArrowLeft"":8,""ArrowDown,ArrowRight"":30}","true","ArrowDown,ArrowRight","","","","original","1","18","","",""
"html-keyboard-response","238","1263113","0.0-4.0-4.0-1.9","spark_pilot_2","7793","3","22","Female","","","","","","","null","<div style=""font-size:60px;"">+</div>","null","fixation","","","","","","","","","","","19","","",""
"revaluation","239","1267118","0.0-4.0-4.0-0.10","spark_pilot_2","7793","3","22","Female","","false","","","","","[755.1000000238419]","./assets/img/ocean/animals/seahorse.jpg","[""ArrowRight""]","revaluation","ocean","30","{""ArrowUp,ArrowLeft"":23,""ArrowUp,ArrowRight"":10,""ArrowDown,ArrowLeft"":8,""ArrowDown,ArrowRight"":30}","true","ArrowDown,ArrowRight","","","","original","1","20","","",""
"html-keyboard-response","240","1267620","0.0-4.0-4.0-1.10","spark_pilot_2","7793","3","22","Female","","","","","","","null","<div style=""font-size:60px;"">+</div>","null","fixation","","","","","","","","","","","21","","",""
"revaluation","241","1271626","0.0-4.0-4.0-0.11","spark_pilot_2","7793","3","22","Female","","false","","","","","[707.5]","./assets/img/ocean/animals/seahorse.jpg","[""ArrowRight""]","revaluation","ocean","30","{""ArrowUp,ArrowLeft"":23,""ArrowUp,ArrowRight"":10,""ArrowDown,ArrowLeft"":8,""ArrowDown,ArrowRight"":30}","true","ArrowDown,ArrowRight","","","","original","1","22","","",""
"html-keyboard-response","242","1272127","0.0-4.0-4.0-1.11","spark_pilot_2","7793","3","22","Female","","","","","","","null","<div style=""font-size:60px;"">+</div>","null","fixation","","","","","","","","","","","23","","",""
"revaluation","243","1276133","0.0-4.0-4.0-0.12","spark_pilot_2","7793","3","22","Female","","false","","","","","[570.5]","./assets/img/ocean/animals/seahorse.jpg","[""ArrowRight""]","revaluation","ocean","30","{""ArrowUp,ArrowLeft"":23,""ArrowUp,ArrowRight"":10,""ArrowDown,ArrowLeft"":8,""ArrowDown,ArrowRight"":30}","true","ArrowDown,ArrowRight","","","","original","1","24","","",""
"html-keyboard-response","244","1276635","0.0-4.0-4.0-1.12","spark_pilot_2","7793","3","22","Female","","","","","","","null","<div style=""font-size:60px;"">+</div>","null","fixation","","","","","","","","","","","25","","",""
"revaluation","245","1280641","0.0-4.0-4.0-0.13","spark_pilot_2","7793","3","22","Female","","false","","","","","[453]","./assets/img/ocean/animals/octopus.jpg","[""ArrowLeft""]","revaluation","ocean","23","{""ArrowUp,ArrowLeft"":23,""ArrowUp,ArrowRight"":10,""ArrowDown,ArrowLeft"":8,""ArrowDown,ArrowRight"":30}","true","ArrowUp,ArrowLeft","","","","original","1","26","","",""
"html-keyboard-response","246","1281143","0.0-4.0-4.0-1.13","spark_pilot_2","7793","3","22","Female","","","","","","","null","<div style=""font-size:60px;"">+</div>","null","fixation","","","","","","","","","","","27","","",""
"revaluation","247","1285150","0.0-4.0-4.0-0.14","spark_pilot_2","7793","3","22","Female","","false","","","","","[454.4000000357628]","./assets/img/ocean/animals/octopus.jpg","[""ArrowLeft""]","revaluation","ocean","23","{""ArrowUp,ArrowLeft"":23,""ArrowUp,ArrowRight"":10,""ArrowDown,ArrowLeft"":8,""ArrowDown,ArrowRight"":30}","true","ArrowUp,ArrowLeft","","","","original","1","28","","",""
"html-keyboard-response","248","1285652","0.0-4.0-4.0-1.14","spark_pilot_2","7793","3","22","Female","","","","","","","null","<div style=""font-size:60px;"">+</div>","null","fixation","","","","","","","","","","","29","","",""
"revaluation","249","1289658","0.0-4.0-4.0-0.15","spark_pilot_2","7793","3","22","Female","","false","","","","","[635.8999999761581]","./assets/img/ocean/animals/seahorse.jpg","[""ArrowRight""]","revaluation","ocean","30","{""ArrowUp,ArrowLeft"":23,""ArrowUp,ArrowRight"":10,""ArrowDown,ArrowLeft"":8,""ArrowDown,ArrowRight"":30}","true","ArrowDown,ArrowRight","","","","original","1","30","","",""
"html-keyboard-response","250","1290160","0.0-4.0-4.0-1.15","spark_pilot_2","7793","3","22","Female","","","","","","","null","<div style=""font-size:60px;"">+</div>","null","fixation","","","","","","","","","","","31","","",""
"revaluation","251","1294165","0.0-4.0-4.0-0.16","spark_pilot_2","7793","3","22","Female","","false","","","","","[877.5]","./assets/img/ocean/animals/seahorse.jpg","[""ArrowRight""]","revaluation","ocean","30","{""ArrowUp,ArrowLeft"":23,""ArrowUp,ArrowRight"":10,""ArrowDown,ArrowLeft"":8,""ArrowDown,ArrowRight"":30}","true","ArrowDown,ArrowRight","","","","original","1","32","","",""
"html-keyboard-response","252","1294667","0.0-4.0-4.0-1.16","spark_pilot_2","7793","3","22","Female","","","","","","","null","<div style=""font-size:60px;"">+</div>","null","fixation","","","","","","","","","","","33","","",""
"revaluation","253","1298673","0.0-4.0-4.0-0.17","spark_pilot_2","7793","3","22","Female","","false","","","","","[660.3999999761581]","./assets/img/ocean/animals/octopus.jpg","[""ArrowLeft""]","revaluation","ocean","23","{""ArrowUp,ArrowLeft"":23,""ArrowUp,ArrowRight"":10,""ArrowDown,ArrowLeft"":8,""ArrowDown,ArrowRight"":30}","true","ArrowUp,ArrowLeft","","","","original","1","34","","",""
"html-keyboard-response","254","1299174","0.0-4.0-4.0-1.17","spark_pilot_2","7793","3","22","Female","","","","","","","null","<div style=""font-size:60px;"">+</div>","null","fixation","","","","","","","","","","","35","","",""
"learning-instructions","255","1311706","0.0-4.0-5.0-0.0","spark_pilot_2","7793","3","22","Female","","","","","","","719.6999999880791","<p> Time to play the dot game! </p>
            <p> For one minute, click the red dots on the following screen as they appear. </p>
            <p><b> Don't look away, as you will earn bonus for clicking dots</b>. </p>","","instructions","","","","","","","","","","","","","",""
"revaluation","256","1371708","0.0-4.0-6.0-0.0","spark_pilot_2","7793","3","22","Female","","","","","","","[84,51,57,63,69,137]","","","rest","","60","","","","","0","60000","","","","","",""
"learning-instructions","257","1379333","0.0-4.0-7.0-0.0","spark_pilot_2","7793","3","22","Female","","","","","","","1238","<p> You have almost finished this part of the game! </p>
            <p> We are going to ask you to make a few more choices. </p>","","instructions","","","","","","","","","","","","","",""
"learning-instructions","258","1394349","0.0-4.0-7.0-0.1","spark_pilot_2","7793","3","22","Female","","","","","","","1034.199999988079","<p> First, you need to decide whether to go up or down. When you see each picture, use the arrow keys to make your choice. </p>
            <p><b>You will not see which animal you found, but try to get to the one that will give you the most treasure.</b></p>","","instructions","","","","","","","","","","","","","",""
"revaluation","259","1395183","0.0-4.0-8.0-0.0","spark_pilot_2","7793","3","22","Female","","false","","","","","[830.5999999642372]","./assets/img/ocean/test/0.jpg","[""ArrowDown""]","first stage test","ocean","0","{""ArrowUp,ArrowLeft"":23,""ArrowUp,ArrowRight"":10,""ArrowDown,ArrowLeft"":8,""ArrowDown,ArrowRight"":30}","true","ArrowDown","false","","","original","1","","","",""
"html-keyboard-response","260","1395687","0.0-4.0-8.0-1.0","spark_pilot_2","7793","3","22","Female","","","","","","","null","<div style=""font-size:60px;"">+</div>","null","fixation","","","","","","","","","","","","","",""
"revaluation","261","1396944","0.0-4.0-8.0-0.1","spark_pilot_2","7793","3","22","Female","","false","","","","","[1254.1000000238419]","./assets/img/ocean/test/3.jpg","[""ArrowUp""]","first stage test","ocean","0","{""ArrowUp,ArrowLeft"":23,""ArrowUp,ArrowRight"":10,""ArrowDown,ArrowLeft"":8,""ArrowDown,ArrowRight"":30}","false","ArrowUp","false","","","original","1","","","",""
"html-keyboard-response","262","1397459","0.0-4.0-8.0-1.1","spark_pilot_2","7793","3","22","Female","","","","","","","null","<div style=""font-size:60px;"">+</div>","null","fixation","","","","","","","","","","","","","",""
"revaluation","263","1398833","0.0-4.0-8.0-0.2","spark_pilot_2","7793","3","22","Female","","false","","","","","[1370.300000011921]","./assets/img/ocean/test/2.jpg","[""ArrowUp""]","first stage test","ocean","0","{""ArrowUp,ArrowLeft"":23,""ArrowUp,ArrowRight"":10,""ArrowDown,ArrowLeft"":8,""ArrowDown,ArrowRight"":30}","false","ArrowUp","false","","","original","1","","","",""
"html-keyboard-response","264","1399347","0.0-4.0-8.0-1.2","spark_pilot_2","7793","3","22","Female","","","","","","","null","<div style=""font-size:60px;"">+</div>","null","fixation","","","","","","","","","","","","","",""
"revaluation","265","1399973","0.0-4.0-8.0-0.3","spark_pilot_2","7793","3","22","Female","","false","","","","","[622.4000000357628]","./assets/img/ocean/test/1.jpg","[""ArrowUp""]","first stage test","ocean","0","{""ArrowUp,ArrowLeft"":23,""ArrowUp,ArrowRight"":10,""ArrowDown,ArrowLeft"":8,""ArrowDown,ArrowRight"":30}","false","ArrowUp","false","","","original","1","","","",""
"html-keyboard-response","266","1400489","0.0-4.0-8.0-1.3","spark_pilot_2","7793","3","22","Female","","","","","","","null","<div style=""font-size:60px;"">+</div>","null","fixation","","","","","","","","","","","","","",""
"learning-instructions","267","1413577","0.0-4.0-9.0-0.0","spark_pilot_2","7793","3","22","Female","","","","","","","1741.5","<p> Now you will see the animals again and can search their chests for treasure. </p>
            <p> This time, you will not see how much treasure you earned, but you will earn more bonus money for making better choices. </p>","","instructions","","","","","","","","","","","","","",""
"revaluation","268","1414403","0.0-4.0-10.0-0.0","spark_pilot_2","7793","3","22","Female","","false","","","","","[823.3000000119209]","./assets/img/ocean/animals/octopus.jpg","[""ArrowLeft""]","second stage test","ocean","0","{""ArrowUp,ArrowLeft"":23,""ArrowUp,ArrowRight"":10,""ArrowDown,ArrowLeft"":8,""ArrowDown,ArrowRight"":30}","true","ArrowUp,ArrowLeft","","","","original","1","","","",""
"html-keyboard-response","269","1414918","0.0-4.0-10.0-1.0","spark_pilot_2","7793","3","22","Female","","","","","","","null","<div style=""font-size:60px;"">+</div>","null","fixation","","","","","","","","","","","","","",""
"revaluation","270","1415523","0.0-4.0-10.0-0.1","spark_pilot_2","7793","3","22","Female","","false","","","","","[601]","./assets/img/ocean/animals/octopus.jpg","[""ArrowLeft""]","second stage test","ocean","0","{""ArrowUp,ArrowLeft"":23,""ArrowUp,ArrowRight"":10,""ArrowDown,ArrowLeft"":8,""ArrowDown,ArrowRight"":30}","true","ArrowUp,ArrowLeft","","","","original","1","","","",""
"html-keyboard-response","271","1416039","0.0-4.0-10.0-1.1","spark_pilot_2","7793","3","22","Female","","","","","","","null","<div style=""font-size:60px;"">+</div>","null","fixation","","","","","","","","","","","","","",""
"revaluation","272","1416693","0.0-4.0-10.0-0.2","spark_pilot_2","7793","3","22","Female","","false","","","","","[650.1000000238419]","./assets/img/ocean/animals/octopus.jpg","[""ArrowLeft""]","second stage test","ocean","0","{""ArrowUp,ArrowLeft"":23,""ArrowUp,ArrowRight"":10,""ArrowDown,ArrowLeft"":8,""ArrowDown,ArrowRight"":30}","true","ArrowUp,ArrowLeft","","","","original","1","","","",""
"html-keyboard-response","273","1417207","0.0-4.0-10.0-1.2","spark_pilot_2","7793","3","22","Female","","","","","","","null","<div style=""font-size:60px;"">+</div>","null","fixation","","","","","","","","","","","","","",""
"revaluation","274","1417724","0.0-4.0-10.0-0.3","spark_pilot_2","7793","3","22","Female","","false","","","","","[513]","./assets/img/ocean/animals/octopus.jpg","[""ArrowLeft""]","second stage test","ocean","0","{""ArrowUp,ArrowLeft"":23,""ArrowUp,ArrowRight"":10,""ArrowDown,ArrowLeft"":8,""ArrowDown,ArrowRight"":30}","true","ArrowUp,ArrowLeft","","","","original","1","","","",""
"html-keyboard-response","275","1418226","0.0-4.0-10.0-1.3","spark_pilot_2","7793","3","22","Female","","","","","","","null","<div style=""font-size:60px;"">+</div>","null","fixation","","","","","","","","","","","","","",""
"revaluation","276","1418784","0.0-4.0-10.0-0.4","spark_pilot_2","7793","3","22","Female","","false","","","","","[554.5999999642372]","./assets/img/ocean/animals/seahorse.jpg","[""ArrowRight""]","second stage test","ocean","0","{""ArrowUp,ArrowLeft"":23,""ArrowUp,ArrowRight"":10,""ArrowDown,ArrowLeft"":8,""ArrowDown,ArrowRight"":30}","true","ArrowDown,ArrowRight","","","","original","1","","","",""
"html-keyboard-response","277","1419299","0.0-4.0-10.0-1.4","spark_pilot_2","7793","3","22","Female","","","","","","","null","<div style=""font-size:60px;"">+</div>","null","fixation","","","","","","","","","","","","","",""
"revaluation","278","1419753","0.0-4.0-10.0-0.5","spark_pilot_2","7793","3","22","Female","","false","","","","","[450.19999998807907]","./assets/img/ocean/animals/seahorse.jpg","[""ArrowRight""]","second stage test","ocean","0","{""ArrowUp,ArrowLeft"":23,""ArrowUp,ArrowRight"":10,""ArrowDown,ArrowLeft"":8,""ArrowDown,ArrowRight"":30}","true","ArrowDown,ArrowRight","","","","original","1","","","",""
"html-keyboard-response","279","1420270","0.0-4.0-10.0-1.5","spark_pilot_2","7793","3","22","Female","","","","","","","null","<div style=""font-size:60px;"">+</div>","null","fixation","","","","","","","","","","","","","",""
"revaluation","280","1420593","0.0-4.0-10.0-0.6","spark_pilot_2","7793","3","22","Female","","false","","","","","[320.30000001192093]","./assets/img/ocean/animals/seahorse.jpg","[""ArrowRight""]","second stage test","ocean","0","{""ArrowUp,ArrowLeft"":23,""ArrowUp,ArrowRight"":10,""ArrowDown,ArrowLeft"":8,""ArrowDown,ArrowRight"":30}","true","ArrowDown,ArrowRight","","","","original","1","","","",""
"html-keyboard-response","281","1421110","0.0-4.0-10.0-1.6","spark_pilot_2","7793","3","22","Female","","","","","","","null","<div style=""font-size:60px;"">+</div>","null","fixation","","","","","","","","","","","","","",""
"revaluation","282","1421783","0.0-4.0-10.0-0.7","spark_pilot_2","7793","3","22","Female","","false","","","","","[669.9000000357628]","./assets/img/ocean/animals/seahorse.jpg","[""ArrowRight""]","second stage test","ocean","0","{""ArrowUp,ArrowLeft"":23,""ArrowUp,ArrowRight"":10,""ArrowDown,ArrowLeft"":8,""ArrowDown,ArrowRight"":30}","true","ArrowDown,ArrowRight","","","","original","1","","","",""
"html-keyboard-response","283","1422300","0.0-4.0-10.0-1.7","spark_pilot_2","7793","3","22","Female","","","","","","","null","<div style=""font-size:60px;"">+</div>","null","fixation","","","","","","","","","","","","","",""
"learning-instructions","284","1437965","0.0-4.0-0.1-0.2","spark_pilot_2","7793","3","22","Female","","","","","","","12879.800000011921","<p> This time you are searching for treasure in the <b>canyon</b>.</p>","","instructions","","","","","","","","","","","","","",""
"learning-instructions","285","1456787","0.0-4.0-0.1-0.3","spark_pilot_2","7793","3","22","Female","","","","","","","1571.5","<p><b>New</b> animals with <b>new</b> treasure chests live here. You need to explore to discover where the animal with the best treasure chest is.</p>
                    <p> Like before, once you figure out which animal has the chest with the most treasure, you should try to get to that animal and select that chest! </p>","","instructions","","","","","","","","","","","","","",""
"learning-instructions","286","1472766","0.0-4.0-1.1-0.1","spark_pilot_2","7793","3","22","Female","","","","","","","1249.5","<p> Remember, when you see a picture of the place, use the up and down keys to <b>find an animal</b>.</p>
            <p> When you encounter an animal, you should use the left and right keys to <b>select a treasure chest</b>.</p>
            <p> Don't forget to look out for the robber! </p>","","instructions","","","","","","","","","","","","","",""
"revaluation","287","1478785","0.0-4.0-2.1-0.50","spark_pilot_2","7793","3","22","Female","","false","","","","","[1365,521.5]","./assets/img/canyon/memory/15.jpg","[""ArrowUp"",""ArrowRight""]","value training","canyon","10","{""ArrowUp,ArrowLeft"":26,""ArrowUp,ArrowRight"":10,""ArrowDown,ArrowLeft"":5,""ArrowDown,ArrowRight"":17}","false","ArrowUp,ArrowRight","false","","","revaluation","2","0","","",""
"html-keyboard-response","288","1479301","0.0-4.0-2.1-1.50","spark_pilot_2","7793","3","22","Female","","","","","","","null","<div style=""font-size:60px;"">+</div>","null","fixation","","","","","","","","","","","1","","",""
"revaluation","289","1485344","0.0-4.0-2.1-0.51","spark_pilot_2","7793","3","22","Female","","false","","","","","[469.30000001192093,430.69999998807907]","./assets/img/canyon/memory/18.jpg","[""ArrowDown"",""ArrowLeft""]","value training","canyon","5","{""ArrowUp,ArrowLeft"":26,""ArrowUp,ArrowRight"":10,""ArrowDown,ArrowLeft"":5,""ArrowDown,ArrowRight"":17}","false","ArrowDown,ArrowLeft","false","","","revaluation","2","2","","",""
"html-keyboard-response","290","1485860","0.0-4.0-2.1-1.51","spark_pilot_2","7793","3","22","Female","","","","","","","null","<div style=""font-size:60px;"">+</div>","null","fixation","","","","","","","","","","","3","","",""
"revaluation","291","1491904","0.0-4.0-2.1-0.52","spark_pilot_2","7793","3","22","Female","","false","","","","","[410.60000002384186,297.5]","./assets/img/canyon/memory/28.jpg","[""ArrowDown"",""ArrowRight""]","value training","canyon","17","{""ArrowUp,ArrowLeft"":26,""ArrowUp,ArrowRight"":10,""ArrowDown,ArrowLeft"":5,""ArrowDown,ArrowRight"":17}","false","ArrowDown,ArrowRight","false","","","revaluation","2","4","","",""
"html-keyboard-response","292","1492421","0.0-4.0-2.1-1.52","spark_pilot_2","7793","3","22","Female","","","","","","","null","<div style=""font-size:60px;"">+</div>","null","fixation","","","","","","","","","","","5","","",""
"revaluation","293","1498442","0.0-4.0-2.1-0.53","spark_pilot_2","7793","3","22","Female","","false","","","","","[478.89999997615814,279]","./assets/img/canyon/memory/17.jpg","[""ArrowUp"",""ArrowLeft""]","value training","canyon","26","{""ArrowUp,ArrowLeft"":26,""ArrowUp,ArrowRight"":10,""ArrowDown,ArrowLeft"":5,""ArrowDown,ArrowRight"":17}","true","ArrowUp,ArrowLeft","false","","","revaluation","2","6","","",""
"html-keyboard-response","294","1498960","0.0-4.0-2.1-1.53","spark_pilot_2","7793","3","22","Female","","","","","","","null","<div style=""font-size:60px;"">+</div>","null","fixation","","","","","","","","","","","7","","",""
"revaluation","295","1504981","0.0-4.0-2.1-0.54","spark_pilot_2","7793","3","22","Female","","false","","","","","[312.89999997615814,284.80000001192093]","./assets/img/canyon/memory/2.jpg","[""ArrowUp"",""ArrowLeft""]","value training","canyon","26","{""ArrowUp,ArrowLeft"":26,""ArrowUp,ArrowRight"":10,""ArrowDown,ArrowLeft"":5,""ArrowDown,ArrowRight"":17}","true","ArrowUp,ArrowLeft","false","","","revaluation","2","8","","",""
"html-keyboard-response","296","1505483","0.0-4.0-2.1-1.54","spark_pilot_2","7793","3","22","Female","","","","","","","null","<div style=""font-size:60px;"">+</div>","null","fixation","","","","","","","","","","","9","","",""
"revaluation","297","1509488","0.0-4.0-2.1-0.55","spark_pilot_2","7793","3","22","Female","","false","","","","","[268.30000001192093]","./assets/img/canyon/catch/5.jpg","[""ArrowUp""]","value training","canyon","-10","{""ArrowUp,ArrowLeft"":26,""ArrowUp,ArrowRight"":10,""ArrowDown,ArrowLeft"":5,""ArrowDown,ArrowRight"":17}","false","ArrowUp","true","","","revaluation","2","10","","",""
"html-keyboard-response","298","1509990","0.0-4.0-2.1-1.55","spark_pilot_2","7793","3","22","Female","","","","","","","null","<div style=""font-size:60px;"">+</div>","null","fixation","","","","","","","","","","","11","","",""
"revaluation","299","1513993","0.0-4.0-2.1-0.56","spark_pilot_2","7793","3","22","Female","","false","","","","","[872.1000000238419]","./assets/img/canyon/catch/6.jpg","[""spaceBar""]","value training","canyon","0","{""ArrowUp,ArrowLeft"":26,""ArrowUp,ArrowRight"":10,""ArrowDown,ArrowLeft"":5,""ArrowDown,ArrowRight"":17}","true","spaceBar","true","","","revaluation","2","12","","",""
"html-keyboard-response","300","1514496","0.0-4.0-2.1-1.56","spark_pilot_2","7793","3","22","Female","","","","","","","null","<div style=""font-size:60px;"">+</div>","null","fixation","","","","","","","","","","","13","","",""
"revaluation","301","1520515","0.0-4.0-2.1-0.57","spark_pilot_2","7793","3","22","Female","","false","","","","","[525.4000000357628,314.2999999523163]","./assets/img/canyon/memory/14.jpg","[""ArrowUp"",""ArrowLeft""]","value training","canyon","26","{""ArrowUp,ArrowLeft"":26,""ArrowUp,ArrowRight"":10,""ArrowDown,ArrowLeft"":5,""ArrowDown,ArrowRight"":17}","true","ArrowUp,ArrowLeft","false","","","revaluation","2","14","","",""
"html-keyboard-response","302","1521018","0.0-4.0-2.1-1.57","spark_pilot_2","7793","3","22","Female","","","","","","","null","<div style=""font-size:60px;"">+</div>","null","fixation","","","","","","","","","","","15","","",""
"revaluation","303","1527027","0.0-4.0-2.1-0.58","spark_pilot_2","7793","3","22","Female","","false","","","","","[542.3000000119209,400.2000000476837]","./assets/img/canyon/memory/17.jpg","[""ArrowUp"",""ArrowLeft""]","value training","canyon","26","{""ArrowUp,ArrowLeft"":26,""ArrowUp,ArrowRight"":10,""ArrowDown,ArrowLeft"":5,""ArrowDown,ArrowRight"":17}","true","ArrowUp,ArrowLeft","false","","","revaluation","2","16","","",""
"html-keyboard-response","304","1527528","0.0-4.0-2.1-1.58","spark_pilot_2","7793","3","22","Female","","","","","","","null","<div style=""font-size:60px;"">+</div>","null","fixation","","","","","","","","","","","17","","",""
"revaluation","305","1533534","0.0-4.0-2.1-0.59","spark_pilot_2","7793","3","22","Female","","false","","","","","[752.5,551.6999999880791]","./assets/img/canyon/memory/39.jpg","[""ArrowUp"",""ArrowLeft""]","value training","canyon","26","{""ArrowUp,ArrowLeft"":26,""ArrowUp,ArrowRight"":10,""ArrowDown,ArrowLeft"":5,""ArrowDown,ArrowRight"":17}","true","ArrowUp,ArrowLeft","false","","","revaluation","2","18","","",""
"html-keyboard-response","306","1534036","0.0-4.0-2.1-1.59","spark_pilot_2","7793","3","22","Female","","","","","","","null","<div style=""font-size:60px;"">+</div>","null","fixation","","","","","","","","","","","19","","",""
