"trial_type","trial_index","time_elapsed","internal_node_id","task_version","subject_id","assigned_condition","age","gender","success","timeout","failed_images","failed_audio","failed_video","browser_interaction","rt","stimulus","response","task_part","environment","score","rewardMap","correct","fullState","isCatch","numberMissed","duration","condition","order","trial_num","key_press","ground_truth","bonus"
"pavlovia","0","1286","0.0-0.0","spark_pilot_2","7306","8","11","Female","","","","","","","","","","","","","","","","","","","","","","","",""
"preload","1","5930","0.0-1.0","spark_pilot_2","7306","8","11","Female","true","false","[]","[]","[]","[{""event"":""fullscreenenter"",""trial"":2,""time"":11637},{""event"":""fullscreenexit"",""trial"":2,""time"":12090}]","","","","","","","","","","","","","","","","","",""
"fullscreen","2","12612","0.0-2.0","spark_pilot_2","7306","8","11","Female","true","","","","","","","","","","","","","","","","","","","","","","",""
"audio-button-response","3","24690","0.0-3.0-0.0-0.0","spark_pilot_2","7306","8","11","Female","","","","","","","12061","./assets/audio/audiotest/turtle.mp3","2","audio_test","","","","","","","","","","","","","",""
"learning-instructions","4","37658","0.0-3.0-1.0-0.0","spark_pilot_2","7306","8","11","Female","","","","","","","5979.400000035763","<p> Welcome! Please remember to stay in fullscreen mode and don't click away from the experiment. </p>","","instructions","","","","","","","","","","","","","",""
"learning-instructions","5","49227","0.0-3.0-1.0-0.1","spark_pilot_2","7306","8","11","Female","","","","","","","3177","<p> Today you will be playing a game to earn treasure. </p>
            <p> At the end of the experiment, you will earn a bonus based on how much treasure you find. </p>
            <img src='./assets/img/instructions/treasure.jpg' class='instructions-image'>","","instructions","","","","","","","","","","","","","",""
"learning-instructions","6","58491","0.0-3.0-1.0-0.2","spark_pilot_2","7306","8","11","Female","","","","","","","1010.8000000119209","<p> Animals have hidden treasure in treasure chests. </p>
            <p> You need to first find an animal and then choose which of their treasure chests to search. </p>
            <img src='./assets/img/space/animals/cat.jpg' class='instructions-image'>","","instructions","","","","","","","","","","","","","",""
"learning-instructions","7","72667","0.0-3.0-1.0-0.3","spark_pilot_2","7306","8","11","Female","","","","","","","1036.800000011921","<p> In each round, you will search for treasure in a different place. In the real game, there will be two rounds. </p>
            <p> You will begin with a separate, practice round where you will search for treasure in outer space. </p>
            <img src='./assets/img/space/0.jpg' class='instructions-image'>","","instructions","","","","","","","","","","","","","",""
"learning-instructions","8","85556","0.0-3.0-1.0-0.4","spark_pilot_2","7306","8","11","Female","","","","","","","1475.300000011921","<p> On every turn, you will see a picture of the place that you are in, but the specific image may be different each time. </p>
            <p> For example, both of these images mean you are in outer space. </p>
            <img src='./assets/img/instructions/outerspace.jpg' class='instructions-image'>","","instructions","","","","","","","","","","","","","",""
"learning-instructions","9","94316","0.0-3.0-1.0-0.5","spark_pilot_2","7306","8","11","Female","","","","","","","944.6999999880791","<p> You need to decide which direction to travel in. </p>
            <p> You can choose between going <b>up or down</b> by using the arrow keys. </p>
            <img src='./assets/img/instructions/updown.jpg' class='instructions-image'>","","instructions","","","","","","","","","","","","","",""
"learning-instructions","10","104380","0.0-3.0-1.0-0.6","spark_pilot_2","7306","8","11","Female","","","","","","","1258.800000011921","<p> You will have <b>2 seconds</b> to make your choice. </p>
            <p> If you do not make a choice within 2 seconds, you will not find an animal or earn treasure. </p>
            <img src='./assets/img/instructions/2seconds.jpg' class='instructions-image'>","","instructions","","","","","","","","","","","","","",""
"learning-instructions","11","115773","0.0-3.0-1.0-0.7","spark_pilot_2","7306","8","11","Female","","","","","","","4370.899999976158","<p> Let’s try practicing that now! </p>
            <p> When you see a picture of the place you are in, press the <b>up</b> key to travel up. </p>
            <img src='./assets/img/instructions/pressUp.jpg' class='instructions-image'>","","instructions","","","","","","","","","","","","","",""
"revaluation","12","119815","0.0-3.0-2.0-0.0","spark_pilot_2","7306","8","11","Female","","false","","","","","[554.4000000357628]","./assets/img/space/0.jpg","[""ArrowUp""]","first stage practice","space","0","null","null","ArrowUp","false","","","","","","","",""
"html-keyboard-response","13","120332","0.0-3.0-2.0-1.0","spark_pilot_2","7306","8","11","Female","","","","","","","null","<div style=""font-size:60px;"">+</div>","null","fixation","","","","","","","","","","","","","",""
"revaluation","14","124373","0.0-3.0-2.0-0.1","spark_pilot_2","7306","8","11","Female","","true","","","","","[]","./assets/img/space/1.jpg","[]","first stage practice","space","-5","null","null","","false","","","","","","","",""
"html-keyboard-response","15","124893","0.0-3.0-2.0-1.1","spark_pilot_2","7306","8","11","Female","","","","","","","null","<div style=""font-size:60px;"">+</div>","null","fixation","","","","","","","","","","","","","",""
"revaluation","16","128913","0.0-3.0-2.0-0.2","spark_pilot_2","7306","8","11","Female","","true","","","","","[]","./assets/img/space/2.jpg","[]","first stage practice","space","-5","null","null","","false","","","","","","","",""
"html-keyboard-response","17","129433","0.0-3.0-2.0-1.2","spark_pilot_2","7306","8","11","Female","","","","","","","null","<div style=""font-size:60px;"">+</div>","null","fixation","","","","","","","","","","","","","",""
"learning-instructions","18","135275","0.0-3.0-3.0-0.0","spark_pilot_2","7306","8","11","Female","","","","","","","1145.199999988079","<p> Great job! Now try pressing the <b>down</b> key to travel down. </p>
            <img src='./assets/img/instructions/pressDown.jpg' class='instructions-image'>","","instructions","","","","","","","","","","","","","",""
"revaluation","19","139294","0.0-3.0-4.0-0.0","spark_pilot_2","7306","8","11","Female","","false","","","","","[725.1000000238419]","./assets/img/space/3.jpg","[""ArrowDown""]","first stage practice","space","0","null","null","ArrowDown","false","","","","","","","",""
"html-keyboard-response","20","139813","0.0-3.0-4.0-1.0","spark_pilot_2","7306","8","11","Female","","","","","","","null","<div style=""font-size:60px;"">+</div>","null","fixation","","","","","","","","","","","","","",""
"revaluation","21","143854","0.0-3.0-4.0-0.1","spark_pilot_2","7306","8","11","Female","","false","","","","","[592.8000000119209]","./assets/img/space/4.jpg","[""ArrowDown""]","first stage practice","space","0","null","null","ArrowDown","false","","","","","","","",""
"html-keyboard-response","22","144374","0.0-3.0-4.0-1.1","spark_pilot_2","7306","8","11","Female","","","","","","","null","<div style=""font-size:60px;"">+</div>","null","fixation","","","","","","","","","","","","","",""
"revaluation","23","148414","0.0-3.0-4.0-0.2","spark_pilot_2","7306","8","11","Female","","false","","","","","[582.8000000119209]","./assets/img/space/5.jpg","[""ArrowDown""]","first stage practice","space","0","null","null","ArrowDown","false","","","","","","","",""
"html-keyboard-response","24","148933","0.0-3.0-4.0-1.2","spark_pilot_2","7306","8","11","Female","","","","","","","null","<div style=""font-size:60px;"">+</div>","null","fixation","","","","","","","","","","","","","",""
"learning-instructions","25","160467","0.0-3.0-5.0-0.0","spark_pilot_2","7306","8","11","Female","","","","","","","1677.1000000238419","<p> The animals don’t move, so the animal in the upper part of a place will stay in the upper part of a place, and the animal in the lower part of a place will stay in the lower part of a place. </p>","","instructions","","","","","","","","","","","","","",""
"learning-instructions","26","170428","0.0-3.0-5.0-0.1","spark_pilot_2","7306","8","11","Female","","","","","","","837.1000000238419","<p> Each animal has two treasure chests for you to choose from. </p>
            <p> The amount of treasure in each chest can range from <b> 0 to 40 pieces.</b></p>","","instructions","","","","","","","","","","","","","",""
"learning-instructions","27","182839","0.0-3.0-5.0-0.2","spark_pilot_2","7306","8","11","Female","","","","","","","1234.5999999642372","<p> You should decide which chest to search for treasure by using the <b>left</b> and <b>right</b> arrow keys. </p>
            <p><b> Pay attention to which animal is on the screen, as the animals have different treasure chests. </b></p>
            <img src='./assets/img/instructions/leftright.jpg' class='instructions-image'>","","instructions","","","","","","","","","","","","","",""
"learning-instructions","28","190319","0.0-3.0-5.0-0.3","spark_pilot_2","7306","8","11","Female","","","","","","","1114.5999999642372","<p> Let’s try practicing that now. </p>
            <p> When you see an animal, choose which chest to search for treasure. </p>
            <img src='./assets/img/instructions/chooseChest.jpg' class='instructions-image'>","","instructions","","","","","","","","","","","","","",""
"revaluation","29","194343","0.0-3.0-6.0-0.0","spark_pilot_2","7306","8","11","Female","","false","","","","","[510.30000001192093]","./assets/img/space/animals/rabbit.jpg","[""ArrowLeft""]","second stage practice","space","15","{""ArrowUp,ArrowLeft"":3,""ArrowUp,ArrowRight"":36,""ArrowDown,ArrowLeft"":15,""ArrowDown,ArrowRight"":23}","false","ArrowDown,ArrowLeft","","","","","","","","",""
"html-keyboard-response","30","194858","0.0-3.0-6.0-1.0","spark_pilot_2","7306","8","11","Female","","","","","","","null","<div style=""font-size:60px;"">+</div>","null","fixation","","","","","","","","","","","","","",""
"revaluation","31","198899","0.0-3.0-6.0-0.1","spark_pilot_2","7306","8","11","Female","","false","","","","","[761.1999999880791]","./assets/img/space/animals/cat.jpg","[""ArrowRight""]","second stage practice","space","36","{""ArrowUp,ArrowLeft"":3,""ArrowUp,ArrowRight"":36,""ArrowDown,ArrowLeft"":15,""ArrowDown,ArrowRight"":23}","true","ArrowUp,ArrowRight","","","","","","","","",""
"html-keyboard-response","32","199418","0.0-3.0-6.0-1.1","spark_pilot_2","7306","8","11","Female","","","","","","","null","<div style=""font-size:60px;"">+</div>","null","fixation","","","","","","","","","","","","","",""
"revaluation","33","203459","0.0-3.0-6.0-0.2","spark_pilot_2","7306","8","11","Female","","false","","","","","[601]","./assets/img/space/animals/cat.jpg","[""ArrowRight""]","second stage practice","space","36","{""ArrowUp,ArrowLeft"":3,""ArrowUp,ArrowRight"":36,""ArrowDown,ArrowLeft"":15,""ArrowDown,ArrowRight"":23}","true","ArrowUp,ArrowRight","","","","","","","","",""
"html-keyboard-response","34","203979","0.0-3.0-6.0-1.2","spark_pilot_2","7306","8","11","Female","","","","","","","null","<div style=""font-size:60px;"">+</div>","null","fixation","","","","","","","","","","","","","",""
"revaluation","35","208019","0.0-3.0-6.0-0.3","spark_pilot_2","7306","8","11","Female","","false","","","","","[1008.8000000119209]","./assets/img/space/animals/rabbit.jpg","[""ArrowLeft""]","second stage practice","space","15","{""ArrowUp,ArrowLeft"":3,""ArrowUp,ArrowRight"":36,""ArrowDown,ArrowLeft"":15,""ArrowDown,ArrowRight"":23}","false","ArrowDown,ArrowLeft","","","","","","","","",""
"html-keyboard-response","36","208525","0.0-3.0-6.0-1.3","spark_pilot_2","7306","8","11","Female","","","","","","","null","<div style=""font-size:60px;"">+</div>","null","fixation","","","","","","","","","","","","","",""
"learning-instructions","37","226312","0.0-3.0-7.0-0.0","spark_pilot_2","7306","8","11","Female","","","","","","","986.8999999761581","<p> Great job. Now let’s try putting it together. </p>
            <p> On each turn, you will first see a picture to remind you of the place you are in, and you need to choose whether to go up or down. </p>
            <p> Then you will see an animal and choose which of its chests to search for treasure. </p>","","instructions","","","","","","","","","","","","","",""
"learning-instructions","38","236409","0.0-3.0-7.0-0.1","spark_pilot_2","7306","8","11","Female","","","","","","","1842.800000011921","<p> When you choose whether to go up or down, try to go to the animal with the chest with the most treasure. </p>
            <p> Try practicing that now! </p>","","instructions","","","","","","","","","","","","","",""
"revaluation","39","242460","0.0-3.0-8.0-0.0","spark_pilot_2","7306","8","11","Female","","false","","","","","[669.1999999880791,788.5]","./assets/img/space/6.jpg","[""ArrowUp"",""ArrowRight""]","full practice","space","36","{""ArrowUp,ArrowLeft"":3,""ArrowUp,ArrowRight"":36,""ArrowDown,ArrowLeft"":15,""ArrowDown,ArrowRight"":23}","true","ArrowUp,ArrowRight","false","","","","","","","",""
"html-keyboard-response","40","242979","0.0-3.0-8.0-1.0","spark_pilot_2","7306","8","11","Female","","","","","","","null","<div style=""font-size:60px;"">+</div>","null","fixation","","","","","","","","","","","","","",""
"revaluation","41","249040","0.0-3.0-8.0-0.1","spark_pilot_2","7306","8","11","Female","","false","","","","","[1242.3999999761581,832.6999999880791]","./assets/img/space/7.jpg","[""ArrowDown"",""ArrowLeft""]","full practice","space","15","{""ArrowUp,ArrowLeft"":3,""ArrowUp,ArrowRight"":36,""ArrowDown,ArrowLeft"":15,""ArrowDown,ArrowRight"":23}","false","ArrowDown,ArrowLeft","false","","","","","","","",""
"html-keyboard-response","42","249559","0.0-3.0-8.0-1.1","spark_pilot_2","7306","8","11","Female","","","","","","","null","<div style=""font-size:60px;"">+</div>","null","fixation","","","","","","","","","","","","","",""
"revaluation","43","255600","0.0-3.0-8.0-0.2","spark_pilot_2","7306","8","11","Female","","false","","","","","[740.9000000357628,740.8000000119209]","./assets/img/space/8.jpg","[""ArrowUp"",""ArrowRight""]","full practice","space","36","{""ArrowUp,ArrowLeft"":3,""ArrowUp,ArrowRight"":36,""ArrowDown,ArrowLeft"":15,""ArrowDown,ArrowRight"":23}","true","ArrowUp,ArrowRight","false","","","","","","","",""
"html-keyboard-response","44","256120","0.0-3.0-8.0-1.2","spark_pilot_2","7306","8","11","Female","","","","","","","null","<div style=""font-size:60px;"">+</div>","null","fixation","","","","","","","","","","","","","",""
"revaluation","45","262180","0.0-3.0-8.0-0.3","spark_pilot_2","7306","8","11","Female","","false","","","","","[717,1260.6000000238419]","./assets/img/space/9.jpg","[""ArrowDown"",""ArrowRight""]","full practice","space","23","{""ArrowUp,ArrowLeft"":3,""ArrowUp,ArrowRight"":36,""ArrowDown,ArrowLeft"":15,""ArrowDown,ArrowRight"":23}","false","ArrowDown,ArrowRight","false","","","","","","","",""
"html-keyboard-response","46","262700","0.0-3.0-8.0-1.3","spark_pilot_2","7306","8","11","Female","","","","","","","null","<div style=""font-size:60px;"">+</div>","null","fixation","","","","","","","","","","","","","",""
"revaluation","47","268707","0.0-3.0-8.0-0.4","spark_pilot_2","7306","8","11","Female","","false","","","","","[793.3000000119209,1015.1000000238419]","./assets/img/space/10.jpg","[""ArrowUp"",""ArrowRight""]","full practice","space","36","{""ArrowUp,ArrowLeft"":3,""ArrowUp,ArrowRight"":36,""ArrowDown,ArrowLeft"":15,""ArrowDown,ArrowRight"":23}","true","ArrowUp,ArrowRight","false","","","","","","","",""
"html-keyboard-response","48","269209","0.0-3.0-8.0-1.4","spark_pilot_2","7306","8","11","Female","","","","","","","null","<div style=""font-size:60px;"">+</div>","null","fixation","","","","","","","","","","","","","",""
"learning-instructions","49","281650","0.0-3.0-9.0-0.0","spark_pilot_2","7306","8","11","Female","","","","","","","2150.5","<p> One last thing: sometimes, you will see a robber. The robber can be anywhere in the picture. </p>
            <p> If you do not stop them, you will lose treasure. </p>
            <img src='./assets/img/instructions/robber.jpg' class='instructions-image'>","","instructions","","","","","","","","","","","","","",""
"learning-instructions","50","290178","0.0-3.0-9.0-0.1","spark_pilot_2","7306","8","11","Female","","","","","","","1378.699999988079","<p> If you see the robber, you should <b>press the space bar</b> rather than using the arrow keys. </p>
            <p> Try practicing that now! </p>","","instructions","","","","","","","","","","","","","",""
"revaluation","51","294193","0.0-3.0-10.0-0.0","spark_pilot_2","7306","8","11","Female","","false","","","","","[1039]","./assets/img/space/catch/0.jpg","[""spaceBar""]","catch practice","space","0","{""ArrowUp,ArrowLeft"":3,""ArrowUp,ArrowRight"":36,""ArrowDown,ArrowLeft"":15,""ArrowDown,ArrowRight"":23}","true","spaceBar","true","","","","","","","",""
"html-keyboard-response","52","294713","0.0-3.0-10.0-1.0","spark_pilot_2","7306","8","11","Female","","","","","","","null","<div style=""font-size:60px;"">+</div>","null","fixation","","","","","","","","","","","","","",""
"revaluation","53","298743","0.0-3.0-10.0-0.1","spark_pilot_2","7306","8","11","Female","","false","","","","","[909.2999999523163]","./assets/img/space/catch/1.jpg","[""spaceBar""]","catch practice","space","0","{""ArrowUp,ArrowLeft"":3,""ArrowUp,ArrowRight"":36,""ArrowDown,ArrowLeft"":15,""ArrowDown,ArrowRight"":23}","true","spaceBar","true","","","","","","","",""
"html-keyboard-response","54","299253","0.0-3.0-10.0-1.1","spark_pilot_2","7306","8","11","Female","","","","","","","null","<div style=""font-size:60px;"">+</div>","null","fixation","","","","","","","","","","","","","",""
"revaluation","55","303294","0.0-3.0-10.0-0.2","spark_pilot_2","7306","8","11","Female","","false","","","","","[633.0999999642372]","./assets/img/space/catch/2.jpg","[""spaceBar""]","catch practice","space","0","{""ArrowUp,ArrowLeft"":3,""ArrowUp,ArrowRight"":36,""ArrowDown,ArrowLeft"":15,""ArrowDown,ArrowRight"":23}","true","spaceBar","true","","","","","","","",""
"html-keyboard-response","56","303804","0.0-3.0-10.0-1.2","spark_pilot_2","7306","8","11","Female","","","","","","","null","<div style=""font-size:60px;"">+</div>","null","fixation","","","","","","","","","","","","","",""
"learning-instructions","57","319708","0.0-3.0-11.0-0.0","spark_pilot_2","7306","8","11","Female","","","","","","","2316.300000011921","<p> After you explore a place to find treasure, it will be time to play a different game. </p>
            <p> During this game, red dots will appear on the screen and fall down slowly. </p>
            <p><b> You must click on them before they reach the bottom. </b></p>
            <img src='./assets/img/instructions/dotGame.jpg' class='instructions-image'>","","instructions","","","","","","","","","","","","","",""
"learning-instructions","58","326532","0.0-3.0-11.0-0.1","spark_pilot_2","7306","8","11","Female","","","","","","","1150.699999988079","<p> For every dot you click, you will earn additional treasure. </p>
            <p> Let’s try practicing that now. </p>","","instructions","","","","","","","","","","","","","",""
"revaluation","59","341548","0.0-3.0-12.0-0.0","spark_pilot_2","7306","8","11","Female","","","","","","","[115]","","","rest practice","","10","","","","","0","15000","","","","","",""
"learning-instructions","60","348229","0.0-3.0-13.0-0.0-0.0","spark_pilot_2","7306","8","11","Female","","","","","","","1436.699999988079","<p> Now, you will practice a shortened version of the game to get a sense of how it all fits together. </p>","","instructions","","","","","","","","","","","","","",""
"learning-instructions","61","352397","0.0-3.0-13.0-0.0-0.1","spark_pilot_2","7306","8","11","Female","","","","","","","994.7000000476837","<p>This time you are searching for treasure in outer space.</p>","","instructions","","","","","","","","","","","","","",""
"learning-instructions","62","371061","0.0-3.0-13.0-1.0-0.0","spark_pilot_2","7306","8","11","Female","","","","","","","3908.699999988079","<p> Remember, when you see a picture of the place, use the up and down keys to <b>find an animal</b>.</p>
            <p> When you encounter an animal, you should use the left and right keys to <b>select a treasure chest</b>.</p>
            <p> Don't forget to look out for the robber! </p>","","instructions","","","","","","","","","","","","","",""
"revaluation","63","377097","0.0-3.0-13.0-2.0-0.0","spark_pilot_2","7306","8","11","Female","","false","","","","","[678.5,583.4000000357628]","./assets/img/space/11.jpg","[""ArrowUp"",""ArrowRight""]","practice block","space","36","{""ArrowUp,ArrowLeft"":3,""ArrowUp,ArrowRight"":36,""ArrowDown,ArrowLeft"":15,""ArrowDown,ArrowRight"":23}","true","ArrowUp,ArrowRight","false","","","","","","","",""
"html-keyboard-response","64","377616","0.0-3.0-13.0-2.0-1.0","spark_pilot_2","7306","8","11","Female","","","","","","","null","<div style=""font-size:60px;"">+</div>","null","fixation","","","","","","","","","","","","","",""
"revaluation","65","383637","0.0-3.0-13.0-2.0-0.1","spark_pilot_2","7306","8","11","Female","","false","","","","","[656.6999999880791,946.3999999761581]","./assets/img/space/12.jpg","[""ArrowDown"",""ArrowLeft""]","practice block","space","15","{""ArrowUp,ArrowLeft"":3,""ArrowUp,ArrowRight"":36,""ArrowDown,ArrowLeft"":15,""ArrowDown,ArrowRight"":23}","false","ArrowDown,ArrowLeft","false","","","","","","","",""
"html-keyboard-response","66","384156","0.0-3.0-13.0-2.0-1.1","spark_pilot_2","7306","8","11","Female","","","","","","","null","<div style=""font-size:60px;"">+</div>","null","fixation","","","","","","","","","","","","","",""
"revaluation","67","390207","0.0-3.0-13.0-2.0-0.2","spark_pilot_2","7306","8","11","Female","","false","","","","","[1182.199999988079,925]","./assets/img/space/13.jpg","[""ArrowDown"",""ArrowRight""]","practice block","space","23","{""ArrowUp,ArrowLeft"":3,""ArrowUp,ArrowRight"":36,""ArrowDown,ArrowLeft"":15,""ArrowDown,ArrowRight"":23}","false","ArrowDown,ArrowRight","false","","","","","","","",""
"html-keyboard-response","68","390727","0.0-3.0-13.0-2.0-1.2","spark_pilot_2","7306","8","11","Female","","","","","","","null","<div style=""font-size:60px;"">+</div>","null","fixation","","","","","","","","","","","","","",""
"revaluation","69","396767","0.0-3.0-13.0-2.0-0.3","spark_pilot_2","7306","8","11","Female","","false","","","","","[730.3999999761581,698.4000000357628]","./assets/img/space/14.jpg","[""ArrowUp"",""ArrowRight""]","practice block","space","36","{""ArrowUp,ArrowLeft"":3,""ArrowUp,ArrowRight"":36,""ArrowDown,ArrowLeft"":15,""ArrowDown,ArrowRight"":23}","true","ArrowUp,ArrowRight","false","","","","","","","",""
"html-keyboard-response","70","397274","0.0-3.0-13.0-2.0-1.3","spark_pilot_2","7306","8","11","Female","","","","","","","null","<div style=""font-size:60px;"">+</div>","null","fixation","","","","","","","","","","","","","",""
"revaluation","71","403282","0.0-3.0-13.0-2.0-0.4","spark_pilot_2","7306","8","11","Female","","false","","","","","[1037.300000011921,1421.300000011921]","./assets/img/space/11.jpg","[""ArrowUp"",""ArrowRight""]","practice block","space","36","{""ArrowUp,ArrowLeft"":3,""ArrowUp,ArrowRight"":36,""ArrowDown,ArrowLeft"":15,""ArrowDown,ArrowRight"":23}","true","ArrowUp,ArrowRight","false","","","","","","","",""
"html-keyboard-response","72","403791","0.0-3.0-13.0-2.0-1.4","spark_pilot_2","7306","8","11","Female","","","","","","","null","<div style=""font-size:60px;"">+</div>","null","fixation","","","","","","","","","","","","","",""
"revaluation","73","409799","0.0-3.0-13.0-2.0-0.5","spark_pilot_2","7306","8","11","Female","","false","","","","","[674.3000000119209,489.19999998807907]","./assets/img/space/12.jpg","[""ArrowUp"",""ArrowRight""]","practice block","space","36","{""ArrowUp,ArrowLeft"":3,""ArrowUp,ArrowRight"":36,""ArrowDown,ArrowLeft"":15,""ArrowDown,ArrowRight"":23}","true","ArrowUp,ArrowRight","false","","","","","","","",""
"html-keyboard-response","74","410301","0.0-3.0-13.0-2.0-1.5","spark_pilot_2","7306","8","11","Female","","","","","","","null","<div style=""font-size:60px;"">+</div>","null","fixation","","","","","","","","","","","","","",""
"revaluation","75","416313","0.0-3.0-13.0-2.0-0.6","spark_pilot_2","7306","8","11","Female","","false","","","","","[771.3999999761581,781.1999999880791]","./assets/img/space/13.jpg","[""ArrowUp"",""ArrowRight""]","practice block","space","36","{""ArrowUp,ArrowLeft"":3,""ArrowUp,ArrowRight"":36,""ArrowDown,ArrowLeft"":15,""ArrowDown,ArrowRight"":23}","true","ArrowUp,ArrowRight","false","","","","","","","",""
"html-keyboard-response","76","416815","0.0-3.0-13.0-2.0-1.6","spark_pilot_2","7306","8","11","Female","","","","","","","null","<div style=""font-size:60px;"">+</div>","null","fixation","","","","","","","","","","","","","",""
"revaluation","77","422822","0.0-3.0-13.0-2.0-0.7","spark_pilot_2","7306","8","11","Female","","false","","","","","[561.1999999880791,481.80000001192093]","./assets/img/space/14.jpg","[""ArrowUp"",""ArrowRight""]","practice block","space","36","{""ArrowUp,ArrowLeft"":3,""ArrowUp,ArrowRight"":36,""ArrowDown,ArrowLeft"":15,""ArrowDown,ArrowRight"":23}","true","ArrowUp,ArrowRight","false","","","","","","","",""
"html-keyboard-response","78","423325","0.0-3.0-13.0-2.0-1.7","spark_pilot_2","7306","8","11","Female","","","","","","","null","<div style=""font-size:60px;"">+</div>","null","fixation","","","","","","","","","","","","","",""
"revaluation","79","427332","0.0-3.0-13.0-2.0-0.8","spark_pilot_2","7306","8","11","Female","","false","","","","","[685.1999999880791]","./assets/img/space/catch/3.jpg","[""ArrowUp""]","practice block","space","-10","{""ArrowUp,ArrowLeft"":3,""ArrowUp,ArrowRight"":36,""ArrowDown,ArrowLeft"":15,""ArrowDown,ArrowRight"":23}","false","ArrowUp","true","","","","","","","",""
"html-keyboard-response","80","427848","0.0-3.0-13.0-2.0-1.8","spark_pilot_2","7306","8","11","Female","","","","","","","null","<div style=""font-size:60px;"">+</div>","null","fixation","","","","","","","","","","","","","",""
"learning-instructions","81","443695","0.0-3.0-13.0-3.0-0.0","spark_pilot_2","7306","8","11","Female","","","","","","","2933.599999964237","<p> Now, you will travel with a friend who will choose whether you go up or down first. </p>
            <p> On these turns, you will just see the animal that they found. You will still get to choose which chest to search for treasure.</p>","","instructions","","","","","","","","","","","","","",""
"revaluation","82","447726","0.0-3.0-13.0-4.0-0.0","spark_pilot_2","7306","8","11","Female","","false","","","","","[1110.7000000476837]","./assets/img/space/animals/rabbit.jpg","[""ArrowRight""]","practice block","space","23","{""ArrowUp,ArrowLeft"":3,""ArrowUp,ArrowRight"":36,""ArrowDown,ArrowLeft"":15,""ArrowDown,ArrowRight"":23}","true","ArrowDown,ArrowRight","","","","","","","","",""
"html-keyboard-response","83","448246","0.0-3.0-13.0-4.0-1.0","spark_pilot_2","7306","8","11","Female","","","","","","","null","<div style=""font-size:60px;"">+</div>","null","fixation","","","","","","","","","","","","","",""
"revaluation","84","452286","0.0-3.0-13.0-4.0-0.1","spark_pilot_2","7306","8","11","Female","","false","","","","","[621.5]","./assets/img/space/animals/cat.jpg","[""ArrowRight""]","practice block","space","36","{""ArrowUp,ArrowLeft"":3,""ArrowUp,ArrowRight"":36,""ArrowDown,ArrowLeft"":15,""ArrowDown,ArrowRight"":23}","true","ArrowUp,ArrowRight","","","","","","","","",""
"html-keyboard-response","85","452806","0.0-3.0-13.0-4.0-1.1","spark_pilot_2","7306","8","11","Female","","","","","","","null","<div style=""font-size:60px;"">+</div>","null","fixation","","","","","","","","","","","","","",""
"revaluation","86","456846","0.0-3.0-13.0-4.0-0.2","spark_pilot_2","7306","8","11","Female","","false","","","","","[677.3000000119209]","./assets/img/space/animals/cat.jpg","[""ArrowRight""]","practice block","space","36","{""ArrowUp,ArrowLeft"":3,""ArrowUp,ArrowRight"":36,""ArrowDown,ArrowLeft"":15,""ArrowDown,ArrowRight"":23}","true","ArrowUp,ArrowRight","","","","","","","","",""
"html-keyboard-response","87","457366","0.0-3.0-13.0-4.0-1.2","spark_pilot_2","7306","8","11","Female","","","","","","","null","<div style=""font-size:60px;"">+</div>","null","fixation","","","","","","","","","","","","","",""
"revaluation","88","461387","0.0-3.0-13.0-4.0-0.3","spark_pilot_2","7306","8","11","Female","","false","","","","","[580.7000000476837]","./assets/img/space/animals/rabbit.jpg","[""ArrowRight""]","practice block","space","23","{""ArrowUp,ArrowLeft"":3,""ArrowUp,ArrowRight"":36,""ArrowDown,ArrowLeft"":15,""ArrowDown,ArrowRight"":23}","true","ArrowDown,ArrowRight","","","","","","","","",""
"html-keyboard-response","89","461906","0.0-3.0-13.0-4.0-1.3","spark_pilot_2","7306","8","11","Female","","","","","","","null","<div style=""font-size:60px;"">+</div>","null","fixation","","","","","","","","","","","","","",""
"learning-instructions","90","470312","0.0-3.0-13.0-5.0-0.0","spark_pilot_2","7306","8","11","Female","","","","","","","1039.699999988079","<p> Time to play the dot game! </p>
            <p> For 15 seconds, click the red dots on the following screen as they appear. </p>","","instructions","","","","","","","","","","","","","",""
"revaluation","91","485327","0.0-3.0-13.0-6.0-0.0","spark_pilot_2","7306","8","11","Female","","","","","","","[115]","","","rest practice","","10","","","","","0","15000","","","","","",""
"learning-instructions","92","493113","0.0-3.0-13.0-7.0-0.0","spark_pilot_2","7306","8","11","Female","","","","","","","1660.0999999642372","<p> You have almost finished this part of the game! </p>
            <p> We are going to ask you to make a few more choices. </p>","","instructions","","","","","","","","","","","","","",""
"learning-instructions","93","515994","0.0-3.0-13.0-7.0-0.1","spark_pilot_2","7306","8","11","Female","","","","","","","8879.900000035763","<p> First, you need to decide whether to go up or down. When you see each picture, use the arrow keys to make your choice. </p>
            <p><b>You will not see which animal you found, but try to get to the one that will give you the most treasure.</b></p>","","instructions","","","","","","","","","","","","","",""
"revaluation","94","516554","0.0-3.0-13.0-8.0","spark_pilot_2","7306","8","11","Female","","false","","","","","[558.6999999880791]","./assets/img/space/15.jpg","[""ArrowUp""]","practice block","space","0","{""ArrowUp,ArrowLeft"":3,""ArrowUp,ArrowRight"":36,""ArrowDown,ArrowLeft"":15,""ArrowDown,ArrowRight"":23}","true","ArrowUp","false","","","","","","","",""
"html-keyboard-response","95","517068","0.0-3.0-13.0-9.0","spark_pilot_2","7306","8","11","Female","","","","","","","null","<div style=""font-size:60px;"">+</div>","null","fixation","","","","","","","","","","","","","",""
"learning-instructions","96","529915","0.0-3.0-13.0-10.0-0.0","spark_pilot_2","7306","8","11","Female","","","","","","","1469.6000000238419","<p> Now you will see the animals again and can search their chests for treasure. </p>
            <p> This time, you will not see how much treasure you earned, but you will earn more bonus money for making better choices. </p>","","instructions","","","","","","","","","","","","","",""
"revaluation","97","530795","0.0-3.0-13.0-11.0-0.0","spark_pilot_2","7306","8","11","Female","","false","","","","","[878.8999999761581]","./assets/img/space/animals/cat.jpg","[""ArrowRight""]","practice block","space","0","{""ArrowUp,ArrowLeft"":3,""ArrowUp,ArrowRight"":36,""ArrowDown,ArrowLeft"":15,""ArrowDown,ArrowRight"":23}","true","ArrowUp,ArrowRight","","","","","","","","",""
"html-keyboard-response","98","531299","0.0-3.0-13.0-11.0-1.0","spark_pilot_2","7306","8","11","Female","","","","","","","null","<div style=""font-size:60px;"">+</div>","null","fixation","","","","","","","","","","","","","",""
"revaluation","99","532058","0.0-3.0-13.0-11.0-0.1","spark_pilot_2","7306","8","11","Female","","false","","","","","[755.5]","./assets/img/space/animals/rabbit.jpg","[""ArrowRight""]","practice block","space","0","{""ArrowUp,ArrowLeft"":3,""ArrowUp,ArrowRight"":36,""ArrowDown,ArrowLeft"":15,""ArrowDown,ArrowRight"":23}","true","ArrowDown,ArrowRight","","","","","","","","",""
"html-keyboard-response","100","532579","0.0-3.0-13.0-11.0-1.1","spark_pilot_2","7306","8","11","Female","","","","","","","null","<div style=""font-size:60px;"">+</div>","null","fixation","","","","","","","","","","","","","",""
"learning-instructions","101","538403","0.0-3.0-14.0-0.0","spark_pilot_2","7306","8","11","Female","","","","","","","1247.6000000238419","<p> Before you start, we're going to ask you a few questions about how the game works. </p>","","instructions","","","","","","","","","","","","","",""
"comp-q","102","545427","0.0-3.0-15.0-0.0-0.0","spark_pilot_2","7306","8","11","Female","","","","","","","1446.5999999642372","<p> <b> True or False? </b> </p>
            <p> There can be 50 pieces of treasure in a given animal's chest. </p>","1","comp_question","","","","true","","","","","","","","","",""
"comp-q","103","554348","0.0-3.0-15.0-0.0-1.0","spark_pilot_2","7306","8","11","Female","","","","","","","2271.900000035763","<p> <b> That's right! </b> The amount of treasure in each chest can range from 0 to 40 pieces. </p>","0","comp_answer","","","","","","","","","","","","","",""
"comp-q","104","562748","0.0-3.0-15.0-0.1-0.1","spark_pilot_2","7306","8","11","Female","","","","","","","1301.4000000357628","<p> <b> True or False? </b> </p><p> In this game, all animals have the same amount of treasure in their left and right chests. </p>","1","comp_question","","","","true","","","","","","","","","",""
"comp-q","105","569420","0.0-3.0-15.0-0.1-1.1","spark_pilot_2","7306","8","11","Female","","","","","","","1453.7999999523163","<p> <b> That's right! </b> Animals have different amounts of treasure in their treasure chests. </p>","0","comp_answer","","","","","","","","","","","","","",""
"comp-q","106","576220","0.0-3.0-15.0-0.2-0.2","spark_pilot_2","7306","8","11","Female","","","","","","","973.5","<p> <b> True or False? </b> </p><p> The same animal will always be there if you go up in the same place. </p>","0","comp_question","","","","true","","","","","","","","","",""
"comp-q","107","583629","0.0-3.0-15.0-0.2-1.2","spark_pilot_2","7306","8","11","Female","","","","","","","981.4000000357628","<p> <b> That's right! </b> One animal lives in the upper part and one lives in the lower part of every place. </p>","0","comp_answer","","","","","","","","","","","","","",""
"comp-q","108","590765","0.0-3.0-15.0-0.3-0.3","spark_pilot_2","7306","8","11","Female","","","","","","","1627.800000011921","<p> <b> True or False? </b> </p><p> If you see a different picture, it means you are in a new place. </p>","0","comp_question","","","","false","","","","","","","","","",""
"comp-q","109","604037","0.0-3.0-15.0-0.3-1.3","spark_pilot_2","7306","8","11","Female","","","","","","","2189.600000023842","<p> <b>Incorrect.</b> Lots of different images may show the same place. For example,  you may see three different images that all remind you that you are in outer space. </p>","0","comp_answer","","","","","","","","","","","","","",""
"comp-q","110","610789","0.0-3.0-15.0-0.4-0.4","spark_pilot_2","7306","8","11","Female","","","","","","","1251.2000000476837","<p> <b> True or False? </b> </p><p> If you see a different picture, it means you are in a new place. </p>","1","comp_question","","","","true","","","","","","","","","",""
"comp-q","111","623382","0.0-3.0-15.0-0.4-1.4","spark_pilot_2","7306","8","11","Female","","","","","","","1343.3999999761581","<p> <b> That's right! </b> Lots of different images may show the same place. For example,  you may see three different images that all remind you that you are in outer space. </p>","0","comp_answer","","","","","","","","","","","","","",""
"learning-instructions","112","636334","0.0-3.0-16.0-0.0","spark_pilot_2","7306","8","11","Female","","","","","","","3115.400000035763","<p> Good job. Remember to do your best because the amount of treasure you earn will be converted into bonus money. </p>
            <p> It’s time to start the real game! </p>","","instructions","","","","","","","","","","","","","",""
"learning-instructions","113","639726","0.0-4.0-0.0-0.0","spark_pilot_2","7306","8","11","Female","","","","","","","627.2000000476837","<p> This time you are searching for treasure in the <b>canyon</b>.</p>","","instructions","","","","","","","","","","","","","",""
"learning-instructions","114","657863","0.0-4.0-0.0-0.1","spark_pilot_2","7306","8","11","Female","","","","","","","863.2999999523163","<p><b>New</b> animals with <b>new</b> treasure chests live here. You need to explore to discover where the animal with the best treasure chest is.</p>
                    <p> Like before, once you figure out which animal has the chest with the most treasure, you should try to get to that animal and select that chest! </p>","","instructions","","","","","","","","","","","","","",""
"learning-instructions","115","684024","0.0-4.0-1.0-0.0","spark_pilot_2","7306","8","11","Female","","","","","","","11424","<p> Remember, when you see a picture of the place, use the up and down keys to <b>find an animal</b>.</p>
            <p> When you encounter an animal, you should use the left and right keys to <b>select a treasure chest</b>.</p>
            <p> Don't forget to look out for the robber! </p>","","instructions","","","","","","","","","","","","","",""
"revaluation","116","688055","0.0-4.0-2.0-0.0","spark_pilot_2","7306","8","11","Female","","false","","","","","[566.4000000357628]","./assets/img/canyon/catch/3.jpg","[""ArrowUp""]","value training","canyon","-10","{""ArrowUp,ArrowLeft"":26,""ArrowUp,ArrowRight"":10,""ArrowDown,ArrowLeft"":5,""ArrowDown,ArrowRight"":17}","false","ArrowUp","true","","","revaluation","1","0","","",""
"html-keyboard-response","117","688574","0.0-4.0-2.0-1.0","spark_pilot_2","7306","8","11","Female","","","","","","","null","<div style=""font-size:60px;"">+</div>","null","fixation","","","","","","","","","","","1","","",""
"revaluation","118","694626","0.0-4.0-2.0-0.1","spark_pilot_2","7306","8","11","Female","","false","","","","","[1061.300000011921,652.6999999880791]","./assets/img/canyon/memory/30.jpg","[""ArrowDown"",""ArrowLeft""]","value training","canyon","5","{""ArrowUp,ArrowLeft"":26,""ArrowUp,ArrowRight"":10,""ArrowDown,ArrowLeft"":5,""ArrowDown,ArrowRight"":17}","false","ArrowDown,ArrowLeft","false","","","revaluation","1","2","","",""
"html-keyboard-response","119","695145","0.0-4.0-2.0-1.1","spark_pilot_2","7306","8","11","Female","","","","","","","null","<div style=""font-size:60px;"">+</div>","null","fixation","","","","","","","","","","","3","","",""
"revaluation","120","701206","0.0-4.0-2.0-0.2","spark_pilot_2","7306","8","11","Female","","false","","","","","[706.3999999761581,665.2000000476837]","./assets/img/canyon/memory/21.jpg","[""ArrowDown"",""ArrowRight""]","value training","canyon","17","{""ArrowUp,ArrowLeft"":26,""ArrowUp,ArrowRight"":10,""ArrowDown,ArrowLeft"":5,""ArrowDown,ArrowRight"":17}","false","ArrowDown,ArrowRight","false","","","revaluation","1","4","","",""
"html-keyboard-response","121","701725","0.0-4.0-2.0-1.2","spark_pilot_2","7306","8","11","Female","","","","","","","null","<div style=""font-size:60px;"">+</div>","null","fixation","","","","","","","","","","","5","","",""
"revaluation","122","707734","0.0-4.0-2.0-0.3","spark_pilot_2","7306","8","11","Female","","false","","","","","[759.2000000476837,1030.4000000357628]","./assets/img/canyon/memory/34.jpg","[""ArrowUp"",""ArrowRight""]","value training","canyon","10","{""ArrowUp,ArrowLeft"":26,""ArrowUp,ArrowRight"":10,""ArrowDown,ArrowLeft"":5,""ArrowDown,ArrowRight"":17}","false","ArrowUp,ArrowRight","false","","","revaluation","1","6","","",""
"html-keyboard-response","123","708236","0.0-4.0-2.0-1.3","spark_pilot_2","7306","8","11","Female","","","","","","","null","<div style=""font-size:60px;"">+</div>","null","fixation","","","","","","","","","","","7","","",""
"revaluation","124","714244","0.0-4.0-2.0-0.4","spark_pilot_2","7306","8","11","Female","","false","","","","","[776.5999999642372,549.2999999523163]","./assets/img/canyon/memory/27.jpg","[""ArrowUp"",""ArrowLeft""]","value training","canyon","26","{""ArrowUp,ArrowLeft"":26,""ArrowUp,ArrowRight"":10,""ArrowDown,ArrowLeft"":5,""ArrowDown,ArrowRight"":17}","true","ArrowUp,ArrowLeft","false","","","revaluation","1","8","","",""
"html-keyboard-response","125","714746","0.0-4.0-2.0-1.4","spark_pilot_2","7306","8","11","Female","","","","","","","null","<div style=""font-size:60px;"">+</div>","null","fixation","","","","","","","","","","","9","","",""
"revaluation","126","720755","0.0-4.0-2.0-0.5","spark_pilot_2","7306","8","11","Female","","false","","","","","[858.3999999761581,849.1000000238419]","./assets/img/canyon/memory/24.jpg","[""ArrowUp"",""ArrowLeft""]","value training","canyon","26","{""ArrowUp,ArrowLeft"":26,""ArrowUp,ArrowRight"":10,""ArrowDown,ArrowLeft"":5,""ArrowDown,ArrowRight"":17}","true","ArrowUp,ArrowLeft","false","","","revaluation","1","10","","",""
"html-keyboard-response","127","721256","0.0-4.0-2.0-1.5","spark_pilot_2","7306","8","11","Female","","","","","","","null","<div style=""font-size:60px;"">+</div>","null","fixation","","","","","","","","","","","11","","",""
"revaluation","128","727264","0.0-4.0-2.0-0.6","spark_pilot_2","7306","8","11","Female","","false","","","","","[675.3999999761581,491.80000001192093]","./assets/img/canyon/memory/29.jpg","[""ArrowUp"",""ArrowLeft""]","value training","canyon","26","{""ArrowUp,ArrowLeft"":26,""ArrowUp,ArrowRight"":10,""ArrowDown,ArrowLeft"":5,""ArrowDown,ArrowRight"":17}","true","ArrowUp,ArrowLeft","false","","","revaluation","1","12","","",""
"html-keyboard-response","129","727766","0.0-4.0-2.0-1.6","spark_pilot_2","7306","8","11","Female","","","","","","","null","<div style=""font-size:60px;"">+</div>","null","fixation","","","","","","","","","","","13","","",""
"revaluation","130","733774","0.0-4.0-2.0-0.7","spark_pilot_2","7306","8","11","Female","","false","","","","","[886.6000000238419,621.1000000238419]","./assets/img/canyon/memory/32.jpg","[""ArrowUp"",""ArrowLeft""]","value training","canyon","26","{""ArrowUp,ArrowLeft"":26,""ArrowUp,ArrowRight"":10,""ArrowDown,ArrowLeft"":5,""ArrowDown,ArrowRight"":17}","true","ArrowUp,ArrowLeft","false","","","revaluation","1","14","","",""
"html-keyboard-response","131","734275","0.0-4.0-2.0-1.7","spark_pilot_2","7306","8","11","Female","","","","","","","null","<div style=""font-size:60px;"">+</div>","null","fixation","","","","","","","","","","","15","","",""
"revaluation","132","740282","0.0-4.0-2.0-0.8","spark_pilot_2","7306","8","11","Female","","false","","","","","[745.4000000357628,472.5999999642372]","./assets/img/canyon/memory/3.jpg","[""ArrowUp"",""ArrowLeft""]","value training","canyon","26","{""ArrowUp,ArrowLeft"":26,""ArrowUp,ArrowRight"":10,""ArrowDown,ArrowLeft"":5,""ArrowDown,ArrowRight"":17}","true","ArrowUp,ArrowLeft","false","","","revaluation","1","16","","",""
"html-keyboard-response","133","740784","0.0-4.0-2.0-1.8","spark_pilot_2","7306","8","11","Female","","","","","","","null","<div style=""font-size:60px;"">+</div>","null","fixation","","","","","","","","","","","17","","",""
"revaluation","134","746791","0.0-4.0-2.0-0.9","spark_pilot_2","7306","8","11","Female","","false","","","","","[645.6999999880791,739.8000000119209]","./assets/img/canyon/memory/21.jpg","[""ArrowUp"",""ArrowLeft""]","value training","canyon","26","{""ArrowUp,ArrowLeft"":26,""ArrowUp,ArrowRight"":10,""ArrowDown,ArrowLeft"":5,""ArrowDown,ArrowRight"":17}","true","ArrowUp,ArrowLeft","false","","","revaluation","1","18","","",""
"html-keyboard-response","135","747293","0.0-4.0-2.0-1.9","spark_pilot_2","7306","8","11","Female","","","","","","","null","<div style=""font-size:60px;"">+</div>","null","fixation","","","","","","","","","","","19","","",""
"revaluation","136","753299","0.0-4.0-2.0-0.10","spark_pilot_2","7306","8","11","Female","","false","","","","","[792.5999999642372,631.3999999761581]","./assets/img/canyon/memory/9.jpg","[""ArrowUp"",""ArrowLeft""]","value training","canyon","26","{""ArrowUp,ArrowLeft"":26,""ArrowUp,ArrowRight"":10,""ArrowDown,ArrowLeft"":5,""ArrowDown,ArrowRight"":17}","true","ArrowUp,ArrowLeft","false","","","revaluation","1","20","","",""
"html-keyboard-response","137","753812","0.0-4.0-2.0-1.10","spark_pilot_2","7306","8","11","Female","","","","","","","null","<div style=""font-size:60px;"">+</div>","null","fixation","","","","","","","","","","","21","","",""
"revaluation","138","759820","0.0-4.0-2.0-0.11","spark_pilot_2","7306","8","11","Female","","false","","","","","[649.5,688.2999999523163]","./assets/img/canyon/memory/2.jpg","[""ArrowUp"",""ArrowLeft""]","value training","canyon","26","{""ArrowUp,ArrowLeft"":26,""ArrowUp,ArrowRight"":10,""ArrowDown,ArrowLeft"":5,""ArrowDown,ArrowRight"":17}","true","ArrowUp,ArrowLeft","false","","","revaluation","1","22","","",""
"html-keyboard-response","139","760323","0.0-4.0-2.0-1.11","spark_pilot_2","7306","8","11","Female","","","","","","","null","<div style=""font-size:60px;"">+</div>","null","fixation","","","","","","","","","","","23","","",""
"revaluation","140","764328","0.0-4.0-2.0-0.12","spark_pilot_2","7306","8","11","Female","","false","","","","","[763.5999999642372]","./assets/img/canyon/catch/2.jpg","[""spaceBar""]","value training","canyon","0","{""ArrowUp,ArrowLeft"":26,""ArrowUp,ArrowRight"":10,""ArrowDown,ArrowLeft"":5,""ArrowDown,ArrowRight"":17}","true","spaceBar","true","","","revaluation","1","24","","",""
"html-keyboard-response","141","764830","0.0-4.0-2.0-1.12","spark_pilot_2","7306","8","11","Female","","","","","","","null","<div style=""font-size:60px;"">+</div>","null","fixation","","","","","","","","","","","25","","",""
"revaluation","142","770837","0.0-4.0-2.0-0.13","spark_pilot_2","7306","8","11","Female","","false","","","","","[687.6999999880791,758.3000000119209]","./assets/img/canyon/memory/4.jpg","[""ArrowUp"",""ArrowLeft""]","value training","canyon","26","{""ArrowUp,ArrowLeft"":26,""ArrowUp,ArrowRight"":10,""ArrowDown,ArrowLeft"":5,""ArrowDown,ArrowRight"":17}","true","ArrowUp,ArrowLeft","false","","","revaluation","1","26","","",""
"html-keyboard-response","143","771340","0.0-4.0-2.0-1.13","spark_pilot_2","7306","8","11","Female","","","","","","","null","<div style=""font-size:60px;"">+</div>","null","fixation","","","","","","","","","","","27","","",""
"revaluation","144","777347","0.0-4.0-2.0-0.14","spark_pilot_2","7306","8","11","Female","","false","","","","","[778.6000000238419,889]","./assets/img/canyon/memory/1.jpg","[""ArrowUp"",""ArrowLeft""]","value training","canyon","26","{""ArrowUp,ArrowLeft"":26,""ArrowUp,ArrowRight"":10,""ArrowDown,ArrowLeft"":5,""ArrowDown,ArrowRight"":17}","true","ArrowUp,ArrowLeft","false","","","revaluation","1","28","","",""
"html-keyboard-response","145","777849","0.0-4.0-2.0-1.14","spark_pilot_2","7306","8","11","Female","","","","","","","null","<div style=""font-size:60px;"">+</div>","null","fixation","","","","","","","","","","","29","","",""
"revaluation","146","783864","0.0-4.0-2.0-0.15","spark_pilot_2","7306","8","11","Female","","false","","","","","[613.9000000357628,588.8000000119209]","./assets/img/canyon/memory/31.jpg","[""ArrowUp"",""ArrowLeft""]","value training","canyon","26","{""ArrowUp,ArrowLeft"":26,""ArrowUp,ArrowRight"":10,""ArrowDown,ArrowLeft"":5,""ArrowDown,ArrowRight"":17}","true","ArrowUp,ArrowLeft","false","","","revaluation","1","30","","",""
"html-keyboard-response","147","784366","0.0-4.0-2.0-1.15","spark_pilot_2","7306","8","11","Female","","","","","","","null","<div style=""font-size:60px;"">+</div>","null","fixation","","","","","","","","","","","31","","",""
"revaluation","148","788372","0.0-4.0-2.0-0.16","spark_pilot_2","7306","8","11","Female","","false","","","","","[801.1999999880791]","./assets/img/canyon/catch/5.jpg","[""spaceBar""]","value training","canyon","0","{""ArrowUp,ArrowLeft"":26,""ArrowUp,ArrowRight"":10,""ArrowDown,ArrowLeft"":5,""ArrowDown,ArrowRight"":17}","true","spaceBar","true","","","revaluation","1","32","","",""
"html-keyboard-response","149","788874","0.0-4.0-2.0-1.16","spark_pilot_2","7306","8","11","Female","","","","","","","null","<div style=""font-size:60px;"">+</div>","null","fixation","","","","","","","","","","","33","","",""
"revaluation","150","794881","0.0-4.0-2.0-0.17","spark_pilot_2","7306","8","11","Female","","false","","","","","[613.0999999642372,706.6999999880791]","./assets/img/canyon/memory/27.jpg","[""ArrowUp"",""ArrowLeft""]","value training","canyon","26","{""ArrowUp,ArrowLeft"":26,""ArrowUp,ArrowRight"":10,""ArrowDown,ArrowLeft"":5,""ArrowDown,ArrowRight"":17}","true","ArrowUp,ArrowLeft","false","","","revaluation","1","34","","",""
"html-keyboard-response","151","795383","0.0-4.0-2.0-1.17","spark_pilot_2","7306","8","11","Female","","","","","","","null","<div style=""font-size:60px;"">+</div>","null","fixation","","","","","","","","","","","35","","",""
"revaluation","152","801390","0.0-4.0-2.0-0.18","spark_pilot_2","7306","8","11","Female","","false","","","","","[687.5999999642372,629.5]","./assets/img/canyon/memory/29.jpg","[""ArrowUp"",""ArrowLeft""]","value training","canyon","26","{""ArrowUp,ArrowLeft"":26,""ArrowUp,ArrowRight"":10,""ArrowDown,ArrowLeft"":5,""ArrowDown,ArrowRight"":17}","true","ArrowUp,ArrowLeft","false","","","revaluation","1","36","","",""
"html-keyboard-response","153","801904","0.0-4.0-2.0-1.18","spark_pilot_2","7306","8","11","Female","","","","","","","null","<div style=""font-size:60px;"">+</div>","null","fixation","","","","","","","","","","","37","","",""
"revaluation","154","807910","0.0-4.0-2.0-0.19","spark_pilot_2","7306","8","11","Female","","false","","","","","[887,772.7000000476837]","./assets/img/canyon/memory/37.jpg","[""ArrowUp"",""ArrowLeft""]","value training","canyon","26","{""ArrowUp,ArrowLeft"":26,""ArrowUp,ArrowRight"":10,""ArrowDown,ArrowLeft"":5,""ArrowDown,ArrowRight"":17}","true","ArrowUp,ArrowLeft","false","","","revaluation","1","38","","",""
"html-keyboard-response","155","808415","0.0-4.0-2.0-1.19","spark_pilot_2","7306","8","11","Female","","","","","","","null","<div style=""font-size:60px;"">+</div>","null","fixation","","","","","","","","","","","39","","",""
"revaluation","156","814422","0.0-4.0-2.0-0.20","spark_pilot_2","7306","8","11","Female","","false","","","","","[872.8000000119209,744]","./assets/img/canyon/memory/18.jpg","[""ArrowUp"",""ArrowLeft""]","value training","canyon","26","{""ArrowUp,ArrowLeft"":26,""ArrowUp,ArrowRight"":10,""ArrowDown,ArrowLeft"":5,""ArrowDown,ArrowRight"":17}","true","ArrowUp,ArrowLeft","false","","","revaluation","1","40","","",""
"html-keyboard-response","157","814924","0.0-4.0-2.0-1.20","spark_pilot_2","7306","8","11","Female","","","","","","","null","<div style=""font-size:60px;"">+</div>","null","fixation","","","","","","","","","","","41","","",""
"revaluation","158","818928","0.0-4.0-2.0-0.21","spark_pilot_2","7306","8","11","Female","","false","","","","","[742]","./assets/img/canyon/catch/0.jpg","[""spaceBar""]","value training","canyon","0","{""ArrowUp,ArrowLeft"":26,""ArrowUp,ArrowRight"":10,""ArrowDown,ArrowLeft"":5,""ArrowDown,ArrowRight"":17}","true","spaceBar","true","","","revaluation","1","42","","",""
"html-keyboard-response","159","819429","0.0-4.0-2.0-1.21","spark_pilot_2","7306","8","11","Female","","","","","","","null","<div style=""font-size:60px;"">+</div>","null","fixation","","","","","","","","","","","43","","",""
"revaluation","160","825437","0.0-4.0-2.0-0.22","spark_pilot_2","7306","8","11","Female","","false","","","","","[618,936.9000000357628]","./assets/img/canyon/memory/24.jpg","[""ArrowUp"",""ArrowLeft""]","value training","canyon","26","{""ArrowUp,ArrowLeft"":26,""ArrowUp,ArrowRight"":10,""ArrowDown,ArrowLeft"":5,""ArrowDown,ArrowRight"":17}","true","ArrowUp,ArrowLeft","false","","","revaluation","1","44","","",""
"html-keyboard-response","161","825940","0.0-4.0-2.0-1.22","spark_pilot_2","7306","8","11","Female","","","","","","","null","<div style=""font-size:60px;"">+</div>","null","fixation","","","","","","","","","","","45","","",""
"revaluation","162","831946","0.0-4.0-2.0-0.23","spark_pilot_2","7306","8","11","Female","","false","","","","","[742.5,556.3999999761581]","./assets/img/canyon/memory/31.jpg","[""ArrowUp"",""ArrowLeft""]","value training","canyon","26","{""ArrowUp,ArrowLeft"":26,""ArrowUp,ArrowRight"":10,""ArrowDown,ArrowLeft"":5,""ArrowDown,ArrowRight"":17}","true","ArrowUp,ArrowLeft","false","","","revaluation","1","46","","",""
"html-keyboard-response","163","832448","0.0-4.0-2.0-1.23","spark_pilot_2","7306","8","11","Female","","","","","","","null","<div style=""font-size:60px;"">+</div>","null","fixation","","","","","","","","","","","47","","",""
"revaluation","164","838456","0.0-4.0-2.0-0.24","spark_pilot_2","7306","8","11","Female","","false","","","","","[590.6000000238419,605.1999999880791]","./assets/img/canyon/memory/15.jpg","[""ArrowUp"",""ArrowLeft""]","value training","canyon","26","{""ArrowUp,ArrowLeft"":26,""ArrowUp,ArrowRight"":10,""ArrowDown,ArrowLeft"":5,""ArrowDown,ArrowRight"":17}","true","ArrowUp,ArrowLeft","false","","","revaluation","1","48","","",""
"html-keyboard-response","165","838959","0.0-4.0-2.0-1.24","spark_pilot_2","7306","8","11","Female","","","","","","","null","<div style=""font-size:60px;"">+</div>","null","fixation","","","","","","","","","","","49","","",""
"revaluation","166","844972","0.0-4.0-2.0-0.25","spark_pilot_2","7306","8","11","Female","","false","","","","","[778.0999999642372,594.1000000238419]","./assets/img/canyon/memory/40.jpg","[""ArrowUp"",""ArrowLeft""]","value training","canyon","26","{""ArrowUp,ArrowLeft"":26,""ArrowUp,ArrowRight"":10,""ArrowDown,ArrowLeft"":5,""ArrowDown,ArrowRight"":17}","true","ArrowUp,ArrowLeft","false","","","revaluation","1","50","","",""
"html-keyboard-response","167","845473","0.0-4.0-2.0-1.25","spark_pilot_2","7306","8","11","Female","","","","","","","null","<div style=""font-size:60px;"">+</div>","null","fixation","","","","","","","","","","","51","","",""
"revaluation","168","849478","0.0-4.0-2.0-0.26","spark_pilot_2","7306","8","11","Female","","false","","","","","[970.1000000238419]","./assets/img/canyon/catch/1.jpg","[""spaceBar""]","value training","canyon","0","{""ArrowUp,ArrowLeft"":26,""ArrowUp,ArrowRight"":10,""ArrowDown,ArrowLeft"":5,""ArrowDown,ArrowRight"":17}","true","spaceBar","true","","","revaluation","1","52","","",""
"html-keyboard-response","169","849981","0.0-4.0-2.0-1.26","spark_pilot_2","7306","8","11","Female","","","","","","","null","<div style=""font-size:60px;"">+</div>","null","fixation","","","","","","","","","","","53","","",""
"revaluation","170","855989","0.0-4.0-2.0-0.27","spark_pilot_2","7306","8","11","Female","","false","","","","","[563.5,618.3999999761581]","./assets/img/canyon/memory/2.jpg","[""ArrowUp"",""ArrowLeft""]","value training","canyon","26","{""ArrowUp,ArrowLeft"":26,""ArrowUp,ArrowRight"":10,""ArrowDown,ArrowLeft"":5,""ArrowDown,ArrowRight"":17}","true","ArrowUp,ArrowLeft","false","","","revaluation","1","54","","",""
"html-keyboard-response","171","856491","0.0-4.0-2.0-1.27","spark_pilot_2","7306","8","11","Female","","","","","","","null","<div style=""font-size:60px;"">+</div>","null","fixation","","","","","","","","","","","55","","",""
"revaluation","172","862498","0.0-4.0-2.0-0.28","spark_pilot_2","7306","8","11","Female","","false","","","","","[750.1999999880791,651.6999999880791]","./assets/img/canyon/memory/11.jpg","[""ArrowUp"",""ArrowLeft""]","value training","canyon","26","{""ArrowUp,ArrowLeft"":26,""ArrowUp,ArrowRight"":10,""ArrowDown,ArrowLeft"":5,""ArrowDown,ArrowRight"":17}","true","ArrowUp,ArrowLeft","false","","","revaluation","1","56","","",""
"html-keyboard-response","173","863004","0.0-4.0-2.0-1.28","spark_pilot_2","7306","8","11","Female","","","","","","","null","<div style=""font-size:60px;"">+</div>","null","fixation","","","","","","","","","","","57","","",""
"revaluation","174","867007","0.0-4.0-2.0-0.29","spark_pilot_2","7306","8","11","Female","","false","","","","","[791.0999999642372]","./assets/img/canyon/catch/4.jpg","[""spaceBar""]","value training","canyon","0","{""ArrowUp,ArrowLeft"":26,""ArrowUp,ArrowRight"":10,""ArrowDown,ArrowLeft"":5,""ArrowDown,ArrowRight"":17}","true","spaceBar","true","","","revaluation","1","58","","",""
"html-keyboard-response","175","867509","0.0-4.0-2.0-1.29","spark_pilot_2","7306","8","11","Female","","","","","","","null","<div style=""font-size:60px;"">+</div>","null","fixation","","","","","","","","","","","59","","",""
"revaluation","176","873516","0.0-4.0-2.0-0.30","spark_pilot_2","7306","8","11","Female","","false","","","","","[644.8999999761581,811.8000000119209]","./assets/img/canyon/memory/34.jpg","[""ArrowUp"",""ArrowLeft""]","value training","canyon","26","{""ArrowUp,ArrowLeft"":26,""ArrowUp,ArrowRight"":10,""ArrowDown,ArrowLeft"":5,""ArrowDown,ArrowRight"":17}","true","ArrowUp,ArrowLeft","false","","","revaluation","1","60","","",""
"html-keyboard-response","177","874018","0.0-4.0-2.0-1.30","spark_pilot_2","7306","8","11","Female","","","","","","","null","<div style=""font-size:60px;"">+</div>","null","fixation","","","","","","","","","","","61","","",""
"revaluation","178","880024","0.0-4.0-2.0-0.31","spark_pilot_2","7306","8","11","Female","","false","","","","","[911.1999999880791,894.8999999761581]","./assets/img/canyon/memory/35.jpg","[""ArrowUp"",""ArrowLeft""]","value training","canyon","26","{""ArrowUp,ArrowLeft"":26,""ArrowUp,ArrowRight"":10,""ArrowDown,ArrowLeft"":5,""ArrowDown,ArrowRight"":17}","true","ArrowUp,ArrowLeft","false","","","revaluation","1","62","","",""
"html-keyboard-response","179","880526","0.0-4.0-2.0-1.31","spark_pilot_2","7306","8","11","Female","","","","","","","null","<div style=""font-size:60px;"">+</div>","null","fixation","","","","","","","","","","","63","","",""
"revaluation","180","886533","0.0-4.0-2.0-0.32","spark_pilot_2","7306","8","11","Female","","false","","","","","[732.3999999761581,811.7000000476837]","./assets/img/canyon/memory/6.jpg","[""ArrowUp"",""ArrowLeft""]","value training","canyon","26","{""ArrowUp,ArrowLeft"":26,""ArrowUp,ArrowRight"":10,""ArrowDown,ArrowLeft"":5,""ArrowDown,ArrowRight"":17}","true","ArrowUp,ArrowLeft","false","","","revaluation","1","64","","",""
"html-keyboard-response","181","887034","0.0-4.0-2.0-1.32","spark_pilot_2","7306","8","11","Female","","","","","","","null","<div style=""font-size:60px;"">+</div>","null","fixation","","","","","","","","","","","65","","",""
"revaluation","182","893039","0.0-4.0-2.0-0.33","spark_pilot_2","7306","8","11","Female","","false","","","","","[586.3000000119209,713.3000000119209]","./assets/img/canyon/memory/35.jpg","[""ArrowUp"",""ArrowLeft""]","value training","canyon","26","{""ArrowUp,ArrowLeft"":26,""ArrowUp,ArrowRight"":10,""ArrowDown,ArrowLeft"":5,""ArrowDown,ArrowRight"":17}","true","ArrowUp,ArrowLeft","false","","","revaluation","1","66","","",""
"html-keyboard-response","183","893541","0.0-4.0-2.0-1.33","spark_pilot_2","7306","8","11","Female","","","","","","","null","<div style=""font-size:60px;"">+</div>","null","fixation","","","","","","","","","","","67","","",""
"revaluation","184","899548","0.0-4.0-2.0-0.34","spark_pilot_2","7306","8","11","Female","","false","","","","","[797.5,1124.2999999523163]","./assets/img/canyon/memory/6.jpg","[""ArrowUp"",""ArrowLeft""]","value training","canyon","26","{""ArrowUp,ArrowLeft"":26,""ArrowUp,ArrowRight"":10,""ArrowDown,ArrowLeft"":5,""ArrowDown,ArrowRight"":17}","true","ArrowUp,ArrowLeft","false","","","revaluation","1","68","","",""
"html-keyboard-response","185","900050","0.0-4.0-2.0-1.34","spark_pilot_2","7306","8","11","Female","","","","","","","null","<div style=""font-size:60px;"">+</div>","null","fixation","","","","","","","","","","","69","","",""
"revaluation","186","906060","0.0-4.0-2.0-0.35","spark_pilot_2","7306","8","11","Female","","false","","","","","[939.2999999523163,890]","./assets/img/canyon/memory/11.jpg","[""ArrowUp"",""ArrowLeft""]","value training","canyon","26","{""ArrowUp,ArrowLeft"":26,""ArrowUp,ArrowRight"":10,""ArrowDown,ArrowLeft"":5,""ArrowDown,ArrowRight"":17}","true","ArrowUp,ArrowLeft","false","","","revaluation","1","70","","",""
"html-keyboard-response","187","906562","0.0-4.0-2.0-1.35","spark_pilot_2","7306","8","11","Female","","","","","","","null","<div style=""font-size:60px;"">+</div>","null","fixation","","","","","","","","","","","71","","",""
"revaluation","188","912573","0.0-4.0-2.0-0.36","spark_pilot_2","7306","8","11","Female","","false","","","","","[737.1999999880791,931.2999999523163]","./assets/img/canyon/memory/40.jpg","[""ArrowUp"",""ArrowLeft""]","value training","canyon","26","{""ArrowUp,ArrowLeft"":26,""ArrowUp,ArrowRight"":10,""ArrowDown,ArrowLeft"":5,""ArrowDown,ArrowRight"":17}","true","ArrowUp,ArrowLeft","false","","","revaluation","1","72","","",""
"html-keyboard-response","189","913076","0.0-4.0-2.0-1.36","spark_pilot_2","7306","8","11","Female","","","","","","","null","<div style=""font-size:60px;"">+</div>","null","fixation","","","","","","","","","","","73","","",""
"revaluation","190","919083","0.0-4.0-2.0-0.37","spark_pilot_2","7306","8","11","Female","","false","","","","","[711,1078.1000000238419]","./assets/img/canyon/memory/3.jpg","[""ArrowUp"",""ArrowLeft""]","value training","canyon","26","{""ArrowUp,ArrowLeft"":26,""ArrowUp,ArrowRight"":10,""ArrowDown,ArrowLeft"":5,""ArrowDown,ArrowRight"":17}","true","ArrowUp,ArrowLeft","false","","","revaluation","1","74","","",""
"html-keyboard-response","191","919585","0.0-4.0-2.0-1.37","spark_pilot_2","7306","8","11","Female","","","","","","","null","<div style=""font-size:60px;"">+</div>","null","fixation","","","","","","","","","","","75","","",""
"revaluation","192","925589","0.0-4.0-2.0-0.38","spark_pilot_2","7306","8","11","Female","","false","","","","","[771.3000000119209,762]","./assets/img/canyon/memory/1.jpg","[""ArrowUp"",""ArrowLeft""]","value training","canyon","26","{""ArrowUp,ArrowLeft"":26,""ArrowUp,ArrowRight"":10,""ArrowDown,ArrowLeft"":5,""ArrowDown,ArrowRight"":17}","true","ArrowUp,ArrowLeft","false","","","revaluation","1","76","","",""
"html-keyboard-response","193","926091","0.0-4.0-2.0-1.38","spark_pilot_2","7306","8","11","Female","","","","","","","null","<div style=""font-size:60px;"">+</div>","null","fixation","","","","","","","","","","","77","","",""
"revaluation","194","932099","0.0-4.0-2.0-0.39","spark_pilot_2","7306","8","11","Female","","false","","","","","[635.3999999761581,918.6000000238419]","./assets/img/canyon/memory/32.jpg","[""ArrowUp"",""ArrowLeft""]","value training","canyon","26","{""ArrowUp,ArrowLeft"":26,""ArrowUp,ArrowRight"":10,""ArrowDown,ArrowLeft"":5,""ArrowDown,ArrowRight"":17}","true","ArrowUp,ArrowLeft","false","","","revaluation","1","78","","",""
"html-keyboard-response","195","932613","0.0-4.0-2.0-1.39","spark_pilot_2","7306","8","11","Female","","","","","","","null","<div style=""font-size:60px;"">+</div>","null","fixation","","","","","","","","","","","79","","",""
"revaluation","196","938620","0.0-4.0-2.0-0.40","spark_pilot_2","7306","8","11","Female","","false","","","","","[910.8999999761581,741.6999999880791]","./assets/img/canyon/memory/37.jpg","[""ArrowUp"",""ArrowLeft""]","value training","canyon","26","{""ArrowUp,ArrowLeft"":26,""ArrowUp,ArrowRight"":10,""ArrowDown,ArrowLeft"":5,""ArrowDown,ArrowRight"":17}","true","ArrowUp,ArrowLeft","false","","","revaluation","1","80","","",""
"html-keyboard-response","197","939123","0.0-4.0-2.0-1.40","spark_pilot_2","7306","8","11","Female","","","","","","","null","<div style=""font-size:60px;"">+</div>","null","fixation","","","","","","","","","","","81","","",""
"revaluation","198","943129","0.0-4.0-2.0-0.41","spark_pilot_2","7306","8","11","Female","","false","","","","","[777.3999999761581]","./assets/img/canyon/catch/6.jpg","[""spaceBar""]","value training","canyon","0","{""ArrowUp,ArrowLeft"":26,""ArrowUp,ArrowRight"":10,""ArrowDown,ArrowLeft"":5,""ArrowDown,ArrowRight"":17}","true","spaceBar","true","","","revaluation","1","82","","",""
"html-keyboard-response","199","943632","0.0-4.0-2.0-1.41","spark_pilot_2","7306","8","11","Female","","","","","","","null","<div style=""font-size:60px;"">+</div>","null","fixation","","","","","","","","","","","83","","",""
"revaluation","200","949640","0.0-4.0-2.0-0.42","spark_pilot_2","7306","8","11","Female","","false","","","","","[732.7000000476837,826.8000000119209]","./assets/img/canyon/memory/4.jpg","[""ArrowUp"",""ArrowLeft""]","value training","canyon","26","{""ArrowUp,ArrowLeft"":26,""ArrowUp,ArrowRight"":10,""ArrowDown,ArrowLeft"":5,""ArrowDown,ArrowRight"":17}","true","ArrowUp,ArrowLeft","false","","","revaluation","1","84","","",""
"html-keyboard-response","201","950143","0.0-4.0-2.0-1.42","spark_pilot_2","7306","8","11","Female","","","","","","","null","<div style=""font-size:60px;"">+</div>","null","fixation","","","","","","","","","","","85","","",""
"revaluation","202","956150","0.0-4.0-2.0-0.43","spark_pilot_2","7306","8","11","Female","","false","","","","","[749.5999999642372,669]","./assets/img/canyon/memory/9.jpg","[""ArrowUp"",""ArrowLeft""]","value training","canyon","26","{""ArrowUp,ArrowLeft"":26,""ArrowUp,ArrowRight"":10,""ArrowDown,ArrowLeft"":5,""ArrowDown,ArrowRight"":17}","true","ArrowUp,ArrowLeft","false","","","revaluation","1","86","","",""
"html-keyboard-response","203","956660","0.0-4.0-2.0-1.43","spark_pilot_2","7306","8","11","Female","","","","","","","null","<div style=""font-size:60px;"">+</div>","null","fixation","","","","","","","","","","","87","","",""
"revaluation","204","962667","0.0-4.0-2.0-0.44","spark_pilot_2","7306","8","11","Female","","false","","","","","[656,823]","./assets/img/canyon/memory/30.jpg","[""ArrowUp"",""ArrowLeft""]","value training","canyon","26","{""ArrowUp,ArrowLeft"":26,""ArrowUp,ArrowRight"":10,""ArrowDown,ArrowLeft"":5,""ArrowDown,ArrowRight"":17}","true","ArrowUp,ArrowLeft","false","","","revaluation","1","88","","",""
"html-keyboard-response","205","963169","0.0-4.0-2.0-1.44","spark_pilot_2","7306","8","11","Female","","","","","","","null","<div style=""font-size:60px;"">+</div>","null","fixation","","","","","","","","","","","89","","",""
"revaluation","206","969176","0.0-4.0-2.0-0.45","spark_pilot_2","7306","8","11","Female","","false","","","","","[707.2000000476837,618.5]","./assets/img/canyon/memory/5.jpg","[""ArrowUp"",""ArrowLeft""]","value training","canyon","26","{""ArrowUp,ArrowLeft"":26,""ArrowUp,ArrowRight"":10,""ArrowDown,ArrowLeft"":5,""ArrowDown,ArrowRight"":17}","true","ArrowUp,ArrowLeft","false","","","revaluation","1","90","","",""
"html-keyboard-response","207","969678","0.0-4.0-2.0-1.45","spark_pilot_2","7306","8","11","Female","","","","","","","null","<div style=""font-size:60px;"">+</div>","null","fixation","","","","","","","","","","","91","","",""
"revaluation","208","973683","0.0-4.0-2.0-0.46","spark_pilot_2","7306","8","11","Female","","false","","","","","[687.1000000238419]","./assets/img/canyon/catch/7.jpg","[""spaceBar""]","value training","canyon","0","{""ArrowUp,ArrowLeft"":26,""ArrowUp,ArrowRight"":10,""ArrowDown,ArrowLeft"":5,""ArrowDown,ArrowRight"":17}","true","spaceBar","true","","","revaluation","1","92","","",""
"html-keyboard-response","209","974185","0.0-4.0-2.0-1.46","spark_pilot_2","7306","8","11","Female","","","","","","","null","<div style=""font-size:60px;"">+</div>","null","fixation","","","","","","","","","","","93","","",""
"revaluation","210","980191","0.0-4.0-2.0-0.47","spark_pilot_2","7306","8","11","Female","","false","","","","","[581.4000000357628,740]","./assets/img/canyon/memory/5.jpg","[""ArrowUp"",""ArrowLeft""]","value training","canyon","26","{""ArrowUp,ArrowLeft"":26,""ArrowUp,ArrowRight"":10,""ArrowDown,ArrowLeft"":5,""ArrowDown,ArrowRight"":17}","true","ArrowUp,ArrowLeft","false","","","revaluation","1","94","","",""
"html-keyboard-response","211","980693","0.0-4.0-2.0-1.47","spark_pilot_2","7306","8","11","Female","","","","","","","null","<div style=""font-size:60px;"">+</div>","null","fixation","","","","","","","","","","","95","","",""
"revaluation","212","986707","0.0-4.0-2.0-0.48","spark_pilot_2","7306","8","11","Female","","false","","","","","[752.5,862.9000000357628]","./assets/img/canyon/memory/18.jpg","[""ArrowUp"",""ArrowLeft""]","value training","canyon","26","{""ArrowUp,ArrowLeft"":26,""ArrowUp,ArrowRight"":10,""ArrowDown,ArrowLeft"":5,""ArrowDown,ArrowRight"":17}","true","ArrowUp,ArrowLeft","false","","","revaluation","1","96","","",""
"html-keyboard-response","213","987209","0.0-4.0-2.0-1.48","spark_pilot_2","7306","8","11","Female","","","","","","","null","<div style=""font-size:60px;"">+</div>","null","fixation","","","","","","","","","","","97","","",""
"revaluation","214","993215","0.0-4.0-2.0-0.49","spark_pilot_2","7306","8","11","Female","","false","","","","","[650.8000000119209,946.1000000238419]","./assets/img/canyon/memory/15.jpg","[""ArrowUp"",""ArrowLeft""]","value training","canyon","26","{""ArrowUp,ArrowLeft"":26,""ArrowUp,ArrowRight"":10,""ArrowDown,ArrowLeft"":5,""ArrowDown,ArrowRight"":17}","true","ArrowUp,ArrowLeft","false","","","revaluation","1","98","","",""
"html-keyboard-response","215","993717","0.0-4.0-2.0-1.49","spark_pilot_2","7306","8","11","Female","","","","","","","null","<div style=""font-size:60px;"">+</div>","null","fixation","","","","","","","","","","","99","","",""
"learning-instructions","216","1010442","0.0-4.0-3.0-0.0","spark_pilot_2","7306","8","11","Female","","","","","","","3816.800000011921","<p> Now, you will travel with a friend who will choose whether you go up or down first. </p>
            <p> On these turns, you will just see the animal that they found. You will still get to choose which chest to search for treasure.</p>","","instructions","","","","","","","","","","","","","",""
"revaluation","217","1014459","0.0-4.0-4.0-0.0","spark_pilot_2","7306","8","11","Female","","false","","","","","[662.5]","./assets/img/canyon/animals/lion.jpg","[""ArrowRight""]","revaluation","canyon","11","{""ArrowUp,ArrowLeft"":2,""ArrowUp,ArrowRight"":11,""ArrowDown,ArrowLeft"":8,""ArrowDown,ArrowRight"":27}","true","ArrowUp,ArrowRight","","","","revaluation","1","0","","",""
"html-keyboard-response","218","1014979","0.0-4.0-4.0-1.0","spark_pilot_2","7306","8","11","Female","","","","","","","null","<div style=""font-size:60px;"">+</div>","null","fixation","","","","","","","","","","","1","","",""
"revaluation","219","1019020","0.0-4.0-4.0-0.1","spark_pilot_2","7306","8","11","Female","","false","","","","","[802.3999999761581]","./assets/img/canyon/animals/lion.jpg","[""ArrowLeft""]","revaluation","canyon","2","{""ArrowUp,ArrowLeft"":2,""ArrowUp,ArrowRight"":11,""ArrowDown,ArrowLeft"":8,""ArrowDown,ArrowRight"":27}","false","ArrowUp,ArrowLeft","","","","revaluation","1","2","","",""
"html-keyboard-response","220","1019539","0.0-4.0-4.0-1.1","spark_pilot_2","7306","8","11","Female","","","","","","","null","<div style=""font-size:60px;"">+</div>","null","fixation","","","","","","","","","","","3","","",""
"revaluation","221","1023579","0.0-4.0-4.0-0.2","spark_pilot_2","7306","8","11","Female","","false","","","","","[853.6000000238419]","./assets/img/canyon/animals/giraffe.jpg","[""ArrowRight""]","revaluation","canyon","27","{""ArrowUp,ArrowLeft"":2,""ArrowUp,ArrowRight"":11,""ArrowDown,ArrowLeft"":8,""ArrowDown,ArrowRight"":27}","true","ArrowDown,ArrowRight","","","","revaluation","1","4","","",""
"html-keyboard-response","222","1024090","0.0-4.0-4.0-1.2","spark_pilot_2","7306","8","11","Female","","","","","","","null","<div style=""font-size:60px;"">+</div>","null","fixation","","","","","","","","","","","5","","",""
"revaluation","223","1028120","0.0-4.0-4.0-0.3","spark_pilot_2","7306","8","11","Female","","false","","","","","[859.4000000357628]","./assets/img/canyon/animals/giraffe.jpg","[""ArrowRight""]","revaluation","canyon","27","{""ArrowUp,ArrowLeft"":2,""ArrowUp,ArrowRight"":11,""ArrowDown,ArrowLeft"":8,""ArrowDown,ArrowRight"":27}","true","ArrowDown,ArrowRight","","","","revaluation","1","6","","",""
"html-keyboard-response","224","1028639","0.0-4.0-4.0-1.3","spark_pilot_2","7306","8","11","Female","","","","","","","null","<div style=""font-size:60px;"">+</div>","null","fixation","","","","","","","","","","","7","","",""
"revaluation","225","1032670","0.0-4.0-4.0-0.4","spark_pilot_2","7306","8","11","Female","","false","","","","","[817.5]","./assets/img/canyon/animals/giraffe.jpg","[""ArrowLeft""]","revaluation","canyon","8","{""ArrowUp,ArrowLeft"":2,""ArrowUp,ArrowRight"":11,""ArrowDown,ArrowLeft"":8,""ArrowDown,ArrowRight"":27}","false","ArrowDown,ArrowLeft","","","","revaluation","1","8","","",""
"html-keyboard-response","226","1033180","0.0-4.0-4.0-1.4","spark_pilot_2","7306","8","11","Female","","","","","","","null","<div style=""font-size:60px;"">+</div>","null","fixation","","","","","","","","","","","9","","",""
"revaluation","227","1037202","0.0-4.0-4.0-0.5","spark_pilot_2","7306","8","11","Female","","false","","","","","[954.8999999761581]","./assets/img/canyon/animals/lion.jpg","[""ArrowRight""]","revaluation","canyon","11","{""ArrowUp,ArrowLeft"":2,""ArrowUp,ArrowRight"":11,""ArrowDown,ArrowLeft"":8,""ArrowDown,ArrowRight"":27}","true","ArrowUp,ArrowRight","","","","revaluation","1","10","","",""
"html-keyboard-response","228","1037704","0.0-4.0-4.0-1.5","spark_pilot_2","7306","8","11","Female","","","","","","","null","<div style=""font-size:60px;"">+</div>","null","fixation","","","","","","","","","","","11","","",""
"revaluation","229","1041713","0.0-4.0-4.0-0.6","spark_pilot_2","7306","8","11","Female","","false","","","","","[662.5]","./assets/img/canyon/animals/lion.jpg","[""ArrowRight""]","revaluation","canyon","11","{""ArrowUp,ArrowLeft"":2,""ArrowUp,ArrowRight"":11,""ArrowDown,ArrowLeft"":8,""ArrowDown,ArrowRight"":27}","true","ArrowUp,ArrowRight","","","","revaluation","1","12","","",""
"html-keyboard-response","230","1042214","0.0-4.0-4.0-1.6","spark_pilot_2","7306","8","11","Female","","","","","","","null","<div style=""font-size:60px;"">+</div>","null","fixation","","","","","","","","","","","13","","",""
"revaluation","231","1046221","0.0-4.0-4.0-0.7","spark_pilot_2","7306","8","11","Female","","false","","","","","[608.8999999761581]","./assets/img/canyon/animals/giraffe.jpg","[""ArrowRight""]","revaluation","canyon","27","{""ArrowUp,ArrowLeft"":2,""ArrowUp,ArrowRight"":11,""ArrowDown,ArrowLeft"":8,""ArrowDown,ArrowRight"":27}","true","ArrowDown,ArrowRight","","","","revaluation","1","14","","",""
"html-keyboard-response","232","1046723","0.0-4.0-4.0-1.7","spark_pilot_2","7306","8","11","Female","","","","","","","null","<div style=""font-size:60px;"">+</div>","null","fixation","","","","","","","","","","","15","","",""
"revaluation","233","1050728","0.0-4.0-4.0-0.8","spark_pilot_2","7306","8","11","Female","","false","","","","","[667.2999999523163]","./assets/img/canyon/animals/giraffe.jpg","[""ArrowRight""]","revaluation","canyon","27","{""ArrowUp,ArrowLeft"":2,""ArrowUp,ArrowRight"":11,""ArrowDown,ArrowLeft"":8,""ArrowDown,ArrowRight"":27}","true","ArrowDown,ArrowRight","","","","revaluation","1","16","","",""
"html-keyboard-response","234","1051230","0.0-4.0-4.0-1.8","spark_pilot_2","7306","8","11","Female","","","","","","","null","<div style=""font-size:60px;"">+</div>","null","fixation","","","","","","","","","","","17","","",""
"revaluation","235","1055237","0.0-4.0-4.0-0.9","spark_pilot_2","7306","8","11","Female","","false","","","","","[513.3000000119209]","./assets/img/canyon/animals/lion.jpg","[""ArrowRight""]","revaluation","canyon","11","{""ArrowUp,ArrowLeft"":2,""ArrowUp,ArrowRight"":11,""ArrowDown,ArrowLeft"":8,""ArrowDown,ArrowRight"":27}","true","ArrowUp,ArrowRight","","","","revaluation","1","18","","",""
"html-keyboard-response","236","1055739","0.0-4.0-4.0-1.9","spark_pilot_2","7306","8","11","Female","","","","","","","null","<div style=""font-size:60px;"">+</div>","null","fixation","","","","","","","","","","","19","","",""
"revaluation","237","1059746","0.0-4.0-4.0-0.10","spark_pilot_2","7306","8","11","Female","","false","","","","","[492.39999997615814]","./assets/img/canyon/animals/lion.jpg","[""ArrowRight""]","revaluation","canyon","11","{""ArrowUp,ArrowLeft"":2,""ArrowUp,ArrowRight"":11,""ArrowDown,ArrowLeft"":8,""ArrowDown,ArrowRight"":27}","true","ArrowUp,ArrowRight","","","","revaluation","1","20","","",""
"html-keyboard-response","238","1060247","0.0-4.0-4.0-1.10","spark_pilot_2","7306","8","11","Female","","","","","","","null","<div style=""font-size:60px;"">+</div>","null","fixation","","","","","","","","","","","21","","",""
"revaluation","239","1064253","0.0-4.0-4.0-0.11","spark_pilot_2","7306","8","11","Female","","false","","","","","[464.80000001192093]","./assets/img/canyon/animals/lion.jpg","[""ArrowRight""]","revaluation","canyon","11","{""ArrowUp,ArrowLeft"":2,""ArrowUp,ArrowRight"":11,""ArrowDown,ArrowLeft"":8,""ArrowDown,ArrowRight"":27}","true","ArrowUp,ArrowRight","","","","revaluation","1","22","","",""
"html-keyboard-response","240","1064755","0.0-4.0-4.0-1.11","spark_pilot_2","7306","8","11","Female","","","","","","","null","<div style=""font-size:60px;"">+</div>","null","fixation","","","","","","","","","","","23","","",""
"revaluation","241","1068760","0.0-4.0-4.0-0.12","spark_pilot_2","7306","8","11","Female","","false","","","","","[775]","./assets/img/canyon/animals/giraffe.jpg","[""ArrowRight""]","revaluation","canyon","27","{""ArrowUp,ArrowLeft"":2,""ArrowUp,ArrowRight"":11,""ArrowDown,ArrowLeft"":8,""ArrowDown,ArrowRight"":27}","true","ArrowDown,ArrowRight","","","","revaluation","1","24","","",""
"html-keyboard-response","242","1069261","0.0-4.0-4.0-1.12","spark_pilot_2","7306","8","11","Female","","","","","","","null","<div style=""font-size:60px;"">+</div>","null","fixation","","","","","","","","","","","25","","",""
"revaluation","243","1073266","0.0-4.0-4.0-0.13","spark_pilot_2","7306","8","11","Female","","false","","","","","[641.6000000238419]","./assets/img/canyon/animals/giraffe.jpg","[""ArrowRight""]","revaluation","canyon","27","{""ArrowUp,ArrowLeft"":2,""ArrowUp,ArrowRight"":11,""ArrowDown,ArrowLeft"":8,""ArrowDown,ArrowRight"":27}","true","ArrowDown,ArrowRight","","","","revaluation","1","26","","",""
"html-keyboard-response","244","1073769","0.0-4.0-4.0-1.13","spark_pilot_2","7306","8","11","Female","","","","","","","null","<div style=""font-size:60px;"">+</div>","null","fixation","","","","","","","","","","","27","","",""
"revaluation","245","1077775","0.0-4.0-4.0-0.14","spark_pilot_2","7306","8","11","Female","","false","","","","","[614.0999999642372]","./assets/img/canyon/animals/lion.jpg","[""ArrowRight""]","revaluation","canyon","11","{""ArrowUp,ArrowLeft"":2,""ArrowUp,ArrowRight"":11,""ArrowDown,ArrowLeft"":8,""ArrowDown,ArrowRight"":27}","true","ArrowUp,ArrowRight","","","","revaluation","1","28","","",""
"html-keyboard-response","246","1078277","0.0-4.0-4.0-1.14","spark_pilot_2","7306","8","11","Female","","","","","","","null","<div style=""font-size:60px;"">+</div>","null","fixation","","","","","","","","","","","29","","",""
"revaluation","247","1082285","0.0-4.0-4.0-0.15","spark_pilot_2","7306","8","11","Female","","false","","","","","[946.6000000238419]","./assets/img/canyon/animals/giraffe.jpg","[""ArrowRight""]","revaluation","canyon","27","{""ArrowUp,ArrowLeft"":2,""ArrowUp,ArrowRight"":11,""ArrowDown,ArrowLeft"":8,""ArrowDown,ArrowRight"":27}","true","ArrowDown,ArrowRight","","","","revaluation","1","30","","",""
"html-keyboard-response","248","1082787","0.0-4.0-4.0-1.15","spark_pilot_2","7306","8","11","Female","","","","","","","null","<div style=""font-size:60px;"">+</div>","null","fixation","","","","","","","","","","","31","","",""
"revaluation","249","1086794","0.0-4.0-4.0-0.16","spark_pilot_2","7306","8","11","Female","","false","","","","","[545.3999999761581]","./assets/img/canyon/animals/lion.jpg","[""ArrowRight""]","revaluation","canyon","11","{""ArrowUp,ArrowLeft"":2,""ArrowUp,ArrowRight"":11,""ArrowDown,ArrowLeft"":8,""ArrowDown,ArrowRight"":27}","true","ArrowUp,ArrowRight","","","","revaluation","1","32","","",""
"html-keyboard-response","250","1087296","0.0-4.0-4.0-1.16","spark_pilot_2","7306","8","11","Female","","","","","","","null","<div style=""font-size:60px;"">+</div>","null","fixation","","","","","","","","","","","33","","",""
"revaluation","251","1091301","0.0-4.0-4.0-0.17","spark_pilot_2","7306","8","11","Female","","false","","","","","[497.19999998807907]","./assets/img/canyon/animals/giraffe.jpg","[""ArrowRight""]","revaluation","canyon","27","{""ArrowUp,ArrowLeft"":2,""ArrowUp,ArrowRight"":11,""ArrowDown,ArrowLeft"":8,""ArrowDown,ArrowRight"":27}","true","ArrowDown,ArrowRight","","","","revaluation","1","34","","",""
"html-keyboard-response","252","1091803","0.0-4.0-4.0-1.17","spark_pilot_2","7306","8","11","Female","","","","","","","null","<div style=""font-size:60px;"">+</div>","null","fixation","","","","","","","","","","","35","","",""
"learning-instructions","253","1112662","0.0-4.0-5.0-0.0","spark_pilot_2","7306","8","11","Female","","","","","","","9538.399999976158","<p> Time to play the dot game! </p>
            <p> For one minute, click the red dots on the following screen as they appear. </p>
            <p><b> Don't look away, as you will earn bonus for clicking dots</b>. </p>","","instructions","","","","","","","","","","","","","",""
"revaluation","254","1172663","0.0-4.0-6.0-0.0","spark_pilot_2","7306","8","11","Female","","","","","","","[139,120,112,120,123,109]","","","rest","","60","","","","","0","60000","","","","","",""
"learning-instructions","255","1181664","0.0-4.0-7.0-0.0","spark_pilot_2","7306","8","11","Female","","","","","","","2886.899999976158","<p> You have almost finished this part of the game! </p>
            <p> We are going to ask you to make a few more choices. </p>","","instructions","","","","","","","","","","","","","",""
"learning-instructions","256","1211905","0.0-4.0-7.0-0.1","spark_pilot_2","7306","8","11","Female","","","","","","","16267.100000023842","<p> First, you need to decide whether to go up or down. When you see each picture, use the arrow keys to make your choice. </p>
            <p><b>You will not see which animal you found, but try to get to the one that will give you the most treasure.</b></p>","","instructions","","","","","","","","","","","","","",""
"revaluation","257","1212409","0.0-4.0-8.0-0.0","spark_pilot_2","7306","8","11","Female","","false","","","","","[502.5]","./assets/img/canyon/test/0.jpg","[""ArrowUp""]","first stage test","canyon","0","{""ArrowUp,ArrowLeft"":2,""ArrowUp,ArrowRight"":11,""ArrowDown,ArrowLeft"":8,""ArrowDown,ArrowRight"":27}","false","ArrowUp","false","","","revaluation","1","","","",""
"html-keyboard-response","258","1212921","0.0-4.0-8.0-1.0","spark_pilot_2","7306","8","11","Female","","","","","","","null","<div style=""font-size:60px;"">+</div>","null","fixation","","","","","","","","","","","","","",""
"revaluation","259","1214016","0.0-4.0-8.0-0.1","spark_pilot_2","7306","8","11","Female","","false","","","","","[1093.699999988079]","./assets/img/canyon/test/2.jpg","[""ArrowUp""]","first stage test","canyon","0","{""ArrowUp,ArrowLeft"":2,""ArrowUp,ArrowRight"":11,""ArrowDown,ArrowLeft"":8,""ArrowDown,ArrowRight"":27}","false","ArrowUp","false","","","revaluation","1","","","",""
"html-keyboard-response","260","1214532","0.0-4.0-8.0-1.1","spark_pilot_2","7306","8","11","Female","","","","","","","null","<div style=""font-size:60px;"">+</div>","null","fixation","","","","","","","","","","","","","",""
"revaluation","261","1215959","0.0-4.0-8.0-0.2","spark_pilot_2","7306","8","11","Female","","false","","","","","[1426.0999999642372]","./assets/img/canyon/test/3.jpg","[""ArrowDown""]","first stage test","canyon","0","{""ArrowUp,ArrowLeft"":2,""ArrowUp,ArrowRight"":11,""ArrowDown,ArrowLeft"":8,""ArrowDown,ArrowRight"":27}","true","ArrowDown","false","","","revaluation","1","","","",""
"html-keyboard-response","262","1216472","0.0-4.0-8.0-1.2","spark_pilot_2","7306","8","11","Female","","","","","","","null","<div style=""font-size:60px;"">+</div>","null","fixation","","","","","","","","","","","","","",""
"revaluation","263","1217265","0.0-4.0-8.0-0.3","spark_pilot_2","7306","8","11","Female","","false","","","","","[788.6999999880791]","./assets/img/canyon/test/1.jpg","[""ArrowUp""]","first stage test","canyon","0","{""ArrowUp,ArrowLeft"":2,""ArrowUp,ArrowRight"":11,""ArrowDown,ArrowLeft"":8,""ArrowDown,ArrowRight"":27}","false","ArrowUp","false","","","revaluation","1","","","",""
"html-keyboard-response","264","1217772","0.0-4.0-8.0-1.3","spark_pilot_2","7306","8","11","Female","","","","","","","null","<div style=""font-size:60px;"">+</div>","null","fixation","","","","","","","","","","","","","",""
"learning-instructions","265","1231369","0.0-4.0-9.0-0.0","spark_pilot_2","7306","8","11","Female","","","","","","","2250.699999988079","<p> Now you will see the animals again and can search their chests for treasure. </p>
            <p> This time, you will not see how much treasure you earned, but you will earn more bonus money for making better choices. </p>","","instructions","","","","","","","","","","","","","",""
"revaluation","266","1232528","0.0-4.0-10.0-0.0","spark_pilot_2","7306","8","11","Female","","false","","","","","[1157]","./assets/img/canyon/animals/lion.jpg","[""ArrowRight""]","second stage test","canyon","0","{""ArrowUp,ArrowLeft"":2,""ArrowUp,ArrowRight"":11,""ArrowDown,ArrowLeft"":8,""ArrowDown,ArrowRight"":27}","true","ArrowUp,ArrowRight","","","","revaluation","1","","","",""
"html-keyboard-response","267","1233031","0.0-4.0-10.0-1.0","spark_pilot_2","7306","8","11","Female","","","","","","","null","<div style=""font-size:60px;"">+</div>","null","fixation","","","","","","","","","","","","","",""
"revaluation","268","1233802","0.0-4.0-10.0-0.1","spark_pilot_2","7306","8","11","Female","","false","","","","","[766.7000000476837]","./assets/img/canyon/animals/lion.jpg","[""ArrowRight""]","second stage test","canyon","0","{""ArrowUp,ArrowLeft"":2,""ArrowUp,ArrowRight"":11,""ArrowDown,ArrowLeft"":8,""ArrowDown,ArrowRight"":27}","true","ArrowUp,ArrowRight","","","","revaluation","1","","","",""
"html-keyboard-response","269","1234303","0.0-4.0-10.0-1.1","spark_pilot_2","7306","8","11","Female","","","","","","","null","<div style=""font-size:60px;"">+</div>","null","fixation","","","","","","","","","","","","","",""
"revaluation","270","1234818","0.0-4.0-10.0-0.2","spark_pilot_2","7306","8","11","Female","","false","","","","","[510.30000001192093]","./assets/img/canyon/animals/lion.jpg","[""ArrowRight""]","second stage test","canyon","0","{""ArrowUp,ArrowLeft"":2,""ArrowUp,ArrowRight"":11,""ArrowDown,ArrowLeft"":8,""ArrowDown,ArrowRight"":27}","true","ArrowUp,ArrowRight","","","","revaluation","1","","","",""
"html-keyboard-response","271","1235323","0.0-4.0-10.0-1.2","spark_pilot_2","7306","8","11","Female","","","","","","","null","<div style=""font-size:60px;"">+</div>","null","fixation","","","","","","","","","","","","","",""
"revaluation","272","1235816","0.0-4.0-10.0-0.3","spark_pilot_2","7306","8","11","Female","","false","","","","","[492.19999998807907]","./assets/img/canyon/animals/lion.jpg","[""ArrowRight""]","second stage test","canyon","0","{""ArrowUp,ArrowLeft"":2,""ArrowUp,ArrowRight"":11,""ArrowDown,ArrowLeft"":8,""ArrowDown,ArrowRight"":27}","true","ArrowUp,ArrowRight","","","","revaluation","1","","","",""
"html-keyboard-response","273","1236323","0.0-4.0-10.0-1.3","spark_pilot_2","7306","8","11","Female","","","","","","","null","<div style=""font-size:60px;"">+</div>","null","fixation","","","","","","","","","","","","","",""
"revaluation","274","1236792","0.0-4.0-10.0-0.4","spark_pilot_2","7306","8","11","Female","","false","","","","","[464.80000001192093]","./assets/img/canyon/animals/giraffe.jpg","[""ArrowRight""]","second stage test","canyon","0","{""ArrowUp,ArrowLeft"":2,""ArrowUp,ArrowRight"":11,""ArrowDown,ArrowLeft"":8,""ArrowDown,ArrowRight"":27}","true","ArrowDown,ArrowRight","","","","revaluation","1","","","",""
"html-keyboard-response","275","1237303","0.0-4.0-10.0-1.4","spark_pilot_2","7306","8","11","Female","","","","","","","null","<div style=""font-size:60px;"">+</div>","null","fixation","","","","","","","","","","","","","",""
"revaluation","276","1237810","0.0-4.0-10.0-0.5","spark_pilot_2","7306","8","11","Female","","false","","","","","[501.39999997615814]","./assets/img/canyon/animals/giraffe.jpg","[""ArrowRight""]","second stage test","canyon","0","{""ArrowUp,ArrowLeft"":2,""ArrowUp,ArrowRight"":11,""ArrowDown,ArrowLeft"":8,""ArrowDown,ArrowRight"":27}","true","ArrowDown,ArrowRight","","","","revaluation","1","","","",""
"html-keyboard-response","277","1238313","0.0-4.0-10.0-1.5","spark_pilot_2","7306","8","11","Female","","","","","","","null","<div style=""font-size:60px;"">+</div>","null","fixation","","","","","","","","","","","","","",""
"revaluation","278","1238746","0.0-4.0-10.0-0.6","spark_pilot_2","7306","8","11","Female","","false","","","","","[427.0999999642372]","./assets/img/canyon/animals/giraffe.jpg","[""ArrowRight""]","second stage test","canyon","0","{""ArrowUp,ArrowLeft"":2,""ArrowUp,ArrowRight"":11,""ArrowDown,ArrowLeft"":8,""ArrowDown,ArrowRight"":27}","true","ArrowDown,ArrowRight","","","","revaluation","1","","","",""
"html-keyboard-response","279","1239263","0.0-4.0-10.0-1.6","spark_pilot_2","7306","8","11","Female","","","","","","","null","<div style=""font-size:60px;"">+</div>","null","fixation","","","","","","","","","","","","","",""
"revaluation","280","1239706","0.0-4.0-10.0-0.7","spark_pilot_2","7306","8","11","Female","","false","","","","","[438.19999998807907]","./assets/img/canyon/animals/giraffe.jpg","[""ArrowRight""]","second stage test","canyon","0","{""ArrowUp,ArrowLeft"":2,""ArrowUp,ArrowRight"":11,""ArrowDown,ArrowLeft"":8,""ArrowDown,ArrowRight"":27}","true","ArrowDown,ArrowRight","","","","revaluation","1","","","",""
"html-keyboard-response","281","1240223","0.0-4.0-10.0-1.7","spark_pilot_2","7306","8","11","Female","","","","","","","null","<div style=""font-size:60px;"">+</div>","null","fixation","","","","","","","","","","","","","",""
"learning-instructions","282","1245298","0.0-4.0-0.1-0.2","spark_pilot_2","7306","8","11","Female","","","","","","","2328.7000000476837","<p> This time you are searching for treasure in the <b>ocean</b>.</p>","","instructions","","","","","","","","","","","","","",""
"learning-instructions","283","1263659","0.0-4.0-0.1-0.3","spark_pilot_2","7306","8","11","Female","","","","","","","1118.4000000357628","<p><b>New</b> animals with <b>new</b> treasure chests live here. You need to explore to discover where the animal with the best treasure chest is.</p>
                    <p> Like before, once you figure out which animal has the chest with the most treasure, you should try to get to that animal and select that chest! </p>","","instructions","","","","","","","","","","","","","",""
"learning-instructions","284","1281956","0.0-4.0-1.1-0.1","spark_pilot_2","7306","8","11","Female","","","","","","","3574.300000011921","<p> Remember, when you see a picture of the place, use the up and down keys to <b>find an animal</b>.</p>
            <p> When you encounter an animal, you should use the left and right keys to <b>select a treasure chest</b>.</p>
            <p> Don't forget to look out for the robber! </p>","","instructions","","","","","","","","","","","","","",""
"revaluation","285","1288016","0.0-4.0-2.1-0.50","spark_pilot_2","7306","8","11","Female","","false","","","","","[510.69999998807907,524.0999999642372]","./assets/img/ocean/memory/11.jpg","[""ArrowUp"",""ArrowRight""]","value training","ocean","10","{""ArrowUp,ArrowLeft"":23,""ArrowUp,ArrowRight"":10,""ArrowDown,ArrowLeft"":8,""ArrowDown,ArrowRight"":30}","false","ArrowUp,ArrowRight","false","","","original","2","0","","",""
"html-keyboard-response","286","1288535","0.0-4.0-2.1-1.50","spark_pilot_2","7306","8","11","Female","","","","","","","null","<div style=""font-size:60px;"">+</div>","null","fixation","","","","","","","","","","","1","","",""
"revaluation","287","1294596","0.0-4.0-2.1-0.51","spark_pilot_2","7306","8","11","Female","","false","","","","","[688.8000000119209,480.10000002384186]","./assets/img/ocean/memory/21.jpg","[""ArrowUp"",""ArrowLeft""]","value training","ocean","23","{""ArrowUp,ArrowLeft"":23,""ArrowUp,ArrowRight"":10,""ArrowDown,ArrowLeft"":8,""ArrowDown,ArrowRight"":30}","false","ArrowUp,ArrowLeft","false","","","original","2","2","","",""
"html-keyboard-response","288","1295115","0.0-4.0-2.1-1.51","spark_pilot_2","7306","8","11","Female","","","","","","","null","<div style=""font-size:60px;"">+</div>","null","fixation","","","","","","","","","","","3","","",""
"revaluation","289","1301156","0.0-4.0-2.1-0.52","spark_pilot_2","7306","8","11","Female","","false","","","","","[476.69999998807907,595.8999999761581]","./assets/img/ocean/memory/24.jpg","[""ArrowDown"",""ArrowLeft""]","value training","ocean","8","{""ArrowUp,ArrowLeft"":23,""ArrowUp,ArrowRight"":10,""ArrowDown,ArrowLeft"":8,""ArrowDown,ArrowRight"":30}","false","ArrowDown,ArrowLeft","false","","","original","2","4","","",""
"html-keyboard-response","290","1301675","0.0-4.0-2.1-1.52","spark_pilot_2","7306","8","11","Female","","","","","","","null","<div style=""font-size:60px;"">+</div>","null","fixation","","","","","","","","","","","5","","",""
"revaluation","291","1307726","0.0-4.0-2.1-0.53","spark_pilot_2","7306","8","11","Female","","false","","","","","[1502.2999999523163,1131.8999999761581]","./assets/img/ocean/memory/9.jpg","[""ArrowDown"",""ArrowRight""]","value training","ocean","30","{""ArrowUp,ArrowLeft"":23,""ArrowUp,ArrowRight"":10,""ArrowDown,ArrowLeft"":8,""ArrowDown,ArrowRight"":30}","true","ArrowDown,ArrowRight","false","","","original","2","6","","",""
"html-keyboard-response","292","1308245","0.0-4.0-2.1-1.53","spark_pilot_2","7306","8","11","Female","","","","","","","null","<div style=""font-size:60px;"">+</div>","null","fixation","","","","","","","","","","","7","","",""
"revaluation","293","1314254","0.0-4.0-2.1-0.54","spark_pilot_2","7306","8","11","Female","","false","","","","","[675.8000000119209,767.3000000119209]","./assets/img/ocean/memory/37.jpg","[""ArrowDown"",""ArrowRight""]","value training","ocean","30","{""ArrowUp,ArrowLeft"":23,""ArrowUp,ArrowRight"":10,""ArrowDown,ArrowLeft"":8,""ArrowDown,ArrowRight"":30}","true","ArrowDown,ArrowRight","false","","","original","2","8","","",""
"html-keyboard-response","294","1314755","0.0-4.0-2.1-1.54","spark_pilot_2","7306","8","11","Female","","","","","","","null","<div style=""font-size:60px;"">+</div>","null","fixation","","","","","","","","","","","9","","",""
"revaluation","295","1320763","0.0-4.0-2.1-0.55","spark_pilot_2","7306","8","11","Female","","false","","","","","[701.5,756.1999999880791]","./assets/img/ocean/memory/11.jpg","[""ArrowDown"",""ArrowRight""]","value training","ocean","30","{""ArrowUp,ArrowLeft"":23,""ArrowUp,ArrowRight"":10,""ArrowDown,ArrowLeft"":8,""ArrowDown,ArrowRight"":30}","true","ArrowDown,ArrowRight","false","","","original","2","10","","",""
"html-keyboard-response","296","1321265","0.0-4.0-2.1-1.55","spark_pilot_2","7306","8","11","Female","","","","","","","null","<div style=""font-size:60px;"">+</div>","null","fixation","","","","","","","","","","","11","","",""
"revaluation","297","1327273","0.0-4.0-2.1-0.56","spark_pilot_2","7306","8","11","Female","","false","","","","","[749.9000000357628,1309.6000000238419]","./assets/img/ocean/memory/27.jpg","[""ArrowDown"",""ArrowRight""]","value training","ocean","30","{""ArrowUp,ArrowLeft"":23,""ArrowUp,ArrowRight"":10,""ArrowDown,ArrowLeft"":8,""ArrowDown,ArrowRight"":30}","true","ArrowDown,ArrowRight","false","","","original","2","12","","",""
"html-keyboard-response","298","1327775","0.0-4.0-2.1-1.56","spark_pilot_2","7306","8","11","Female","","","","","","","null","<div style=""font-size:60px;"">+</div>","null","fixation","","","","","","","","","","","13","","",""
"revaluation","299","1333783","0.0-4.0-2.1-0.57","spark_pilot_2","7306","8","11","Female","","false","","","","","[1136.3999999761581,696.4000000357628]","./assets/img/ocean/memory/40.jpg","[""ArrowDown"",""ArrowRight""]","value training","ocean","30","{""ArrowUp,ArrowLeft"":23,""ArrowUp,ArrowRight"":10,""ArrowDown,ArrowLeft"":8,""ArrowDown,ArrowRight"":30}","true","ArrowDown,ArrowRight","false","","","original","2","14","","",""
"html-keyboard-response","300","1334284","0.0-4.0-2.1-1.57","spark_pilot_2","7306","8","11","Female","","","","","","","null","<div style=""font-size:60px;"">+</div>","null","fixation","","","","","","","","","","","15","","",""
"revaluation","301","1340289","0.0-4.0-2.1-0.58","spark_pilot_2","7306","8","11","Female","","false","","","","","[645.2000000476837,701.9000000357628]","./assets/img/ocean/memory/18.jpg","[""ArrowDown"",""ArrowRight""]","value training","ocean","30","{""ArrowUp,ArrowLeft"":23,""ArrowUp,ArrowRight"":10,""ArrowDown,ArrowLeft"":8,""ArrowDown,ArrowRight"":30}","true","ArrowDown,ArrowRight","false","","","original","2","16","","",""
"html-keyboard-response","302","1340790","0.0-4.0-2.1-1.58","spark_pilot_2","7306","8","11","Female","","","","","","","null","<div style=""font-size:60px;"">+</div>","null","fixation","","","","","","","","","","","17","","",""
"revaluation","303","1344796","0.0-4.0-2.1-0.59","spark_pilot_2","7306","8","11","Female","","false","","","","","[699.3000000119209]","./assets/img/ocean/catch/0.jpg","[""spaceBar""]","value training","ocean","0","{""ArrowUp,ArrowLeft"":23,""ArrowUp,ArrowRight"":10,""ArrowDown,ArrowLeft"":8,""ArrowDown,ArrowRight"":30}","true","spaceBar","true","","","original","2","18","","",""
"html-keyboard-response","304","1345299","0.0-4.0-2.1-1.59","spark_pilot_2","7306","8","11","Female","","","","","","","null","<div style=""font-size:60px;"">+</div>","null","fixation","","","","","","","","","","","19","","",""
