"trial_type","trial_index","time_elapsed","internal_node_id","task_version","subject_id","assigned_condition","age","gender","success","timeout","failed_images","failed_audio","failed_video","browser_interaction","rt","stimulus","response","task_part","environment","score","rewardMap","correct","fullState","isCatch","numberMissed","duration","condition","order","trial_num","key_press","ground_truth","bonus"
"pavlovia","0","1230","0.0-0.0","spark_pilot_2","7468","6","20","Female","","","","","","","","","","","","","","","","","","","","","","","",""
"preload","1","18109","0.0-1.0","spark_pilot_2","7468","6","20","Female","true","false","[]","[]","[]","[{""event"":""fullscreenenter"",""trial"":2,""time"":22415}]","","","","","","","","","","","","","","","","","",""
"fullscreen","2","23370","0.0-2.0","spark_pilot_2","7468","6","20","Female","true","","","","","","","","","","","","","","","","","","","","","","",""
"audio-button-response","3","27885","0.0-3.0-0.0-0.0","spark_pilot_2","7468","6","20","Female","","","","","","","4373","./assets/audio/audiotest/turtle.mp3","2","audio_test","","","","","","","","","","","","","",""
"learning-instructions","4","36823","0.0-3.0-1.0-0.0","spark_pilot_2","7468","6","20","Female","","","","","","","1941","<p> Welcome! Please remember to stay in fullscreen mode and don't click away from the experiment. </p>","","instructions","","","","","","","","","","","","","",""
"learning-instructions","5","46611","0.0-3.0-1.0-0.1","spark_pilot_2","7468","6","20","Female","","","","","","","1343.4000000003725","<p> Today you will be playing a game to earn treasure. </p>
            <p> At the end of the experiment, you will earn a bonus based on how much treasure you find. </p>
            <img src='./assets/img/instructions/treasure.jpg' class='instructions-image'>","","instructions","","","","","","","","","","","","","",""
"learning-instructions","6","60122","0.0-3.0-1.0-0.2","spark_pilot_2","7468","6","20","Female","","","","","","","5229.9000000003725","<p> Animals have hidden treasure in treasure chests. </p>
            <p> You need to first find an animal and then choose which of their treasure chests to search. </p>
            <img src='./assets/img/space/animals/cat.jpg' class='instructions-image'>","","instructions","","","","","","","","","","","","","",""
"learning-instructions","7","77054","0.0-3.0-1.0-0.3","spark_pilot_2","7468","6","20","Female","","","","","","","3732.5999999996275","<p> In each round, you will search for treasure in a different place. In the real game, there will be two rounds. </p>
            <p> You will begin with a separate, practice round where you will search for treasure in outer space. </p>
            <img src='./assets/img/space/0.jpg' class='instructions-image'>","","instructions","","","","","","","","","","","","","",""
"learning-instructions","8","90115","0.0-3.0-1.0-0.4","spark_pilot_2","7468","6","20","Female","","","","","","","1582.6000000005588","<p> On every turn, you will see a picture of the place that you are in, but the specific image may be different each time. </p>
            <p> For example, both of these images mean you are in outer space. </p>
            <img src='./assets/img/instructions/outerspace.jpg' class='instructions-image'>","","instructions","","","","","","","","","","","","","",""
"learning-instructions","9","98616","0.0-3.0-1.0-0.5","spark_pilot_2","7468","6","20","Female","","","","","","","643.3999999994412","<p> You need to decide which direction to travel in. </p>
            <p> You can choose between going <b>up or down</b> by using the arrow keys. </p>
            <img src='./assets/img/instructions/updown.jpg' class='instructions-image'>","","instructions","","","","","","","","","","","","","",""
"learning-instructions","10","108479","0.0-3.0-1.0-0.6","spark_pilot_2","7468","6","20","Female","","","","","","","1023.6999999992549","<p> You will have <b>2 seconds</b> to make your choice. </p>
            <p> If you do not make a choice within 2 seconds, you will not find an animal or earn treasure. </p>
            <img src='./assets/img/instructions/2seconds.jpg' class='instructions-image'>","","instructions","","","","","","","","","","","","","",""
"learning-instructions","11","117399","0.0-3.0-1.0-0.7","spark_pilot_2","7468","6","20","Female","","","","","","","1858.7000000001863","<p> Let’s try practicing that now! </p>
            <p> When you see a picture of the place you are in, press the <b>up</b> key to travel up. </p>
            <img src='./assets/img/instructions/pressUp.jpg' class='instructions-image'>","","instructions","","","","","","","","","","","","","",""
"revaluation","12","121428","0.0-3.0-2.0-0.0","spark_pilot_2","7468","6","20","Female","","false","","","","","[1561.7999999998137]","./assets/img/space/0.jpg","[""ArrowUp""]","first stage practice","space","0","null","null","ArrowUp","false","","","","","","","",""
"html-keyboard-response","13","121931","0.0-3.0-2.0-1.0","spark_pilot_2","7468","6","20","Female","","","","","","","null","<div style=""font-size:60px;"">+</div>","null","fixation","","","","","","","","","","","","","",""
"revaluation","14","125948","0.0-3.0-2.0-0.1","spark_pilot_2","7468","6","20","Female","","false","","","","","[1980]","./assets/img/space/1.jpg","[""ArrowUp""]","first stage practice","space","0","null","null","ArrowUp","false","","","","","","","",""
"html-keyboard-response","15","126451","0.0-3.0-2.0-1.1","spark_pilot_2","7468","6","20","Female","","","","","","","null","<div style=""font-size:60px;"">+</div>","null","fixation","","","","","","","","","","","","","",""
"revaluation","16","130467","0.0-3.0-2.0-0.2","spark_pilot_2","7468","6","20","Female","","false","","","","","[1384.9000000003725]","./assets/img/space/2.jpg","[""ArrowUp""]","first stage practice","space","0","null","null","ArrowUp","false","","","","","","","",""
"html-keyboard-response","17","130971","0.0-3.0-2.0-1.2","spark_pilot_2","7468","6","20","Female","","","","","","","null","<div style=""font-size:60px;"">+</div>","null","fixation","","","","","","","","","","","","","",""
"learning-instructions","18","137367","0.0-3.0-3.0-0.0","spark_pilot_2","7468","6","20","Female","","","","","","","1677","<p> Great job! Now try pressing the <b>down</b> key to travel down. </p>
            <img src='./assets/img/instructions/pressDown.jpg' class='instructions-image'>","","instructions","","","","","","","","","","","","","",""
"revaluation","19","141380","0.0-3.0-4.0-0.0","spark_pilot_2","7468","6","20","Female","","false","","","","","[810.5]","./assets/img/space/3.jpg","[""ArrowDown""]","first stage practice","space","0","null","null","ArrowDown","false","","","","","","","",""
"html-keyboard-response","20","141883","0.0-3.0-4.0-1.0","spark_pilot_2","7468","6","20","Female","","","","","","","null","<div style=""font-size:60px;"">+</div>","null","fixation","","","","","","","","","","","","","",""
"revaluation","21","145899","0.0-3.0-4.0-0.1","spark_pilot_2","7468","6","20","Female","","false","","","","","[698.2000000001863]","./assets/img/space/4.jpg","[""ArrowDown""]","first stage practice","space","0","null","null","ArrowDown","false","","","","","","","",""
"html-keyboard-response","22","146403","0.0-3.0-4.0-1.1","spark_pilot_2","7468","6","20","Female","","","","","","","null","<div style=""font-size:60px;"">+</div>","null","fixation","","","","","","","","","","","","","",""
"revaluation","23","150419","0.0-3.0-4.0-0.2","spark_pilot_2","7468","6","20","Female","","false","","","","","[661.1000000005588]","./assets/img/space/5.jpg","[""ArrowDown""]","first stage practice","space","0","null","null","ArrowDown","false","","","","","","","",""
"html-keyboard-response","24","150923","0.0-3.0-4.0-1.2","spark_pilot_2","7468","6","20","Female","","","","","","","null","<div style=""font-size:60px;"">+</div>","null","fixation","","","","","","","","","","","","","",""
"learning-instructions","25","162525","0.0-3.0-5.0-0.0","spark_pilot_2","7468","6","20","Female","","","","","","","1726.7999999998137","<p> The animals don’t move, so the animal in the upper part of a place will stay in the upper part of a place, and the animal in the lower part of a place will stay in the lower part of a place. </p>","","instructions","","","","","","","","","","","","","",""
"learning-instructions","26","173607","0.0-3.0-5.0-0.1","spark_pilot_2","7468","6","20","Female","","","","","","","1917.2000000001863","<p> Each animal has two treasure chests for you to choose from. </p>
            <p> The amount of treasure in each chest can range from <b> 0 to 40 pieces.</b></p>","","instructions","","","","","","","","","","","","","",""
"learning-instructions","27","186703","0.0-3.0-5.0-0.2","spark_pilot_2","7468","6","20","Female","","","","","","","1872.4000000003725","<p> You should decide which chest to search for treasure by using the <b>left</b> and <b>right</b> arrow keys. </p>
            <p><b> Pay attention to which animal is on the screen, as the animals have different treasure chests. </b></p>
            <img src='./assets/img/instructions/leftright.jpg' class='instructions-image'>","","instructions","","","","","","","","","","","","","",""
"learning-instructions","28","194241","0.0-3.0-5.0-0.3","spark_pilot_2","7468","6","20","Female","","","","","","","1143.7000000001863","<p> Let’s try practicing that now. </p>
            <p> When you see an animal, choose which chest to search for treasure. </p>
            <img src='./assets/img/instructions/chooseChest.jpg' class='instructions-image'>","","instructions","","","","","","","","","","","","","",""
"revaluation","29","198259","0.0-3.0-6.0-0.0","spark_pilot_2","7468","6","20","Female","","true","","","","","[]","./assets/img/space/animals/rabbit.jpg","[]","second stage practice","space","-5","{""ArrowUp,ArrowLeft"":3,""ArrowUp,ArrowRight"":36,""ArrowDown,ArrowLeft"":15,""ArrowDown,ArrowRight"":23}","false","ArrowDown","","","","","","","","",""
"html-keyboard-response","30","198763","0.0-3.0-6.0-1.0","spark_pilot_2","7468","6","20","Female","","","","","","","null","<div style=""font-size:60px;"">+</div>","null","fixation","","","","","","","","","","","","","",""
"revaluation","31","202779","0.0-3.0-6.0-0.1","spark_pilot_2","7468","6","20","Female","","false","","","","","[754.8999999994412]","./assets/img/space/animals/rabbit.jpg","[""ArrowRight""]","second stage practice","space","23","{""ArrowUp,ArrowLeft"":3,""ArrowUp,ArrowRight"":36,""ArrowDown,ArrowLeft"":15,""ArrowDown,ArrowRight"":23}","true","ArrowDown,ArrowRight","","","","","","","","",""
"html-keyboard-response","32","203283","0.0-3.0-6.0-1.1","spark_pilot_2","7468","6","20","Female","","","","","","","null","<div style=""font-size:60px;"">+</div>","null","fixation","","","","","","","","","","","","","",""
"revaluation","33","207300","0.0-3.0-6.0-0.2","spark_pilot_2","7468","6","20","Female","","false","","","","","[805.1000000005588]","./assets/img/space/animals/cat.jpg","[""ArrowLeft""]","second stage practice","space","3","{""ArrowUp,ArrowLeft"":3,""ArrowUp,ArrowRight"":36,""ArrowDown,ArrowLeft"":15,""ArrowDown,ArrowRight"":23}","false","ArrowUp,ArrowLeft","","","","","","","","",""
"html-keyboard-response","34","207802","0.0-3.0-6.0-1.2","spark_pilot_2","7468","6","20","Female","","","","","","","null","<div style=""font-size:60px;"">+</div>","null","fixation","","","","","","","","","","","","","",""
"revaluation","35","211819","0.0-3.0-6.0-0.3","spark_pilot_2","7468","6","20","Female","","false","","","","","[1299.0999999996275]","./assets/img/space/animals/cat.jpg","[""ArrowRight""]","second stage practice","space","36","{""ArrowUp,ArrowLeft"":3,""ArrowUp,ArrowRight"":36,""ArrowDown,ArrowLeft"":15,""ArrowDown,ArrowRight"":23}","true","ArrowUp,ArrowRight","","","","","","","","",""
"html-keyboard-response","36","212323","0.0-3.0-6.0-1.3","spark_pilot_2","7468","6","20","Female","","","","","","","null","<div style=""font-size:60px;"">+</div>","null","fixation","","","","","","","","","","","","","",""
"learning-instructions","37","231193","0.0-3.0-7.0-0.0","spark_pilot_2","7468","6","20","Female","","","","","","","1935.699999999255","<p> Great job. Now let’s try putting it together. </p>
            <p> On each turn, you will first see a picture to remind you of the place you are in, and you need to choose whether to go up or down. </p>
            <p> Then you will see an animal and choose which of its chests to search for treasure. </p>","","instructions","","","","","","","","","","","","","",""
"learning-instructions","38","240037","0.0-3.0-7.0-0.1","spark_pilot_2","7468","6","20","Female","","","","","","","560.8999999994412","<p> When you choose whether to go up or down, try to go to the animal with the chest with the most treasure. </p>
            <p> Try practicing that now! </p>","","instructions","","","","","","","","","","","","","",""
"revaluation","39","246059","0.0-3.0-8.0-0.0","spark_pilot_2","7468","6","20","Female","","false","","","","","[996.7000000001863,822.7000000001863]","./assets/img/space/6.jpg","[""ArrowUp"",""ArrowRight""]","full practice","space","36","{""ArrowUp,ArrowLeft"":3,""ArrowUp,ArrowRight"":36,""ArrowDown,ArrowLeft"":15,""ArrowDown,ArrowRight"":23}","true","ArrowUp,ArrowRight","false","","","","","","","",""
"html-keyboard-response","40","246563","0.0-3.0-8.0-1.0","spark_pilot_2","7468","6","20","Female","","","","","","","null","<div style=""font-size:60px;"">+</div>","null","fixation","","","","","","","","","","","","","",""
"revaluation","41","252587","0.0-3.0-8.0-0.1","spark_pilot_2","7468","6","20","Female","","false","","","","","[815.0999999996275,830]","./assets/img/space/7.jpg","[""ArrowUp"",""ArrowLeft""]","full practice","space","3","{""ArrowUp,ArrowLeft"":3,""ArrowUp,ArrowRight"":36,""ArrowDown,ArrowLeft"":15,""ArrowDown,ArrowRight"":23}","false","ArrowUp,ArrowLeft","false","","","","","","","",""
"html-keyboard-response","42","253091","0.0-3.0-8.0-1.1","spark_pilot_2","7468","6","20","Female","","","","","","","null","<div style=""font-size:60px;"">+</div>","null","fixation","","","","","","","","","","","","","",""
"revaluation","43","259123","0.0-3.0-8.0-0.2","spark_pilot_2","7468","6","20","Female","","false","","","","","[1185,576]","./assets/img/space/8.jpg","[""ArrowUp"",""ArrowRight""]","full practice","space","36","{""ArrowUp,ArrowLeft"":3,""ArrowUp,ArrowRight"":36,""ArrowDown,ArrowLeft"":15,""ArrowDown,ArrowRight"":23}","true","ArrowUp,ArrowRight","false","","","","","","","",""
"html-keyboard-response","44","259627","0.0-3.0-8.0-1.2","spark_pilot_2","7468","6","20","Female","","","","","","","null","<div style=""font-size:60px;"">+</div>","null","fixation","","","","","","","","","","","","","",""
"revaluation","45","265651","0.0-3.0-8.0-0.3","spark_pilot_2","7468","6","20","Female","","false","","","","","[574.7000000001863,242.29999999981374]","./assets/img/space/9.jpg","[""ArrowUp"",""ArrowRight""]","full practice","space","36","{""ArrowUp,ArrowLeft"":3,""ArrowUp,ArrowRight"":36,""ArrowDown,ArrowLeft"":15,""ArrowDown,ArrowRight"":23}","true","ArrowUp,ArrowRight","false","","","","","","","",""
"html-keyboard-response","46","266155","0.0-3.0-8.0-1.3","spark_pilot_2","7468","6","20","Female","","","","","","","null","<div style=""font-size:60px;"">+</div>","null","fixation","","","","","","","","","","","","","",""
"revaluation","47","272179","0.0-3.0-8.0-0.4","spark_pilot_2","7468","6","20","Female","","false","","","","","[773.7999999998137,178.6000000005588]","./assets/img/space/10.jpg","[""ArrowUp"",""ArrowRight""]","full practice","space","36","{""ArrowUp,ArrowLeft"":3,""ArrowUp,ArrowRight"":36,""ArrowDown,ArrowLeft"":15,""ArrowDown,ArrowRight"":23}","true","ArrowUp,ArrowRight","false","","","","","","","",""
"html-keyboard-response","48","272683","0.0-3.0-8.0-1.4","spark_pilot_2","7468","6","20","Female","","","","","","","null","<div style=""font-size:60px;"">+</div>","null","fixation","","","","","","","","","","","","","",""
"learning-instructions","49","284090","0.0-3.0-9.0-0.0","spark_pilot_2","7468","6","20","Female","","","","","","","1079.2000000001863","<p> One last thing: sometimes, you will see a robber. The robber can be anywhere in the picture. </p>
            <p> If you do not stop them, you will lose treasure. </p>
            <img src='./assets/img/instructions/robber.jpg' class='instructions-image'>","","instructions","","","","","","","","","","","","","",""
"learning-instructions","50","292571","0.0-3.0-9.0-0.1","spark_pilot_2","7468","6","20","Female","","","","","","","1295.2999999998137","<p> If you see the robber, you should <b>press the space bar</b> rather than using the arrow keys. </p>
            <p> Try practicing that now! </p>","","instructions","","","","","","","","","","","","","",""
"revaluation","51","296588","0.0-3.0-10.0-0.0","spark_pilot_2","7468","6","20","Female","","false","","","","","[1005.5999999996275]","./assets/img/space/catch/0.jpg","[""spaceBar""]","catch practice","space","0","{""ArrowUp,ArrowLeft"":3,""ArrowUp,ArrowRight"":36,""ArrowDown,ArrowLeft"":15,""ArrowDown,ArrowRight"":23}","true","spaceBar","true","","","","","","","",""
"html-keyboard-response","52","297091","0.0-3.0-10.0-1.0","spark_pilot_2","7468","6","20","Female","","","","","","","null","<div style=""font-size:60px;"">+</div>","null","fixation","","","","","","","","","","","","","",""
"revaluation","53","301107","0.0-3.0-10.0-0.1","spark_pilot_2","7468","6","20","Female","","false","","","","","[1142.9000000003725]","./assets/img/space/catch/1.jpg","[""spaceBar""]","catch practice","space","0","{""ArrowUp,ArrowLeft"":3,""ArrowUp,ArrowRight"":36,""ArrowDown,ArrowLeft"":15,""ArrowDown,ArrowRight"":23}","true","spaceBar","true","","","","","","","",""
"html-keyboard-response","54","301611","0.0-3.0-10.0-1.1","spark_pilot_2","7468","6","20","Female","","","","","","","null","<div style=""font-size:60px;"">+</div>","null","fixation","","","","","","","","","","","","","",""
"revaluation","55","305627","0.0-3.0-10.0-0.2","spark_pilot_2","7468","6","20","Female","","false","","","","","[625.5]","./assets/img/space/catch/2.jpg","[""spaceBar""]","catch practice","space","0","{""ArrowUp,ArrowLeft"":3,""ArrowUp,ArrowRight"":36,""ArrowDown,ArrowLeft"":15,""ArrowDown,ArrowRight"":23}","true","spaceBar","true","","","","","","","",""
"html-keyboard-response","56","306131","0.0-3.0-10.0-1.2","spark_pilot_2","7468","6","20","Female","","","","","","","null","<div style=""font-size:60px;"">+</div>","null","fixation","","","","","","","","","","","","","",""
"learning-instructions","57","334645","0.0-3.0-11.0-0.0","spark_pilot_2","7468","6","20","Female","","","","","","","14888","<p> After you explore a place to find treasure, it will be time to play a different game. </p>
            <p> During this game, red dots will appear on the screen and fall down slowly. </p>
            <p><b> You must click on them before they reach the bottom. </b></p>
            <img src='./assets/img/instructions/dotGame.jpg' class='instructions-image'>","","instructions","","","","","","","","","","","","","",""
"learning-instructions","58","341153","0.0-3.0-11.0-0.1","spark_pilot_2","7468","6","20","Female","","","","","","","809.5999999996275","<p> For every dot you click, you will earn additional treasure. </p>
            <p> Let’s try practicing that now. </p>","","instructions","","","","","","","","","","","","","",""
"revaluation","59","356167","0.0-3.0-12.0-0.0","spark_pilot_2","7468","6","20","Female","","","","","","","[105]","","","rest practice","","10","","","","","0","15000","","","","","",""
"learning-instructions","60","363473","0.0-3.0-13.0-0.0-0.0","spark_pilot_2","7468","6","20","Female","","","","","","","2010.0999999996275","<p> Now, you will practice a shortened version of the game to get a sense of how it all fits together. </p>","","instructions","","","","","","","","","","","","","",""
"learning-instructions","61","368045","0.0-3.0-13.0-0.0-0.1","spark_pilot_2","7468","6","20","Female","","","","","","","1365.7999999998137","<p>This time you are searching for treasure in outer space.</p>","","instructions","","","","","","","","","","","","","",""
"learning-instructions","62","383779","0.0-3.0-13.0-1.0-0.0","spark_pilot_2","7468","6","20","Female","","","","","","","918.2000000001863","<p> Remember, when you see a picture of the place, use the up and down keys to <b>find an animal</b>.</p>
            <p> When you encounter an animal, you should use the left and right keys to <b>select a treasure chest</b>.</p>
            <p> Don't forget to look out for the robber! </p>","","instructions","","","","","","","","","","","","","",""
"revaluation","63","389804","0.0-3.0-13.0-2.0-0.0","spark_pilot_2","7468","6","20","Female","","false","","","","","[1253.2000000001863,1013]","./assets/img/space/11.jpg","[""ArrowUp"",""ArrowRight""]","practice block","space","36","{""ArrowUp,ArrowLeft"":3,""ArrowUp,ArrowRight"":36,""ArrowDown,ArrowLeft"":15,""ArrowDown,ArrowRight"":23}","true","ArrowUp,ArrowRight","false","","","","","","","",""
"html-keyboard-response","64","390307","0.0-3.0-13.0-2.0-1.0","spark_pilot_2","7468","6","20","Female","","","","","","","null","<div style=""font-size:60px;"">+</div>","null","fixation","","","","","","","","","","","","","",""
"revaluation","65","396323","0.0-3.0-13.0-2.0-0.1","spark_pilot_2","7468","6","20","Female","","false","","","","","[1251.3999999994412,688]","./assets/img/space/12.jpg","[""ArrowDown"",""ArrowRight""]","practice block","space","23","{""ArrowUp,ArrowLeft"":3,""ArrowUp,ArrowRight"":36,""ArrowDown,ArrowLeft"":15,""ArrowDown,ArrowRight"":23}","false","ArrowDown,ArrowRight","false","","","","","","","",""
"html-keyboard-response","66","396827","0.0-3.0-13.0-2.0-1.1","spark_pilot_2","7468","6","20","Female","","","","","","","null","<div style=""font-size:60px;"">+</div>","null","fixation","","","","","","","","","","","","","",""
"revaluation","67","402851","0.0-3.0-13.0-2.0-0.2","spark_pilot_2","7468","6","20","Female","","false","","","","","[830.8999999994412,434.40000000037253]","./assets/img/space/13.jpg","[""ArrowDown"",""ArrowLeft""]","practice block","space","15","{""ArrowUp,ArrowLeft"":3,""ArrowUp,ArrowRight"":36,""ArrowDown,ArrowLeft"":15,""ArrowDown,ArrowRight"":23}","false","ArrowDown,ArrowLeft","false","","","","","","","",""
"html-keyboard-response","68","403355","0.0-3.0-13.0-2.0-1.2","spark_pilot_2","7468","6","20","Female","","","","","","","null","<div style=""font-size:60px;"">+</div>","null","fixation","","","","","","","","","","","","","",""
"revaluation","69","409379","0.0-3.0-13.0-2.0-0.3","spark_pilot_2","7468","6","20","Female","","false","","","","","[537.5,452.3999999994412]","./assets/img/space/14.jpg","[""ArrowUp"",""ArrowRight""]","practice block","space","36","{""ArrowUp,ArrowLeft"":3,""ArrowUp,ArrowRight"":36,""ArrowDown,ArrowLeft"":15,""ArrowDown,ArrowRight"":23}","true","ArrowUp,ArrowRight","false","","","","","","","",""
"html-keyboard-response","70","409883","0.0-3.0-13.0-2.0-1.3","spark_pilot_2","7468","6","20","Female","","","","","","","null","<div style=""font-size:60px;"">+</div>","null","fixation","","","","","","","","","","","","","",""
"revaluation","71","415907","0.0-3.0-13.0-2.0-0.4","spark_pilot_2","7468","6","20","Female","","false","","","","","[906.7000000001863,250.90000000037253]","./assets/img/space/11.jpg","[""ArrowDown"",""ArrowRight""]","practice block","space","23","{""ArrowUp,ArrowLeft"":3,""ArrowUp,ArrowRight"":36,""ArrowDown,ArrowLeft"":15,""ArrowDown,ArrowRight"":23}","false","ArrowDown,ArrowRight","false","","","","","","","",""
"html-keyboard-response","72","416411","0.0-3.0-13.0-2.0-1.4","spark_pilot_2","7468","6","20","Female","","","","","","","null","<div style=""font-size:60px;"">+</div>","null","fixation","","","","","","","","","","","","","",""
"revaluation","73","422435","0.0-3.0-13.0-2.0-0.5","spark_pilot_2","7468","6","20","Female","","false","","","","","[784,320.19999999925494]","./assets/img/space/12.jpg","[""ArrowUp"",""ArrowRight""]","practice block","space","36","{""ArrowUp,ArrowLeft"":3,""ArrowUp,ArrowRight"":36,""ArrowDown,ArrowLeft"":15,""ArrowDown,ArrowRight"":23}","true","ArrowUp,ArrowRight","false","","","","","","","",""
"html-keyboard-response","74","422940","0.0-3.0-13.0-2.0-1.5","spark_pilot_2","7468","6","20","Female","","","","","","","null","<div style=""font-size:60px;"">+</div>","null","fixation","","","","","","","","","","","","","",""
"revaluation","75","428963","0.0-3.0-13.0-2.0-0.6","spark_pilot_2","7468","6","20","Female","","false","","","","","[1791.6000000005588,741.0999999996275]","./assets/img/space/13.jpg","[""ArrowUp"",""ArrowRight""]","practice block","space","36","{""ArrowUp,ArrowLeft"":3,""ArrowUp,ArrowRight"":36,""ArrowDown,ArrowLeft"":15,""ArrowDown,ArrowRight"":23}","true","ArrowUp,ArrowRight","false","","","","","","","",""
"html-keyboard-response","76","429467","0.0-3.0-13.0-2.0-1.6","spark_pilot_2","7468","6","20","Female","","","","","","","null","<div style=""font-size:60px;"">+</div>","null","fixation","","","","","","","","","","","","","",""
"revaluation","77","435491","0.0-3.0-13.0-2.0-0.7","spark_pilot_2","7468","6","20","Female","","false","","","","","[867.7000000001863,1041.3999999994412]","./assets/img/space/14.jpg","[""ArrowUp"",""ArrowLeft""]","practice block","space","3","{""ArrowUp,ArrowLeft"":3,""ArrowUp,ArrowRight"":36,""ArrowDown,ArrowLeft"":15,""ArrowDown,ArrowRight"":23}","false","ArrowUp,ArrowLeft","false","","","","","","","",""
"html-keyboard-response","78","435995","0.0-3.0-13.0-2.0-1.7","spark_pilot_2","7468","6","20","Female","","","","","","","null","<div style=""font-size:60px;"">+</div>","null","fixation","","","","","","","","","","","","","",""
"revaluation","79","440011","0.0-3.0-13.0-2.0-0.8","spark_pilot_2","7468","6","20","Female","","false","","","","","[583.7999999998137]","./assets/img/space/catch/3.jpg","[""spaceBar""]","practice block","space","0","{""ArrowUp,ArrowLeft"":3,""ArrowUp,ArrowRight"":36,""ArrowDown,ArrowLeft"":15,""ArrowDown,ArrowRight"":23}","true","spaceBar","true","","","","","","","",""
"html-keyboard-response","80","440515","0.0-3.0-13.0-2.0-1.8","spark_pilot_2","7468","6","20","Female","","","","","","","null","<div style=""font-size:60px;"">+</div>","null","fixation","","","","","","","","","","","","","",""
"learning-instructions","81","455119","0.0-3.0-13.0-3.0-0.0","spark_pilot_2","7468","6","20","Female","","","","","","","1574.7000000001863","<p> Now, you will travel with a friend who will choose whether you go up or down first. </p>
            <p> On these turns, you will just see the animal that they found. You will still get to choose which chest to search for treasure.</p>","","instructions","","","","","","","","","","","","","",""
"revaluation","82","459139","0.0-3.0-13.0-4.0-0.0","spark_pilot_2","7468","6","20","Female","","false","","","","","[1663.2000000001863]","./assets/img/space/animals/rabbit.jpg","[""ArrowRight""]","practice block","space","23","{""ArrowUp,ArrowLeft"":3,""ArrowUp,ArrowRight"":36,""ArrowDown,ArrowLeft"":15,""ArrowDown,ArrowRight"":23}","true","ArrowDown,ArrowRight","","","","","","","","",""
"html-keyboard-response","83","459643","0.0-3.0-13.0-4.0-1.0","spark_pilot_2","7468","6","20","Female","","","","","","","null","<div style=""font-size:60px;"">+</div>","null","fixation","","","","","","","","","","","","","",""
"revaluation","84","463659","0.0-3.0-13.0-4.0-0.1","spark_pilot_2","7468","6","20","Female","","false","","","","","[998.6000000005588]","./assets/img/space/animals/rabbit.jpg","[""ArrowRight""]","practice block","space","23","{""ArrowUp,ArrowLeft"":3,""ArrowUp,ArrowRight"":36,""ArrowDown,ArrowLeft"":15,""ArrowDown,ArrowRight"":23}","true","ArrowDown,ArrowRight","","","","","","","","",""
"html-keyboard-response","85","464163","0.0-3.0-13.0-4.0-1.1","spark_pilot_2","7468","6","20","Female","","","","","","","null","<div style=""font-size:60px;"">+</div>","null","fixation","","","","","","","","","","","","","",""
"revaluation","86","468179","0.0-3.0-13.0-4.0-0.2","spark_pilot_2","7468","6","20","Female","","false","","","","","[1018.2000000001863]","./assets/img/space/animals/cat.jpg","[""ArrowLeft""]","practice block","space","3","{""ArrowUp,ArrowLeft"":3,""ArrowUp,ArrowRight"":36,""ArrowDown,ArrowLeft"":15,""ArrowDown,ArrowRight"":23}","false","ArrowUp,ArrowLeft","","","","","","","","",""
"html-keyboard-response","87","468683","0.0-3.0-13.0-4.0-1.2","spark_pilot_2","7468","6","20","Female","","","","","","","null","<div style=""font-size:60px;"">+</div>","null","fixation","","","","","","","","","","","","","",""
"revaluation","88","472699","0.0-3.0-13.0-4.0-0.3","spark_pilot_2","7468","6","20","Female","","false","","","","","[942.7999999998137]","./assets/img/space/animals/cat.jpg","[""ArrowRight""]","practice block","space","36","{""ArrowUp,ArrowLeft"":3,""ArrowUp,ArrowRight"":36,""ArrowDown,ArrowLeft"":15,""ArrowDown,ArrowRight"":23}","true","ArrowUp,ArrowRight","","","","","","","","",""
"html-keyboard-response","89","473203","0.0-3.0-13.0-4.0-1.3","spark_pilot_2","7468","6","20","Female","","","","","","","null","<div style=""font-size:60px;"">+</div>","null","fixation","","","","","","","","","","","","","",""
"learning-instructions","90","482093","0.0-3.0-13.0-5.0-0.0","spark_pilot_2","7468","6","20","Female","","","","","","","1498.4000000003725","<p> Time to play the dot game! </p>
            <p> For 15 seconds, click the red dots on the following screen as they appear. </p>","","instructions","","","","","","","","","","","","","",""
"revaluation","91","497098","0.0-3.0-13.0-6.0-0.0","spark_pilot_2","7468","6","20","Female","","","","","","","[65]","","","rest practice","","10","","","","","0","15000","","","","","",""
"learning-instructions","92","504469","0.0-3.0-13.0-7.0-0.0","spark_pilot_2","7468","6","20","Female","","","","","","","1217.5999999996275","<p> You have almost finished this part of the game! </p>
            <p> We are going to ask you to make a few more choices. </p>","","instructions","","","","","","","","","","","","","",""
"learning-instructions","93","519083","0.0-3.0-13.0-7.0-0.1","spark_pilot_2","7468","6","20","Female","","","","","","","567.7000000001863","<p> First, you need to decide whether to go up or down. When you see each picture, use the arrow keys to make your choice. </p>
            <p><b>You will not see which animal you found, but try to get to the one that will give you the most treasure.</b></p>","","instructions","","","","","","","","","","","","","",""
"revaluation","94","520107","0.0-3.0-13.0-8.0","spark_pilot_2","7468","6","20","Female","","false","","","","","[1014.7999999998137]","./assets/img/space/15.jpg","[""ArrowUp""]","practice block","space","0","{""ArrowUp,ArrowLeft"":3,""ArrowUp,ArrowRight"":36,""ArrowDown,ArrowLeft"":15,""ArrowDown,ArrowRight"":23}","true","ArrowUp","false","","","","","","","",""
"html-keyboard-response","95","520611","0.0-3.0-13.0-9.0","spark_pilot_2","7468","6","20","Female","","","","","","","null","<div style=""font-size:60px;"">+</div>","null","fixation","","","","","","","","","","","","","",""
"learning-instructions","96","533055","0.0-3.0-13.0-10.0-0.0","spark_pilot_2","7468","6","20","Female","","","","","","","971.7999999998137","<p> Now you will see the animals again and can search their chests for treasure. </p>
            <p> This time, you will not see how much treasure you earned, but you will earn more bonus money for making better choices. </p>","","instructions","","","","","","","","","","","","","",""
"revaluation","97","533925","0.0-3.0-13.0-11.0-0.0","spark_pilot_2","7468","6","20","Female","","false","","","","","[867.0999999996275]","./assets/img/space/animals/cat.jpg","[""ArrowRight""]","practice block","space","0","{""ArrowUp,ArrowLeft"":3,""ArrowUp,ArrowRight"":36,""ArrowDown,ArrowLeft"":15,""ArrowDown,ArrowRight"":23}","true","ArrowUp,ArrowRight","","","","","","","","",""
"html-keyboard-response","98","534435","0.0-3.0-13.0-11.0-1.0","spark_pilot_2","7468","6","20","Female","","","","","","","null","<div style=""font-size:60px;"">+</div>","null","fixation","","","","","","","","","","","","","",""
"revaluation","99","535805","0.0-3.0-13.0-11.0-0.1","spark_pilot_2","7468","6","20","Female","","false","","","","","[1364.5999999996275]","./assets/img/space/animals/rabbit.jpg","[""ArrowRight""]","practice block","space","0","{""ArrowUp,ArrowLeft"":3,""ArrowUp,ArrowRight"":36,""ArrowDown,ArrowLeft"":15,""ArrowDown,ArrowRight"":23}","true","ArrowDown,ArrowRight","","","","","","","","",""
"html-keyboard-response","100","536307","0.0-3.0-13.0-11.0-1.1","spark_pilot_2","7468","6","20","Female","","","","","","","null","<div style=""font-size:60px;"">+</div>","null","fixation","","","","","","","","","","","","","",""
"learning-instructions","101","542603","0.0-3.0-14.0-0.0","spark_pilot_2","7468","6","20","Female","","","","","","","1698.4000000003725","<p> Before you start, we're going to ask you a few questions about how the game works. </p>","","instructions","","","","","","","","","","","","","",""
"comp-q","102","549691","0.0-3.0-15.0-0.0-0.0","spark_pilot_2","7468","6","20","Female","","","","","","","1466.5","<p> <b> True or False? </b> </p>
            <p> There can be 50 pieces of treasure in a given animal's chest. </p>","1","comp_question","","","","true","","","","","","","","","",""
"comp-q","103","557599","0.0-3.0-15.0-0.0-1.0","spark_pilot_2","7468","6","20","Female","","","","","","","1228","<p> <b> That's right! </b> The amount of treasure in each chest can range from 0 to 40 pieces. </p>","0","comp_answer","","","","","","","","","","","","","",""
"comp-q","104","565927","0.0-3.0-15.0-0.1-0.1","spark_pilot_2","7468","6","20","Female","","","","","","","1182","<p> <b> True or False? </b> </p><p> In this game, all animals have the same amount of treasure in their left and right chests. </p>","1","comp_question","","","","true","","","","","","","","","",""
"comp-q","105","572673","0.0-3.0-15.0-0.1-1.1","spark_pilot_2","7468","6","20","Female","","","","","","","1475.4000000003725","<p> <b> That's right! </b> Animals have different amounts of treasure in their treasure chests. </p>","0","comp_answer","","","","","","","","","","","","","",""
"comp-q","106","579513","0.0-3.0-15.0-0.2-0.2","spark_pilot_2","7468","6","20","Female","","","","","","","965.7999999998137","<p> <b> True or False? </b> </p><p> The same animal will always be there if you go up in the same place. </p>","0","comp_question","","","","true","","","","","","","","","",""
"comp-q","107","588737","0.0-3.0-15.0-0.2-1.2","spark_pilot_2","7468","6","20","Female","","","","","","","2755.899999999441","<p> <b> That's right! </b> One animal lives in the upper part and one lives in the lower part of every place. </p>","0","comp_answer","","","","","","","","","","","","","",""
"comp-q","108","595537","0.0-3.0-15.0-0.3-0.3","spark_pilot_2","7468","6","20","Female","","","","","","","1256.5999999996275","<p> <b> True or False? </b> </p><p> If you see a different picture, it means you are in a new place. </p>","0","comp_question","","","","false","","","","","","","","","",""
"comp-q","109","609293","0.0-3.0-15.0-0.3-1.3","spark_pilot_2","7468","6","20","Female","","","","","","","2628.7999999998137","<p> <b>Incorrect.</b> Lots of different images may show the same place. For example,  you may see three different images that all remind you that you are in outer space. </p>","0","comp_answer","","","","","","","","","","","","","",""
"comp-q","110","615283","0.0-3.0-15.0-0.4-0.4","spark_pilot_2","7468","6","20","Female","","","","","","","491.3999999994412","<p> <b> True or False? </b> </p><p> If you see a different picture, it means you are in a new place. </p>","1","comp_question","","","","true","","","","","","","","","",""
"comp-q","111","627677","0.0-3.0-15.0-0.4-1.4","spark_pilot_2","7468","6","20","Female","","","","","","","1129.7000000001863","<p> <b> That's right! </b> Lots of different images may show the same place. For example,  you may see three different images that all remind you that you are in outer space. </p>","0","comp_answer","","","","","","","","","","","","","",""
"learning-instructions","112","639427","0.0-3.0-16.0-0.0","spark_pilot_2","7468","6","20","Female","","","","","","","1861.7999999998137","<p> Good job. Remember to do your best because the amount of treasure you earn will be converted into bonus money. </p>
            <p> It’s time to start the real game! </p>","","instructions","","","","","","","","","","","","","",""
"learning-instructions","113","644481","0.0-4.0-0.0-0.0","spark_pilot_2","7468","6","20","Female","","","","","","","2264.7000000001863","<p> This time you are searching for treasure in the <b>canyon</b>.</p>","","instructions","","","","","","","","","","","","","",""
"learning-instructions","114","663490","0.0-4.0-0.0-0.1","spark_pilot_2","7468","6","20","Female","","","","","","","1647.7999999998137","<p><b>New</b> animals with <b>new</b> treasure chests live here. You need to explore to discover where the animal with the best treasure chest is.</p>
                    <p> Like before, once you figure out which animal has the chest with the most treasure, you should try to get to that animal and select that chest! </p>","","instructions","","","","","","","","","","","","","",""
"learning-instructions","115","679328","0.0-4.0-1.0-0.0","spark_pilot_2","7468","6","20","Female","","","","","","","1112.2000000001863","<p> Remember, when you see a picture of the place, use the up and down keys to <b>find an animal</b>.</p>
            <p> When you encounter an animal, you should use the left and right keys to <b>select a treasure chest</b>.</p>
            <p> Don't forget to look out for the robber! </p>","","instructions","","","","","","","","","","","","","",""
"revaluation","116","685355","0.0-4.0-2.0-0.0","spark_pilot_2","7468","6","20","Female","","false","","","","","[1204.9000000003725,984.3999999994412]","./assets/img/canyon/memory/11.jpg","[""ArrowUp"",""ArrowRight""]","value training","canyon","10","{""ArrowUp,ArrowLeft"":23,""ArrowUp,ArrowRight"":10,""ArrowDown,ArrowLeft"":8,""ArrowDown,ArrowRight"":30}","false","ArrowUp,ArrowRight","false","","","revaluation","1","0","","",""
"html-keyboard-response","117","685867","0.0-4.0-2.0-1.0","spark_pilot_2","7468","6","20","Female","","","","","","","null","<div style=""font-size:60px;"">+</div>","null","fixation","","","","","","","","","","","1","","",""
"revaluation","118","689883","0.0-4.0-2.0-0.1","spark_pilot_2","7468","6","20","Female","","false","","","","","[758.5]","./assets/img/canyon/catch/6.jpg","[""ArrowDown""]","value training","canyon","-10","{""ArrowUp,ArrowLeft"":23,""ArrowUp,ArrowRight"":10,""ArrowDown,ArrowLeft"":8,""ArrowDown,ArrowRight"":30}","false","ArrowDown","true","","","revaluation","1","2","","",""
"html-keyboard-response","119","690386","0.0-4.0-2.0-1.1","spark_pilot_2","7468","6","20","Female","","","","","","","null","<div style=""font-size:60px;"">+</div>","null","fixation","","","","","","","","","","","3","","",""
"revaluation","120","696411","0.0-4.0-2.0-0.2","spark_pilot_2","7468","6","20","Female","","false","","","","","[1389.5,787.7999999998137]","./assets/img/canyon/memory/4.jpg","[""ArrowDown"",""ArrowLeft""]","value training","canyon","8","{""ArrowUp,ArrowLeft"":23,""ArrowUp,ArrowRight"":10,""ArrowDown,ArrowLeft"":8,""ArrowDown,ArrowRight"":30}","false","ArrowDown,ArrowLeft","false","","","revaluation","1","4","","",""
"html-keyboard-response","121","696915","0.0-4.0-2.0-1.2","spark_pilot_2","7468","6","20","Female","","","","","","","null","<div style=""font-size:60px;"">+</div>","null","fixation","","","","","","","","","","","5","","",""
"revaluation","122","702939","0.0-4.0-2.0-0.3","spark_pilot_2","7468","6","20","Female","","false","","","","","[997.5,890.0999999996275]","./assets/img/canyon/memory/34.jpg","[""ArrowDown"",""ArrowRight""]","value training","canyon","30","{""ArrowUp,ArrowLeft"":23,""ArrowUp,ArrowRight"":10,""ArrowDown,ArrowLeft"":8,""ArrowDown,ArrowRight"":30}","true","ArrowDown,ArrowRight","false","","","revaluation","1","6","","",""
"html-keyboard-response","123","703442","0.0-4.0-2.0-1.3","spark_pilot_2","7468","6","20","Female","","","","","","","null","<div style=""font-size:60px;"">+</div>","null","fixation","","","","","","","","","","","7","","",""
"revaluation","124","709467","0.0-4.0-2.0-0.4","spark_pilot_2","7468","6","20","Female","","false","","","","","[808.3000000007451,458.5]","./assets/img/canyon/memory/11.jpg","[""ArrowUp"",""ArrowLeft""]","value training","canyon","23","{""ArrowUp,ArrowLeft"":23,""ArrowUp,ArrowRight"":10,""ArrowDown,ArrowLeft"":8,""ArrowDown,ArrowRight"":30}","false","ArrowUp,ArrowLeft","false","","","revaluation","1","8","","",""
"html-keyboard-response","125","709971","0.0-4.0-2.0-1.4","spark_pilot_2","7468","6","20","Female","","","","","","","null","<div style=""font-size:60px;"">+</div>","null","fixation","","","","","","","","","","","9","","",""
"revaluation","126","715995","0.0-4.0-2.0-0.5","spark_pilot_2","7468","6","20","Female","","false","","","","","[1280.300000000745,1016.6999999992549]","./assets/img/canyon/memory/32.jpg","[""ArrowUp"",""ArrowLeft""]","value training","canyon","23","{""ArrowUp,ArrowLeft"":23,""ArrowUp,ArrowRight"":10,""ArrowDown,ArrowLeft"":8,""ArrowDown,ArrowRight"":30}","false","ArrowUp,ArrowLeft","false","","","revaluation","1","10","","",""
"html-keyboard-response","127","716499","0.0-4.0-2.0-1.5","spark_pilot_2","7468","6","20","Female","","","","","","","null","<div style=""font-size:60px;"">+</div>","null","fixation","","","","","","","","","","","11","","",""
"revaluation","128","720515","0.0-4.0-2.0-0.6","spark_pilot_2","7468","6","20","Female","","false","","","","","[456.20000000018626]","./assets/img/canyon/catch/3.jpg","[""spaceBar""]","value training","canyon","0","{""ArrowUp,ArrowLeft"":23,""ArrowUp,ArrowRight"":10,""ArrowDown,ArrowLeft"":8,""ArrowDown,ArrowRight"":30}","true","spaceBar","true","","","revaluation","1","12","","",""
"html-keyboard-response","129","721019","0.0-4.0-2.0-1.6","spark_pilot_2","7468","6","20","Female","","","","","","","null","<div style=""font-size:60px;"">+</div>","null","fixation","","","","","","","","","","","13","","",""
"revaluation","130","727043","0.0-4.0-2.0-0.7","spark_pilot_2","7468","6","20","Female","","false","","","","","[735.6000000005588,396.79999999981374]","./assets/img/canyon/memory/17.jpg","[""ArrowDown"",""ArrowRight""]","value training","canyon","30","{""ArrowUp,ArrowLeft"":23,""ArrowUp,ArrowRight"":10,""ArrowDown,ArrowLeft"":8,""ArrowDown,ArrowRight"":30}","true","ArrowDown,ArrowRight","false","","","revaluation","1","14","","",""
"html-keyboard-response","131","727547","0.0-4.0-2.0-1.7","spark_pilot_2","7468","6","20","Female","","","","","","","null","<div style=""font-size:60px;"">+</div>","null","fixation","","","","","","","","","","","15","","",""
"revaluation","132","731563","0.0-4.0-2.0-0.8","spark_pilot_2","7468","6","20","Female","","false","","","","","[730.4000000003725]","./assets/img/canyon/catch/0.jpg","[""spaceBar""]","value training","canyon","0","{""ArrowUp,ArrowLeft"":23,""ArrowUp,ArrowRight"":10,""ArrowDown,ArrowLeft"":8,""ArrowDown,ArrowRight"":30}","true","spaceBar","true","","","revaluation","1","16","","",""
"html-keyboard-response","133","732067","0.0-4.0-2.0-1.8","spark_pilot_2","7468","6","20","Female","","","","","","","null","<div style=""font-size:60px;"">+</div>","null","fixation","","","","","","","","","","","17","","",""
"revaluation","134","738091","0.0-4.0-2.0-0.9","spark_pilot_2","7468","6","20","Female","","false","","","","","[1323.7999999998137,763.6000000005588]","./assets/img/canyon/memory/18.jpg","[""ArrowDown"",""ArrowRight""]","value training","canyon","30","{""ArrowUp,ArrowLeft"":23,""ArrowUp,ArrowRight"":10,""ArrowDown,ArrowLeft"":8,""ArrowDown,ArrowRight"":30}","true","ArrowDown,ArrowRight","false","","","revaluation","1","18","","",""
"html-keyboard-response","135","738594","0.0-4.0-2.0-1.9","spark_pilot_2","7468","6","20","Female","","","","","","","null","<div style=""font-size:60px;"">+</div>","null","fixation","","","","","","","","","","","19","","",""
"revaluation","136","744619","0.0-4.0-2.0-0.10","spark_pilot_2","7468","6","20","Female","","false","","","","","[824,970.4000000003725]","./assets/img/canyon/memory/18.jpg","[""ArrowUp"",""ArrowLeft""]","value training","canyon","23","{""ArrowUp,ArrowLeft"":23,""ArrowUp,ArrowRight"":10,""ArrowDown,ArrowLeft"":8,""ArrowDown,ArrowRight"":30}","false","ArrowUp,ArrowLeft","false","","","revaluation","1","20","","",""
"html-keyboard-response","137","745123","0.0-4.0-2.0-1.10","spark_pilot_2","7468","6","20","Female","","","","","","","null","<div style=""font-size:60px;"">+</div>","null","fixation","","","","","","","","","","","21","","",""
"revaluation","138","751147","0.0-4.0-2.0-0.11","spark_pilot_2","7468","6","20","Female","","false","","","","","[824.1999999992549,668.2999999998137]","./assets/img/canyon/memory/36.jpg","[""ArrowDown"",""ArrowRight""]","value training","canyon","30","{""ArrowUp,ArrowLeft"":23,""ArrowUp,ArrowRight"":10,""ArrowDown,ArrowLeft"":8,""ArrowDown,ArrowRight"":30}","true","ArrowDown,ArrowRight","false","","","revaluation","1","22","","",""
"html-keyboard-response","139","751651","0.0-4.0-2.0-1.11","spark_pilot_2","7468","6","20","Female","","","","","","","null","<div style=""font-size:60px;"">+</div>","null","fixation","","","","","","","","","","","23","","",""
"revaluation","140","757676","0.0-4.0-2.0-0.12","spark_pilot_2","7468","6","20","Female","","false","","","","","[1024.6000000005588,469]","./assets/img/canyon/memory/4.jpg","[""ArrowDown"",""ArrowRight""]","value training","canyon","30","{""ArrowUp,ArrowLeft"":23,""ArrowUp,ArrowRight"":10,""ArrowDown,ArrowLeft"":8,""ArrowDown,ArrowRight"":30}","true","ArrowDown,ArrowRight","false","","","revaluation","1","24","","",""
"html-keyboard-response","141","758179","0.0-4.0-2.0-1.12","spark_pilot_2","7468","6","20","Female","","","","","","","null","<div style=""font-size:60px;"">+</div>","null","fixation","","","","","","","","","","","25","","",""
"revaluation","142","764203","0.0-4.0-2.0-0.13","spark_pilot_2","7468","6","20","Female","","false","","","","","[900.0999999996275,521.2999999998137]","./assets/img/canyon/memory/40.jpg","[""ArrowDown"",""ArrowRight""]","value training","canyon","30","{""ArrowUp,ArrowLeft"":23,""ArrowUp,ArrowRight"":10,""ArrowDown,ArrowLeft"":8,""ArrowDown,ArrowRight"":30}","true","ArrowDown,ArrowRight","false","","","revaluation","1","26","","",""
"html-keyboard-response","143","764707","0.0-4.0-2.0-1.13","spark_pilot_2","7468","6","20","Female","","","","","","","null","<div style=""font-size:60px;"">+</div>","null","fixation","","","","","","","","","","","27","","",""
"revaluation","144","770731","0.0-4.0-2.0-0.14","spark_pilot_2","7468","6","20","Female","","false","","","","","[807.5,366.5]","./assets/img/canyon/memory/15.jpg","[""ArrowDown"",""ArrowRight""]","value training","canyon","30","{""ArrowUp,ArrowLeft"":23,""ArrowUp,ArrowRight"":10,""ArrowDown,ArrowLeft"":8,""ArrowDown,ArrowRight"":30}","true","ArrowDown,ArrowRight","false","","","revaluation","1","28","","",""
"html-keyboard-response","145","771235","0.0-4.0-2.0-1.14","spark_pilot_2","7468","6","20","Female","","","","","","","null","<div style=""font-size:60px;"">+</div>","null","fixation","","","","","","","","","","","29","","",""
"revaluation","146","777259","0.0-4.0-2.0-0.15","spark_pilot_2","7468","6","20","Female","","false","","","","","[1604.2999999998137,1041]","./assets/img/canyon/memory/15.jpg","[""ArrowUp"",""ArrowLeft""]","value training","canyon","23","{""ArrowUp,ArrowLeft"":23,""ArrowUp,ArrowRight"":10,""ArrowDown,ArrowLeft"":8,""ArrowDown,ArrowRight"":30}","false","ArrowUp,ArrowLeft","false","","","revaluation","1","30","","",""
"html-keyboard-response","147","777763","0.0-4.0-2.0-1.15","spark_pilot_2","7468","6","20","Female","","","","","","","null","<div style=""font-size:60px;"">+</div>","null","fixation","","","","","","","","","","","31","","",""
"revaluation","148","783787","0.0-4.0-2.0-0.16","spark_pilot_2","7468","6","20","Female","","false","","","","","[1227.1000000005588,677.6999999992549]","./assets/img/canyon/memory/14.jpg","[""ArrowDown"",""ArrowRight""]","value training","canyon","30","{""ArrowUp,ArrowLeft"":23,""ArrowUp,ArrowRight"":10,""ArrowDown,ArrowLeft"":8,""ArrowDown,ArrowRight"":30}","true","ArrowDown,ArrowRight","false","","","revaluation","1","32","","",""
"html-keyboard-response","149","784291","0.0-4.0-2.0-1.16","spark_pilot_2","7468","6","20","Female","","","","","","","null","<div style=""font-size:60px;"">+</div>","null","fixation","","","","","","","","","","","33","","",""
"revaluation","150","790315","0.0-4.0-2.0-0.17","spark_pilot_2","7468","6","20","Female","","false","","","","","[1259.6000000005588,996.2999999998137]","./assets/img/canyon/memory/40.jpg","[""ArrowUp"",""ArrowLeft""]","value training","canyon","23","{""ArrowUp,ArrowLeft"":23,""ArrowUp,ArrowRight"":10,""ArrowDown,ArrowLeft"":8,""ArrowDown,ArrowRight"":30}","false","ArrowUp,ArrowLeft","false","","","revaluation","1","34","","",""
"html-keyboard-response","151","790819","0.0-4.0-2.0-1.17","spark_pilot_2","7468","6","20","Female","","","","","","","null","<div style=""font-size:60px;"">+</div>","null","fixation","","","","","","","","","","","35","","",""
"revaluation","152","796843","0.0-4.0-2.0-0.18","spark_pilot_2","7468","6","20","Female","","false","","","","","[809,238.90000000037253]","./assets/img/canyon/memory/16.jpg","[""ArrowDown"",""ArrowRight""]","value training","canyon","30","{""ArrowUp,ArrowLeft"":23,""ArrowUp,ArrowRight"":10,""ArrowDown,ArrowLeft"":8,""ArrowDown,ArrowRight"":30}","true","ArrowDown,ArrowRight","false","","","revaluation","1","36","","",""
"html-keyboard-response","153","797347","0.0-4.0-2.0-1.18","spark_pilot_2","7468","6","20","Female","","","","","","","null","<div style=""font-size:60px;"">+</div>","null","fixation","","","","","","","","","","","37","","",""
"revaluation","154","803371","0.0-4.0-2.0-0.19","spark_pilot_2","7468","6","20","Female","","false","","","","","[626.8999999994412,487]","./assets/img/canyon/memory/35.jpg","[""ArrowDown"",""ArrowRight""]","value training","canyon","30","{""ArrowUp,ArrowLeft"":23,""ArrowUp,ArrowRight"":10,""ArrowDown,ArrowLeft"":8,""ArrowDown,ArrowRight"":30}","true","ArrowDown,ArrowRight","false","","","revaluation","1","38","","",""
"html-keyboard-response","155","803875","0.0-4.0-2.0-1.19","spark_pilot_2","7468","6","20","Female","","","","","","","null","<div style=""font-size:60px;"">+</div>","null","fixation","","","","","","","","","","","39","","",""
"revaluation","156","809899","0.0-4.0-2.0-0.20","spark_pilot_2","7468","6","20","Female","","false","","","","","[862.2000000001863,521.6999999992549]","./assets/img/canyon/memory/24.jpg","[""ArrowDown"",""ArrowRight""]","value training","canyon","30","{""ArrowUp,ArrowLeft"":23,""ArrowUp,ArrowRight"":10,""ArrowDown,ArrowLeft"":8,""ArrowDown,ArrowRight"":30}","true","ArrowDown,ArrowRight","false","","","revaluation","1","40","","",""
"html-keyboard-response","157","810403","0.0-4.0-2.0-1.20","spark_pilot_2","7468","6","20","Female","","","","","","","null","<div style=""font-size:60px;"">+</div>","null","fixation","","","","","","","","","","","41","","",""
"revaluation","158","816427","0.0-4.0-2.0-0.21","spark_pilot_2","7468","6","20","Female","","false","","","","","[888.6000000005588,629.2999999998137]","./assets/img/canyon/memory/20.jpg","[""ArrowDown"",""ArrowRight""]","value training","canyon","30","{""ArrowUp,ArrowLeft"":23,""ArrowUp,ArrowRight"":10,""ArrowDown,ArrowLeft"":8,""ArrowDown,ArrowRight"":30}","true","ArrowDown,ArrowRight","false","","","revaluation","1","42","","",""
"html-keyboard-response","159","816931","0.0-4.0-2.0-1.21","spark_pilot_2","7468","6","20","Female","","","","","","","null","<div style=""font-size:60px;"">+</div>","null","fixation","","","","","","","","","","","43","","",""
"revaluation","160","822956","0.0-4.0-2.0-0.22","spark_pilot_2","7468","6","20","Female","","false","","","","","[609,371.5]","./assets/img/canyon/memory/9.jpg","[""ArrowDown"",""ArrowRight""]","value training","canyon","30","{""ArrowUp,ArrowLeft"":23,""ArrowUp,ArrowRight"":10,""ArrowDown,ArrowLeft"":8,""ArrowDown,ArrowRight"":30}","true","ArrowDown,ArrowRight","false","","","revaluation","1","44","","",""
"html-keyboard-response","161","823459","0.0-4.0-2.0-1.22","spark_pilot_2","7468","6","20","Female","","","","","","","null","<div style=""font-size:60px;"">+</div>","null","fixation","","","","","","","","","","","45","","",""
"revaluation","162","827475","0.0-4.0-2.0-0.23","spark_pilot_2","7468","6","20","Female","","false","","","","","[731.3999999994412]","./assets/img/canyon/catch/1.jpg","[""spaceBar""]","value training","canyon","0","{""ArrowUp,ArrowLeft"":23,""ArrowUp,ArrowRight"":10,""ArrowDown,ArrowLeft"":8,""ArrowDown,ArrowRight"":30}","true","spaceBar","true","","","revaluation","1","46","","",""
"html-keyboard-response","163","827979","0.0-4.0-2.0-1.23","spark_pilot_2","7468","6","20","Female","","","","","","","null","<div style=""font-size:60px;"">+</div>","null","fixation","","","","","","","","","","","47","","",""
"revaluation","164","834003","0.0-4.0-2.0-0.24","spark_pilot_2","7468","6","20","Female","","false","","","","","[902,384.79999999981374]","./assets/img/canyon/memory/27.jpg","[""ArrowDown"",""ArrowRight""]","value training","canyon","30","{""ArrowUp,ArrowLeft"":23,""ArrowUp,ArrowRight"":10,""ArrowDown,ArrowLeft"":8,""ArrowDown,ArrowRight"":30}","true","ArrowDown,ArrowRight","false","","","revaluation","1","48","","",""
"html-keyboard-response","165","834507","0.0-4.0-2.0-1.24","spark_pilot_2","7468","6","20","Female","","","","","","","null","<div style=""font-size:60px;"">+</div>","null","fixation","","","","","","","","","","","49","","",""
"revaluation","166","840531","0.0-4.0-2.0-0.25","spark_pilot_2","7468","6","20","Female","","false","","","","","[729.2999999998137,784.4000000003725]","./assets/img/canyon/memory/34.jpg","[""ArrowDown"",""ArrowRight""]","value training","canyon","30","{""ArrowUp,ArrowLeft"":23,""ArrowUp,ArrowRight"":10,""ArrowDown,ArrowLeft"":8,""ArrowDown,ArrowRight"":30}","true","ArrowDown,ArrowRight","false","","","revaluation","1","50","","",""
"html-keyboard-response","167","841035","0.0-4.0-2.0-1.25","spark_pilot_2","7468","6","20","Female","","","","","","","null","<div style=""font-size:60px;"">+</div>","null","fixation","","","","","","","","","","","51","","",""
"revaluation","168","847059","0.0-4.0-2.0-0.26","spark_pilot_2","7468","6","20","Female","","false","","","","","[822.7000000001863,858]","./assets/img/canyon/memory/14.jpg","[""ArrowUp"",""ArrowLeft""]","value training","canyon","23","{""ArrowUp,ArrowLeft"":23,""ArrowUp,ArrowRight"":10,""ArrowDown,ArrowLeft"":8,""ArrowDown,ArrowRight"":30}","false","ArrowUp,ArrowLeft","false","","","revaluation","1","52","","",""
"html-keyboard-response","169","847562","0.0-4.0-2.0-1.26","spark_pilot_2","7468","6","20","Female","","","","","","","null","<div style=""font-size:60px;"">+</div>","null","fixation","","","","","","","","","","","53","","",""
"revaluation","170","853587","0.0-4.0-2.0-0.27","spark_pilot_2","7468","6","20","Female","","false","","","","","[614,599.7000000001863]","./assets/img/canyon/memory/9.jpg","[""ArrowDown"",""ArrowRight""]","value training","canyon","30","{""ArrowUp,ArrowLeft"":23,""ArrowUp,ArrowRight"":10,""ArrowDown,ArrowLeft"":8,""ArrowDown,ArrowRight"":30}","true","ArrowDown,ArrowRight","false","","","revaluation","1","54","","",""
"html-keyboard-response","171","854091","0.0-4.0-2.0-1.27","spark_pilot_2","7468","6","20","Female","","","","","","","null","<div style=""font-size:60px;"">+</div>","null","fixation","","","","","","","","","","","55","","",""
"revaluation","172","860115","0.0-4.0-2.0-0.28","spark_pilot_2","7468","6","20","Female","","false","","","","","[851.9000000003725,475.20000000018626]","./assets/img/canyon/memory/32.jpg","[""ArrowDown"",""ArrowRight""]","value training","canyon","30","{""ArrowUp,ArrowLeft"":23,""ArrowUp,ArrowRight"":10,""ArrowDown,ArrowLeft"":8,""ArrowDown,ArrowRight"":30}","true","ArrowDown,ArrowRight","false","","","revaluation","1","56","","",""
"html-keyboard-response","173","860619","0.0-4.0-2.0-1.28","spark_pilot_2","7468","6","20","Female","","","","","","","null","<div style=""font-size:60px;"">+</div>","null","fixation","","","","","","","","","","","57","","",""
"revaluation","174","866643","0.0-4.0-2.0-0.29","spark_pilot_2","7468","6","20","Female","","false","","","","","[541.1000000005588,487.40000000037253]","./assets/img/canyon/memory/3.jpg","[""ArrowDown"",""ArrowRight""]","value training","canyon","30","{""ArrowUp,ArrowLeft"":23,""ArrowUp,ArrowRight"":10,""ArrowDown,ArrowLeft"":8,""ArrowDown,ArrowRight"":30}","true","ArrowDown,ArrowRight","false","","","revaluation","1","58","","",""
"html-keyboard-response","175","867147","0.0-4.0-2.0-1.29","spark_pilot_2","7468","6","20","Female","","","","","","","null","<div style=""font-size:60px;"">+</div>","null","fixation","","","","","","","","","","","59","","",""
"revaluation","176","871163","0.0-4.0-2.0-0.30","spark_pilot_2","7468","6","20","Female","","false","","","","","[853.7999999998137]","./assets/img/canyon/catch/4.jpg","[""spaceBar""]","value training","canyon","0","{""ArrowUp,ArrowLeft"":23,""ArrowUp,ArrowRight"":10,""ArrowDown,ArrowLeft"":8,""ArrowDown,ArrowRight"":30}","true","spaceBar","true","","","revaluation","1","60","","",""
"html-keyboard-response","177","871667","0.0-4.0-2.0-1.30","spark_pilot_2","7468","6","20","Female","","","","","","","null","<div style=""font-size:60px;"">+</div>","null","fixation","","","","","","","","","","","61","","",""
"revaluation","178","877691","0.0-4.0-2.0-0.31","spark_pilot_2","7468","6","20","Female","","false","","","","","[588.7000000001863,372.09999999962747]","./assets/img/canyon/memory/36.jpg","[""ArrowDown"",""ArrowRight""]","value training","canyon","30","{""ArrowUp,ArrowLeft"":23,""ArrowUp,ArrowRight"":10,""ArrowDown,ArrowLeft"":8,""ArrowDown,ArrowRight"":30}","true","ArrowDown,ArrowRight","false","","","revaluation","1","62","","",""
"html-keyboard-response","179","878195","0.0-4.0-2.0-1.31","spark_pilot_2","7468","6","20","Female","","","","","","","null","<div style=""font-size:60px;"">+</div>","null","fixation","","","","","","","","","","","63","","",""
"revaluation","180","884219","0.0-4.0-2.0-0.32","spark_pilot_2","7468","6","20","Female","","false","","","","","[601.5,322.3999999994412]","./assets/img/canyon/memory/6.jpg","[""ArrowDown"",""ArrowRight""]","value training","canyon","30","{""ArrowUp,ArrowLeft"":23,""ArrowUp,ArrowRight"":10,""ArrowDown,ArrowLeft"":8,""ArrowDown,ArrowRight"":30}","true","ArrowDown,ArrowRight","false","","","revaluation","1","64","","",""
"html-keyboard-response","181","884723","0.0-4.0-2.0-1.32","spark_pilot_2","7468","6","20","Female","","","","","","","null","<div style=""font-size:60px;"">+</div>","null","fixation","","","","","","","","","","","65","","",""
"revaluation","182","890747","0.0-4.0-2.0-0.33","spark_pilot_2","7468","6","20","Female","","false","","","","","[620,319]","./assets/img/canyon/memory/8.jpg","[""ArrowDown"",""ArrowRight""]","value training","canyon","30","{""ArrowUp,ArrowLeft"":23,""ArrowUp,ArrowRight"":10,""ArrowDown,ArrowLeft"":8,""ArrowDown,ArrowRight"":30}","true","ArrowDown,ArrowRight","false","","","revaluation","1","66","","",""
"html-keyboard-response","183","891251","0.0-4.0-2.0-1.33","spark_pilot_2","7468","6","20","Female","","","","","","","null","<div style=""font-size:60px;"">+</div>","null","fixation","","","","","","","","","","","67","","",""
"revaluation","184","897275","0.0-4.0-2.0-0.34","spark_pilot_2","7468","6","20","Female","","false","","","","","[1050.2999999998137,577.4000000003725]","./assets/img/canyon/memory/25.jpg","[""ArrowDown"",""ArrowRight""]","value training","canyon","30","{""ArrowUp,ArrowLeft"":23,""ArrowUp,ArrowRight"":10,""ArrowDown,ArrowLeft"":8,""ArrowDown,ArrowRight"":30}","true","ArrowDown,ArrowRight","false","","","revaluation","1","68","","",""
"html-keyboard-response","185","897779","0.0-4.0-2.0-1.34","spark_pilot_2","7468","6","20","Female","","","","","","","null","<div style=""font-size:60px;"">+</div>","null","fixation","","","","","","","","","","","69","","",""
"revaluation","186","903803","0.0-4.0-2.0-0.35","spark_pilot_2","7468","6","20","Female","","false","","","","","[1147.5999999996275,513.2000000001863]","./assets/img/canyon/memory/25.jpg","[""ArrowDown"",""ArrowRight""]","value training","canyon","30","{""ArrowUp,ArrowLeft"":23,""ArrowUp,ArrowRight"":10,""ArrowDown,ArrowLeft"":8,""ArrowDown,ArrowRight"":30}","true","ArrowDown,ArrowRight","false","","","revaluation","1","70","","",""
"html-keyboard-response","187","904307","0.0-4.0-2.0-1.35","spark_pilot_2","7468","6","20","Female","","","","","","","null","<div style=""font-size:60px;"">+</div>","null","fixation","","","","","","","","","","","71","","",""
"revaluation","188","910331","0.0-4.0-2.0-0.36","spark_pilot_2","7468","6","20","Female","","false","","","","","[1666.2000000001863,636.4000000003725]","./assets/img/canyon/memory/24.jpg","[""ArrowUp"",""ArrowLeft""]","value training","canyon","23","{""ArrowUp,ArrowLeft"":23,""ArrowUp,ArrowRight"":10,""ArrowDown,ArrowLeft"":8,""ArrowDown,ArrowRight"":30}","false","ArrowUp,ArrowLeft","false","","","revaluation","1","72","","",""
"html-keyboard-response","189","910835","0.0-4.0-2.0-1.36","spark_pilot_2","7468","6","20","Female","","","","","","","null","<div style=""font-size:60px;"">+</div>","null","fixation","","","","","","","","","","","73","","",""
"revaluation","190","916859","0.0-4.0-2.0-0.37","spark_pilot_2","7468","6","20","Female","","false","","","","","[1074.4000000003725,400.5]","./assets/img/canyon/memory/26.jpg","[""ArrowDown"",""ArrowRight""]","value training","canyon","30","{""ArrowUp,ArrowLeft"":23,""ArrowUp,ArrowRight"":10,""ArrowDown,ArrowLeft"":8,""ArrowDown,ArrowRight"":30}","true","ArrowDown,ArrowRight","false","","","revaluation","1","74","","",""
"html-keyboard-response","191","917363","0.0-4.0-2.0-1.37","spark_pilot_2","7468","6","20","Female","","","","","","","null","<div style=""font-size:60px;"">+</div>","null","fixation","","","","","","","","","","","75","","",""
"revaluation","192","923387","0.0-4.0-2.0-0.38","spark_pilot_2","7468","6","20","Female","","false","","","","","[864.1999999992549,468.3999999994412]","./assets/img/canyon/memory/17.jpg","[""ArrowDown"",""ArrowRight""]","value training","canyon","30","{""ArrowUp,ArrowLeft"":23,""ArrowUp,ArrowRight"":10,""ArrowDown,ArrowLeft"":8,""ArrowDown,ArrowRight"":30}","true","ArrowDown,ArrowRight","false","","","revaluation","1","76","","",""
"html-keyboard-response","193","923891","0.0-4.0-2.0-1.38","spark_pilot_2","7468","6","20","Female","","","","","","","null","<div style=""font-size:60px;"">+</div>","null","fixation","","","","","","","","","","","77","","",""
"revaluation","194","929916","0.0-4.0-2.0-0.39","spark_pilot_2","7468","6","20","Female","","false","","","","","[889.4000000003725,337.79999999981374]","./assets/img/canyon/memory/26.jpg","[""ArrowDown"",""ArrowRight""]","value training","canyon","30","{""ArrowUp,ArrowLeft"":23,""ArrowUp,ArrowRight"":10,""ArrowDown,ArrowLeft"":8,""ArrowDown,ArrowRight"":30}","true","ArrowDown,ArrowRight","false","","","revaluation","1","78","","",""
"html-keyboard-response","195","930419","0.0-4.0-2.0-1.39","spark_pilot_2","7468","6","20","Female","","","","","","","null","<div style=""font-size:60px;"">+</div>","null","fixation","","","","","","","","","","","79","","",""
"revaluation","196","934435","0.0-4.0-2.0-0.40","spark_pilot_2","7468","6","20","Female","","false","","","","","[1249]","./assets/img/canyon/catch/5.jpg","[""spaceBar""]","value training","canyon","0","{""ArrowUp,ArrowLeft"":23,""ArrowUp,ArrowRight"":10,""ArrowDown,ArrowLeft"":8,""ArrowDown,ArrowRight"":30}","true","spaceBar","true","","","revaluation","1","80","","",""
"html-keyboard-response","197","934938","0.0-4.0-2.0-1.40","spark_pilot_2","7468","6","20","Female","","","","","","","null","<div style=""font-size:60px;"">+</div>","null","fixation","","","","","","","","","","","81","","",""
"revaluation","198","940963","0.0-4.0-2.0-0.41","spark_pilot_2","7468","6","20","Female","","false","","","","","[1083.8999999994412,421.6000000005588]","./assets/img/canyon/memory/3.jpg","[""ArrowDown"",""ArrowRight""]","value training","canyon","30","{""ArrowUp,ArrowLeft"":23,""ArrowUp,ArrowRight"":10,""ArrowDown,ArrowLeft"":8,""ArrowDown,ArrowRight"":30}","true","ArrowDown,ArrowRight","false","","","revaluation","1","82","","",""
"html-keyboard-response","199","941467","0.0-4.0-2.0-1.41","spark_pilot_2","7468","6","20","Female","","","","","","","null","<div style=""font-size:60px;"">+</div>","null","fixation","","","","","","","","","","","83","","",""
"revaluation","200","947491","0.0-4.0-2.0-0.42","spark_pilot_2","7468","6","20","Female","","false","","","","","[703,454.5]","./assets/img/canyon/memory/35.jpg","[""ArrowDown"",""ArrowRight""]","value training","canyon","30","{""ArrowUp,ArrowLeft"":23,""ArrowUp,ArrowRight"":10,""ArrowDown,ArrowLeft"":8,""ArrowDown,ArrowRight"":30}","true","ArrowDown,ArrowRight","false","","","revaluation","1","84","","",""
"html-keyboard-response","201","947995","0.0-4.0-2.0-1.42","spark_pilot_2","7468","6","20","Female","","","","","","","null","<div style=""font-size:60px;"">+</div>","null","fixation","","","","","","","","","","","85","","",""
"revaluation","202","954011","0.0-4.0-2.0-0.43","spark_pilot_2","7468","6","20","Female","","false","","","","","[1314.0999999996275,702.0999999996275]","./assets/img/canyon/memory/16.jpg","[""ArrowDown"",""ArrowRight""]","value training","canyon","30","{""ArrowUp,ArrowLeft"":23,""ArrowUp,ArrowRight"":10,""ArrowDown,ArrowLeft"":8,""ArrowDown,ArrowRight"":30}","true","ArrowDown,ArrowRight","false","","","revaluation","1","86","","",""
"html-keyboard-response","203","954515","0.0-4.0-2.0-1.43","spark_pilot_2","7468","6","20","Female","","","","","","","null","<div style=""font-size:60px;"">+</div>","null","fixation","","","","","","","","","","","87","","",""
"revaluation","204","958531","0.0-4.0-2.0-0.44","spark_pilot_2","7468","6","20","Female","","false","","","","","[937.2000000001863]","./assets/img/canyon/catch/2.jpg","[""spaceBar""]","value training","canyon","0","{""ArrowUp,ArrowLeft"":23,""ArrowUp,ArrowRight"":10,""ArrowDown,ArrowLeft"":8,""ArrowDown,ArrowRight"":30}","true","spaceBar","true","","","revaluation","1","88","","",""
"html-keyboard-response","205","959035","0.0-4.0-2.0-1.44","spark_pilot_2","7468","6","20","Female","","","","","","","null","<div style=""font-size:60px;"">+</div>","null","fixation","","","","","","","","","","","89","","",""
"revaluation","206","965059","0.0-4.0-2.0-0.45","spark_pilot_2","7468","6","20","Female","","false","","","","","[835.2999999998137,352.79999999981374]","./assets/img/canyon/memory/6.jpg","[""ArrowDown"",""ArrowRight""]","value training","canyon","30","{""ArrowUp,ArrowLeft"":23,""ArrowUp,ArrowRight"":10,""ArrowDown,ArrowLeft"":8,""ArrowDown,ArrowRight"":30}","true","ArrowDown,ArrowRight","false","","","revaluation","1","90","","",""
"html-keyboard-response","207","965563","0.0-4.0-2.0-1.45","spark_pilot_2","7468","6","20","Female","","","","","","","null","<div style=""font-size:60px;"">+</div>","null","fixation","","","","","","","","","","","91","","",""
"revaluation","208","971587","0.0-4.0-2.0-0.46","spark_pilot_2","7468","6","20","Female","","false","","","","","[742.5,1038.2000000001863]","./assets/img/canyon/memory/8.jpg","[""ArrowDown"",""ArrowRight""]","value training","canyon","30","{""ArrowUp,ArrowLeft"":23,""ArrowUp,ArrowRight"":10,""ArrowDown,ArrowLeft"":8,""ArrowDown,ArrowRight"":30}","true","ArrowDown,ArrowRight","false","","","revaluation","1","92","","",""
"html-keyboard-response","209","972091","0.0-4.0-2.0-1.46","spark_pilot_2","7468","6","20","Female","","","","","","","null","<div style=""font-size:60px;"">+</div>","null","fixation","","","","","","","","","","","93","","",""
"revaluation","210","978107","0.0-4.0-2.0-0.47","spark_pilot_2","7468","6","20","Female","","false","","","","","[1916.9000000003725,500]","./assets/img/canyon/memory/27.jpg","[""ArrowDown"",""ArrowRight""]","value training","canyon","30","{""ArrowUp,ArrowLeft"":23,""ArrowUp,ArrowRight"":10,""ArrowDown,ArrowLeft"":8,""ArrowDown,ArrowRight"":30}","true","ArrowDown,ArrowRight","false","","","revaluation","1","94","","",""
"html-keyboard-response","211","978611","0.0-4.0-2.0-1.47","spark_pilot_2","7468","6","20","Female","","","","","","","null","<div style=""font-size:60px;"">+</div>","null","fixation","","","","","","","","","","","95","","",""
"revaluation","212","982627","0.0-4.0-2.0-0.48","spark_pilot_2","7468","6","20","Female","","false","","","","","[709.7999999998137]","./assets/img/canyon/catch/7.jpg","[""spaceBar""]","value training","canyon","0","{""ArrowUp,ArrowLeft"":23,""ArrowUp,ArrowRight"":10,""ArrowDown,ArrowLeft"":8,""ArrowDown,ArrowRight"":30}","true","spaceBar","true","","","revaluation","1","96","","",""
"html-keyboard-response","213","983131","0.0-4.0-2.0-1.48","spark_pilot_2","7468","6","20","Female","","","","","","","null","<div style=""font-size:60px;"">+</div>","null","fixation","","","","","","","","","","","97","","",""
"revaluation","214","989156","0.0-4.0-2.0-0.49","spark_pilot_2","7468","6","20","Female","","false","","","","","[1017.4000000003725,469]","./assets/img/canyon/memory/20.jpg","[""ArrowUp"",""ArrowLeft""]","value training","canyon","23","{""ArrowUp,ArrowLeft"":23,""ArrowUp,ArrowRight"":10,""ArrowDown,ArrowLeft"":8,""ArrowDown,ArrowRight"":30}","false","ArrowUp,ArrowLeft","false","","","revaluation","1","98","","",""
"html-keyboard-response","215","989659","0.0-4.0-2.0-1.49","spark_pilot_2","7468","6","20","Female","","","","","","","null","<div style=""font-size:60px;"">+</div>","null","fixation","","","","","","","","","","","99","","",""
"learning-instructions","216","1010410","0.0-4.0-3.0-0.0","spark_pilot_2","7468","6","20","Female","","","","","","","7771.5999999996275","<p> Now, you will travel with a friend who will choose whether you go up or down first. </p>
            <p> On these turns, you will just see the animal that they found. You will still get to choose which chest to search for treasure.</p>","","instructions","","","","","","","","","","","","","",""
"revaluation","217","1014427","0.0-4.0-4.0-0.0","spark_pilot_2","7468","6","20","Female","","false","","","","","[1243.5]","./assets/img/canyon/animals/giraffe.jpg","[""ArrowRight""]","revaluation","canyon","15","{""ArrowUp,ArrowLeft"":27,""ArrowUp,ArrowRight"":15,""ArrowDown,ArrowLeft"":21,""ArrowDown,ArrowRight"":7}","false","ArrowUp,ArrowRight","","","","revaluation","1","0","","",""
"html-keyboard-response","218","1014939","0.0-4.0-4.0-1.0","spark_pilot_2","7468","6","20","Female","","","","","","","null","<div style=""font-size:60px;"">+</div>","null","fixation","","","","","","","","","","","1","","",""
"revaluation","219","1018955","0.0-4.0-4.0-0.1","spark_pilot_2","7468","6","20","Female","","false","","","","","[1415.2999999998137]","./assets/img/canyon/animals/giraffe.jpg","[""ArrowLeft""]","revaluation","canyon","27","{""ArrowUp,ArrowLeft"":27,""ArrowUp,ArrowRight"":15,""ArrowDown,ArrowLeft"":21,""ArrowDown,ArrowRight"":7}","true","ArrowUp,ArrowLeft","","","","revaluation","1","2","","",""
"html-keyboard-response","220","1019458","0.0-4.0-4.0-1.1","spark_pilot_2","7468","6","20","Female","","","","","","","null","<div style=""font-size:60px;"">+</div>","null","fixation","","","","","","","","","","","3","","",""
"revaluation","221","1023475","0.0-4.0-4.0-0.2","spark_pilot_2","7468","6","20","Female","","false","","","","","[1231.5]","./assets/img/canyon/animals/lion.jpg","[""ArrowLeft""]","revaluation","canyon","21","{""ArrowUp,ArrowLeft"":27,""ArrowUp,ArrowRight"":15,""ArrowDown,ArrowLeft"":21,""ArrowDown,ArrowRight"":7}","true","ArrowDown,ArrowLeft","","","","revaluation","1","4","","",""
"html-keyboard-response","222","1023979","0.0-4.0-4.0-1.2","spark_pilot_2","7468","6","20","Female","","","","","","","null","<div style=""font-size:60px;"">+</div>","null","fixation","","","","","","","","","","","5","","",""
"revaluation","223","1027995","0.0-4.0-4.0-0.3","spark_pilot_2","7468","6","20","Female","","false","","","","","[764.3999999994412]","./assets/img/canyon/animals/lion.jpg","[""ArrowRight""]","revaluation","canyon","7","{""ArrowUp,ArrowLeft"":27,""ArrowUp,ArrowRight"":15,""ArrowDown,ArrowLeft"":21,""ArrowDown,ArrowRight"":7}","false","ArrowDown,ArrowRight","","","","revaluation","1","6","","",""
"html-keyboard-response","224","1028499","0.0-4.0-4.0-1.3","spark_pilot_2","7468","6","20","Female","","","","","","","null","<div style=""font-size:60px;"">+</div>","null","fixation","","","","","","","","","","","7","","",""
"revaluation","225","1032515","0.0-4.0-4.0-0.4","spark_pilot_2","7468","6","20","Female","","false","","","","","[1379]","./assets/img/canyon/animals/lion.jpg","[""ArrowLeft""]","revaluation","canyon","21","{""ArrowUp,ArrowLeft"":27,""ArrowUp,ArrowRight"":15,""ArrowDown,ArrowLeft"":21,""ArrowDown,ArrowRight"":7}","true","ArrowDown,ArrowLeft","","","","revaluation","1","8","","",""
"html-keyboard-response","226","1033018","0.0-4.0-4.0-1.4","spark_pilot_2","7468","6","20","Female","","","","","","","null","<div style=""font-size:60px;"">+</div>","null","fixation","","","","","","","","","","","9","","",""
"revaluation","227","1037035","0.0-4.0-4.0-0.5","spark_pilot_2","7468","6","20","Female","","false","","","","","[1146.8999999994412]","./assets/img/canyon/animals/giraffe.jpg","[""ArrowRight""]","revaluation","canyon","15","{""ArrowUp,ArrowLeft"":27,""ArrowUp,ArrowRight"":15,""ArrowDown,ArrowLeft"":21,""ArrowDown,ArrowRight"":7}","false","ArrowUp,ArrowRight","","","","revaluation","1","10","","",""
"html-keyboard-response","228","1037539","0.0-4.0-4.0-1.5","spark_pilot_2","7468","6","20","Female","","","","","","","null","<div style=""font-size:60px;"">+</div>","null","fixation","","","","","","","","","","","11","","",""
"revaluation","229","1041555","0.0-4.0-4.0-0.6","spark_pilot_2","7468","6","20","Female","","false","","","","","[1487.0999999996275]","./assets/img/canyon/animals/lion.jpg","[""ArrowLeft""]","revaluation","canyon","21","{""ArrowUp,ArrowLeft"":27,""ArrowUp,ArrowRight"":15,""ArrowDown,ArrowLeft"":21,""ArrowDown,ArrowRight"":7}","true","ArrowDown,ArrowLeft","","","","revaluation","1","12","","",""
"html-keyboard-response","230","1042059","0.0-4.0-4.0-1.6","spark_pilot_2","7468","6","20","Female","","","","","","","null","<div style=""font-size:60px;"">+</div>","null","fixation","","","","","","","","","","","13","","",""
"revaluation","231","1046075","0.0-4.0-4.0-0.7","spark_pilot_2","7468","6","20","Female","","false","","","","","[1274.2000000001863]","./assets/img/canyon/animals/giraffe.jpg","[""ArrowRight""]","revaluation","canyon","15","{""ArrowUp,ArrowLeft"":27,""ArrowUp,ArrowRight"":15,""ArrowDown,ArrowLeft"":21,""ArrowDown,ArrowRight"":7}","false","ArrowUp,ArrowRight","","","","revaluation","1","14","","",""
"html-keyboard-response","232","1046579","0.0-4.0-4.0-1.7","spark_pilot_2","7468","6","20","Female","","","","","","","null","<div style=""font-size:60px;"">+</div>","null","fixation","","","","","","","","","","","15","","",""
"revaluation","233","1050595","0.0-4.0-4.0-0.8","spark_pilot_2","7468","6","20","Female","","false","","","","","[1443]","./assets/img/canyon/animals/lion.jpg","[""ArrowRight""]","revaluation","canyon","7","{""ArrowUp,ArrowLeft"":27,""ArrowUp,ArrowRight"":15,""ArrowDown,ArrowLeft"":21,""ArrowDown,ArrowRight"":7}","false","ArrowDown,ArrowRight","","","","revaluation","1","16","","",""
"html-keyboard-response","234","1051099","0.0-4.0-4.0-1.8","spark_pilot_2","7468","6","20","Female","","","","","","","null","<div style=""font-size:60px;"">+</div>","null","fixation","","","","","","","","","","","17","","",""
"revaluation","235","1055115","0.0-4.0-4.0-0.9","spark_pilot_2","7468","6","20","Female","","false","","","","","[837.8999999994412]","./assets/img/canyon/animals/lion.jpg","[""ArrowLeft""]","revaluation","canyon","21","{""ArrowUp,ArrowLeft"":27,""ArrowUp,ArrowRight"":15,""ArrowDown,ArrowLeft"":21,""ArrowDown,ArrowRight"":7}","true","ArrowDown,ArrowLeft","","","","revaluation","1","18","","",""
"html-keyboard-response","236","1055619","0.0-4.0-4.0-1.9","spark_pilot_2","7468","6","20","Female","","","","","","","null","<div style=""font-size:60px;"">+</div>","null","fixation","","","","","","","","","","","19","","",""
"revaluation","237","1059635","0.0-4.0-4.0-0.10","spark_pilot_2","7468","6","20","Female","","false","","","","","[513.4000000003725]","./assets/img/canyon/animals/lion.jpg","[""ArrowLeft""]","revaluation","canyon","21","{""ArrowUp,ArrowLeft"":27,""ArrowUp,ArrowRight"":15,""ArrowDown,ArrowLeft"":21,""ArrowDown,ArrowRight"":7}","true","ArrowDown,ArrowLeft","","","","revaluation","1","20","","",""
"html-keyboard-response","238","1060139","0.0-4.0-4.0-1.10","spark_pilot_2","7468","6","20","Female","","","","","","","null","<div style=""font-size:60px;"">+</div>","null","fixation","","","","","","","","","","","21","","",""
"revaluation","239","1064155","0.0-4.0-4.0-0.11","spark_pilot_2","7468","6","20","Female","","false","","","","","[803]","./assets/img/canyon/animals/giraffe.jpg","[""ArrowRight""]","revaluation","canyon","15","{""ArrowUp,ArrowLeft"":27,""ArrowUp,ArrowRight"":15,""ArrowDown,ArrowLeft"":21,""ArrowDown,ArrowRight"":7}","false","ArrowUp,ArrowRight","","","","revaluation","1","22","","",""
"html-keyboard-response","240","1064659","0.0-4.0-4.0-1.11","spark_pilot_2","7468","6","20","Female","","","","","","","null","<div style=""font-size:60px;"">+</div>","null","fixation","","","","","","","","","","","23","","",""
"revaluation","241","1068675","0.0-4.0-4.0-0.12","spark_pilot_2","7468","6","20","Female","","false","","","","","[735.9000000003725]","./assets/img/canyon/animals/giraffe.jpg","[""ArrowLeft""]","revaluation","canyon","27","{""ArrowUp,ArrowLeft"":27,""ArrowUp,ArrowRight"":15,""ArrowDown,ArrowLeft"":21,""ArrowDown,ArrowRight"":7}","true","ArrowUp,ArrowLeft","","","","revaluation","1","24","","",""
"html-keyboard-response","242","1069179","0.0-4.0-4.0-1.12","spark_pilot_2","7468","6","20","Female","","","","","","","null","<div style=""font-size:60px;"">+</div>","null","fixation","","","","","","","","","","","25","","",""
"revaluation","243","1073195","0.0-4.0-4.0-0.13","spark_pilot_2","7468","6","20","Female","","false","","","","","[526.6999999992549]","./assets/img/canyon/animals/giraffe.jpg","[""ArrowLeft""]","revaluation","canyon","27","{""ArrowUp,ArrowLeft"":27,""ArrowUp,ArrowRight"":15,""ArrowDown,ArrowLeft"":21,""ArrowDown,ArrowRight"":7}","true","ArrowUp,ArrowLeft","","","","revaluation","1","26","","",""
"html-keyboard-response","244","1073699","0.0-4.0-4.0-1.13","spark_pilot_2","7468","6","20","Female","","","","","","","null","<div style=""font-size:60px;"">+</div>","null","fixation","","","","","","","","","","","27","","",""
"revaluation","245","1077715","0.0-4.0-4.0-0.14","spark_pilot_2","7468","6","20","Female","","false","","","","","[649.2000000001863]","./assets/img/canyon/animals/lion.jpg","[""ArrowLeft""]","revaluation","canyon","21","{""ArrowUp,ArrowLeft"":27,""ArrowUp,ArrowRight"":15,""ArrowDown,ArrowLeft"":21,""ArrowDown,ArrowRight"":7}","true","ArrowDown,ArrowLeft","","","","revaluation","1","28","","",""
"html-keyboard-response","246","1078219","0.0-4.0-4.0-1.14","spark_pilot_2","7468","6","20","Female","","","","","","","null","<div style=""font-size:60px;"">+</div>","null","fixation","","","","","","","","","","","29","","",""
"revaluation","247","1082235","0.0-4.0-4.0-0.15","spark_pilot_2","7468","6","20","Female","","false","","","","","[784.8999999994412]","./assets/img/canyon/animals/lion.jpg","[""ArrowLeft""]","revaluation","canyon","21","{""ArrowUp,ArrowLeft"":27,""ArrowUp,ArrowRight"":15,""ArrowDown,ArrowLeft"":21,""ArrowDown,ArrowRight"":7}","true","ArrowDown,ArrowLeft","","","","revaluation","1","30","","",""
"html-keyboard-response","248","1082739","0.0-4.0-4.0-1.15","spark_pilot_2","7468","6","20","Female","","","","","","","null","<div style=""font-size:60px;"">+</div>","null","fixation","","","","","","","","","","","31","","",""
"revaluation","249","1086755","0.0-4.0-4.0-0.16","spark_pilot_2","7468","6","20","Female","","false","","","","","[957]","./assets/img/canyon/animals/giraffe.jpg","[""ArrowLeft""]","revaluation","canyon","27","{""ArrowUp,ArrowLeft"":27,""ArrowUp,ArrowRight"":15,""ArrowDown,ArrowLeft"":21,""ArrowDown,ArrowRight"":7}","true","ArrowUp,ArrowLeft","","","","revaluation","1","32","","",""
"html-keyboard-response","250","1087259","0.0-4.0-4.0-1.16","spark_pilot_2","7468","6","20","Female","","","","","","","null","<div style=""font-size:60px;"">+</div>","null","fixation","","","","","","","","","","","33","","",""
"revaluation","251","1091275","0.0-4.0-4.0-0.17","spark_pilot_2","7468","6","20","Female","","false","","","","","[1285.3999999994412]","./assets/img/canyon/animals/giraffe.jpg","[""ArrowLeft""]","revaluation","canyon","27","{""ArrowUp,ArrowLeft"":27,""ArrowUp,ArrowRight"":15,""ArrowDown,ArrowLeft"":21,""ArrowDown,ArrowRight"":7}","true","ArrowUp,ArrowLeft","","","","revaluation","1","34","","",""
"html-keyboard-response","252","1091779","0.0-4.0-4.0-1.17","spark_pilot_2","7468","6","20","Female","","","","","","","null","<div style=""font-size:60px;"">+</div>","null","fixation","","","","","","","","","","","35","","",""
"learning-instructions","253","1104085","0.0-4.0-5.0-0.0","spark_pilot_2","7468","6","20","Female","","","","","","","801.2000000001863","<p> Time to play the dot game! </p>
            <p> For one minute, click the red dots on the following screen as they appear. </p>
            <p><b> Don't look away, as you will earn bonus for clicking dots</b>. </p>","","instructions","","","","","","","","","","","","","",""
"revaluation","254","1164091","0.0-4.0-6.0-0.0","spark_pilot_2","7468","6","20","Female","","","","","","","[67,107,93,64,69,115,75]","","","rest","","70","","","","","0","60000","","","","","",""
"learning-instructions","255","1194926","0.0-4.0-7.0-0.0","spark_pilot_2","7468","6","20","Female","","","","","","","24652.599999999627","<p> You have almost finished this part of the game! </p>
            <p> We are going to ask you to make a few more choices. </p>","","instructions","","","","","","","","","","","","","",""
"learning-instructions","256","1246282","0.0-4.0-7.0-0.1","spark_pilot_2","7468","6","20","Female","","","","","","","37385.10000000056","<p> First, you need to decide whether to go up or down. When you see each picture, use the arrow keys to make your choice. </p>
            <p><b>You will not see which animal you found, but try to get to the one that will give you the most treasure.</b></p>","","instructions","","","","","","","","","","","","","",""
"revaluation","257","1247485","0.0-4.0-8.0-0.0","spark_pilot_2","7468","6","20","Female","","false","","","","","[1199.300000000745]","./assets/img/canyon/test/2.jpg","[""ArrowDown""]","first stage test","canyon","0","{""ArrowUp,ArrowLeft"":27,""ArrowUp,ArrowRight"":15,""ArrowDown,ArrowLeft"":21,""ArrowDown,ArrowRight"":7}","false","ArrowDown","false","","","revaluation","1","","","",""
"html-keyboard-response","258","1247995","0.0-4.0-8.0-1.0","spark_pilot_2","7468","6","20","Female","","","","","","","null","<div style=""font-size:60px;"">+</div>","null","fixation","","","","","","","","","","","","","",""
"revaluation","259","1249391","0.0-4.0-8.0-0.1","spark_pilot_2","7468","6","20","Female","","false","","","","","[1392.800000000745]","./assets/img/canyon/test/1.jpg","[""ArrowUp""]","first stage test","canyon","0","{""ArrowUp,ArrowLeft"":27,""ArrowUp,ArrowRight"":15,""ArrowDown,ArrowLeft"":21,""ArrowDown,ArrowRight"":7}","true","ArrowUp","false","","","revaluation","1","","","",""
"html-keyboard-response","260","1249899","0.0-4.0-8.0-1.1","spark_pilot_2","7468","6","20","Female","","","","","","","null","<div style=""font-size:60px;"">+</div>","null","fixation","","","","","","","","","","","","","",""
"revaluation","261","1251082","0.0-4.0-8.0-0.2","spark_pilot_2","7468","6","20","Female","","false","","","","","[1177.7000000001863]","./assets/img/canyon/test/0.jpg","[""ArrowDown""]","first stage test","canyon","0","{""ArrowUp,ArrowLeft"":27,""ArrowUp,ArrowRight"":15,""ArrowDown,ArrowLeft"":21,""ArrowDown,ArrowRight"":7}","false","ArrowDown","false","","","revaluation","1","","","",""
"html-keyboard-response","262","1251587","0.0-4.0-8.0-1.2","spark_pilot_2","7468","6","20","Female","","","","","","","null","<div style=""font-size:60px;"">+</div>","null","fixation","","","","","","","","","","","","","",""
"revaluation","263","1252798","0.0-4.0-8.0-0.3","spark_pilot_2","7468","6","20","Female","","false","","","","","[1206.5]","./assets/img/canyon/test/3.jpg","[""ArrowUp""]","first stage test","canyon","0","{""ArrowUp,ArrowLeft"":27,""ArrowUp,ArrowRight"":15,""ArrowDown,ArrowLeft"":21,""ArrowDown,ArrowRight"":7}","true","ArrowUp","false","","","revaluation","1","","","",""
"html-keyboard-response","264","1253307","0.0-4.0-8.0-1.3","spark_pilot_2","7468","6","20","Female","","","","","","","null","<div style=""font-size:60px;"">+</div>","null","fixation","","","","","","","","","","","","","",""
"learning-instructions","265","1266779","0.0-4.0-9.0-0.0","spark_pilot_2","7468","6","20","Female","","","","","","","2036","<p> Now you will see the animals again and can search their chests for treasure. </p>
            <p> This time, you will not see how much treasure you earned, but you will earn more bonus money for making better choices. </p>","","instructions","","","","","","","","","","","","","",""
"revaluation","266","1268108","0.0-4.0-10.0-0.0","spark_pilot_2","7468","6","20","Female","","false","","","","","[1325.7999999998137]","./assets/img/canyon/animals/giraffe.jpg","[""ArrowLeft""]","second stage test","canyon","0","{""ArrowUp,ArrowLeft"":27,""ArrowUp,ArrowRight"":15,""ArrowDown,ArrowLeft"":21,""ArrowDown,ArrowRight"":7}","true","ArrowUp,ArrowLeft","","","","revaluation","1","","","",""
"html-keyboard-response","267","1268611","0.0-4.0-10.0-1.0","spark_pilot_2","7468","6","20","Female","","","","","","","null","<div style=""font-size:60px;"">+</div>","null","fixation","","","","","","","","","","","","","",""
"revaluation","268","1269959","0.0-4.0-10.0-0.1","spark_pilot_2","7468","6","20","Female","","false","","","","","[1344.2000000001863]","./assets/img/canyon/animals/giraffe.jpg","[""ArrowRight""]","second stage test","canyon","0","{""ArrowUp,ArrowLeft"":27,""ArrowUp,ArrowRight"":15,""ArrowDown,ArrowLeft"":21,""ArrowDown,ArrowRight"":7}","false","ArrowUp,ArrowRight","","","","revaluation","1","","","",""
"html-keyboard-response","269","1270466","0.0-4.0-10.0-1.1","spark_pilot_2","7468","6","20","Female","","","","","","","null","<div style=""font-size:60px;"">+</div>","null","fixation","","","","","","","","","","","","","",""
"revaluation","270","1271470","0.0-4.0-10.0-0.2","spark_pilot_2","7468","6","20","Female","","false","","","","","[1001]","./assets/img/canyon/animals/giraffe.jpg","[""ArrowRight""]","second stage test","canyon","0","{""ArrowUp,ArrowLeft"":27,""ArrowUp,ArrowRight"":15,""ArrowDown,ArrowLeft"":21,""ArrowDown,ArrowRight"":7}","false","ArrowUp,ArrowRight","","","","revaluation","1","","","",""
"html-keyboard-response","271","1271979","0.0-4.0-10.0-1.2","spark_pilot_2","7468","6","20","Female","","","","","","","null","<div style=""font-size:60px;"">+</div>","null","fixation","","","","","","","","","","","","","",""
"revaluation","272","1273554","0.0-4.0-10.0-0.3","spark_pilot_2","7468","6","20","Female","","false","","","","","[1570.7000000001863]","./assets/img/canyon/animals/giraffe.jpg","[""ArrowLeft""]","second stage test","canyon","0","{""ArrowUp,ArrowLeft"":27,""ArrowUp,ArrowRight"":15,""ArrowDown,ArrowLeft"":21,""ArrowDown,ArrowRight"":7}","true","ArrowUp,ArrowLeft","","","","revaluation","1","","","",""
"html-keyboard-response","273","1274059","0.0-4.0-10.0-1.3","spark_pilot_2","7468","6","20","Female","","","","","","","null","<div style=""font-size:60px;"">+</div>","null","fixation","","","","","","","","","","","","","",""
"revaluation","274","1276145","0.0-4.0-10.0-0.4","spark_pilot_2","7468","6","20","Female","","false","","","","","[2081.7000000001863]","./assets/img/canyon/animals/lion.jpg","[""ArrowLeft""]","second stage test","canyon","0","{""ArrowUp,ArrowLeft"":27,""ArrowUp,ArrowRight"":15,""ArrowDown,ArrowLeft"":21,""ArrowDown,ArrowRight"":7}","true","ArrowDown,ArrowLeft","","","","revaluation","1","","","",""
"html-keyboard-response","275","1276651","0.0-4.0-10.0-1.4","spark_pilot_2","7468","6","20","Female","","","","","","","null","<div style=""font-size:60px;"">+</div>","null","fixation","","","","","","","","","","","","","",""
"revaluation","276","1277236","0.0-4.0-10.0-0.5","spark_pilot_2","7468","6","20","Female","","false","","","","","[581.3000000007451]","./assets/img/canyon/animals/lion.jpg","[""ArrowLeft""]","second stage test","canyon","0","{""ArrowUp,ArrowLeft"":27,""ArrowUp,ArrowRight"":15,""ArrowDown,ArrowLeft"":21,""ArrowDown,ArrowRight"":7}","true","ArrowDown,ArrowLeft","","","","revaluation","1","","","",""
"html-keyboard-response","277","1277739","0.0-4.0-10.0-1.5","spark_pilot_2","7468","6","20","Female","","","","","","","null","<div style=""font-size:60px;"">+</div>","null","fixation","","","","","","","","","","","","","",""
"revaluation","278","1278620","0.0-4.0-10.0-0.6","spark_pilot_2","7468","6","20","Female","","false","","","","","[878.5999999996275]","./assets/img/canyon/animals/lion.jpg","[""ArrowRight""]","second stage test","canyon","0","{""ArrowUp,ArrowLeft"":27,""ArrowUp,ArrowRight"":15,""ArrowDown,ArrowLeft"":21,""ArrowDown,ArrowRight"":7}","false","ArrowDown,ArrowRight","","","","revaluation","1","","","",""
"html-keyboard-response","279","1279123","0.0-4.0-10.0-1.6","spark_pilot_2","7468","6","20","Female","","","","","","","null","<div style=""font-size:60px;"">+</div>","null","fixation","","","","","","","","","","","","","",""
"revaluation","280","1281105","0.0-4.0-10.0-0.7","spark_pilot_2","7468","6","20","Female","","false","","","","","[1978.300000000745]","./assets/img/canyon/animals/lion.jpg","[""ArrowRight""]","second stage test","canyon","0","{""ArrowUp,ArrowLeft"":27,""ArrowUp,ArrowRight"":15,""ArrowDown,ArrowLeft"":21,""ArrowDown,ArrowRight"":7}","false","ArrowDown,ArrowRight","","","","revaluation","1","","","",""
"html-keyboard-response","281","1281611","0.0-4.0-10.0-1.7","spark_pilot_2","7468","6","20","Female","","","","","","","null","<div style=""font-size:60px;"">+</div>","null","fixation","","","","","","","","","","","","","",""
"learning-instructions","282","1305419","0.0-4.0-0.1-0.2","spark_pilot_2","7468","6","20","Female","","","","","","","21081.700000000186","<p> This time you are searching for treasure in the <b>ocean</b>.</p>","","instructions","","","","","","","","","","","","","",""
"learning-instructions","283","1329892","0.0-4.0-0.1-0.3","spark_pilot_2","7468","6","20","Female","","","","","","","7219.299999999814","<p><b>New</b> animals with <b>new</b> treasure chests live here. You need to explore to discover where the animal with the best treasure chest is.</p>
                    <p> Like before, once you figure out which animal has the chest with the most treasure, you should try to get to that animal and select that chest! </p>","","instructions","","","","","","","","","","","","","",""
"learning-instructions","284","1347818","0.0-4.0-1.1-0.1","spark_pilot_2","7468","6","20","Female","","","","","","","3192.899999999441","<p> Remember, when you see a picture of the place, use the up and down keys to <b>find an animal</b>.</p>
            <p> When you encounter an animal, you should use the left and right keys to <b>select a treasure chest</b>.</p>
            <p> Don't forget to look out for the robber! </p>","","instructions","","","","","","","","","","","","","",""
"revaluation","285","1353843","0.0-4.0-2.1-0.50","spark_pilot_2","7468","6","20","Female","","false","","","","","[1291.199999999255,1470.9000000003725]","./assets/img/ocean/memory/4.jpg","[""ArrowUp"",""ArrowRight""]","value training","ocean","10","{""ArrowUp,ArrowLeft"":26,""ArrowUp,ArrowRight"":10,""ArrowDown,ArrowLeft"":5,""ArrowDown,ArrowRight"":17}","false","ArrowUp,ArrowRight","false","","","original","2","0","","",""
"html-keyboard-response","286","1354347","0.0-4.0-2.1-1.50","spark_pilot_2","7468","6","20","Female","","","","","","","null","<div style=""font-size:60px;"">+</div>","null","fixation","","","","","","","","","","","1","","",""
"revaluation","287","1360371","0.0-4.0-2.1-0.51","spark_pilot_2","7468","6","20","Female","","false","","","","","[913,814.4000000003725]","./assets/img/ocean/memory/6.jpg","[""ArrowDown"",""ArrowLeft""]","value training","ocean","5","{""ArrowUp,ArrowLeft"":26,""ArrowUp,ArrowRight"":10,""ArrowDown,ArrowLeft"":5,""ArrowDown,ArrowRight"":17}","false","ArrowDown,ArrowLeft","false","","","original","2","2","","",""
"html-keyboard-response","288","1360875","0.0-4.0-2.1-1.51","spark_pilot_2","7468","6","20","Female","","","","","","","null","<div style=""font-size:60px;"">+</div>","null","fixation","","","","","","","","","","","3","","",""
"revaluation","289","1366899","0.0-4.0-2.1-0.52","spark_pilot_2","7468","6","20","Female","","false","","","","","[1016.2000000001863,598.6999999992549]","./assets/img/ocean/memory/40.jpg","[""ArrowUp"",""ArrowLeft""]","value training","ocean","26","{""ArrowUp,ArrowLeft"":26,""ArrowUp,ArrowRight"":10,""ArrowDown,ArrowLeft"":5,""ArrowDown,ArrowRight"":17}","true","ArrowUp,ArrowLeft","false","","","original","2","4","","",""
"html-keyboard-response","290","1367403","0.0-4.0-2.1-1.52","spark_pilot_2","7468","6","20","Female","","","","","","","null","<div style=""font-size:60px;"">+</div>","null","fixation","","","","","","","","","","","5","","",""
"revaluation","291","1373427","0.0-4.0-2.1-0.53","spark_pilot_2","7468","6","20","Female","","false","","","","","[775.6999999992549,345.5]","./assets/img/ocean/memory/20.jpg","[""ArrowDown"",""ArrowRight""]","value training","ocean","17","{""ArrowUp,ArrowLeft"":26,""ArrowUp,ArrowRight"":10,""ArrowDown,ArrowLeft"":5,""ArrowDown,ArrowRight"":17}","false","ArrowDown,ArrowRight","false","","","original","2","6","","",""
"html-keyboard-response","292","1373931","0.0-4.0-2.1-1.53","spark_pilot_2","7468","6","20","Female","","","","","","","null","<div style=""font-size:60px;"">+</div>","null","fixation","","","","","","","","","","","7","","",""
"revaluation","293","1377947","0.0-4.0-2.1-0.54","spark_pilot_2","7468","6","20","Female","","false","","","","","[1387.5]","./assets/img/ocean/catch/3.jpg","[""spaceBar""]","value training","ocean","0","{""ArrowUp,ArrowLeft"":26,""ArrowUp,ArrowRight"":10,""ArrowDown,ArrowLeft"":5,""ArrowDown,ArrowRight"":17}","true","spaceBar","true","","","original","2","8","","",""
"html-keyboard-response","294","1378451","0.0-4.0-2.1-1.54","spark_pilot_2","7468","6","20","Female","","","","","","","null","<div style=""font-size:60px;"">+</div>","null","fixation","","","","","","","","","","","9","","",""
"revaluation","295","1384475","0.0-4.0-2.1-0.55","spark_pilot_2","7468","6","20","Female","","false","","","","","[1885.4000000003725,1173.2999999998137]","./assets/img/ocean/memory/24.jpg","[""ArrowDown"",""ArrowRight""]","value training","ocean","17","{""ArrowUp,ArrowLeft"":26,""ArrowUp,ArrowRight"":10,""ArrowDown,ArrowLeft"":5,""ArrowDown,ArrowRight"":17}","false","ArrowDown,ArrowRight","false","","","original","2","10","","",""
"html-keyboard-response","296","1384979","0.0-4.0-2.1-1.55","spark_pilot_2","7468","6","20","Female","","","","","","","null","<div style=""font-size:60px;"">+</div>","null","fixation","","","","","","","","","","","11","","",""
"revaluation","297","1391003","0.0-4.0-2.1-0.56","spark_pilot_2","7468","6","20","Female","","false","","","","","[851.5,511.09999999962747]","./assets/img/ocean/memory/17.jpg","[""ArrowUp"",""ArrowLeft""]","value training","ocean","26","{""ArrowUp,ArrowLeft"":26,""ArrowUp,ArrowRight"":10,""ArrowDown,ArrowLeft"":5,""ArrowDown,ArrowRight"":17}","true","ArrowUp,ArrowLeft","false","","","original","2","12","","",""
"html-keyboard-response","298","1391507","0.0-4.0-2.1-1.56","spark_pilot_2","7468","6","20","Female","","","","","","","null","<div style=""font-size:60px;"">+</div>","null","fixation","","","","","","","","","","","13","","",""
"revaluation","299","1397531","0.0-4.0-2.1-0.57","spark_pilot_2","7468","6","20","Female","","false","","","","","[836.7999999998137,955.2000000001863]","./assets/img/ocean/memory/36.jpg","[""ArrowDown"",""ArrowLeft""]","value training","ocean","5","{""ArrowUp,ArrowLeft"":26,""ArrowUp,ArrowRight"":10,""ArrowDown,ArrowLeft"":5,""ArrowDown,ArrowRight"":17}","false","ArrowDown,ArrowLeft","false","","","original","2","14","","",""
"html-keyboard-response","300","1398035","0.0-4.0-2.1-1.57","spark_pilot_2","7468","6","20","Female","","","","","","","null","<div style=""font-size:60px;"">+</div>","null","fixation","","","","","","","","","","","15","","",""
"revaluation","301","1404059","0.0-4.0-2.1-0.58","spark_pilot_2","7468","6","20","Female","","false","","","","","[1407.4000000003725,816.0999999996275]","./assets/img/ocean/memory/6.jpg","[""ArrowDown"",""ArrowRight""]","value training","ocean","17","{""ArrowUp,ArrowLeft"":26,""ArrowUp,ArrowRight"":10,""ArrowDown,ArrowLeft"":5,""ArrowDown,ArrowRight"":17}","false","ArrowDown,ArrowRight","false","","","original","2","16","","",""
"html-keyboard-response","302","1404563","0.0-4.0-2.1-1.58","spark_pilot_2","7468","6","20","Female","","","","","","","null","<div style=""font-size:60px;"">+</div>","null","fixation","","","","","","","","","","","17","","",""
"revaluation","303","1410587","0.0-4.0-2.1-0.59","spark_pilot_2","7468","6","20","Female","","false","","","","","[622.4000000003725,1009.0999999996275]","./assets/img/ocean/memory/25.jpg","[""ArrowUp"",""ArrowRight""]","value training","ocean","10","{""ArrowUp,ArrowLeft"":26,""ArrowUp,ArrowRight"":10,""ArrowDown,ArrowLeft"":5,""ArrowDown,ArrowRight"":17}","false","ArrowUp,ArrowRight","false","","","original","2","18","","",""
"html-keyboard-response","304","1411091","0.0-4.0-2.1-1.59","spark_pilot_2","7468","6","20","Female","","","","","","","null","<div style=""font-size:60px;"">+</div>","null","fixation","","","","","","","","","","","19","","",""
