"trial_type","trial_index","time_elapsed","internal_node_id","task_version","subject_id","assigned_condition","age","gender","success","timeout","failed_images","failed_audio","failed_video","browser_interaction","rt","stimulus","response","task_part","environment","score","rewardMap","correct","fullState","isCatch","numberMissed","duration","condition","order","trial_num","key_press","ground_truth","bonus"
"pavlovia","0","1229","0.0-0.0","spark_pilot_2","7102","6","7","Male","","","","","","","","","","","","","","","","","","","","","","","",""
"preload","1","6220","0.0-1.0","spark_pilot_2","7102","6","7","Male","true","false","[]","[]","[]","[{""event"":""fullscreenenter"",""trial"":2,""time"":9913},{""event"":""blur"",""trial"":576,""time"":2063740},{""event"":""focus"",""trial"":580,""time"":2088011}]","","","","","","","","","","","","","","","","","",""
"fullscreen","2","10884","0.0-2.0","spark_pilot_2","7102","6","7","Male","true","","","","","","","","","","","","","","","","","","","","","","",""
"audio-button-response","3","13271","0.0-3.0-0.0-0.0","spark_pilot_2","7102","6","7","Male","","","","","","","2371","./assets/audio/audiotest/turtle.mp3","0","audio_test","","","","","","","","","","","","","",""
"audio-button-response","4","16871","0.0-3.0-0.1-0.1","spark_pilot_2","7102","6","7","Male","","","","","","","2589","./assets/audio/audiotest/turtle.mp3","2","audio_test","","","","","","","","","","","","","",""
"learning-instructions","5","30448","0.0-3.0-1.0-0.0","spark_pilot_2","7102","6","7","Male","","","","","","","6584.899999976158","<p> Welcome! Please remember to stay in fullscreen mode and don't click away from the experiment. </p>","","instructions","","","","","","","","","","","","","",""
"learning-instructions","6","43363","0.0-3.0-1.0-0.1","spark_pilot_2","7102","6","7","Male","","","","","","","4498.700000017881","<p> Today you will be playing a game to earn treasure. </p>
            <p> At the end of the experiment, you will earn a bonus based on how much treasure you find. </p>
            <img src='./assets/img/instructions/treasure.jpg' class='instructions-image'>","","instructions","","","","","","","","","","","","","",""
"learning-instructions","7","55504","0.0-3.0-1.0-0.2","spark_pilot_2","7102","6","7","Male","","","","","","","3870.9000000059605","<p> Animals have hidden treasure in treasure chests. </p>
            <p> You need to first find an animal and then choose which of their treasure chests to search. </p>
            <img src='./assets/img/space/animals/cat.jpg' class='instructions-image'>","","instructions","","","","","","","","","","","","","",""
"learning-instructions","8","71757","0.0-3.0-1.0-0.3","spark_pilot_2","7102","6","7","Male","","","","","","","3085","<p> In each round, you will search for treasure in a different place. In the real game, there will be two rounds. </p>
            <p> You will begin with a separate, practice round where you will search for treasure in outer space. </p>
            <img src='./assets/img/space/0.jpg' class='instructions-image'>","","instructions","","","","","","","","","","","","","",""
"learning-instructions","9","84754","0.0-3.0-1.0-0.4","spark_pilot_2","7102","6","7","Male","","","","","","","1571.9000000059605","<p> On every turn, you will see a picture of the place that you are in, but the specific image may be different each time. </p>
            <p> For example, both of these images mean you are in outer space. </p>
            <img src='./assets/img/instructions/outerspace.jpg' class='instructions-image'>","","instructions","","","","","","","","","","","","","",""
"learning-instructions","10","101098","0.0-3.0-1.0-0.5","spark_pilot_2","7102","6","7","Male","","","","","","","8505","<p> You need to decide which direction to travel in. </p>
            <p> You can choose between going <b>up or down</b> by using the arrow keys. </p>
            <img src='./assets/img/instructions/updown.jpg' class='instructions-image'>","","instructions","","","","","","","","","","","","","",""
"learning-instructions","11","112222","0.0-3.0-1.0-0.6","spark_pilot_2","7102","6","7","Male","","","","","","","2319.5999999940395","<p> You will have <b>2 seconds</b> to make your choice. </p>
            <p> If you do not make a choice within 2 seconds, you will not find an animal or earn treasure. </p>
            <img src='./assets/img/instructions/2seconds.jpg' class='instructions-image'>","","instructions","","","","","","","","","","","","","",""
"learning-instructions","12","120950","0.0-3.0-1.0-0.7","spark_pilot_2","7102","6","7","Male","","","","","","","1697.2999999821186","<p> Let’s try practicing that now! </p>
            <p> When you see a picture of the place you are in, press the <b>up</b> key to travel up. </p>
            <img src='./assets/img/instructions/pressUp.jpg' class='instructions-image'>","","instructions","","","","","","","","","","","","","",""
"revaluation","13","124960","0.0-3.0-2.0-0.0","spark_pilot_2","7102","6","7","Male","","true","","","","","[]","./assets/img/space/0.jpg","[]","first stage practice","space","-5","null","null","","false","","","","","","","",""
"html-keyboard-response","14","125477","0.0-3.0-2.0-1.0","spark_pilot_2","7102","6","7","Male","","","","","","","null","<div style=""font-size:60px;"">+</div>","null","fixation","","","","","","","","","","","","","",""
"revaluation","15","129494","0.0-3.0-2.0-0.1","spark_pilot_2","7102","6","7","Male","","false","","","","","[405.30000001192093]","./assets/img/space/1.jpg","[""ArrowUp""]","first stage practice","space","0","null","null","ArrowUp","false","","","","","","","",""
"html-keyboard-response","16","130005","0.0-3.0-2.0-1.1","spark_pilot_2","7102","6","7","Male","","","","","","","null","<div style=""font-size:60px;"">+</div>","null","fixation","","","","","","","","","","","","","",""
"revaluation","17","134017","0.0-3.0-2.0-0.2","spark_pilot_2","7102","6","7","Male","","false","","","","","[1790.800000011921]","./assets/img/space/2.jpg","[""ArrowUp""]","first stage practice","space","0","null","null","ArrowUp","false","","","","","","","",""
"html-keyboard-response","18","134529","0.0-3.0-2.0-1.2","spark_pilot_2","7102","6","7","Male","","","","","","","null","<div style=""font-size:60px;"">+</div>","null","fixation","","","","","","","","","","","","","",""
"learning-instructions","19","141336","0.0-3.0-3.0-0.0","spark_pilot_2","7102","6","7","Male","","","","","","","2094.0999999940395","<p> Great job! Now try pressing the <b>down</b> key to travel down. </p>
            <img src='./assets/img/instructions/pressDown.jpg' class='instructions-image'>","","instructions","","","","","","","","","","","","","",""
"revaluation","20","145355","0.0-3.0-4.0-0.0","spark_pilot_2","7102","6","7","Male","","false","","","","","[1296.4000000059605]","./assets/img/space/3.jpg","[""ArrowDown""]","first stage practice","space","0","null","null","ArrowDown","false","","","","","","","",""
"html-keyboard-response","21","145866","0.0-3.0-4.0-1.0","spark_pilot_2","7102","6","7","Male","","","","","","","null","<div style=""font-size:60px;"">+</div>","null","fixation","","","","","","","","","","","","","",""
"revaluation","22","149876","0.0-3.0-4.0-0.1","spark_pilot_2","7102","6","7","Male","","false","","","","","[391.59999999403954]","./assets/img/space/4.jpg","[""ArrowDown""]","first stage practice","space","0","null","null","ArrowDown","false","","","","","","","",""
"html-keyboard-response","23","150387","0.0-3.0-4.0-1.1","spark_pilot_2","7102","6","7","Male","","","","","","","null","<div style=""font-size:60px;"">+</div>","null","fixation","","","","","","","","","","","","","",""
"revaluation","24","154406","0.0-3.0-4.0-0.2","spark_pilot_2","7102","6","7","Male","","false","","","","","[143.7000000178814]","./assets/img/space/5.jpg","[""ArrowDown""]","first stage practice","space","0","null","null","ArrowDown","false","","","","","","","",""
"html-keyboard-response","25","154918","0.0-3.0-4.0-1.2","spark_pilot_2","7102","6","7","Male","","","","","","","null","<div style=""font-size:60px;"">+</div>","null","fixation","","","","","","","","","","","","","",""
"learning-instructions","26","166984","0.0-3.0-5.0-0.0","spark_pilot_2","7102","6","7","Male","","","","","","","2201.9000000059605","<p> The animals don’t move, so the animal in the upper part of a place will stay in the upper part of a place, and the animal in the lower part of a place will stay in the lower part of a place. </p>","","instructions","","","","","","","","","","","","","",""
"learning-instructions","27","180307","0.0-3.0-5.0-0.1","spark_pilot_2","7102","6","7","Male","","","","","","","4164.200000017881","<p> Each animal has two treasure chests for you to choose from. </p>
            <p> The amount of treasure in each chest can range from <b> 0 to 40 pieces.</b></p>","","instructions","","","","","","","","","","","","","",""
"learning-instructions","28","192831","0.0-3.0-5.0-0.2","spark_pilot_2","7102","6","7","Male","","","","","","","1329.2999999821186","<p> You should decide which chest to search for treasure by using the <b>left</b> and <b>right</b> arrow keys. </p>
            <p><b> Pay attention to which animal is on the screen, as the animals have different treasure chests. </b></p>
            <img src='./assets/img/instructions/leftright.jpg' class='instructions-image'>","","instructions","","","","","","","","","","","","","",""
"learning-instructions","29","201067","0.0-3.0-5.0-0.3","spark_pilot_2","7102","6","7","Male","","","","","","","1854.2999999821186","<p> Let’s try practicing that now. </p>
            <p> When you see an animal, choose which chest to search for treasure. </p>
            <img src='./assets/img/instructions/chooseChest.jpg' class='instructions-image'>","","instructions","","","","","","","","","","","","","",""
"revaluation","30","205080","0.0-3.0-6.0-0.0","spark_pilot_2","7102","6","7","Male","","false","","","","","[1484.8999999761581]","./assets/img/space/animals/cat.jpg","[""ArrowLeft""]","second stage practice","space","3","{""ArrowUp,ArrowLeft"":3,""ArrowUp,ArrowRight"":36,""ArrowDown,ArrowLeft"":15,""ArrowDown,ArrowRight"":23}","false","ArrowUp,ArrowLeft","","","","","","","","",""
"html-keyboard-response","31","205591","0.0-3.0-6.0-1.0","spark_pilot_2","7102","6","7","Male","","","","","","","null","<div style=""font-size:60px;"">+</div>","null","fixation","","","","","","","","","","","","","",""
"revaluation","32","209602","0.0-3.0-6.0-0.1","spark_pilot_2","7102","6","7","Male","","false","","","","","[1202.300000011921]","./assets/img/space/animals/rabbit.jpg","[""ArrowRight""]","second stage practice","space","23","{""ArrowUp,ArrowLeft"":3,""ArrowUp,ArrowRight"":36,""ArrowDown,ArrowLeft"":15,""ArrowDown,ArrowRight"":23}","true","ArrowDown,ArrowRight","","","","","","","","",""
"html-keyboard-response","33","210116","0.0-3.0-6.0-1.1","spark_pilot_2","7102","6","7","Male","","","","","","","null","<div style=""font-size:60px;"">+</div>","null","fixation","","","","","","","","","","","","","",""
"revaluation","34","214128","0.0-3.0-6.0-0.2","spark_pilot_2","7102","6","7","Male","","false","","","","","[1540.4000000059605]","./assets/img/space/animals/cat.jpg","[""ArrowRight""]","second stage practice","space","36","{""ArrowUp,ArrowLeft"":3,""ArrowUp,ArrowRight"":36,""ArrowDown,ArrowLeft"":15,""ArrowDown,ArrowRight"":23}","true","ArrowUp,ArrowRight","","","","","","","","",""
"html-keyboard-response","35","214639","0.0-3.0-6.0-1.2","spark_pilot_2","7102","6","7","Male","","","","","","","null","<div style=""font-size:60px;"">+</div>","null","fixation","","","","","","","","","","","","","",""
"revaluation","36","218651","0.0-3.0-6.0-0.3","spark_pilot_2","7102","6","7","Male","","false","","","","","[785.3000000119209]","./assets/img/space/animals/rabbit.jpg","[""ArrowLeft""]","second stage practice","space","15","{""ArrowUp,ArrowLeft"":3,""ArrowUp,ArrowRight"":36,""ArrowDown,ArrowLeft"":15,""ArrowDown,ArrowRight"":23}","false","ArrowDown,ArrowLeft","","","","","","","","",""
"html-keyboard-response","37","219152","0.0-3.0-6.0-1.3","spark_pilot_2","7102","6","7","Male","","","","","","","null","<div style=""font-size:60px;"">+</div>","null","fixation","","","","","","","","","","","","","",""
"learning-instructions","38","238920","0.0-3.0-7.0-0.0","spark_pilot_2","7102","6","7","Male","","","","","","","2948.5","<p> Great job. Now let’s try putting it together. </p>
            <p> On each turn, you will first see a picture to remind you of the place you are in, and you need to choose whether to go up or down. </p>
            <p> Then you will see an animal and choose which of its chests to search for treasure. </p>","","instructions","","","","","","","","","","","","","",""
"learning-instructions","39","248797","0.0-3.0-7.0-0.1","spark_pilot_2","7102","6","7","Male","","","","","","","1615.7000000178814","<p> When you choose whether to go up or down, try to go to the animal with the chest with the most treasure. </p>
            <p> Try practicing that now! </p>","","instructions","","","","","","","","","","","","","",""
"revaluation","40","254820","0.0-3.0-8.0-0.0","spark_pilot_2","7102","6","7","Male","","false","","","","","[1815.5999999940395,1175.699999988079]","./assets/img/space/6.jpg","[""ArrowUp"",""ArrowLeft""]","full practice","space","3","{""ArrowUp,ArrowLeft"":3,""ArrowUp,ArrowRight"":36,""ArrowDown,ArrowLeft"":15,""ArrowDown,ArrowRight"":23}","false","ArrowUp,ArrowLeft","false","","","","","","","",""
"html-keyboard-response","41","255333","0.0-3.0-8.0-1.0","spark_pilot_2","7102","6","7","Male","","","","","","","null","<div style=""font-size:60px;"">+</div>","null","fixation","","","","","","","","","","","","","",""
"revaluation","42","261347","0.0-3.0-8.0-0.1","spark_pilot_2","7102","6","7","Male","","false","","","","","[1662.0999999940395,1673.5999999940395]","./assets/img/space/7.jpg","[""ArrowDown"",""ArrowRight""]","full practice","space","23","{""ArrowUp,ArrowLeft"":3,""ArrowUp,ArrowRight"":36,""ArrowDown,ArrowLeft"":15,""ArrowDown,ArrowRight"":23}","false","ArrowDown,ArrowRight","false","","","","","","","",""
"html-keyboard-response","43","261863","0.0-3.0-8.0-1.1","spark_pilot_2","7102","6","7","Male","","","","","","","null","<div style=""font-size:60px;"">+</div>","null","fixation","","","","","","","","","","","","","",""
"revaluation","44","267890","0.0-3.0-8.0-0.2","spark_pilot_2","7102","6","7","Male","","false","","","","","[845.5999999940395,672.5]","./assets/img/space/8.jpg","[""ArrowDown"",""ArrowLeft""]","full practice","space","15","{""ArrowUp,ArrowLeft"":3,""ArrowUp,ArrowRight"":36,""ArrowDown,ArrowLeft"":15,""ArrowDown,ArrowRight"":23}","false","ArrowDown,ArrowLeft","false","","","","","","","",""
"html-keyboard-response","45","268404","0.0-3.0-8.0-1.2","spark_pilot_2","7102","6","7","Male","","","","","","","null","<div style=""font-size:60px;"">+</div>","null","fixation","","","","","","","","","","","","","",""
"revaluation","46","274421","0.0-3.0-8.0-0.3","spark_pilot_2","7102","6","7","Male","","false","","","","","[767.2999999821186,818.0999999940395]","./assets/img/space/9.jpg","[""ArrowUp"",""ArrowRight""]","full practice","space","36","{""ArrowUp,ArrowLeft"":3,""ArrowUp,ArrowRight"":36,""ArrowDown,ArrowLeft"":15,""ArrowDown,ArrowRight"":23}","true","ArrowUp,ArrowRight","false","","","","","","","",""
"html-keyboard-response","47","274933","0.0-3.0-8.0-1.3","spark_pilot_2","7102","6","7","Male","","","","","","","null","<div style=""font-size:60px;"">+</div>","null","fixation","","","","","","","","","","","","","",""
"revaluation","48","278938","0.0-3.0-8.0-0.4","spark_pilot_2","7102","6","7","Male","","true","","","","","[]","./assets/img/space/10.jpg","[]","full practice","space","-5","{""ArrowUp,ArrowLeft"":3,""ArrowUp,ArrowRight"":36,""ArrowDown,ArrowLeft"":15,""ArrowDown,ArrowRight"":23}","false","","false","","","","","","","",""
"html-keyboard-response","49","279439","0.0-3.0-8.0-1.4","spark_pilot_2","7102","6","7","Male","","","","","","","null","<div style=""font-size:60px;"">+</div>","null","fixation","","","","","","","","","","","","","",""
"learning-instructions","50","294215","0.0-3.0-9.0-0.0","spark_pilot_2","7102","6","7","Male","","","","","","","4455.5999999940395","<p> One last thing: sometimes, you will see a robber. The robber can be anywhere in the picture. </p>
            <p> If you do not stop them, you will lose treasure. </p>
            <img src='./assets/img/instructions/robber.jpg' class='instructions-image'>","","instructions","","","","","","","","","","","","","",""
"learning-instructions","51","303070","0.0-3.0-9.0-0.1","spark_pilot_2","7102","6","7","Male","","","","","","","1690.7999999821186","<p> If you see the robber, you should <b>press the space bar</b> rather than using the arrow keys. </p>
            <p> Try practicing that now! </p>","","instructions","","","","","","","","","","","","","",""
"revaluation","52","307074","0.0-3.0-10.0-0.0","spark_pilot_2","7102","6","7","Male","","true","","","","","[]","./assets/img/space/catch/0.jpg","[]","catch practice","space","-5","{""ArrowUp,ArrowLeft"":3,""ArrowUp,ArrowRight"":36,""ArrowDown,ArrowLeft"":15,""ArrowDown,ArrowRight"":23}","false","","true","","","","","","","",""
"html-keyboard-response","53","307584","0.0-3.0-10.0-1.0","spark_pilot_2","7102","6","7","Male","","","","","","","null","<div style=""font-size:60px;"">+</div>","null","fixation","","","","","","","","","","","","","",""
"revaluation","54","311609","0.0-3.0-10.0-0.1","spark_pilot_2","7102","6","7","Male","","false","","","","","[618.8000000119209]","./assets/img/space/catch/1.jpg","[""ArrowDown""]","catch practice","space","-10","{""ArrowUp,ArrowLeft"":3,""ArrowUp,ArrowRight"":36,""ArrowDown,ArrowLeft"":15,""ArrowDown,ArrowRight"":23}","false","ArrowDown","true","","","","","","","",""
"html-keyboard-response","55","312122","0.0-3.0-10.0-1.1","spark_pilot_2","7102","6","7","Male","","","","","","","null","<div style=""font-size:60px;"">+</div>","null","fixation","","","","","","","","","","","","","",""
"revaluation","56","316150","0.0-3.0-10.0-0.2","spark_pilot_2","7102","6","7","Male","","false","","","","","[845.4000000059605]","./assets/img/space/catch/2.jpg","[""ArrowUp""]","catch practice","space","-10","{""ArrowUp,ArrowLeft"":3,""ArrowUp,ArrowRight"":36,""ArrowDown,ArrowLeft"":15,""ArrowDown,ArrowRight"":23}","false","ArrowUp","true","","","","","","","",""
"html-keyboard-response","57","316662","0.0-3.0-10.0-1.2","spark_pilot_2","7102","6","7","Male","","","","","","","null","<div style=""font-size:60px;"">+</div>","null","fixation","","","","","","","","","","","","","",""
"learning-instructions","58","333027","0.0-3.0-11.0-0.0","spark_pilot_2","7102","6","7","Male","","","","","","","2687.199999988079","<p> After you explore a place to find treasure, it will be time to play a different game. </p>
            <p> During this game, red dots will appear on the screen and fall down slowly. </p>
            <p><b> You must click on them before they reach the bottom. </b></p>
            <img src='./assets/img/instructions/dotGame.jpg' class='instructions-image'>","","instructions","","","","","","","","","","","","","",""
"learning-instructions","59","340566","0.0-3.0-11.0-0.1","spark_pilot_2","7102","6","7","Male","","","","","","","1866.5","<p> For every dot you click, you will earn additional treasure. </p>
            <p> Let’s try practicing that now. </p>","","instructions","","","","","","","","","","","","","",""
"revaluation","60","355572","0.0-3.0-12.0-0.0","spark_pilot_2","7102","6","7","Male","","","","","","","[92]","","","rest practice","","10","","","","","0","15000","","","","","",""
"learning-instructions","61","362781","0.0-3.0-13.0-0.0-0.0","spark_pilot_2","7102","6","7","Male","","","","","","","1940.9000000059605","<p> Now, you will practice a shortened version of the game to get a sense of how it all fits together. </p>","","instructions","","","","","","","","","","","","","",""
"learning-instructions","62","367814","0.0-3.0-13.0-0.0-0.1","spark_pilot_2","7102","6","7","Male","","","","","","","1833.5","<p>This time you are searching for treasure in outer space.</p>","","instructions","","","","","","","","","","","","","",""
"learning-instructions","63","391274","0.0-3.0-13.0-1.0-0.0","spark_pilot_2","7102","6","7","Male","","","","","","","8693.59999999404","<p> Remember, when you see a picture of the place, use the up and down keys to <b>find an animal</b>.</p>
            <p> When you encounter an animal, you should use the left and right keys to <b>select a treasure chest</b>.</p>
            <p> Don't forget to look out for the robber! </p>","","instructions","","","","","","","","","","","","","",""
"revaluation","64","395281","0.0-3.0-13.0-2.0-0.0","spark_pilot_2","7102","6","7","Male","","true","","","","","[]","./assets/img/space/11.jpg","[]","practice block","space","-5","{""ArrowUp,ArrowLeft"":3,""ArrowUp,ArrowRight"":36,""ArrowDown,ArrowLeft"":15,""ArrowDown,ArrowRight"":23}","false","","false","","","","","","","",""
"html-keyboard-response","65","395782","0.0-3.0-13.0-2.0-1.0","spark_pilot_2","7102","6","7","Male","","","","","","","null","<div style=""font-size:60px;"">+</div>","null","fixation","","","","","","","","","","","","","",""
"revaluation","66","399791","0.0-3.0-13.0-2.0-0.1","spark_pilot_2","7102","6","7","Male","","true","","","","","[]","./assets/img/space/12.jpg","[]","practice block","space","-5","{""ArrowUp,ArrowLeft"":3,""ArrowUp,ArrowRight"":36,""ArrowDown,ArrowLeft"":15,""ArrowDown,ArrowRight"":23}","false","","false","","","","","","","",""
"html-keyboard-response","67","400293","0.0-3.0-13.0-2.0-1.1","spark_pilot_2","7102","6","7","Male","","","","","","","null","<div style=""font-size:60px;"">+</div>","null","fixation","","","","","","","","","","","","","",""
"revaluation","68","406308","0.0-3.0-13.0-2.0-0.2","spark_pilot_2","7102","6","7","Male","","false","","","","","[42.599999994039536,1139.5999999940395]","./assets/img/space/13.jpg","[""ArrowUp"",""ArrowRight""]","practice block","space","36","{""ArrowUp,ArrowLeft"":3,""ArrowUp,ArrowRight"":36,""ArrowDown,ArrowLeft"":15,""ArrowDown,ArrowRight"":23}","true","ArrowUp,ArrowRight","false","","","","","","","",""
"html-keyboard-response","69","406819","0.0-3.0-13.0-2.0-1.2","spark_pilot_2","7102","6","7","Male","","","","","","","null","<div style=""font-size:60px;"">+</div>","null","fixation","","","","","","","","","","","","","",""
"revaluation","70","412838","0.0-3.0-13.0-2.0-0.3","spark_pilot_2","7102","6","7","Male","","false","","","","","[918.4000000059605,720.8999999761581]","./assets/img/space/14.jpg","[""ArrowDown"",""ArrowLeft""]","practice block","space","15","{""ArrowUp,ArrowLeft"":3,""ArrowUp,ArrowRight"":36,""ArrowDown,ArrowLeft"":15,""ArrowDown,ArrowRight"":23}","false","ArrowDown,ArrowLeft","false","","","","","","","",""
"html-keyboard-response","71","413340","0.0-3.0-13.0-2.0-1.3","spark_pilot_2","7102","6","7","Male","","","","","","","null","<div style=""font-size:60px;"">+</div>","null","fixation","","","","","","","","","","","","","",""
"revaluation","72","419344","0.0-3.0-13.0-2.0-0.4","spark_pilot_2","7102","6","7","Male","","false","","","","","[1218,26.400000005960464]","./assets/img/space/11.jpg","[""ArrowUp"",""ArrowRight""]","practice block","space","36","{""ArrowUp,ArrowLeft"":3,""ArrowUp,ArrowRight"":36,""ArrowDown,ArrowLeft"":15,""ArrowDown,ArrowRight"":23}","true","ArrowUp,ArrowRight","false","","","","","","","",""
"html-keyboard-response","73","419846","0.0-3.0-13.0-2.0-1.4","spark_pilot_2","7102","6","7","Male","","","","","","","null","<div style=""font-size:60px;"">+</div>","null","fixation","","","","","","","","","","","","","",""
"revaluation","74","425852","0.0-3.0-13.0-2.0-0.5","spark_pilot_2","7102","6","7","Male","","false","","","","","[838.8000000119209,389]","./assets/img/space/12.jpg","[""ArrowUp"",""ArrowLeft""]","practice block","space","3","{""ArrowUp,ArrowLeft"":3,""ArrowUp,ArrowRight"":36,""ArrowDown,ArrowLeft"":15,""ArrowDown,ArrowRight"":23}","false","ArrowUp,ArrowLeft","false","","","","","","","",""
"html-keyboard-response","75","426363","0.0-3.0-13.0-2.0-1.5","spark_pilot_2","7102","6","7","Male","","","","","","","null","<div style=""font-size:60px;"">+</div>","null","fixation","","","","","","","","","","","","","",""
"revaluation","76","432369","0.0-3.0-13.0-2.0-0.6","spark_pilot_2","7102","6","7","Male","","false","","","","","[844.2999999821186,471.69999998807907]","./assets/img/space/13.jpg","[""ArrowUp"",""ArrowRight""]","practice block","space","36","{""ArrowUp,ArrowLeft"":3,""ArrowUp,ArrowRight"":36,""ArrowDown,ArrowLeft"":15,""ArrowDown,ArrowRight"":23}","true","ArrowUp,ArrowRight","false","","","","","","","",""
"html-keyboard-response","77","432871","0.0-3.0-13.0-2.0-1.6","spark_pilot_2","7102","6","7","Male","","","","","","","null","<div style=""font-size:60px;"">+</div>","null","fixation","","","","","","","","","","","","","",""
"revaluation","78","438876","0.0-3.0-13.0-2.0-0.7","spark_pilot_2","7102","6","7","Male","","false","","","","","[442.80000001192093,301.7999999821186]","./assets/img/space/14.jpg","[""ArrowUp"",""ArrowRight""]","practice block","space","36","{""ArrowUp,ArrowLeft"":3,""ArrowUp,ArrowRight"":36,""ArrowDown,ArrowLeft"":15,""ArrowDown,ArrowRight"":23}","true","ArrowUp,ArrowRight","false","","","","","","","",""
"html-keyboard-response","79","439379","0.0-3.0-13.0-2.0-1.7","spark_pilot_2","7102","6","7","Male","","","","","","","null","<div style=""font-size:60px;"">+</div>","null","fixation","","","","","","","","","","","","","",""
"revaluation","80","443384","0.0-3.0-13.0-2.0-0.8","spark_pilot_2","7102","6","7","Male","","false","","","","","[403.10000002384186]","./assets/img/space/catch/3.jpg","[""ArrowUp""]","practice block","space","-10","{""ArrowUp,ArrowLeft"":3,""ArrowUp,ArrowRight"":36,""ArrowDown,ArrowLeft"":15,""ArrowDown,ArrowRight"":23}","false","ArrowUp","true","","","","","","","",""
"html-keyboard-response","81","443886","0.0-3.0-13.0-2.0-1.8","spark_pilot_2","7102","6","7","Male","","","","","","","null","<div style=""font-size:60px;"">+</div>","null","fixation","","","","","","","","","","","","","",""
"learning-instructions","82","459067","0.0-3.0-13.0-3.0-0.0","spark_pilot_2","7102","6","7","Male","","","","","","","2247.699999988079","<p> Now, you will travel with a friend who will choose whether you go up or down first. </p>
            <p> On these turns, you will just see the animal that they found. You will still get to choose which chest to search for treasure.</p>","","instructions","","","","","","","","","","","","","",""
"revaluation","83","463071","0.0-3.0-13.0-4.0-0.0","spark_pilot_2","7102","6","7","Male","","true","","","","","[]","./assets/img/space/animals/rabbit.jpg","[]","practice block","space","-5","{""ArrowUp,ArrowLeft"":3,""ArrowUp,ArrowRight"":36,""ArrowDown,ArrowLeft"":15,""ArrowDown,ArrowRight"":23}","false","ArrowDown","","","","","","","","",""
"html-keyboard-response","84","463572","0.0-3.0-13.0-4.0-1.0","spark_pilot_2","7102","6","7","Male","","","","","","","null","<div style=""font-size:60px;"">+</div>","null","fixation","","","","","","","","","","","","","",""
"revaluation","85","467580","0.0-3.0-13.0-4.0-0.1","spark_pilot_2","7102","6","7","Male","","false","","","","","[371.2999999821186]","./assets/img/space/animals/cat.jpg","[""ArrowRight""]","practice block","space","36","{""ArrowUp,ArrowLeft"":3,""ArrowUp,ArrowRight"":36,""ArrowDown,ArrowLeft"":15,""ArrowDown,ArrowRight"":23}","true","ArrowUp,ArrowRight","","","","","","","","",""
"html-keyboard-response","86","468081","0.0-3.0-13.0-4.0-1.1","spark_pilot_2","7102","6","7","Male","","","","","","","null","<div style=""font-size:60px;"">+</div>","null","fixation","","","","","","","","","","","","","",""
"revaluation","87","472083","0.0-3.0-13.0-4.0-0.2","spark_pilot_2","7102","6","7","Male","","false","","","","","[874.6999999880791]","./assets/img/space/animals/rabbit.jpg","[""ArrowRight""]","practice block","space","23","{""ArrowUp,ArrowLeft"":3,""ArrowUp,ArrowRight"":36,""ArrowDown,ArrowLeft"":15,""ArrowDown,ArrowRight"":23}","true","ArrowDown,ArrowRight","","","","","","","","",""
"html-keyboard-response","88","472586","0.0-3.0-13.0-4.0-1.2","spark_pilot_2","7102","6","7","Male","","","","","","","null","<div style=""font-size:60px;"">+</div>","null","fixation","","","","","","","","","","","","","",""
"revaluation","89","476593","0.0-3.0-13.0-4.0-0.3","spark_pilot_2","7102","6","7","Male","","false","","","","","[516.3000000119209]","./assets/img/space/animals/cat.jpg","[""ArrowLeft""]","practice block","space","3","{""ArrowUp,ArrowLeft"":3,""ArrowUp,ArrowRight"":36,""ArrowDown,ArrowLeft"":15,""ArrowDown,ArrowRight"":23}","false","ArrowUp,ArrowLeft","","","","","","","","",""
"html-keyboard-response","90","477101","0.0-3.0-13.0-4.0-1.3","spark_pilot_2","7102","6","7","Male","","","","","","","null","<div style=""font-size:60px;"">+</div>","null","fixation","","","","","","","","","","","","","",""
"learning-instructions","91","486036","0.0-3.0-13.0-5.0-0.0","spark_pilot_2","7102","6","7","Male","","","","","","","1557","<p> Time to play the dot game! </p>
            <p> For 15 seconds, click the red dots on the following screen as they appear. </p>","","instructions","","","","","","","","","","","","","",""
"revaluation","92","501039","0.0-3.0-13.0-6.0-0.0","spark_pilot_2","7102","6","7","Male","","","","","","","[85]","","","rest practice","","10","","","","","0","15000","","","","","",""
"learning-instructions","93","510030","0.0-3.0-13.0-7.0-0.0","spark_pilot_2","7102","6","7","Male","","","","","","","2860.300000011921","<p> You have almost finished this part of the game! </p>
            <p> We are going to ask you to make a few more choices. </p>","","instructions","","","","","","","","","","","","","",""
"learning-instructions","94","525337","0.0-3.0-13.0-7.0-0.1","spark_pilot_2","7102","6","7","Male","","","","","","","1297.4000000059605","<p> First, you need to decide whether to go up or down. When you see each picture, use the arrow keys to make your choice. </p>
            <p><b>You will not see which animal you found, but try to get to the one that will give you the most treasure.</b></p>","","instructions","","","","","","","","","","","","","",""
"revaluation","95","527452","0.0-3.0-13.0-8.0","spark_pilot_2","7102","6","7","Male","","false","","","","","[2113.100000023842]","./assets/img/space/15.jpg","[""ArrowDown""]","practice block","space","0","{""ArrowUp,ArrowLeft"":3,""ArrowUp,ArrowRight"":36,""ArrowDown,ArrowLeft"":15,""ArrowDown,ArrowRight"":23}","false","ArrowDown","false","","","","","","","",""
"html-keyboard-response","96","527957","0.0-3.0-13.0-9.0","spark_pilot_2","7102","6","7","Male","","","","","","","null","<div style=""font-size:60px;"">+</div>","null","fixation","","","","","","","","","","","","","",""
"learning-instructions","97","541480","0.0-3.0-13.0-10.0-0.0","spark_pilot_2","7102","6","7","Male","","","","","","","2140.0999999940395","<p> Now you will see the animals again and can search their chests for treasure. </p>
            <p> This time, you will not see how much treasure you earned, but you will earn more bonus money for making better choices. </p>","","instructions","","","","","","","","","","","","","",""
"revaluation","98","543440","0.0-3.0-13.0-11.0-0.0","spark_pilot_2","7102","6","7","Male","","false","","","","","[1954.9000000059605]","./assets/img/space/animals/cat.jpg","[""ArrowRight""]","practice block","space","0","{""ArrowUp,ArrowLeft"":3,""ArrowUp,ArrowRight"":36,""ArrowDown,ArrowLeft"":15,""ArrowDown,ArrowRight"":23}","true","ArrowUp,ArrowRight","","","","","","","","",""
"html-keyboard-response","99","543947","0.0-3.0-13.0-11.0-1.0","spark_pilot_2","7102","6","7","Male","","","","","","","null","<div style=""font-size:60px;"">+</div>","null","fixation","","","","","","","","","","","","","",""
"revaluation","100","546172","0.0-3.0-13.0-11.0-0.1","spark_pilot_2","7102","6","7","Male","","false","","","","","[2220.9000000059605]","./assets/img/space/animals/rabbit.jpg","[""ArrowRight""]","practice block","space","0","{""ArrowUp,ArrowLeft"":3,""ArrowUp,ArrowRight"":36,""ArrowDown,ArrowLeft"":15,""ArrowDown,ArrowRight"":23}","true","ArrowDown,ArrowRight","","","","","","","","",""
"html-keyboard-response","101","546682","0.0-3.0-13.0-11.0-1.1","spark_pilot_2","7102","6","7","Male","","","","","","","null","<div style=""font-size:60px;"">+</div>","null","fixation","","","","","","","","","","","","","",""
"learning-instructions","102","557108","0.0-3.0-14.0-0.0","spark_pilot_2","7102","6","7","Male","","","","","","","5818.199999988079","<p> Before you start, we're going to ask you a few questions about how the game works. </p>","","instructions","","","","","","","","","","","","","",""
"comp-q","103","564256","0.0-3.0-15.0-0.0-0.0","spark_pilot_2","7102","6","7","Male","","","","","","","1562","<p> <b> True or False? </b> </p>
            <p> There can be 50 pieces of treasure in a given animal's chest. </p>","1","comp_question","","","","true","","","","","","","","","",""
"comp-q","104","572918","0.0-3.0-15.0-0.0-1.0","spark_pilot_2","7102","6","7","Male","","","","","","","1998.5999999940395","<p> <b> That's right! </b> The amount of treasure in each chest can range from 0 to 40 pieces. </p>","0","comp_answer","","","","","","","","","","","","","",""
"comp-q","105","581820","0.0-3.0-15.0-0.1-0.1","spark_pilot_2","7102","6","7","Male","","","","","","","1781","<p> <b> True or False? </b> </p><p> In this game, all animals have the same amount of treasure in their left and right chests. </p>","1","comp_question","","","","true","","","","","","","","","",""
"comp-q","106","588895","0.0-3.0-15.0-0.1-1.1","spark_pilot_2","7102","6","7","Male","","","","","","","1834.8999999761581","<p> <b> That's right! </b> Animals have different amounts of treasure in their treasure chests. </p>","0","comp_answer","","","","","","","","","","","","","",""
"comp-q","107","597213","0.0-3.0-15.0-0.2-0.2","spark_pilot_2","7102","6","7","Male","","","","","","","2483.5","<p> <b> True or False? </b> </p><p> The same animal will always be there if you go up in the same place. </p>","0","comp_question","","","","true","","","","","","","","","",""
"comp-q","108","604748","0.0-3.0-15.0-0.2-1.2","spark_pilot_2","7102","6","7","Male","","","","","","","1088.300000011921","<p> <b> That's right! </b> One animal lives in the upper part and one lives in the lower part of every place. </p>","0","comp_answer","","","","","","","","","","","","","",""
"comp-q","109","612084","0.0-3.0-15.0-0.3-0.3","spark_pilot_2","7102","6","7","Male","","","","","","","1824.2000000178814","<p> <b> True or False? </b> </p><p> If you see a different picture, it means you are in a new place. </p>","0","comp_question","","","","false","","","","","","","","","",""
"comp-q","110","631696","0.0-3.0-15.0-0.3-1.3","spark_pilot_2","7102","6","7","Male","","","","","","","8516.800000011921","<p> <b>Incorrect.</b> Lots of different images may show the same place. For example,  you may see three different images that all remind you that you are in outer space. </p>","0","comp_answer","","","","","","","","","","","","","",""
"comp-q","111","639505","0.0-3.0-15.0-0.4-0.4","spark_pilot_2","7102","6","7","Male","","","","","","","2305.2999999821186","<p> <b> True or False? </b> </p><p> If you see a different picture, it means you are in a new place. </p>","1","comp_question","","","","true","","","","","","","","","",""
"comp-q","112","655010","0.0-3.0-15.0-0.4-1.4","spark_pilot_2","7102","6","7","Male","","","","","","","4050.699999988079","<p> <b> That's right! </b> Lots of different images may show the same place. For example,  you may see three different images that all remind you that you are in outer space. </p>","0","comp_answer","","","","","","","","","","","","","",""
"learning-instructions","113","668184","0.0-3.0-16.0-0.0","spark_pilot_2","7102","6","7","Male","","","","","","","3325.199999988079","<p> Good job. Remember to do your best because the amount of treasure you earn will be converted into bonus money. </p>
            <p> It’s time to start the real game! </p>","","instructions","","","","","","","","","","","","","",""
"learning-instructions","114","673003","0.0-4.0-0.0-0.0","spark_pilot_2","7102","6","7","Male","","","","","","","2024.4000000059605","<p> This time you are searching for treasure in the <b>canyon</b>.</p>","","instructions","","","","","","","","","","","","","",""
"learning-instructions","115","692695","0.0-4.0-0.0-0.1","spark_pilot_2","7102","6","7","Male","","","","","","","2375.699999988079","<p><b>New</b> animals with <b>new</b> treasure chests live here. You need to explore to discover where the animal with the best treasure chest is.</p>
                    <p> Like before, once you figure out which animal has the chest with the most treasure, you should try to get to that animal and select that chest! </p>","","instructions","","","","","","","","","","","","","",""
"learning-instructions","116","709623","0.0-4.0-1.0-0.0","spark_pilot_2","7102","6","7","Male","","","","","","","2204.300000011921","<p> Remember, when you see a picture of the place, use the up and down keys to <b>find an animal</b>.</p>
            <p> When you encounter an animal, you should use the left and right keys to <b>select a treasure chest</b>.</p>
            <p> Don't forget to look out for the robber! </p>","","instructions","","","","","","","","","","","","","",""
"revaluation","117","713639","0.0-4.0-2.0-0.0","spark_pilot_2","7102","6","7","Male","","true","","","","","[]","./assets/img/canyon/memory/33.jpg","[]","value training","canyon","-5","{""ArrowUp,ArrowLeft"":23,""ArrowUp,ArrowRight"":10,""ArrowDown,ArrowLeft"":8,""ArrowDown,ArrowRight"":30}","false","","false","","","revaluation","1","0","","",""
"html-keyboard-response","118","714152","0.0-4.0-2.0-1.0","spark_pilot_2","7102","6","7","Male","","","","","","","null","<div style=""font-size:60px;"">+</div>","null","fixation","","","","","","","","","","","1","","",""
"revaluation","119","720191","0.0-4.0-2.0-0.1","spark_pilot_2","7102","6","7","Male","","false","","","","","[1009,1477.5]","./assets/img/canyon/memory/26.jpg","[""ArrowUp"",""ArrowRight""]","value training","canyon","10","{""ArrowUp,ArrowLeft"":23,""ArrowUp,ArrowRight"":10,""ArrowDown,ArrowLeft"":8,""ArrowDown,ArrowRight"":30}","false","ArrowUp,ArrowRight","false","","","revaluation","1","2","","",""
"html-keyboard-response","120","720703","0.0-4.0-2.0-1.1","spark_pilot_2","7102","6","7","Male","","","","","","","null","<div style=""font-size:60px;"">+</div>","null","fixation","","","","","","","","","","","3","","",""
"revaluation","121","726720","0.0-4.0-2.0-0.2","spark_pilot_2","7102","6","7","Male","","false","","","","","[690.9000000059605,567.5999999940395]","./assets/img/canyon/memory/7.jpg","[""ArrowUp"",""ArrowLeft""]","value training","canyon","23","{""ArrowUp,ArrowLeft"":23,""ArrowUp,ArrowRight"":10,""ArrowDown,ArrowLeft"":8,""ArrowDown,ArrowRight"":30}","false","ArrowUp,ArrowLeft","false","","","revaluation","1","4","","",""
"html-keyboard-response","122","727232","0.0-4.0-2.0-1.2","spark_pilot_2","7102","6","7","Male","","","","","","","null","<div style=""font-size:60px;"">+</div>","null","fixation","","","","","","","","","","","5","","",""
"revaluation","123","733271","0.0-4.0-2.0-0.3","spark_pilot_2","7102","6","7","Male","","false","","","","","[1378.300000011921,1433.199999988079]","./assets/img/canyon/memory/22.jpg","[""ArrowDown"",""ArrowRight""]","value training","canyon","30","{""ArrowUp,ArrowLeft"":23,""ArrowUp,ArrowRight"":10,""ArrowDown,ArrowLeft"":8,""ArrowDown,ArrowRight"":30}","true","ArrowDown,ArrowRight","false","","","revaluation","1","6","","",""
"html-keyboard-response","124","733784","0.0-4.0-2.0-1.3","spark_pilot_2","7102","6","7","Male","","","","","","","null","<div style=""font-size:60px;"">+</div>","null","fixation","","","","","","","","","","","7","","",""
"revaluation","125","739797","0.0-4.0-2.0-0.4","spark_pilot_2","7102","6","7","Male","","false","","","","","[1628.0999999940395,1258.4000000059605]","./assets/img/canyon/memory/22.jpg","[""ArrowDown"",""ArrowLeft""]","value training","canyon","8","{""ArrowUp,ArrowLeft"":23,""ArrowUp,ArrowRight"":10,""ArrowDown,ArrowLeft"":8,""ArrowDown,ArrowRight"":30}","false","ArrowDown,ArrowLeft","false","","","revaluation","1","8","","",""
"html-keyboard-response","126","740299","0.0-4.0-2.0-1.4","spark_pilot_2","7102","6","7","Male","","","","","","","null","<div style=""font-size:60px;"">+</div>","null","fixation","","","","","","","","","","","9","","",""
"revaluation","127","744305","0.0-4.0-2.0-0.5","spark_pilot_2","7102","6","7","Male","","false","","","","","[1622.199999988079]","./assets/img/canyon/catch/0.jpg","[""ArrowDown""]","value training","canyon","-10","{""ArrowUp,ArrowLeft"":23,""ArrowUp,ArrowRight"":10,""ArrowDown,ArrowLeft"":8,""ArrowDown,ArrowRight"":30}","false","ArrowDown","true","","","revaluation","1","10","","",""
"html-keyboard-response","128","744807","0.0-4.0-2.0-1.5","spark_pilot_2","7102","6","7","Male","","","","","","","null","<div style=""font-size:60px;"">+</div>","null","fixation","","","","","","","","","","","11","","",""
"revaluation","129","748812","0.0-4.0-2.0-0.6","spark_pilot_2","7102","6","7","Male","","false","","","","","[422.30000001192093]","./assets/img/canyon/catch/7.jpg","[""ArrowDown""]","value training","canyon","-10","{""ArrowUp,ArrowLeft"":23,""ArrowUp,ArrowRight"":10,""ArrowDown,ArrowLeft"":8,""ArrowDown,ArrowRight"":30}","false","ArrowDown","true","","","revaluation","1","12","","",""
"html-keyboard-response","130","749314","0.0-4.0-2.0-1.6","spark_pilot_2","7102","6","7","Male","","","","","","","null","<div style=""font-size:60px;"">+</div>","null","fixation","","","","","","","","","","","13","","",""
"revaluation","131","755321","0.0-4.0-2.0-0.7","spark_pilot_2","7102","6","7","Male","","false","","","","","[436.19999998807907,625.5]","./assets/img/canyon/memory/27.jpg","[""ArrowDown"",""ArrowRight""]","value training","canyon","30","{""ArrowUp,ArrowLeft"":23,""ArrowUp,ArrowRight"":10,""ArrowDown,ArrowLeft"":8,""ArrowDown,ArrowRight"":30}","true","ArrowDown,ArrowRight","false","","","revaluation","1","14","","",""
"html-keyboard-response","132","755822","0.0-4.0-2.0-1.7","spark_pilot_2","7102","6","7","Male","","","","","","","null","<div style=""font-size:60px;"">+</div>","null","fixation","","","","","","","","","","","15","","",""
"revaluation","133","759827","0.0-4.0-2.0-0.8","spark_pilot_2","7102","6","7","Male","","true","","","","","[]","./assets/img/canyon/memory/7.jpg","[]","value training","canyon","-5","{""ArrowUp,ArrowLeft"":23,""ArrowUp,ArrowRight"":10,""ArrowDown,ArrowLeft"":8,""ArrowDown,ArrowRight"":30}","false","","false","","","revaluation","1","16","","",""
"html-keyboard-response","134","760328","0.0-4.0-2.0-1.8","spark_pilot_2","7102","6","7","Male","","","","","","","null","<div style=""font-size:60px;"">+</div>","null","fixation","","","","","","","","","","","17","","",""
"revaluation","135","766333","0.0-4.0-2.0-0.9","spark_pilot_2","7102","6","7","Male","","false","","","","","[464.40000000596046,509.7000000178814]","./assets/img/canyon/memory/34.jpg","[""ArrowDown"",""ArrowRight""]","value training","canyon","30","{""ArrowUp,ArrowLeft"":23,""ArrowUp,ArrowRight"":10,""ArrowDown,ArrowLeft"":8,""ArrowDown,ArrowRight"":30}","true","ArrowDown,ArrowRight","false","","","revaluation","1","18","","",""
"html-keyboard-response","136","766835","0.0-4.0-2.0-1.9","spark_pilot_2","7102","6","7","Male","","","","","","","null","<div style=""font-size:60px;"">+</div>","null","fixation","","","","","","","","","","","19","","",""
"revaluation","137","772841","0.0-4.0-2.0-0.10","spark_pilot_2","7102","6","7","Male","","false","","","","","[549.0999999940395,5.199999988079071]","./assets/img/canyon/memory/35.jpg","[""ArrowDown"",""ArrowRight""]","value training","canyon","30","{""ArrowUp,ArrowLeft"":23,""ArrowUp,ArrowRight"":10,""ArrowDown,ArrowLeft"":8,""ArrowDown,ArrowRight"":30}","true","ArrowDown,ArrowRight","false","","","revaluation","1","20","","",""
"html-keyboard-response","138","773342","0.0-4.0-2.0-1.10","spark_pilot_2","7102","6","7","Male","","","","","","","null","<div style=""font-size:60px;"">+</div>","null","fixation","","","","","","","","","","","21","","",""
"revaluation","139","779348","0.0-4.0-2.0-0.11","spark_pilot_2","7102","6","7","Male","","false","","","","","[239.5,425.59999999403954]","./assets/img/canyon/memory/3.jpg","[""ArrowDown"",""ArrowRight""]","value training","canyon","30","{""ArrowUp,ArrowLeft"":23,""ArrowUp,ArrowRight"":10,""ArrowDown,ArrowLeft"":8,""ArrowDown,ArrowRight"":30}","true","ArrowDown,ArrowRight","false","","","revaluation","1","22","","",""
"html-keyboard-response","140","779849","0.0-4.0-2.0-1.11","spark_pilot_2","7102","6","7","Male","","","","","","","null","<div style=""font-size:60px;"">+</div>","null","fixation","","","","","","","","","","","23","","",""
"revaluation","141","785853","0.0-4.0-2.0-0.12","spark_pilot_2","7102","6","7","Male","","false","","","","","[563.5,400]","./assets/img/canyon/memory/37.jpg","[""ArrowDown"",""ArrowRight""]","value training","canyon","30","{""ArrowUp,ArrowLeft"":23,""ArrowUp,ArrowRight"":10,""ArrowDown,ArrowLeft"":8,""ArrowDown,ArrowRight"":30}","true","ArrowDown,ArrowRight","false","","","revaluation","1","24","","",""
"html-keyboard-response","142","786355","0.0-4.0-2.0-1.12","spark_pilot_2","7102","6","7","Male","","","","","","","null","<div style=""font-size:60px;"">+</div>","null","fixation","","","","","","","","","","","25","","",""
"revaluation","143","790361","0.0-4.0-2.0-0.13","spark_pilot_2","7102","6","7","Male","","true","","","","","[]","./assets/img/canyon/memory/18.jpg","[]","value training","canyon","-5","{""ArrowUp,ArrowLeft"":23,""ArrowUp,ArrowRight"":10,""ArrowDown,ArrowLeft"":8,""ArrowDown,ArrowRight"":30}","false","","false","","","revaluation","1","26","","",""
"html-keyboard-response","144","790863","0.0-4.0-2.0-1.13","spark_pilot_2","7102","6","7","Male","","","","","","","null","<div style=""font-size:60px;"">+</div>","null","fixation","","","","","","","","","","","27","","",""
"revaluation","145","794868","0.0-4.0-2.0-0.14","spark_pilot_2","7102","6","7","Male","","false","","","","","[386.5]","./assets/img/canyon/catch/3.jpg","[""ArrowDown""]","value training","canyon","-10","{""ArrowUp,ArrowLeft"":23,""ArrowUp,ArrowRight"":10,""ArrowDown,ArrowLeft"":8,""ArrowDown,ArrowRight"":30}","false","ArrowDown","true","","","revaluation","1","28","","",""
"html-keyboard-response","146","795369","0.0-4.0-2.0-1.14","spark_pilot_2","7102","6","7","Male","","","","","","","null","<div style=""font-size:60px;"">+</div>","null","fixation","","","","","","","","","","","29","","",""
"revaluation","147","801374","0.0-4.0-2.0-0.15","spark_pilot_2","7102","6","7","Male","","false","","","","","[662.0999999940395,914.1000000238419]","./assets/img/canyon/memory/8.jpg","[""ArrowDown"",""ArrowRight""]","value training","canyon","30","{""ArrowUp,ArrowLeft"":23,""ArrowUp,ArrowRight"":10,""ArrowDown,ArrowLeft"":8,""ArrowDown,ArrowRight"":30}","true","ArrowDown,ArrowRight","false","","","revaluation","1","30","","",""
"html-keyboard-response","148","801876","0.0-4.0-2.0-1.15","spark_pilot_2","7102","6","7","Male","","","","","","","null","<div style=""font-size:60px;"">+</div>","null","fixation","","","","","","","","","","","31","","",""
"revaluation","149","807882","0.0-4.0-2.0-0.16","spark_pilot_2","7102","6","7","Male","","false","","","","","[765.5999999940395,450.90000000596046]","./assets/img/canyon/memory/13.jpg","[""ArrowDown"",""ArrowRight""]","value training","canyon","30","{""ArrowUp,ArrowLeft"":23,""ArrowUp,ArrowRight"":10,""ArrowDown,ArrowLeft"":8,""ArrowDown,ArrowRight"":30}","true","ArrowDown,ArrowRight","false","","","revaluation","1","32","","",""
"html-keyboard-response","150","808384","0.0-4.0-2.0-1.16","spark_pilot_2","7102","6","7","Male","","","","","","","null","<div style=""font-size:60px;"">+</div>","null","fixation","","","","","","","","","","","33","","",""
"revaluation","151","814406","0.0-4.0-2.0-0.17","spark_pilot_2","7102","6","7","Male","","false","","","","","[834,527.3000000119209]","./assets/img/canyon/memory/27.jpg","[""ArrowDown"",""ArrowRight""]","value training","canyon","30","{""ArrowUp,ArrowLeft"":23,""ArrowUp,ArrowRight"":10,""ArrowDown,ArrowLeft"":8,""ArrowDown,ArrowRight"":30}","true","ArrowDown,ArrowRight","false","","","revaluation","1","34","","",""
"html-keyboard-response","152","814908","0.0-4.0-2.0-1.17","spark_pilot_2","7102","6","7","Male","","","","","","","null","<div style=""font-size:60px;"">+</div>","null","fixation","","","","","","","","","","","35","","",""
"revaluation","153","820913","0.0-4.0-2.0-0.18","spark_pilot_2","7102","6","7","Male","","false","","","","","[492,191.60000002384186]","./assets/img/canyon/memory/11.jpg","[""ArrowDown"",""ArrowRight""]","value training","canyon","30","{""ArrowUp,ArrowLeft"":23,""ArrowUp,ArrowRight"":10,""ArrowDown,ArrowLeft"":8,""ArrowDown,ArrowRight"":30}","true","ArrowDown,ArrowRight","false","","","revaluation","1","36","","",""
"html-keyboard-response","154","821414","0.0-4.0-2.0-1.18","spark_pilot_2","7102","6","7","Male","","","","","","","null","<div style=""font-size:60px;"">+</div>","null","fixation","","","","","","","","","","","37","","",""
"revaluation","155","827418","0.0-4.0-2.0-0.19","spark_pilot_2","7102","6","7","Male","","false","","","","","[603.3000000119209,57.20000001788139]","./assets/img/canyon/memory/4.jpg","[""ArrowDown"",""ArrowRight""]","value training","canyon","30","{""ArrowUp,ArrowLeft"":23,""ArrowUp,ArrowRight"":10,""ArrowDown,ArrowLeft"":8,""ArrowDown,ArrowRight"":30}","true","ArrowDown,ArrowRight","false","","","revaluation","1","38","","",""
"html-keyboard-response","156","827920","0.0-4.0-2.0-1.19","spark_pilot_2","7102","6","7","Male","","","","","","","null","<div style=""font-size:60px;"">+</div>","null","fixation","","","","","","","","","","","39","","",""
"revaluation","157","833924","0.0-4.0-2.0-0.20","spark_pilot_2","7102","6","7","Male","","false","","","","","[592.9000000059605,586.0999999940395]","./assets/img/canyon/memory/33.jpg","[""ArrowDown"",""ArrowRight""]","value training","canyon","30","{""ArrowUp,ArrowLeft"":23,""ArrowUp,ArrowRight"":10,""ArrowDown,ArrowLeft"":8,""ArrowDown,ArrowRight"":30}","true","ArrowDown,ArrowRight","false","","","revaluation","1","40","","",""
"html-keyboard-response","158","834425","0.0-4.0-2.0-1.20","spark_pilot_2","7102","6","7","Male","","","","","","","null","<div style=""font-size:60px;"">+</div>","null","fixation","","","","","","","","","","","41","","",""
"revaluation","159","840432","0.0-4.0-2.0-0.21","spark_pilot_2","7102","6","7","Male","","false","","","","","[1556.5999999940395,956.2000000178814]","./assets/img/canyon/memory/34.jpg","[""ArrowUp"",""ArrowRight""]","value training","canyon","10","{""ArrowUp,ArrowLeft"":23,""ArrowUp,ArrowRight"":10,""ArrowDown,ArrowLeft"":8,""ArrowDown,ArrowRight"":30}","false","ArrowUp,ArrowRight","false","","","revaluation","1","42","","",""
"html-keyboard-response","160","840934","0.0-4.0-2.0-1.21","spark_pilot_2","7102","6","7","Male","","","","","","","null","<div style=""font-size:60px;"">+</div>","null","fixation","","","","","","","","","","","43","","",""
"revaluation","161","846941","0.0-4.0-2.0-0.22","spark_pilot_2","7102","6","7","Male","","false","","","","","[866.0999999940395,316.40000000596046]","./assets/img/canyon/memory/28.jpg","[""ArrowDown"",""ArrowRight""]","value training","canyon","30","{""ArrowUp,ArrowLeft"":23,""ArrowUp,ArrowRight"":10,""ArrowDown,ArrowLeft"":8,""ArrowDown,ArrowRight"":30}","true","ArrowDown,ArrowRight","false","","","revaluation","1","44","","",""
"html-keyboard-response","162","847442","0.0-4.0-2.0-1.22","spark_pilot_2","7102","6","7","Male","","","","","","","null","<div style=""font-size:60px;"">+</div>","null","fixation","","","","","","","","","","","45","","",""
"revaluation","163","853449","0.0-4.0-2.0-0.23","spark_pilot_2","7102","6","7","Male","","false","","","","","[1742.9000000059605,1229.5]","./assets/img/canyon/memory/3.jpg","[""ArrowDown"",""ArrowRight""]","value training","canyon","30","{""ArrowUp,ArrowLeft"":23,""ArrowUp,ArrowRight"":10,""ArrowDown,ArrowLeft"":8,""ArrowDown,ArrowRight"":30}","true","ArrowDown,ArrowRight","false","","","revaluation","1","46","","",""
"html-keyboard-response","164","853951","0.0-4.0-2.0-1.23","spark_pilot_2","7102","6","7","Male","","","","","","","null","<div style=""font-size:60px;"">+</div>","null","fixation","","","","","","","","","","","47","","",""
"revaluation","165","859957","0.0-4.0-2.0-0.24","spark_pilot_2","7102","6","7","Male","","false","","","","","[834.2000000178814,945.7000000178814]","./assets/img/canyon/memory/13.jpg","[""ArrowDown"",""ArrowRight""]","value training","canyon","30","{""ArrowUp,ArrowLeft"":23,""ArrowUp,ArrowRight"":10,""ArrowDown,ArrowLeft"":8,""ArrowDown,ArrowRight"":30}","true","ArrowDown,ArrowRight","false","","","revaluation","1","48","","",""
"html-keyboard-response","166","860464","0.0-4.0-2.0-1.24","spark_pilot_2","7102","6","7","Male","","","","","","","null","<div style=""font-size:60px;"">+</div>","null","fixation","","","","","","","","","","","49","","",""
"revaluation","167","866471","0.0-4.0-2.0-0.25","spark_pilot_2","7102","6","7","Male","","false","","","","","[642.5,177.2999999821186]","./assets/img/canyon/memory/4.jpg","[""ArrowDown"",""ArrowRight""]","value training","canyon","30","{""ArrowUp,ArrowLeft"":23,""ArrowUp,ArrowRight"":10,""ArrowDown,ArrowLeft"":8,""ArrowDown,ArrowRight"":30}","true","ArrowDown,ArrowRight","false","","","revaluation","1","50","","",""
"html-keyboard-response","168","866972","0.0-4.0-2.0-1.25","spark_pilot_2","7102","6","7","Male","","","","","","","null","<div style=""font-size:60px;"">+</div>","null","fixation","","","","","","","","","","","51","","",""
"revaluation","169","872978","0.0-4.0-2.0-0.26","spark_pilot_2","7102","6","7","Male","","false","","","","","[560,773.4000000059605]","./assets/img/canyon/memory/19.jpg","[""ArrowDown"",""ArrowRight""]","value training","canyon","30","{""ArrowUp,ArrowLeft"":23,""ArrowUp,ArrowRight"":10,""ArrowDown,ArrowLeft"":8,""ArrowDown,ArrowRight"":30}","true","ArrowDown,ArrowRight","false","","","revaluation","1","52","","",""
"html-keyboard-response","170","873480","0.0-4.0-2.0-1.26","spark_pilot_2","7102","6","7","Male","","","","","","","null","<div style=""font-size:60px;"">+</div>","null","fixation","","","","","","","","","","","53","","",""
"revaluation","171","877485","0.0-4.0-2.0-0.27","spark_pilot_2","7102","6","7","Male","","false","","","","","[550]","./assets/img/canyon/catch/2.jpg","[""ArrowDown""]","value training","canyon","-10","{""ArrowUp,ArrowLeft"":23,""ArrowUp,ArrowRight"":10,""ArrowDown,ArrowLeft"":8,""ArrowDown,ArrowRight"":30}","false","ArrowDown","true","","","revaluation","1","54","","",""
"html-keyboard-response","172","877987","0.0-4.0-2.0-1.27","spark_pilot_2","7102","6","7","Male","","","","","","","null","<div style=""font-size:60px;"">+</div>","null","fixation","","","","","","","","","","","55","","",""
"revaluation","173","883993","0.0-4.0-2.0-0.28","spark_pilot_2","7102","6","7","Male","","false","","","","","[706.5,3.0999999940395355]","./assets/img/canyon/memory/37.jpg","[""ArrowDown"",""ArrowRight""]","value training","canyon","30","{""ArrowUp,ArrowLeft"":23,""ArrowUp,ArrowRight"":10,""ArrowDown,ArrowLeft"":8,""ArrowDown,ArrowRight"":30}","true","ArrowDown,ArrowRight","false","","","revaluation","1","56","","",""
"html-keyboard-response","174","884501","0.0-4.0-2.0-1.28","spark_pilot_2","7102","6","7","Male","","","","","","","null","<div style=""font-size:60px;"">+</div>","null","fixation","","","","","","","","","","","57","","",""
"revaluation","175","890506","0.0-4.0-2.0-0.29","spark_pilot_2","7102","6","7","Male","","false","","","","","[639.6999999880791,354.5]","./assets/img/canyon/memory/30.jpg","[""ArrowDown"",""ArrowRight""]","value training","canyon","30","{""ArrowUp,ArrowLeft"":23,""ArrowUp,ArrowRight"":10,""ArrowDown,ArrowLeft"":8,""ArrowDown,ArrowRight"":30}","true","ArrowDown,ArrowRight","false","","","revaluation","1","58","","",""
"html-keyboard-response","176","891009","0.0-4.0-2.0-1.29","spark_pilot_2","7102","6","7","Male","","","","","","","null","<div style=""font-size:60px;"">+</div>","null","fixation","","","","","","","","","","","59","","",""
"revaluation","177","897015","0.0-4.0-2.0-0.30","spark_pilot_2","7102","6","7","Male","","false","","","","","[452.59999999403954,31.200000017881393]","./assets/img/canyon/memory/5.jpg","[""ArrowDown"",""ArrowRight""]","value training","canyon","30","{""ArrowUp,ArrowLeft"":23,""ArrowUp,ArrowRight"":10,""ArrowDown,ArrowLeft"":8,""ArrowDown,ArrowRight"":30}","true","ArrowDown,ArrowRight","false","","","revaluation","1","60","","",""
"html-keyboard-response","178","897517","0.0-4.0-2.0-1.30","spark_pilot_2","7102","6","7","Male","","","","","","","null","<div style=""font-size:60px;"">+</div>","null","fixation","","","","","","","","","","","61","","",""
"revaluation","179","901522","0.0-4.0-2.0-0.31","spark_pilot_2","7102","6","7","Male","","true","","","","","[]","./assets/img/canyon/catch/4.jpg","[]","value training","canyon","-5","{""ArrowUp,ArrowLeft"":23,""ArrowUp,ArrowRight"":10,""ArrowDown,ArrowLeft"":8,""ArrowDown,ArrowRight"":30}","false","","true","","","revaluation","1","62","","",""
"html-keyboard-response","180","902024","0.0-4.0-2.0-1.31","spark_pilot_2","7102","6","7","Male","","","","","","","null","<div style=""font-size:60px;"">+</div>","null","fixation","","","","","","","","","","","63","","",""
"revaluation","181","908029","0.0-4.0-2.0-0.32","spark_pilot_2","7102","6","7","Male","","false","","","","","[588.2000000178814,342.40000000596046]","./assets/img/canyon/memory/36.jpg","[""ArrowDown"",""ArrowRight""]","value training","canyon","30","{""ArrowUp,ArrowLeft"":23,""ArrowUp,ArrowRight"":10,""ArrowDown,ArrowLeft"":8,""ArrowDown,ArrowRight"":30}","true","ArrowDown,ArrowRight","false","","","revaluation","1","64","","",""
"html-keyboard-response","182","908530","0.0-4.0-2.0-1.32","spark_pilot_2","7102","6","7","Male","","","","","","","null","<div style=""font-size:60px;"">+</div>","null","fixation","","","","","","","","","","","65","","",""
"revaluation","183","912536","0.0-4.0-2.0-0.33","spark_pilot_2","7102","6","7","Male","","false","","","","","[1753.800000011921]","./assets/img/canyon/catch/6.jpg","[""ArrowUp""]","value training","canyon","-10","{""ArrowUp,ArrowLeft"":23,""ArrowUp,ArrowRight"":10,""ArrowDown,ArrowLeft"":8,""ArrowDown,ArrowRight"":30}","false","ArrowUp","true","","","revaluation","1","66","","",""
"html-keyboard-response","184","913038","0.0-4.0-2.0-1.33","spark_pilot_2","7102","6","7","Male","","","","","","","null","<div style=""font-size:60px;"">+</div>","null","fixation","","","","","","","","","","","67","","",""
"revaluation","185","919043","0.0-4.0-2.0-0.34","spark_pilot_2","7102","6","7","Male","","false","","","","","[1379.5999999940395,452.5]","./assets/img/canyon/memory/31.jpg","[""ArrowDown"",""ArrowRight""]","value training","canyon","30","{""ArrowUp,ArrowLeft"":23,""ArrowUp,ArrowRight"":10,""ArrowDown,ArrowLeft"":8,""ArrowDown,ArrowRight"":30}","true","ArrowDown,ArrowRight","false","","","revaluation","1","68","","",""
"html-keyboard-response","186","919544","0.0-4.0-2.0-1.34","spark_pilot_2","7102","6","7","Male","","","","","","","null","<div style=""font-size:60px;"">+</div>","null","fixation","","","","","","","","","","","69","","",""
"revaluation","187","923551","0.0-4.0-2.0-0.35","spark_pilot_2","7102","6","7","Male","","true","","","","","[]","./assets/img/canyon/memory/30.jpg","[]","value training","canyon","-5","{""ArrowUp,ArrowLeft"":23,""ArrowUp,ArrowRight"":10,""ArrowDown,ArrowLeft"":8,""ArrowDown,ArrowRight"":30}","false","","false","","","revaluation","1","70","","",""
"html-keyboard-response","188","924052","0.0-4.0-2.0-1.35","spark_pilot_2","7102","6","7","Male","","","","","","","null","<div style=""font-size:60px;"">+</div>","null","fixation","","","","","","","","","","","71","","",""
"revaluation","189","930058","0.0-4.0-2.0-0.36","spark_pilot_2","7102","6","7","Male","","false","","","","","[338.39999997615814,161.90000000596046]","./assets/img/canyon/memory/40.jpg","[""ArrowDown"",""ArrowRight""]","value training","canyon","30","{""ArrowUp,ArrowLeft"":23,""ArrowUp,ArrowRight"":10,""ArrowDown,ArrowLeft"":8,""ArrowDown,ArrowRight"":30}","true","ArrowDown,ArrowRight","false","","","revaluation","1","72","","",""
"html-keyboard-response","190","930560","0.0-4.0-2.0-1.36","spark_pilot_2","7102","6","7","Male","","","","","","","null","<div style=""font-size:60px;"">+</div>","null","fixation","","","","","","","","","","","73","","",""
"revaluation","191","934565","0.0-4.0-2.0-0.37","spark_pilot_2","7102","6","7","Male","","true","","","","","[]","./assets/img/canyon/memory/11.jpg","[]","value training","canyon","-5","{""ArrowUp,ArrowLeft"":23,""ArrowUp,ArrowRight"":10,""ArrowDown,ArrowLeft"":8,""ArrowDown,ArrowRight"":30}","false","","false","","","revaluation","1","74","","",""
"html-keyboard-response","192","935067","0.0-4.0-2.0-1.37","spark_pilot_2","7102","6","7","Male","","","","","","","null","<div style=""font-size:60px;"">+</div>","null","fixation","","","","","","","","","","","75","","",""
"revaluation","193","941074","0.0-4.0-2.0-0.38","spark_pilot_2","7102","6","7","Male","","false","","","","","[1401.800000011921,194.19999998807907]","./assets/img/canyon/memory/8.jpg","[""ArrowDown"",""ArrowRight""]","value training","canyon","30","{""ArrowUp,ArrowLeft"":23,""ArrowUp,ArrowRight"":10,""ArrowDown,ArrowLeft"":8,""ArrowDown,ArrowRight"":30}","true","ArrowDown,ArrowRight","false","","","revaluation","1","76","","",""
"html-keyboard-response","194","941576","0.0-4.0-2.0-1.38","spark_pilot_2","7102","6","7","Male","","","","","","","null","<div style=""font-size:60px;"">+</div>","null","fixation","","","","","","","","","","","77","","",""
"revaluation","195","947584","0.0-4.0-2.0-0.39","spark_pilot_2","7102","6","7","Male","","false","","","","","[779.1999999880791,279.7999999821186]","./assets/img/canyon/memory/36.jpg","[""ArrowDown"",""ArrowRight""]","value training","canyon","30","{""ArrowUp,ArrowLeft"":23,""ArrowUp,ArrowRight"":10,""ArrowDown,ArrowLeft"":8,""ArrowDown,ArrowRight"":30}","true","ArrowDown,ArrowRight","false","","","revaluation","1","78","","",""
"html-keyboard-response","196","948085","0.0-4.0-2.0-1.39","spark_pilot_2","7102","6","7","Male","","","","","","","null","<div style=""font-size:60px;"">+</div>","null","fixation","","","","","","","","","","","79","","",""
"revaluation","197","952090","0.0-4.0-2.0-0.40","spark_pilot_2","7102","6","7","Male","","true","","","","","[]","./assets/img/canyon/catch/1.jpg","[]","value training","canyon","-5","{""ArrowUp,ArrowLeft"":23,""ArrowUp,ArrowRight"":10,""ArrowDown,ArrowLeft"":8,""ArrowDown,ArrowRight"":30}","false","","true","","","revaluation","1","80","","",""
"html-keyboard-response","198","952593","0.0-4.0-2.0-1.40","spark_pilot_2","7102","6","7","Male","","","","","","","null","<div style=""font-size:60px;"">+</div>","null","fixation","","","","","","","","","","","81","","",""
"revaluation","199","958599","0.0-4.0-2.0-0.41","spark_pilot_2","7102","6","7","Male","","false","","","","","[810.3000000119209,166.7000000178814]","./assets/img/canyon/memory/31.jpg","[""ArrowDown"",""ArrowRight""]","value training","canyon","30","{""ArrowUp,ArrowLeft"":23,""ArrowUp,ArrowRight"":10,""ArrowDown,ArrowLeft"":8,""ArrowDown,ArrowRight"":30}","true","ArrowDown,ArrowRight","false","","","revaluation","1","82","","",""
"html-keyboard-response","200","959100","0.0-4.0-2.0-1.41","spark_pilot_2","7102","6","7","Male","","","","","","","null","<div style=""font-size:60px;"">+</div>","null","fixation","","","","","","","","","","","83","","",""
"revaluation","201","965108","0.0-4.0-2.0-0.42","spark_pilot_2","7102","6","7","Male","","false","","","","","[699.5,159.60000002384186]","./assets/img/canyon/memory/28.jpg","[""ArrowDown"",""ArrowRight""]","value training","canyon","30","{""ArrowUp,ArrowLeft"":23,""ArrowUp,ArrowRight"":10,""ArrowDown,ArrowLeft"":8,""ArrowDown,ArrowRight"":30}","true","ArrowDown,ArrowRight","false","","","revaluation","1","84","","",""
"html-keyboard-response","202","965609","0.0-4.0-2.0-1.42","spark_pilot_2","7102","6","7","Male","","","","","","","null","<div style=""font-size:60px;"">+</div>","null","fixation","","","","","","","","","","","85","","",""
"revaluation","203","971616","0.0-4.0-2.0-0.43","spark_pilot_2","7102","6","7","Male","","false","","","","","[333.90000000596046,116.7999999821186]","./assets/img/canyon/memory/19.jpg","[""ArrowDown"",""ArrowRight""]","value training","canyon","30","{""ArrowUp,ArrowLeft"":23,""ArrowUp,ArrowRight"":10,""ArrowDown,ArrowLeft"":8,""ArrowDown,ArrowRight"":30}","true","ArrowDown,ArrowRight","false","","","revaluation","1","86","","",""
"html-keyboard-response","204","972122","0.0-4.0-2.0-1.43","spark_pilot_2","7102","6","7","Male","","","","","","","null","<div style=""font-size:60px;"">+</div>","null","fixation","","","","","","","","","","","87","","",""
"revaluation","205","978127","0.0-4.0-2.0-0.44","spark_pilot_2","7102","6","7","Male","","false","","","","","[307.80000001192093,483]","./assets/img/canyon/memory/35.jpg","[""ArrowDown"",""ArrowRight""]","value training","canyon","30","{""ArrowUp,ArrowLeft"":23,""ArrowUp,ArrowRight"":10,""ArrowDown,ArrowLeft"":8,""ArrowDown,ArrowRight"":30}","true","ArrowDown,ArrowRight","false","","","revaluation","1","88","","",""
"html-keyboard-response","206","978629","0.0-4.0-2.0-1.44","spark_pilot_2","7102","6","7","Male","","","","","","","null","<div style=""font-size:60px;"">+</div>","null","fixation","","","","","","","","","","","89","","",""
"revaluation","207","984634","0.0-4.0-2.0-0.45","spark_pilot_2","7102","6","7","Male","","false","","","","","[528.4000000059605,373]","./assets/img/canyon/memory/5.jpg","[""ArrowDown"",""ArrowRight""]","value training","canyon","30","{""ArrowUp,ArrowLeft"":23,""ArrowUp,ArrowRight"":10,""ArrowDown,ArrowLeft"":8,""ArrowDown,ArrowRight"":30}","true","ArrowDown,ArrowRight","false","","","revaluation","1","90","","",""
"html-keyboard-response","208","985136","0.0-4.0-2.0-1.45","spark_pilot_2","7102","6","7","Male","","","","","","","null","<div style=""font-size:60px;"">+</div>","null","fixation","","","","","","","","","","","91","","",""
"revaluation","209","991140","0.0-4.0-2.0-0.46","spark_pilot_2","7102","6","7","Male","","false","","","","","[533.5,468.40000000596046]","./assets/img/canyon/memory/26.jpg","[""ArrowDown"",""ArrowRight""]","value training","canyon","30","{""ArrowUp,ArrowLeft"":23,""ArrowUp,ArrowRight"":10,""ArrowDown,ArrowLeft"":8,""ArrowDown,ArrowRight"":30}","true","ArrowDown,ArrowRight","false","","","revaluation","1","92","","",""
"html-keyboard-response","210","991642","0.0-4.0-2.0-1.46","spark_pilot_2","7102","6","7","Male","","","","","","","null","<div style=""font-size:60px;"">+</div>","null","fixation","","","","","","","","","","","93","","",""
"revaluation","211","997647","0.0-4.0-2.0-0.47","spark_pilot_2","7102","6","7","Male","","false","","","","","[459.7999999821186,254.89999997615814]","./assets/img/canyon/memory/40.jpg","[""ArrowDown"",""ArrowRight""]","value training","canyon","30","{""ArrowUp,ArrowLeft"":23,""ArrowUp,ArrowRight"":10,""ArrowDown,ArrowLeft"":8,""ArrowDown,ArrowRight"":30}","true","ArrowDown,ArrowRight","false","","","revaluation","1","94","","",""
"html-keyboard-response","212","998149","0.0-4.0-2.0-1.47","spark_pilot_2","7102","6","7","Male","","","","","","","null","<div style=""font-size:60px;"">+</div>","null","fixation","","","","","","","","","","","95","","",""
"revaluation","213","1002156","0.0-4.0-2.0-0.48","spark_pilot_2","7102","6","7","Male","","false","","","","","[818.1999999880791]","./assets/img/canyon/catch/5.jpg","[""ArrowUp""]","value training","canyon","-10","{""ArrowUp,ArrowLeft"":23,""ArrowUp,ArrowRight"":10,""ArrowDown,ArrowLeft"":8,""ArrowDown,ArrowRight"":30}","false","ArrowUp","true","","","revaluation","1","96","","",""
"html-keyboard-response","214","1002657","0.0-4.0-2.0-1.48","spark_pilot_2","7102","6","7","Male","","","","","","","null","<div style=""font-size:60px;"">+</div>","null","fixation","","","","","","","","","","","97","","",""
"revaluation","215","1008662","0.0-4.0-2.0-0.49","spark_pilot_2","7102","6","7","Male","","false","","","","","[632.9000000059605,576.5999999940395]","./assets/img/canyon/memory/18.jpg","[""ArrowUp"",""ArrowLeft""]","value training","canyon","23","{""ArrowUp,ArrowLeft"":23,""ArrowUp,ArrowRight"":10,""ArrowDown,ArrowLeft"":8,""ArrowDown,ArrowRight"":30}","false","ArrowUp,ArrowLeft","false","","","revaluation","1","98","","",""
"html-keyboard-response","216","1009163","0.0-4.0-2.0-1.49","spark_pilot_2","7102","6","7","Male","","","","","","","null","<div style=""font-size:60px;"">+</div>","null","fixation","","","","","","","","","","","99","","",""
"learning-instructions","217","1024349","0.0-4.0-3.0-0.0","spark_pilot_2","7102","6","7","Male","","","","","","","2299.9000000059605","<p> Now, you will travel with a friend who will choose whether you go up or down first. </p>
            <p> On these turns, you will just see the animal that they found. You will still get to choose which chest to search for treasure.</p>","","instructions","","","","","","","","","","","","","",""
"revaluation","218","1028375","0.0-4.0-4.0-0.0","spark_pilot_2","7102","6","7","Male","","false","","","","","[1550.0999999940395]","./assets/img/canyon/animals/giraffe.jpg","[""ArrowRight""]","revaluation","canyon","7","{""ArrowUp,ArrowLeft"":27,""ArrowUp,ArrowRight"":15,""ArrowDown,ArrowLeft"":21,""ArrowDown,ArrowRight"":7}","false","ArrowDown,ArrowRight","","","","revaluation","1","0","","",""
"html-keyboard-response","219","1028886","0.0-4.0-4.0-1.0","spark_pilot_2","7102","6","7","Male","","","","","","","null","<div style=""font-size:60px;"">+</div>","null","fixation","","","","","","","","","","","1","","",""
"revaluation","220","1032895","0.0-4.0-4.0-0.1","spark_pilot_2","7102","6","7","Male","","false","","","","","[1305.2000000178814]","./assets/img/canyon/animals/giraffe.jpg","[""ArrowRight""]","revaluation","canyon","7","{""ArrowUp,ArrowLeft"":27,""ArrowUp,ArrowRight"":15,""ArrowDown,ArrowLeft"":21,""ArrowDown,ArrowRight"":7}","false","ArrowDown,ArrowRight","","","","revaluation","1","2","","",""
"html-keyboard-response","221","1033409","0.0-4.0-4.0-1.1","spark_pilot_2","7102","6","7","Male","","","","","","","null","<div style=""font-size:60px;"">+</div>","null","fixation","","","","","","","","","","","3","","",""
"revaluation","222","1037431","0.0-4.0-4.0-0.2","spark_pilot_2","7102","6","7","Male","","false","","","","","[927.7000000178814]","./assets/img/canyon/animals/giraffe.jpg","[""ArrowLeft""]","revaluation","canyon","21","{""ArrowUp,ArrowLeft"":27,""ArrowUp,ArrowRight"":15,""ArrowDown,ArrowLeft"":21,""ArrowDown,ArrowRight"":7}","true","ArrowDown,ArrowLeft","","","","revaluation","1","4","","",""
"html-keyboard-response","223","1037946","0.0-4.0-4.0-1.2","spark_pilot_2","7102","6","7","Male","","","","","","","null","<div style=""font-size:60px;"">+</div>","null","fixation","","","","","","","","","","","5","","",""
"revaluation","224","1041971","0.0-4.0-4.0-0.3","spark_pilot_2","7102","6","7","Male","","false","","","","","[916.2000000178814]","./assets/img/canyon/animals/giraffe.jpg","[""ArrowLeft""]","revaluation","canyon","21","{""ArrowUp,ArrowLeft"":27,""ArrowUp,ArrowRight"":15,""ArrowDown,ArrowLeft"":21,""ArrowDown,ArrowRight"":7}","true","ArrowDown,ArrowLeft","","","","revaluation","1","6","","",""
"html-keyboard-response","225","1042483","0.0-4.0-4.0-1.3","spark_pilot_2","7102","6","7","Male","","","","","","","null","<div style=""font-size:60px;"">+</div>","null","fixation","","","","","","","","","","","7","","",""
"revaluation","226","1046492","0.0-4.0-4.0-0.4","spark_pilot_2","7102","6","7","Male","","false","","","","","[570.6999999880791]","./assets/img/canyon/animals/giraffe.jpg","[""ArrowLeft""]","revaluation","canyon","21","{""ArrowUp,ArrowLeft"":27,""ArrowUp,ArrowRight"":15,""ArrowDown,ArrowLeft"":21,""ArrowDown,ArrowRight"":7}","true","ArrowDown,ArrowLeft","","","","revaluation","1","8","","",""
"html-keyboard-response","227","1047002","0.0-4.0-4.0-1.4","spark_pilot_2","7102","6","7","Male","","","","","","","null","<div style=""font-size:60px;"">+</div>","null","fixation","","","","","","","","","","","9","","",""
"revaluation","228","1051015","0.0-4.0-4.0-0.5","spark_pilot_2","7102","6","7","Male","","false","","","","","[298.80000001192093]","./assets/img/canyon/animals/lion.jpg","[""ArrowLeft""]","revaluation","canyon","27","{""ArrowUp,ArrowLeft"":27,""ArrowUp,ArrowRight"":15,""ArrowDown,ArrowLeft"":21,""ArrowDown,ArrowRight"":7}","true","ArrowUp,ArrowLeft","","","","revaluation","1","10","","",""
"html-keyboard-response","229","1051527","0.0-4.0-4.0-1.5","spark_pilot_2","7102","6","7","Male","","","","","","","null","<div style=""font-size:60px;"">+</div>","null","fixation","","","","","","","","","","","11","","",""
"revaluation","230","1055533","0.0-4.0-4.0-0.6","spark_pilot_2","7102","6","7","Male","","false","","","","","[358.7000000178814]","./assets/img/canyon/animals/lion.jpg","[""ArrowRight""]","revaluation","canyon","15","{""ArrowUp,ArrowLeft"":27,""ArrowUp,ArrowRight"":15,""ArrowDown,ArrowLeft"":21,""ArrowDown,ArrowRight"":7}","false","ArrowUp,ArrowRight","","","","revaluation","1","12","","",""
"html-keyboard-response","231","1056035","0.0-4.0-4.0-1.6","spark_pilot_2","7102","6","7","Male","","","","","","","null","<div style=""font-size:60px;"">+</div>","null","fixation","","","","","","","","","","","13","","",""
"revaluation","232","1060039","0.0-4.0-4.0-0.7","spark_pilot_2","7102","6","7","Male","","false","","","","","[315.2999999821186]","./assets/img/canyon/animals/lion.jpg","[""ArrowLeft""]","revaluation","canyon","27","{""ArrowUp,ArrowLeft"":27,""ArrowUp,ArrowRight"":15,""ArrowDown,ArrowLeft"":21,""ArrowDown,ArrowRight"":7}","true","ArrowUp,ArrowLeft","","","","revaluation","1","14","","",""
"html-keyboard-response","233","1060540","0.0-4.0-4.0-1.7","spark_pilot_2","7102","6","7","Male","","","","","","","null","<div style=""font-size:60px;"">+</div>","null","fixation","","","","","","","","","","","15","","",""
"revaluation","234","1064546","0.0-4.0-4.0-0.8","spark_pilot_2","7102","6","7","Male","","false","","","","","[561.7999999821186]","./assets/img/canyon/animals/giraffe.jpg","[""ArrowLeft""]","revaluation","canyon","21","{""ArrowUp,ArrowLeft"":27,""ArrowUp,ArrowRight"":15,""ArrowDown,ArrowLeft"":21,""ArrowDown,ArrowRight"":7}","true","ArrowDown,ArrowLeft","","","","revaluation","1","16","","",""
"html-keyboard-response","235","1065047","0.0-4.0-4.0-1.8","spark_pilot_2","7102","6","7","Male","","","","","","","null","<div style=""font-size:60px;"">+</div>","null","fixation","","","","","","","","","","","17","","",""
"revaluation","236","1069052","0.0-4.0-4.0-0.9","spark_pilot_2","7102","6","7","Male","","false","","","","","[946.2000000178814]","./assets/img/canyon/animals/giraffe.jpg","[""ArrowLeft""]","revaluation","canyon","21","{""ArrowUp,ArrowLeft"":27,""ArrowUp,ArrowRight"":15,""ArrowDown,ArrowLeft"":21,""ArrowDown,ArrowRight"":7}","true","ArrowDown,ArrowLeft","","","","revaluation","1","18","","",""
"html-keyboard-response","237","1069553","0.0-4.0-4.0-1.9","spark_pilot_2","7102","6","7","Male","","","","","","","null","<div style=""font-size:60px;"">+</div>","null","fixation","","","","","","","","","","","19","","",""
"revaluation","238","1073557","0.0-4.0-4.0-0.10","spark_pilot_2","7102","6","7","Male","","false","","","","","[530.9000000059605]","./assets/img/canyon/animals/giraffe.jpg","[""ArrowLeft""]","revaluation","canyon","21","{""ArrowUp,ArrowLeft"":27,""ArrowUp,ArrowRight"":15,""ArrowDown,ArrowLeft"":21,""ArrowDown,ArrowRight"":7}","true","ArrowDown,ArrowLeft","","","","revaluation","1","20","","",""
"html-keyboard-response","239","1074058","0.0-4.0-4.0-1.10","spark_pilot_2","7102","6","7","Male","","","","","","","null","<div style=""font-size:60px;"">+</div>","null","fixation","","","","","","","","","","","21","","",""
"revaluation","240","1078065","0.0-4.0-4.0-0.11","spark_pilot_2","7102","6","7","Male","","false","","","","","[44.19999998807907]","./assets/img/canyon/animals/giraffe.jpg","[""ArrowLeft""]","revaluation","canyon","21","{""ArrowUp,ArrowLeft"":27,""ArrowUp,ArrowRight"":15,""ArrowDown,ArrowLeft"":21,""ArrowDown,ArrowRight"":7}","true","ArrowDown,ArrowLeft","","","","revaluation","1","22","","",""
"html-keyboard-response","241","1078567","0.0-4.0-4.0-1.11","spark_pilot_2","7102","6","7","Male","","","","","","","null","<div style=""font-size:60px;"">+</div>","null","fixation","","","","","","","","","","","23","","",""
"revaluation","242","1082571","0.0-4.0-4.0-0.12","spark_pilot_2","7102","6","7","Male","","false","","","","","[66]","./assets/img/canyon/animals/lion.jpg","[""ArrowLeft""]","revaluation","canyon","27","{""ArrowUp,ArrowLeft"":27,""ArrowUp,ArrowRight"":15,""ArrowDown,ArrowLeft"":21,""ArrowDown,ArrowRight"":7}","true","ArrowUp,ArrowLeft","","","","revaluation","1","24","","",""
"html-keyboard-response","243","1083074","0.0-4.0-4.0-1.12","spark_pilot_2","7102","6","7","Male","","","","","","","null","<div style=""font-size:60px;"">+</div>","null","fixation","","","","","","","","","","","25","","",""
"revaluation","244","1087077","0.0-4.0-4.0-0.13","spark_pilot_2","7102","6","7","Male","","false","","","","","[172.7000000178814]","./assets/img/canyon/animals/lion.jpg","[""ArrowLeft""]","revaluation","canyon","27","{""ArrowUp,ArrowLeft"":27,""ArrowUp,ArrowRight"":15,""ArrowDown,ArrowLeft"":21,""ArrowDown,ArrowRight"":7}","true","ArrowUp,ArrowLeft","","","","revaluation","1","26","","",""
"html-keyboard-response","245","1087579","0.0-4.0-4.0-1.13","spark_pilot_2","7102","6","7","Male","","","","","","","null","<div style=""font-size:60px;"">+</div>","null","fixation","","","","","","","","","","","27","","",""
"revaluation","246","1091585","0.0-4.0-4.0-0.14","spark_pilot_2","7102","6","7","Male","","false","","","","","[450.19999998807907]","./assets/img/canyon/animals/lion.jpg","[""ArrowLeft""]","revaluation","canyon","27","{""ArrowUp,ArrowLeft"":27,""ArrowUp,ArrowRight"":15,""ArrowDown,ArrowLeft"":21,""ArrowDown,ArrowRight"":7}","true","ArrowUp,ArrowLeft","","","","revaluation","1","28","","",""
"html-keyboard-response","247","1092086","0.0-4.0-4.0-1.14","spark_pilot_2","7102","6","7","Male","","","","","","","null","<div style=""font-size:60px;"">+</div>","null","fixation","","","","","","","","","","","29","","",""
"revaluation","248","1096090","0.0-4.0-4.0-0.15","spark_pilot_2","7102","6","7","Male","","false","","","","","[402.40000000596046]","./assets/img/canyon/animals/lion.jpg","[""ArrowLeft""]","revaluation","canyon","27","{""ArrowUp,ArrowLeft"":27,""ArrowUp,ArrowRight"":15,""ArrowDown,ArrowLeft"":21,""ArrowDown,ArrowRight"":7}","true","ArrowUp,ArrowLeft","","","","revaluation","1","30","","",""
"html-keyboard-response","249","1096590","0.0-4.0-4.0-1.15","spark_pilot_2","7102","6","7","Male","","","","","","","null","<div style=""font-size:60px;"">+</div>","null","fixation","","","","","","","","","","","31","","",""
"revaluation","250","1100594","0.0-4.0-4.0-0.16","spark_pilot_2","7102","6","7","Male","","false","","","","","[643.7999999821186]","./assets/img/canyon/animals/lion.jpg","[""ArrowLeft""]","revaluation","canyon","27","{""ArrowUp,ArrowLeft"":27,""ArrowUp,ArrowRight"":15,""ArrowDown,ArrowLeft"":21,""ArrowDown,ArrowRight"":7}","true","ArrowUp,ArrowLeft","","","","revaluation","1","32","","",""
"html-keyboard-response","251","1101096","0.0-4.0-4.0-1.16","spark_pilot_2","7102","6","7","Male","","","","","","","null","<div style=""font-size:60px;"">+</div>","null","fixation","","","","","","","","","","","33","","",""
"revaluation","252","1105100","0.0-4.0-4.0-0.17","spark_pilot_2","7102","6","7","Male","","false","","","","","[585.9000000059605]","./assets/img/canyon/animals/lion.jpg","[""ArrowLeft""]","revaluation","canyon","27","{""ArrowUp,ArrowLeft"":27,""ArrowUp,ArrowRight"":15,""ArrowDown,ArrowLeft"":21,""ArrowDown,ArrowRight"":7}","true","ArrowUp,ArrowLeft","","","","revaluation","1","34","","",""
"html-keyboard-response","253","1105602","0.0-4.0-4.0-1.17","spark_pilot_2","7102","6","7","Male","","","","","","","null","<div style=""font-size:60px;"">+</div>","null","fixation","","","","","","","","","","","35","","",""
"learning-instructions","254","1118973","0.0-4.0-5.0-0.0","spark_pilot_2","7102","6","7","Male","","","","","","","1910.4000000059605","<p> Time to play the dot game! </p>
            <p> For one minute, click the red dots on the following screen as they appear. </p>
            <p><b> Don't look away, as you will earn bonus for clicking dots</b>. </p>","","instructions","","","","","","","","","","","","","",""
"revaluation","255","1178975","0.0-4.0-6.0-0.0","spark_pilot_2","7102","6","7","Male","","","","","","","[41,85,115,148,125,216,71]","","","rest","","70","","","","","0","60000","","","","","",""
"learning-instructions","256","1186394","0.0-4.0-7.0-0.0","spark_pilot_2","7102","6","7","Male","","","","","","","1314.0999999940395","<p> You have almost finished this part of the game! </p>
            <p> We are going to ask you to make a few more choices. </p>","","instructions","","","","","","","","","","","","","",""
"learning-instructions","257","1202360","0.0-4.0-7.0-0.1","spark_pilot_2","7102","6","7","Male","","","","","","","1998.699999988079","<p> First, you need to decide whether to go up or down. When you see each picture, use the arrow keys to make your choice. </p>
            <p><b>You will not see which animal you found, but try to get to the one that will give you the most treasure.</b></p>","","instructions","","","","","","","","","","","","","",""
"revaluation","258","1205255","0.0-4.0-8.0-0.0","spark_pilot_2","7102","6","7","Male","","false","","","","","[2891.2999999821186]","./assets/img/canyon/test/1.jpg","[""ArrowDown""]","first stage test","canyon","0","{""ArrowUp,ArrowLeft"":27,""ArrowUp,ArrowRight"":15,""ArrowDown,ArrowLeft"":21,""ArrowDown,ArrowRight"":7}","false","ArrowDown","false","","","revaluation","1","","","",""
"html-keyboard-response","259","1205763","0.0-4.0-8.0-1.0","spark_pilot_2","7102","6","7","Male","","","","","","","null","<div style=""font-size:60px;"">+</div>","null","fixation","","","","","","","","","","","","","",""
"revaluation","260","1207450","0.0-4.0-8.0-0.1","spark_pilot_2","7102","6","7","Male","","false","","","","","[1684]","./assets/img/canyon/test/2.jpg","[""ArrowDown""]","first stage test","canyon","0","{""ArrowUp,ArrowLeft"":27,""ArrowUp,ArrowRight"":15,""ArrowDown,ArrowLeft"":21,""ArrowDown,ArrowRight"":7}","false","ArrowDown","false","","","revaluation","1","","","",""
"html-keyboard-response","261","1207955","0.0-4.0-8.0-1.1","spark_pilot_2","7102","6","7","Male","","","","","","","null","<div style=""font-size:60px;"">+</div>","null","fixation","","","","","","","","","","","","","",""
"revaluation","262","1209250","0.0-4.0-8.0-0.2","spark_pilot_2","7102","6","7","Male","","false","","","","","[1291.5]","./assets/img/canyon/test/3.jpg","[""ArrowDown""]","first stage test","canyon","0","{""ArrowUp,ArrowLeft"":27,""ArrowUp,ArrowRight"":15,""ArrowDown,ArrowLeft"":21,""ArrowDown,ArrowRight"":7}","false","ArrowDown","false","","","revaluation","1","","","",""
"html-keyboard-response","263","1209758","0.0-4.0-8.0-1.2","spark_pilot_2","7102","6","7","Male","","","","","","","null","<div style=""font-size:60px;"">+</div>","null","fixation","","","","","","","","","","","","","",""
"revaluation","264","1210534","0.0-4.0-8.0-0.3","spark_pilot_2","7102","6","7","Male","","false","","","","","[773.0999999940395]","./assets/img/canyon/test/0.jpg","[""ArrowDown""]","first stage test","canyon","0","{""ArrowUp,ArrowLeft"":27,""ArrowUp,ArrowRight"":15,""ArrowDown,ArrowLeft"":21,""ArrowDown,ArrowRight"":7}","false","ArrowDown","false","","","revaluation","1","","","",""
"html-keyboard-response","265","1211036","0.0-4.0-8.0-1.3","spark_pilot_2","7102","6","7","Male","","","","","","","null","<div style=""font-size:60px;"">+</div>","null","fixation","","","","","","","","","","","","","",""
"learning-instructions","266","1224273","0.0-4.0-9.0-0.0","spark_pilot_2","7102","6","7","Male","","","","","","","1892.4000000059605","<p> Now you will see the animals again and can search their chests for treasure. </p>
            <p> This time, you will not see how much treasure you earned, but you will earn more bonus money for making better choices. </p>","","instructions","","","","","","","","","","","","","",""
"revaluation","267","1225771","0.0-4.0-10.0-0.0","spark_pilot_2","7102","6","7","Male","","false","","","","","[1497.300000011921]","./assets/img/canyon/animals/lion.jpg","[""ArrowLeft""]","second stage test","canyon","0","{""ArrowUp,ArrowLeft"":27,""ArrowUp,ArrowRight"":15,""ArrowDown,ArrowLeft"":21,""ArrowDown,ArrowRight"":7}","true","ArrowUp,ArrowLeft","","","","revaluation","1","","","",""
"html-keyboard-response","268","1226284","0.0-4.0-10.0-1.0","spark_pilot_2","7102","6","7","Male","","","","","","","null","<div style=""font-size:60px;"">+</div>","null","fixation","","","","","","","","","","","","","",""
"revaluation","269","1227588","0.0-4.0-10.0-0.1","spark_pilot_2","7102","6","7","Male","","false","","","","","[1302.699999988079]","./assets/img/canyon/animals/lion.jpg","[""ArrowLeft""]","second stage test","canyon","0","{""ArrowUp,ArrowLeft"":27,""ArrowUp,ArrowRight"":15,""ArrowDown,ArrowLeft"":21,""ArrowDown,ArrowRight"":7}","true","ArrowUp,ArrowLeft","","","","revaluation","1","","","",""
"html-keyboard-response","270","1228105","0.0-4.0-10.0-1.1","spark_pilot_2","7102","6","7","Male","","","","","","","null","<div style=""font-size:60px;"">+</div>","null","fixation","","","","","","","","","","","","","",""
"revaluation","271","1228485","0.0-4.0-10.0-0.2","spark_pilot_2","7102","6","7","Male","","false","","","","","[376.09999999403954]","./assets/img/canyon/animals/lion.jpg","[""ArrowLeft""]","second stage test","canyon","0","{""ArrowUp,ArrowLeft"":27,""ArrowUp,ArrowRight"":15,""ArrowDown,ArrowLeft"":21,""ArrowDown,ArrowRight"":7}","true","ArrowUp,ArrowLeft","","","","revaluation","1","","","",""
"html-keyboard-response","272","1228994","0.0-4.0-10.0-1.2","spark_pilot_2","7102","6","7","Male","","","","","","","null","<div style=""font-size:60px;"">+</div>","null","fixation","","","","","","","","","","","","","",""
"revaluation","273","1229350","0.0-4.0-10.0-0.3","spark_pilot_2","7102","6","7","Male","","false","","","","","[351.80000001192093]","./assets/img/canyon/animals/lion.jpg","[""ArrowLeft""]","second stage test","canyon","0","{""ArrowUp,ArrowLeft"":27,""ArrowUp,ArrowRight"":15,""ArrowDown,ArrowLeft"":21,""ArrowDown,ArrowRight"":7}","true","ArrowUp,ArrowLeft","","","","revaluation","1","","","",""
"html-keyboard-response","274","1229851","0.0-4.0-10.0-1.3","spark_pilot_2","7102","6","7","Male","","","","","","","null","<div style=""font-size:60px;"">+</div>","null","fixation","","","","","","","","","","","","","",""
"revaluation","275","1230274","0.0-4.0-10.0-0.4","spark_pilot_2","7102","6","7","Male","","false","","","","","[420.10000002384186]","./assets/img/canyon/animals/giraffe.jpg","[""ArrowLeft""]","second stage test","canyon","0","{""ArrowUp,ArrowLeft"":27,""ArrowUp,ArrowRight"":15,""ArrowDown,ArrowLeft"":21,""ArrowDown,ArrowRight"":7}","true","ArrowDown,ArrowLeft","","","","revaluation","1","","","",""
"html-keyboard-response","276","1230781","0.0-4.0-10.0-1.4","spark_pilot_2","7102","6","7","Male","","","","","","","null","<div style=""font-size:60px;"">+</div>","null","fixation","","","","","","","","","","","","","",""
"revaluation","277","1231236","0.0-4.0-10.0-0.5","spark_pilot_2","7102","6","7","Male","","false","","","","","[452.2999999821186]","./assets/img/canyon/animals/giraffe.jpg","[""ArrowLeft""]","second stage test","canyon","0","{""ArrowUp,ArrowLeft"":27,""ArrowUp,ArrowRight"":15,""ArrowDown,ArrowLeft"":21,""ArrowDown,ArrowRight"":7}","true","ArrowDown,ArrowLeft","","","","revaluation","1","","","",""
"html-keyboard-response","278","1231746","0.0-4.0-10.0-1.5","spark_pilot_2","7102","6","7","Male","","","","","","","null","<div style=""font-size:60px;"">+</div>","null","fixation","","","","","","","","","","","","","",""
"revaluation","279","1232156","0.0-4.0-10.0-0.6","spark_pilot_2","7102","6","7","Male","","false","","","","","[405.7000000178814]","./assets/img/canyon/animals/giraffe.jpg","[""ArrowLeft""]","second stage test","canyon","0","{""ArrowUp,ArrowLeft"":27,""ArrowUp,ArrowRight"":15,""ArrowDown,ArrowLeft"":21,""ArrowDown,ArrowRight"":7}","true","ArrowDown,ArrowLeft","","","","revaluation","1","","","",""
"html-keyboard-response","280","1232663","0.0-4.0-10.0-1.6","spark_pilot_2","7102","6","7","Male","","","","","","","null","<div style=""font-size:60px;"">+</div>","null","fixation","","","","","","","","","","","","","",""
"revaluation","281","1233136","0.0-4.0-10.0-0.7","spark_pilot_2","7102","6","7","Male","","false","","","","","[470.7999999821186]","./assets/img/canyon/animals/giraffe.jpg","[""ArrowLeft""]","second stage test","canyon","0","{""ArrowUp,ArrowLeft"":27,""ArrowUp,ArrowRight"":15,""ArrowDown,ArrowLeft"":21,""ArrowDown,ArrowRight"":7}","true","ArrowDown,ArrowLeft","","","","revaluation","1","","","",""
"html-keyboard-response","282","1233639","0.0-4.0-10.0-1.7","spark_pilot_2","7102","6","7","Male","","","","","","","null","<div style=""font-size:60px;"">+</div>","null","fixation","","","","","","","","","","","","","",""
"learning-instructions","283","1243019","0.0-4.0-0.1-0.2","spark_pilot_2","7102","6","7","Male","","","","","","","6638","<p> This time you are searching for treasure in the <b>ocean</b>.</p>","","instructions","","","","","","","","","","","","","",""
"learning-instructions","284","1261760","0.0-4.0-0.1-0.3","spark_pilot_2","7102","6","7","Male","","","","","","","1489.800000011921","<p><b>New</b> animals with <b>new</b> treasure chests live here. You need to explore to discover where the animal with the best treasure chest is.</p>
                    <p> Like before, once you figure out which animal has the chest with the most treasure, you should try to get to that animal and select that chest! </p>","","instructions","","","","","","","","","","","","","",""
"learning-instructions","285","1278649","0.0-4.0-1.1-0.1","spark_pilot_2","7102","6","7","Male","","","","","","","2148.899999976158","<p> Remember, when you see a picture of the place, use the up and down keys to <b>find an animal</b>.</p>
            <p> When you encounter an animal, you should use the left and right keys to <b>select a treasure chest</b>.</p>
            <p> Don't forget to look out for the robber! </p>","","instructions","","","","","","","","","","","","","",""
"revaluation","286","1282660","0.0-4.0-2.1-0.50","spark_pilot_2","7102","6","7","Male","","true","","","","","[]","./assets/img/ocean/memory/34.jpg","[]","value training","ocean","-5","{""ArrowUp,ArrowLeft"":26,""ArrowUp,ArrowRight"":10,""ArrowDown,ArrowLeft"":5,""ArrowDown,ArrowRight"":17}","false","","false","","","original","2","0","","",""
"html-keyboard-response","287","1283161","0.0-4.0-2.1-1.50","spark_pilot_2","7102","6","7","Male","","","","","","","null","<div style=""font-size:60px;"">+</div>","null","fixation","","","","","","","","","","","1","","",""
"revaluation","288","1289181","0.0-4.0-2.1-0.51","spark_pilot_2","7102","6","7","Male","","false","","","","","[466.7000000178814,845.1999999880791]","./assets/img/ocean/memory/28.jpg","[""ArrowDown"",""ArrowRight""]","value training","ocean","17","{""ArrowUp,ArrowLeft"":26,""ArrowUp,ArrowRight"":10,""ArrowDown,ArrowLeft"":5,""ArrowDown,ArrowRight"":17}","false","ArrowDown,ArrowRight","false","","","original","2","2","","",""
"html-keyboard-response","289","1289695","0.0-4.0-2.1-1.51","spark_pilot_2","7102","6","7","Male","","","","","","","null","<div style=""font-size:60px;"">+</div>","null","fixation","","","","","","","","","","","3","","",""
"revaluation","290","1293703","0.0-4.0-2.1-0.52","spark_pilot_2","7102","6","7","Male","","true","","","","","[]","./assets/img/ocean/memory/13.jpg","[]","value training","ocean","-5","{""ArrowUp,ArrowLeft"":26,""ArrowUp,ArrowRight"":10,""ArrowDown,ArrowLeft"":5,""ArrowDown,ArrowRight"":17}","false","","false","","","original","2","4","","",""
"html-keyboard-response","291","1294215","0.0-4.0-2.1-1.52","spark_pilot_2","7102","6","7","Male","","","","","","","null","<div style=""font-size:60px;"">+</div>","null","fixation","","","","","","","","","","","5","","",""
"revaluation","292","1300232","0.0-4.0-2.1-0.53","spark_pilot_2","7102","6","7","Male","","false","","","","","[368.40000000596046,566.9000000059605]","./assets/img/ocean/memory/33.jpg","[""ArrowDown"",""ArrowLeft""]","value training","ocean","5","{""ArrowUp,ArrowLeft"":26,""ArrowUp,ArrowRight"":10,""ArrowDown,ArrowLeft"":5,""ArrowDown,ArrowRight"":17}","false","ArrowDown,ArrowLeft","false","","","original","2","6","","",""
"html-keyboard-response","293","1300741","0.0-4.0-2.1-1.53","spark_pilot_2","7102","6","7","Male","","","","","","","null","<div style=""font-size:60px;"">+</div>","null","fixation","","","","","","","","","","","7","","",""
"revaluation","294","1306749","0.0-4.0-2.1-0.54","spark_pilot_2","7102","6","7","Male","","false","","","","","[561.8999999761581,1993.7999999821186]","./assets/img/ocean/memory/27.jpg","[""ArrowUp"",""ArrowRight""]","value training","ocean","10","{""ArrowUp,ArrowLeft"":26,""ArrowUp,ArrowRight"":10,""ArrowDown,ArrowLeft"":5,""ArrowDown,ArrowRight"":17}","false","ArrowUp,ArrowRight","false","","","original","2","8","","",""
"html-keyboard-response","295","1307251","0.0-4.0-2.1-1.54","spark_pilot_2","7102","6","7","Male","","","","","","","null","<div style=""font-size:60px;"">+</div>","null","fixation","","","","","","","","","","","9","","",""
"revaluation","296","1313257","0.0-4.0-2.1-0.55","spark_pilot_2","7102","6","7","Male","","false","","","","","[443.59999999403954,661.6999999880791]","./assets/img/ocean/memory/30.jpg","[""ArrowUp"",""ArrowLeft""]","value training","ocean","26","{""ArrowUp,ArrowLeft"":26,""ArrowUp,ArrowRight"":10,""ArrowDown,ArrowLeft"":5,""ArrowDown,ArrowRight"":17}","true","ArrowUp,ArrowLeft","false","","","original","2","10","","",""
"html-keyboard-response","297","1313758","0.0-4.0-2.1-1.55","spark_pilot_2","7102","6","7","Male","","","","","","","null","<div style=""font-size:60px;"">+</div>","null","fixation","","","","","","","","","","","11","","",""
"revaluation","298","1317761","0.0-4.0-2.1-0.56","spark_pilot_2","7102","6","7","Male","","false","","","","","[1274.5]","./assets/img/ocean/catch/4.jpg","[""ArrowUp""]","value training","ocean","-10","{""ArrowUp,ArrowLeft"":26,""ArrowUp,ArrowRight"":10,""ArrowDown,ArrowLeft"":5,""ArrowDown,ArrowRight"":17}","false","ArrowUp","true","","","original","2","12","","",""
"html-keyboard-response","299","1318263","0.0-4.0-2.1-1.56","spark_pilot_2","7102","6","7","Male","","","","","","","null","<div style=""font-size:60px;"">+</div>","null","fixation","","","","","","","","","","","13","","",""
"revaluation","300","1324268","0.0-4.0-2.1-0.57","spark_pilot_2","7102","6","7","Male","","false","","","","","[1348,450.09999999403954]","./assets/img/ocean/memory/37.jpg","[""ArrowUp"",""ArrowLeft""]","value training","ocean","26","{""ArrowUp,ArrowLeft"":26,""ArrowUp,ArrowRight"":10,""ArrowDown,ArrowLeft"":5,""ArrowDown,ArrowRight"":17}","true","ArrowUp,ArrowLeft","false","","","original","2","14","","",""
"html-keyboard-response","301","1324770","0.0-4.0-2.1-1.57","spark_pilot_2","7102","6","7","Male","","","","","","","null","<div style=""font-size:60px;"">+</div>","null","fixation","","","","","","","","","","","15","","",""
"revaluation","302","1330775","0.0-4.0-2.1-0.58","spark_pilot_2","7102","6","7","Male","","false","","","","","[324.09999999403954,829.9000000059605]","./assets/img/ocean/memory/35.jpg","[""ArrowUp"",""ArrowLeft""]","value training","ocean","26","{""ArrowUp,ArrowLeft"":26,""ArrowUp,ArrowRight"":10,""ArrowDown,ArrowLeft"":5,""ArrowDown,ArrowRight"":17}","true","ArrowUp,ArrowLeft","false","","","original","2","16","","",""
"html-keyboard-response","303","1331276","0.0-4.0-2.1-1.58","spark_pilot_2","7102","6","7","Male","","","","","","","null","<div style=""font-size:60px;"">+</div>","null","fixation","","","","","","","","","","","17","","",""
"revaluation","304","1337283","0.0-4.0-2.1-0.59","spark_pilot_2","7102","6","7","Male","","false","","","","","[59.400000005960464,176.2000000178814]","./assets/img/ocean/memory/11.jpg","[""ArrowUp"",""ArrowLeft""]","value training","ocean","26","{""ArrowUp,ArrowLeft"":26,""ArrowUp,ArrowRight"":10,""ArrowDown,ArrowLeft"":5,""ArrowDown,ArrowRight"":17}","true","ArrowUp,ArrowLeft","false","","","original","2","18","","",""
"html-keyboard-response","305","1337785","0.0-4.0-2.1-1.59","spark_pilot_2","7102","6","7","Male","","","","","","","null","<div style=""font-size:60px;"">+</div>","null","fixation","","","","","","","","","","","19","","",""
"revaluation","306","1341788","0.0-4.0-2.1-0.60","spark_pilot_2","7102","6","7","Male","","false","","","","","[609.9000000059605]","./assets/img/ocean/catch/3.jpg","[""ArrowUp""]","value training","ocean","-10","{""ArrowUp,ArrowLeft"":26,""ArrowUp,ArrowRight"":10,""ArrowDown,ArrowLeft"":5,""ArrowDown,ArrowRight"":17}","false","ArrowUp","true","","","original","2","20","","",""
"html-keyboard-response","307","1342291","0.0-4.0-2.1-1.60","spark_pilot_2","7102","6","7","Male","","","","","","","null","<div style=""font-size:60px;"">+</div>","null","fixation","","","","","","","","","","","21","","",""
"revaluation","308","1346295","0.0-4.0-2.1-0.61","spark_pilot_2","7102","6","7","Male","","true","","","","","[]","./assets/img/ocean/catch/7.jpg","[]","value training","ocean","-5","{""ArrowUp,ArrowLeft"":26,""ArrowUp,ArrowRight"":10,""ArrowDown,ArrowLeft"":5,""ArrowDown,ArrowRight"":17}","false","","true","","","original","2","22","","",""
"html-keyboard-response","309","1346797","0.0-4.0-2.1-1.61","spark_pilot_2","7102","6","7","Male","","","","","","","null","<div style=""font-size:60px;"">+</div>","null","fixation","","","","","","","","","","","23","","",""
"revaluation","310","1352809","0.0-4.0-2.1-0.62","spark_pilot_2","7102","6","7","Male","","false","","","","","[1920.3999999761581,185.7000000178814]","./assets/img/ocean/memory/35.jpg","[""ArrowUp"",""ArrowLeft""]","value training","ocean","26","{""ArrowUp,ArrowLeft"":26,""ArrowUp,ArrowRight"":10,""ArrowDown,ArrowLeft"":5,""ArrowDown,ArrowRight"":17}","true","ArrowUp,ArrowLeft","false","","","original","2","24","","",""
