"trial_type","trial_index","time_elapsed","internal_node_id","task_version","subject_id","assigned_condition","age","gender","success","timeout","failed_images","failed_audio","failed_video","browser_interaction","rt","stimulus","response","task_part","environment","score","rewardMap","correct","fullState","isCatch","numberMissed","duration","condition","order","trial_num","key_press","ground_truth","bonus"
"pavlovia","0","896","0.0-0.0","spark_pilot_2","7346","7","13","Female","","","","","","","","","","","","","","","","","","","","","","","",""
"preload","1","54453","0.0-1.0","spark_pilot_2","7346","7","13","Female","true","false","[]","[]","[]","[{""event"":""blur"",""trial"":2,""time"":623051},{""event"":""focus"",""trial"":2,""time"":7696285},{""event"":""fullscreenenter"",""trial"":2,""time"":7698862}]","","","","","","","","","","","","","","","","","",""
"fullscreen","2","7699850","0.0-2.0","spark_pilot_2","7346","7","13","Female","true","","","","","","","","","","","","","","","","","","","","","","",""
"audio-button-response","3","7702263","0.0-3.0-0.0-0.0","spark_pilot_2","7346","7","13","Female","","","","","","","2197","./assets/audio/audiotest/turtle.mp3","2","audio_test","","","","","","","","","","","","","",""
"learning-instructions","4","7720281","0.0-3.0-1.0-0.0","spark_pilot_2","7346","7","13","Female","","","","","","","11025.899999976158","<p> Welcome! Please remember to stay in fullscreen mode and don't click away from the experiment. </p>","","instructions","","","","","","","","","","","","","",""
"learning-instructions","5","7731730","0.0-3.0-1.0-0.1","spark_pilot_2","7346","7","13","Female","","","","","","","3040.099999964237","<p> Today you will be playing a game to earn treasure. </p>
            <p> At the end of the experiment, you will earn a bonus based on how much treasure you find. </p>
            <img src='./assets/img/instructions/treasure.jpg' class='instructions-image'>","","instructions","","","","","","","","","","","","","",""
"learning-instructions","6","7741489","0.0-3.0-1.0-0.2","spark_pilot_2","7346","7","13","Female","","","","","","","1497.6000000238419","<p> Animals have hidden treasure in treasure chests. </p>
            <p> You need to first find an animal and then choose which of their treasure chests to search. </p>
            <img src='./assets/img/space/animals/cat.jpg' class='instructions-image'>","","instructions","","","","","","","","","","","","","",""
"learning-instructions","7","7760066","0.0-3.0-1.0-0.3","spark_pilot_2","7346","7","13","Female","","","","","","","5423.899999976158","<p> In each round, you will search for treasure in a different place. In the real game, there will be two rounds. </p>
            <p> You will begin with a separate, practice round where you will search for treasure in outer space. </p>
            <img src='./assets/img/space/0.jpg' class='instructions-image'>","","instructions","","","","","","","","","","","","","",""
"learning-instructions","8","7773814","0.0-3.0-1.0-0.4","spark_pilot_2","7346","7","13","Female","","","","","","","2329.7999999523163","<p> On every turn, you will see a picture of the place that you are in, but the specific image may be different each time. </p>
            <p> For example, both of these images mean you are in outer space. </p>
            <img src='./assets/img/instructions/outerspace.jpg' class='instructions-image'>","","instructions","","","","","","","","","","","","","",""
"learning-instructions","9","7782947","0.0-3.0-1.0-0.5","spark_pilot_2","7346","7","13","Female","","","","","","","1303.0999999642372","<p> You need to decide which direction to travel in. </p>
            <p> You can choose between going <b>up or down</b> by using the arrow keys. </p>
            <img src='./assets/img/instructions/updown.jpg' class='instructions-image'>","","instructions","","","","","","","","","","","","","",""
"learning-instructions","10","7792942","0.0-3.0-1.0-0.6","spark_pilot_2","7346","7","13","Female","","","","","","","1180.7000000476837","<p> You will have <b>2 seconds</b> to make your choice. </p>
            <p> If you do not make a choice within 2 seconds, you will not find an animal or earn treasure. </p>
            <img src='./assets/img/instructions/2seconds.jpg' class='instructions-image'>","","instructions","","","","","","","","","","","","","",""
"learning-instructions","11","7801433","0.0-3.0-1.0-0.7","spark_pilot_2","7346","7","13","Female","","","","","","","1452.4000000357628","<p> Let’s try practicing that now! </p>
            <p> When you see a picture of the place you are in, press the <b>up</b> key to travel up. </p>
            <img src='./assets/img/instructions/pressUp.jpg' class='instructions-image'>","","instructions","","","","","","","","","","","","","",""
"revaluation","12","7805456","0.0-3.0-2.0-0.0","spark_pilot_2","7346","7","13","Female","","false","","","","","[548.9000000357628]","./assets/img/space/0.jpg","[""ArrowUp""]","first stage practice","space","0","null","null","ArrowUp","false","","","","","","","",""
"html-keyboard-response","13","7805968","0.0-3.0-2.0-1.0","spark_pilot_2","7346","7","13","Female","","","","","","","null","<div style=""font-size:60px;"">+</div>","null","fixation","","","","","","","","","","","","","",""
"revaluation","14","7809985","0.0-3.0-2.0-0.1","spark_pilot_2","7346","7","13","Female","","false","","","","","[1105.300000011921]","./assets/img/space/1.jpg","[""ArrowUp""]","first stage practice","space","0","null","null","ArrowUp","false","","","","","","","",""
"html-keyboard-response","15","7810494","0.0-3.0-2.0-1.1","spark_pilot_2","7346","7","13","Female","","","","","","","null","<div style=""font-size:60px;"">+</div>","null","fixation","","","","","","","","","","","","","",""
"revaluation","16","7814512","0.0-3.0-2.0-0.2","spark_pilot_2","7346","7","13","Female","","false","","","","","[1231.7999999523163]","./assets/img/space/2.jpg","[""ArrowUp""]","first stage practice","space","0","null","null","ArrowUp","false","","","","","","","",""
"html-keyboard-response","17","7815023","0.0-3.0-2.0-1.2","spark_pilot_2","7346","7","13","Female","","","","","","","null","<div style=""font-size:60px;"">+</div>","null","fixation","","","","","","","","","","","","","",""
"learning-instructions","18","7822011","0.0-3.0-3.0-0.0","spark_pilot_2","7346","7","13","Female","","","","","","","2292.699999988079","<p> Great job! Now try pressing the <b>down</b> key to travel down. </p>
            <img src='./assets/img/instructions/pressDown.jpg' class='instructions-image'>","","instructions","","","","","","","","","","","","","",""
"revaluation","19","7826033","0.0-3.0-4.0-0.0","spark_pilot_2","7346","7","13","Female","","false","","","","","[499.7999999523163]","./assets/img/space/3.jpg","[""ArrowDown""]","first stage practice","space","0","null","null","ArrowDown","false","","","","","","","",""
"html-keyboard-response","20","7826544","0.0-3.0-4.0-1.0","spark_pilot_2","7346","7","13","Female","","","","","","","null","<div style=""font-size:60px;"">+</div>","null","fixation","","","","","","","","","","","","","",""
"revaluation","21","7830562","0.0-3.0-4.0-0.1","spark_pilot_2","7346","7","13","Female","","false","","","","","[713.1999999880791]","./assets/img/space/4.jpg","[""ArrowDown""]","first stage practice","space","0","null","null","ArrowDown","false","","","","","","","",""
"html-keyboard-response","22","7831071","0.0-3.0-4.0-1.1","spark_pilot_2","7346","7","13","Female","","","","","","","null","<div style=""font-size:60px;"">+</div>","null","fixation","","","","","","","","","","","","","",""
"revaluation","23","7835090","0.0-3.0-4.0-0.2","spark_pilot_2","7346","7","13","Female","","false","","","","","[925.6000000238419]","./assets/img/space/5.jpg","[""ArrowDown""]","first stage practice","space","0","null","null","ArrowDown","false","","","","","","","",""
"html-keyboard-response","24","7835599","0.0-3.0-4.0-1.2","spark_pilot_2","7346","7","13","Female","","","","","","","null","<div style=""font-size:60px;"">+</div>","null","fixation","","","","","","","","","","","","","",""
"learning-instructions","25","7847795","0.0-3.0-5.0-0.0","spark_pilot_2","7346","7","13","Female","","","","","","","2338.599999964237","<p> The animals don’t move, so the animal in the upper part of a place will stay in the upper part of a place, and the animal in the lower part of a place will stay in the lower part of a place. </p>","","instructions","","","","","","","","","","","","","",""
"learning-instructions","26","7858080","0.0-3.0-5.0-0.1","spark_pilot_2","7346","7","13","Female","","","","","","","1152","<p> Each animal has two treasure chests for you to choose from. </p>
            <p> The amount of treasure in each chest can range from <b> 0 to 40 pieces.</b></p>","","instructions","","","","","","","","","","","","","",""
"learning-instructions","27","7870164","0.0-3.0-5.0-0.2","spark_pilot_2","7346","7","13","Female","","","","","","","889.5","<p> You should decide which chest to search for treasure by using the <b>left</b> and <b>right</b> arrow keys. </p>
            <p><b> Pay attention to which animal is on the screen, as the animals have different treasure chests. </b></p>
            <img src='./assets/img/instructions/leftright.jpg' class='instructions-image'>","","instructions","","","","","","","","","","","","","",""
"learning-instructions","28","7877637","0.0-3.0-5.0-0.3","spark_pilot_2","7346","7","13","Female","","","","","","","1103.300000011921","<p> Let’s try practicing that now. </p>
            <p> When you see an animal, choose which chest to search for treasure. </p>
            <img src='./assets/img/instructions/chooseChest.jpg' class='instructions-image'>","","instructions","","","","","","","","","","","","","",""
"revaluation","29","7881657","0.0-3.0-6.0-0.0","spark_pilot_2","7346","7","13","Female","","false","","","","","[551.8999999761581]","./assets/img/space/animals/cat.jpg","[""ArrowLeft""]","second stage practice","space","3","{""ArrowUp,ArrowLeft"":3,""ArrowUp,ArrowRight"":36,""ArrowDown,ArrowLeft"":15,""ArrowDown,ArrowRight"":23}","false","ArrowUp,ArrowLeft","","","","","","","","",""
"html-keyboard-response","30","7882166","0.0-3.0-6.0-1.0","spark_pilot_2","7346","7","13","Female","","","","","","","null","<div style=""font-size:60px;"">+</div>","null","fixation","","","","","","","","","","","","","",""
"revaluation","31","7886185","0.0-3.0-6.0-0.1","spark_pilot_2","7346","7","13","Female","","false","","","","","[921.2999999523163]","./assets/img/space/animals/rabbit.jpg","[""ArrowLeft""]","second stage practice","space","15","{""ArrowUp,ArrowLeft"":3,""ArrowUp,ArrowRight"":36,""ArrowDown,ArrowLeft"":15,""ArrowDown,ArrowRight"":23}","false","ArrowDown,ArrowLeft","","","","","","","","",""
"html-keyboard-response","32","7886692","0.0-3.0-6.0-1.1","spark_pilot_2","7346","7","13","Female","","","","","","","null","<div style=""font-size:60px;"">+</div>","null","fixation","","","","","","","","","","","","","",""
"revaluation","33","7890708","0.0-3.0-6.0-0.2","spark_pilot_2","7346","7","13","Female","","false","","","","","[657.3000000119209]","./assets/img/space/animals/cat.jpg","[""ArrowRight""]","second stage practice","space","36","{""ArrowUp,ArrowLeft"":3,""ArrowUp,ArrowRight"":36,""ArrowDown,ArrowLeft"":15,""ArrowDown,ArrowRight"":23}","true","ArrowUp,ArrowRight","","","","","","","","",""
"html-keyboard-response","34","7891215","0.0-3.0-6.0-1.2","spark_pilot_2","7346","7","13","Female","","","","","","","null","<div style=""font-size:60px;"">+</div>","null","fixation","","","","","","","","","","","","","",""
"revaluation","35","7895230","0.0-3.0-6.0-0.3","spark_pilot_2","7346","7","13","Female","","false","","","","","[493]","./assets/img/space/animals/rabbit.jpg","[""ArrowLeft""]","second stage practice","space","15","{""ArrowUp,ArrowLeft"":3,""ArrowUp,ArrowRight"":36,""ArrowDown,ArrowLeft"":15,""ArrowDown,ArrowRight"":23}","false","ArrowDown,ArrowLeft","","","","","","","","",""
"html-keyboard-response","36","7895732","0.0-3.0-6.0-1.3","spark_pilot_2","7346","7","13","Female","","","","","","","null","<div style=""font-size:60px;"">+</div>","null","fixation","","","","","","","","","","","","","",""
"learning-instructions","37","7915331","0.0-3.0-7.0-0.0","spark_pilot_2","7346","7","13","Female","","","","","","","2783","<p> Great job. Now let’s try putting it together. </p>
            <p> On each turn, you will first see a picture to remind you of the place you are in, and you need to choose whether to go up or down. </p>
            <p> Then you will see an animal and choose which of its chests to search for treasure. </p>","","instructions","","","","","","","","","","","","","",""
"learning-instructions","38","7924369","0.0-3.0-7.0-0.1","spark_pilot_2","7346","7","13","Female","","","","","","","770.6999999880791","<p> When you choose whether to go up or down, try to go to the animal with the chest with the most treasure. </p>
            <p> Try practicing that now! </p>","","instructions","","","","","","","","","","","","","",""
"revaluation","39","7930399","0.0-3.0-8.0-0.0","spark_pilot_2","7346","7","13","Female","","false","","","","","[754.6999999880791,1594.5999999642372]","./assets/img/space/6.jpg","[""ArrowDown"",""ArrowLeft""]","full practice","space","15","{""ArrowUp,ArrowLeft"":3,""ArrowUp,ArrowRight"":36,""ArrowDown,ArrowLeft"":15,""ArrowDown,ArrowRight"":23}","false","ArrowDown,ArrowLeft","false","","","","","","","",""
"html-keyboard-response","40","7930910","0.0-3.0-8.0-1.0","spark_pilot_2","7346","7","13","Female","","","","","","","null","<div style=""font-size:60px;"">+</div>","null","fixation","","","","","","","","","","","","","",""
"revaluation","41","7936932","0.0-3.0-8.0-0.1","spark_pilot_2","7346","7","13","Female","","false","","","","","[648.9000000357628,1638.2000000476837]","./assets/img/space/7.jpg","[""ArrowUp"",""ArrowRight""]","full practice","space","36","{""ArrowUp,ArrowLeft"":3,""ArrowUp,ArrowRight"":36,""ArrowDown,ArrowLeft"":15,""ArrowDown,ArrowRight"":23}","true","ArrowUp,ArrowRight","false","","","","","","","",""
"html-keyboard-response","42","7937438","0.0-3.0-8.0-1.1","spark_pilot_2","7346","7","13","Female","","","","","","","null","<div style=""font-size:60px;"">+</div>","null","fixation","","","","","","","","","","","","","",""
"revaluation","43","7943460","0.0-3.0-8.0-0.2","spark_pilot_2","7346","7","13","Female","","false","","","","","[1009,409.10000002384186]","./assets/img/space/8.jpg","[""ArrowUp"",""ArrowRight""]","full practice","space","36","{""ArrowUp,ArrowLeft"":3,""ArrowUp,ArrowRight"":36,""ArrowDown,ArrowLeft"":15,""ArrowDown,ArrowRight"":23}","true","ArrowUp,ArrowRight","false","","","","","","","",""
"html-keyboard-response","44","7943964","0.0-3.0-8.0-1.2","spark_pilot_2","7346","7","13","Female","","","","","","","null","<div style=""font-size:60px;"">+</div>","null","fixation","","","","","","","","","","","","","",""
"revaluation","45","7949988","0.0-3.0-8.0-0.3","spark_pilot_2","7346","7","13","Female","","false","","","","","[558.3000000119209,408.10000002384186]","./assets/img/space/9.jpg","[""ArrowDown"",""ArrowRight""]","full practice","space","23","{""ArrowUp,ArrowLeft"":3,""ArrowUp,ArrowRight"":36,""ArrowDown,ArrowLeft"":15,""ArrowDown,ArrowRight"":23}","false","ArrowDown,ArrowRight","false","","","","","","","",""
"html-keyboard-response","46","7950494","0.0-3.0-8.0-1.3","spark_pilot_2","7346","7","13","Female","","","","","","","null","<div style=""font-size:60px;"">+</div>","null","fixation","","","","","","","","","","","","","",""
"revaluation","47","7956516","0.0-3.0-8.0-0.4","spark_pilot_2","7346","7","13","Female","","false","","","","","[462.69999998807907,454.30000001192093]","./assets/img/space/10.jpg","[""ArrowUp"",""ArrowRight""]","full practice","space","36","{""ArrowUp,ArrowLeft"":3,""ArrowUp,ArrowRight"":36,""ArrowDown,ArrowLeft"":15,""ArrowDown,ArrowRight"":23}","true","ArrowUp,ArrowRight","false","","","","","","","",""
"html-keyboard-response","48","7957022","0.0-3.0-8.0-1.4","spark_pilot_2","7346","7","13","Female","","","","","","","null","<div style=""font-size:60px;"">+</div>","null","fixation","","","","","","","","","","","","","",""
"learning-instructions","49","7968754","0.0-3.0-9.0-0.0","spark_pilot_2","7346","7","13","Female","","","","","","","1291.1000000238419","<p> One last thing: sometimes, you will see a robber. The robber can be anywhere in the picture. </p>
            <p> If you do not stop them, you will lose treasure. </p>
            <img src='./assets/img/instructions/robber.jpg' class='instructions-image'>","","instructions","","","","","","","","","","","","","",""
"learning-instructions","50","7978581","0.0-3.0-9.0-0.1","spark_pilot_2","7346","7","13","Female","","","","","","","2655.400000035763","<p> If you see the robber, you should <b>press the space bar</b> rather than using the arrow keys. </p>
            <p> Try practicing that now! </p>","","instructions","","","","","","","","","","","","","",""
"revaluation","51","7982597","0.0-3.0-10.0-0.0","spark_pilot_2","7346","7","13","Female","","false","","","","","[1207.8999999761581]","./assets/img/space/catch/0.jpg","[""ArrowUp""]","catch practice","space","-10","{""ArrowUp,ArrowLeft"":3,""ArrowUp,ArrowRight"":36,""ArrowDown,ArrowLeft"":15,""ArrowDown,ArrowRight"":23}","false","ArrowUp","true","","","","","","","",""
"html-keyboard-response","52","7983107","0.0-3.0-10.0-1.0","spark_pilot_2","7346","7","13","Female","","","","","","","null","<div style=""font-size:60px;"">+</div>","null","fixation","","","","","","","","","","","","","",""
"revaluation","53","7987125","0.0-3.0-10.0-0.1","spark_pilot_2","7346","7","13","Female","","false","","","","","[703.5]","./assets/img/space/catch/1.jpg","[""spaceBar""]","catch practice","space","0","{""ArrowUp,ArrowLeft"":3,""ArrowUp,ArrowRight"":36,""ArrowDown,ArrowLeft"":15,""ArrowDown,ArrowRight"":23}","true","spaceBar","true","","","","","","","",""
"html-keyboard-response","54","7987637","0.0-3.0-10.0-1.1","spark_pilot_2","7346","7","13","Female","","","","","","","null","<div style=""font-size:60px;"">+</div>","null","fixation","","","","","","","","","","","","","",""
"revaluation","55","7991653","0.0-3.0-10.0-0.2","spark_pilot_2","7346","7","13","Female","","false","","","","","[603]","./assets/img/space/catch/2.jpg","[""spaceBar""]","catch practice","space","0","{""ArrowUp,ArrowLeft"":3,""ArrowUp,ArrowRight"":36,""ArrowDown,ArrowLeft"":15,""ArrowDown,ArrowRight"":23}","true","spaceBar","true","","","","","","","",""
"html-keyboard-response","56","7992165","0.0-3.0-10.0-1.2","spark_pilot_2","7346","7","13","Female","","","","","","","null","<div style=""font-size:60px;"">+</div>","null","fixation","","","","","","","","","","","","","",""
"learning-instructions","57","8006723","0.0-3.0-11.0-0.0","spark_pilot_2","7346","7","13","Female","","","","","","","967.8000000119209","<p> After you explore a place to find treasure, it will be time to play a different game. </p>
            <p> During this game, red dots will appear on the screen and fall down slowly. </p>
            <p><b> You must click on them before they reach the bottom. </b></p>
            <img src='./assets/img/instructions/dotGame.jpg' class='instructions-image'>","","instructions","","","","","","","","","","","","","",""
"learning-instructions","58","8024808","0.0-3.0-11.0-0.1","spark_pilot_2","7346","7","13","Female","","","","","","","12338.600000023842","<p> For every dot you click, you will earn additional treasure. </p>
            <p> Let’s try practicing that now. </p>","","instructions","","","","","","","","","","","","","",""
"revaluation","59","8039825","0.0-3.0-12.0-0.0","spark_pilot_2","7346","7","13","Female","","","","","","","[85]","","","rest practice","","10","","","","","0","15000","","","","","",""
"learning-instructions","60","8046596","0.0-3.0-13.0-0.0-0.0","spark_pilot_2","7346","7","13","Female","","","","","","","1503.2999999523163","<p> Now, you will practice a shortened version of the game to get a sense of how it all fits together. </p>","","instructions","","","","","","","","","","","","","",""
"learning-instructions","61","8057994","0.0-3.0-13.0-0.0-0.1","spark_pilot_2","7346","7","13","Female","","","","","","","8208","<p>This time you are searching for treasure in outer space.</p>","","instructions","","","","","","","","","","","","","",""
"learning-instructions","62","8073807","0.0-3.0-13.0-1.0-0.0","spark_pilot_2","7346","7","13","Female","","","","","","","1045","<p> Remember, when you see a picture of the place, use the up and down keys to <b>find an animal</b>.</p>
            <p> When you encounter an animal, you should use the left and right keys to <b>select a treasure chest</b>.</p>
            <p> Don't forget to look out for the robber! </p>","","instructions","","","","","","","","","","","","","",""
"revaluation","63","8079833","0.0-3.0-13.0-2.0-0.0","spark_pilot_2","7346","7","13","Female","","false","","","","","[1249.5,692.8999999761581]","./assets/img/space/11.jpg","[""ArrowUp"",""ArrowRight""]","practice block","space","36","{""ArrowUp,ArrowLeft"":3,""ArrowUp,ArrowRight"":36,""ArrowDown,ArrowLeft"":15,""ArrowDown,ArrowRight"":23}","true","ArrowUp,ArrowRight","false","","","","","","","",""
"html-keyboard-response","64","8080340","0.0-3.0-13.0-2.0-1.0","spark_pilot_2","7346","7","13","Female","","","","","","","null","<div style=""font-size:60px;"">+</div>","null","fixation","","","","","","","","","","","","","",""
"revaluation","65","8086361","0.0-3.0-13.0-2.0-0.1","spark_pilot_2","7346","7","13","Female","","false","","","","","[697.1999999880791,534.1000000238419]","./assets/img/space/12.jpg","[""ArrowUp"",""ArrowRight""]","practice block","space","36","{""ArrowUp,ArrowLeft"":3,""ArrowUp,ArrowRight"":36,""ArrowDown,ArrowLeft"":15,""ArrowDown,ArrowRight"":23}","true","ArrowUp,ArrowRight","false","","","","","","","",""
"html-keyboard-response","66","8086867","0.0-3.0-13.0-2.0-1.1","spark_pilot_2","7346","7","13","Female","","","","","","","null","<div style=""font-size:60px;"">+</div>","null","fixation","","","","","","","","","","","","","",""
"revaluation","67","8092889","0.0-3.0-13.0-2.0-0.2","spark_pilot_2","7346","7","13","Female","","false","","","","","[775.6000000238419,434.19999998807907]","./assets/img/space/13.jpg","[""ArrowUp"",""ArrowRight""]","practice block","space","36","{""ArrowUp,ArrowLeft"":3,""ArrowUp,ArrowRight"":36,""ArrowDown,ArrowLeft"":15,""ArrowDown,ArrowRight"":23}","true","ArrowUp,ArrowRight","false","","","","","","","",""
"html-keyboard-response","68","8093395","0.0-3.0-13.0-2.0-1.2","spark_pilot_2","7346","7","13","Female","","","","","","","null","<div style=""font-size:60px;"">+</div>","null","fixation","","","","","","","","","","","","","",""
"revaluation","69","8099417","0.0-3.0-13.0-2.0-0.3","spark_pilot_2","7346","7","13","Female","","false","","","","","[602.8000000119209,493.30000001192093]","./assets/img/space/14.jpg","[""ArrowUp"",""ArrowRight""]","practice block","space","36","{""ArrowUp,ArrowLeft"":3,""ArrowUp,ArrowRight"":36,""ArrowDown,ArrowLeft"":15,""ArrowDown,ArrowRight"":23}","true","ArrowUp,ArrowRight","false","","","","","","","",""
"html-keyboard-response","70","8099923","0.0-3.0-13.0-2.0-1.3","spark_pilot_2","7346","7","13","Female","","","","","","","null","<div style=""font-size:60px;"">+</div>","null","fixation","","","","","","","","","","","","","",""
"revaluation","71","8105946","0.0-3.0-13.0-2.0-0.4","spark_pilot_2","7346","7","13","Female","","false","","","","","[1102.9000000357628,469.10000002384186]","./assets/img/space/11.jpg","[""ArrowUp"",""ArrowRight""]","practice block","space","36","{""ArrowUp,ArrowLeft"":3,""ArrowUp,ArrowRight"":36,""ArrowDown,ArrowLeft"":15,""ArrowDown,ArrowRight"":23}","true","ArrowUp,ArrowRight","false","","","","","","","",""
"html-keyboard-response","72","8106452","0.0-3.0-13.0-2.0-1.4","spark_pilot_2","7346","7","13","Female","","","","","","","null","<div style=""font-size:60px;"">+</div>","null","fixation","","","","","","","","","","","","","",""
"revaluation","73","8112477","0.0-3.0-13.0-2.0-0.5","spark_pilot_2","7346","7","13","Female","","false","","","","","[1025.1000000238419,537.0999999642372]","./assets/img/space/12.jpg","[""ArrowUp"",""ArrowRight""]","practice block","space","36","{""ArrowUp,ArrowLeft"":3,""ArrowUp,ArrowRight"":36,""ArrowDown,ArrowLeft"":15,""ArrowDown,ArrowRight"":23}","true","ArrowUp,ArrowRight","false","","","","","","","",""
"html-keyboard-response","74","8112985","0.0-3.0-13.0-2.0-1.5","spark_pilot_2","7346","7","13","Female","","","","","","","null","<div style=""font-size:60px;"">+</div>","null","fixation","","","","","","","","","","","","","",""
"revaluation","75","8119012","0.0-3.0-13.0-2.0-0.6","spark_pilot_2","7346","7","13","Female","","false","","","","","[1089.5999999642372,422.39999997615814]","./assets/img/space/13.jpg","[""ArrowUp"",""ArrowRight""]","practice block","space","36","{""ArrowUp,ArrowLeft"":3,""ArrowUp,ArrowRight"":36,""ArrowDown,ArrowLeft"":15,""ArrowDown,ArrowRight"":23}","true","ArrowUp,ArrowRight","false","","","","","","","",""
"html-keyboard-response","76","8119524","0.0-3.0-13.0-2.0-1.6","spark_pilot_2","7346","7","13","Female","","","","","","","null","<div style=""font-size:60px;"">+</div>","null","fixation","","","","","","","","","","","","","",""
"revaluation","77","8125546","0.0-3.0-13.0-2.0-0.7","spark_pilot_2","7346","7","13","Female","","false","","","","","[832.6999999880791,355.60000002384186]","./assets/img/space/14.jpg","[""ArrowUp"",""ArrowRight""]","practice block","space","36","{""ArrowUp,ArrowLeft"":3,""ArrowUp,ArrowRight"":36,""ArrowDown,ArrowLeft"":15,""ArrowDown,ArrowRight"":23}","true","ArrowUp,ArrowRight","false","","","","","","","",""
"html-keyboard-response","78","8126052","0.0-3.0-13.0-2.0-1.7","spark_pilot_2","7346","7","13","Female","","","","","","","null","<div style=""font-size:60px;"">+</div>","null","fixation","","","","","","","","","","","","","",""
"revaluation","79","8130068","0.0-3.0-13.0-2.0-0.8","spark_pilot_2","7346","7","13","Female","","false","","","","","[838.3000000119209]","./assets/img/space/catch/3.jpg","[""spaceBar""]","practice block","space","0","{""ArrowUp,ArrowLeft"":3,""ArrowUp,ArrowRight"":36,""ArrowDown,ArrowLeft"":15,""ArrowDown,ArrowRight"":23}","true","spaceBar","true","","","","","","","",""
"html-keyboard-response","80","8130579","0.0-3.0-13.0-2.0-1.8","spark_pilot_2","7346","7","13","Female","","","","","","","null","<div style=""font-size:60px;"">+</div>","null","fixation","","","","","","","","","","","","","",""
"learning-instructions","81","8148233","0.0-3.0-13.0-3.0-0.0","spark_pilot_2","7346","7","13","Female","","","","","","","4610.400000035763","<p> Now, you will travel with a friend who will choose whether you go up or down first. </p>
            <p> On these turns, you will just see the animal that they found. You will still get to choose which chest to search for treasure.</p>","","instructions","","","","","","","","","","","","","",""
"revaluation","82","8152252","0.0-3.0-13.0-4.0-0.0","spark_pilot_2","7346","7","13","Female","","false","","","","","[921.1000000238419]","./assets/img/space/animals/cat.jpg","[""ArrowRight""]","practice block","space","36","{""ArrowUp,ArrowLeft"":3,""ArrowUp,ArrowRight"":36,""ArrowDown,ArrowLeft"":15,""ArrowDown,ArrowRight"":23}","true","ArrowUp,ArrowRight","","","","","","","","",""
"html-keyboard-response","83","8152763","0.0-3.0-13.0-4.0-1.0","spark_pilot_2","7346","7","13","Female","","","","","","","null","<div style=""font-size:60px;"">+</div>","null","fixation","","","","","","","","","","","","","",""
"revaluation","84","8156779","0.0-3.0-13.0-4.0-0.1","spark_pilot_2","7346","7","13","Female","","false","","","","","[867.1999999880791]","./assets/img/space/animals/cat.jpg","[""ArrowRight""]","practice block","space","36","{""ArrowUp,ArrowLeft"":3,""ArrowUp,ArrowRight"":36,""ArrowDown,ArrowLeft"":15,""ArrowDown,ArrowRight"":23}","true","ArrowUp,ArrowRight","","","","","","","","",""
"html-keyboard-response","85","8157291","0.0-3.0-13.0-4.0-1.1","spark_pilot_2","7346","7","13","Female","","","","","","","null","<div style=""font-size:60px;"">+</div>","null","fixation","","","","","","","","","","","","","",""
"revaluation","86","8161307","0.0-3.0-13.0-4.0-0.2","spark_pilot_2","7346","7","13","Female","","false","","","","","[878.5]","./assets/img/space/animals/rabbit.jpg","[""ArrowRight""]","practice block","space","23","{""ArrowUp,ArrowLeft"":3,""ArrowUp,ArrowRight"":36,""ArrowDown,ArrowLeft"":15,""ArrowDown,ArrowRight"":23}","true","ArrowDown,ArrowRight","","","","","","","","",""
"html-keyboard-response","87","8161819","0.0-3.0-13.0-4.0-1.2","spark_pilot_2","7346","7","13","Female","","","","","","","null","<div style=""font-size:60px;"">+</div>","null","fixation","","","","","","","","","","","","","",""
"revaluation","88","8165833","0.0-3.0-13.0-4.0-0.3","spark_pilot_2","7346","7","13","Female","","false","","","","","[690.8000000119209]","./assets/img/space/animals/rabbit.jpg","[""ArrowRight""]","practice block","space","23","{""ArrowUp,ArrowLeft"":3,""ArrowUp,ArrowRight"":36,""ArrowDown,ArrowLeft"":15,""ArrowDown,ArrowRight"":23}","true","ArrowDown,ArrowRight","","","","","","","","",""
"html-keyboard-response","89","8166336","0.0-3.0-13.0-4.0-1.3","spark_pilot_2","7346","7","13","Female","","","","","","","null","<div style=""font-size:60px;"">+</div>","null","fixation","","","","","","","","","","","","","",""
"learning-instructions","90","8174407","0.0-3.0-13.0-5.0-0.0","spark_pilot_2","7346","7","13","Female","","","","","","","699.9000000357628","<p> Time to play the dot game! </p>
            <p> For 15 seconds, click the red dots on the following screen as they appear. </p>","","instructions","","","","","","","","","","","","","",""
"revaluation","91","8189419","0.0-3.0-13.0-6.0-0.0","spark_pilot_2","7346","7","13","Female","","","","","","","[66]","","","rest practice","","10","","","","","0","15000","","","","","",""
"learning-instructions","92","8196499","0.0-3.0-13.0-7.0-0.0","spark_pilot_2","7346","7","13","Female","","","","","","","957.2000000476837","<p> You have almost finished this part of the game! </p>
            <p> We are going to ask you to make a few more choices. </p>","","instructions","","","","","","","","","","","","","",""
"learning-instructions","93","8212360","0.0-3.0-13.0-7.0-0.1","spark_pilot_2","7346","7","13","Female","","","","","","","1848.5","<p> First, you need to decide whether to go up or down. When you see each picture, use the arrow keys to make your choice. </p>
            <p><b>You will not see which animal you found, but try to get to the one that will give you the most treasure.</b></p>","","instructions","","","","","","","","","","","","","",""
"revaluation","94","8213337","0.0-3.0-13.0-8.0","spark_pilot_2","7346","7","13","Female","","false","","","","","[974.3999999761581]","./assets/img/space/15.jpg","[""ArrowUp""]","practice block","space","0","{""ArrowUp,ArrowLeft"":3,""ArrowUp,ArrowRight"":36,""ArrowDown,ArrowLeft"":15,""ArrowDown,ArrowRight"":23}","true","ArrowUp","false","","","","","","","",""
"html-keyboard-response","95","8213839","0.0-3.0-13.0-9.0","spark_pilot_2","7346","7","13","Female","","","","","","","null","<div style=""font-size:60px;"">+</div>","null","fixation","","","","","","","","","","","","","",""
"learning-instructions","96","8227575","0.0-3.0-13.0-10.0-0.0","spark_pilot_2","7346","7","13","Female","","","","","","","2353.600000023842","<p> Now you will see the animals again and can search their chests for treasure. </p>
            <p> This time, you will not see how much treasure you earned, but you will earn more bonus money for making better choices. </p>","","instructions","","","","","","","","","","","","","",""
"revaluation","97","8228475","0.0-3.0-13.0-11.0-0.0","spark_pilot_2","7346","7","13","Female","","false","","","","","[896.5]","./assets/img/space/animals/cat.jpg","[""ArrowRight""]","practice block","space","0","{""ArrowUp,ArrowLeft"":3,""ArrowUp,ArrowRight"":36,""ArrowDown,ArrowLeft"":15,""ArrowDown,ArrowRight"":23}","true","ArrowUp,ArrowRight","","","","","","","","",""
"html-keyboard-response","98","8228984","0.0-3.0-13.0-11.0-1.0","spark_pilot_2","7346","7","13","Female","","","","","","","null","<div style=""font-size:60px;"">+</div>","null","fixation","","","","","","","","","","","","","",""
"revaluation","99","8229807","0.0-3.0-13.0-11.0-0.1","spark_pilot_2","7346","7","13","Female","","false","","","","","[818.2000000476837]","./assets/img/space/animals/rabbit.jpg","[""ArrowRight""]","practice block","space","0","{""ArrowUp,ArrowLeft"":3,""ArrowUp,ArrowRight"":36,""ArrowDown,ArrowLeft"":15,""ArrowDown,ArrowRight"":23}","true","ArrowDown,ArrowRight","","","","","","","","",""
"html-keyboard-response","100","8230314","0.0-3.0-13.0-11.0-1.1","spark_pilot_2","7346","7","13","Female","","","","","","","null","<div style=""font-size:60px;"">+</div>","null","fixation","","","","","","","","","","","","","",""
"learning-instructions","101","8236343","0.0-3.0-14.0-0.0","spark_pilot_2","7346","7","13","Female","","","","","","","1447.3999999761581","<p> Before you start, we're going to ask you a few questions about how the game works. </p>","","instructions","","","","","","","","","","","","","",""
"comp-q","102","8243218","0.0-3.0-15.0-0.0-0.0","spark_pilot_2","7346","7","13","Female","","","","","","","1282.5999999642372","<p> <b> True or False? </b> </p>
            <p> There can be 50 pieces of treasure in a given animal's chest. </p>","1","comp_question","","","","true","","","","","","","","","",""
"comp-q","103","8263177","0.0-3.0-15.0-0.0-1.0","spark_pilot_2","7346","7","13","Female","","","","","","","13299.899999976158","<p> <b> That's right! </b> The amount of treasure in each chest can range from 0 to 40 pieces. </p>","0","comp_answer","","","","","","","","","","","","","",""
"comp-q","104","8274985","0.0-3.0-15.0-0.1-0.1","spark_pilot_2","7346","7","13","Female","","","","","","","4687","<p> <b> True or False? </b> </p><p> In this game, all animals have the same amount of treasure in their left and right chests. </p>","1","comp_question","","","","true","","","","","","","","","",""
"comp-q","105","8281266","0.0-3.0-15.0-0.1-1.1","spark_pilot_2","7346","7","13","Female","","","","","","","1048.2000000476837","<p> <b> That's right! </b> Animals have different amounts of treasure in their treasure chests. </p>","0","comp_answer","","","","","","","","","","","","","",""
"comp-q","106","8288313","0.0-3.0-15.0-0.2-0.2","spark_pilot_2","7346","7","13","Female","","","","","","","1193.300000011921","<p> <b> True or False? </b> </p><p> The same animal will always be there if you go up in the same place. </p>","0","comp_question","","","","true","","","","","","","","","",""
"comp-q","107","8296947","0.0-3.0-15.0-0.2-1.2","spark_pilot_2","7346","7","13","Female","","","","","","","2190.2999999523163","<p> <b> That's right! </b> One animal lives in the upper part and one lives in the lower part of every place. </p>","0","comp_answer","","","","","","","","","","","","","",""
"comp-q","108","8304530","0.0-3.0-15.0-0.3-0.3","spark_pilot_2","7346","7","13","Female","","","","","","","2056.400000035763","<p> <b> True or False? </b> </p><p> If you see a different picture, it means you are in a new place. </p>","0","comp_question","","","","false","","","","","","","","","",""
"comp-q","109","8316372","0.0-3.0-15.0-0.3-1.3","spark_pilot_2","7346","7","13","Female","","","","","","","746.4000000357628","<p> <b>Incorrect.</b> Lots of different images may show the same place. For example,  you may see three different images that all remind you that you are in outer space. </p>","0","comp_answer","","","","","","","","","","","","","",""
"comp-q","110","8323390","0.0-3.0-15.0-0.4-0.4","spark_pilot_2","7346","7","13","Female","","","","","","","1514.0999999642372","<p> <b> True or False? </b> </p><p> If you see a different picture, it means you are in a new place. </p>","1","comp_question","","","","true","","","","","","","","","",""
"comp-q","111","8335450","0.0-3.0-15.0-0.4-1.4","spark_pilot_2","7346","7","13","Female","","","","","","","763.4000000357628","<p> <b> That's right! </b> Lots of different images may show the same place. For example,  you may see three different images that all remind you that you are in outer space. </p>","0","comp_answer","","","","","","","","","","","","","",""
"learning-instructions","112","8369639","0.0-3.0-16.0-0.0","spark_pilot_2","7346","7","13","Female","","","","","","","24333.69999998808","<p> Good job. Remember to do your best because the amount of treasure you earn will be converted into bonus money. </p>
            <p> It’s time to start the real game! </p>","","instructions","","","","","","","","","","","","","",""
"learning-instructions","113","8374070","0.0-4.0-0.0-0.0","spark_pilot_2","7346","7","13","Female","","","","","","","1666.2999999523163","<p> This time you are searching for treasure in the <b>canyon</b>.</p>","","instructions","","","","","","","","","","","","","",""
"learning-instructions","114","8392320","0.0-4.0-0.0-0.1","spark_pilot_2","7346","7","13","Female","","","","","","","935.8999999761581","<p><b>New</b> animals with <b>new</b> treasure chests live here. You need to explore to discover where the animal with the best treasure chest is.</p>
                    <p> Like before, once you figure out which animal has the chest with the most treasure, you should try to get to that animal and select that chest! </p>","","instructions","","","","","","","","","","","","","",""
"learning-instructions","115","8409064","0.0-4.0-1.0-0.0","spark_pilot_2","7346","7","13","Female","","","","","","","2014.199999988079","<p> Remember, when you see a picture of the place, use the up and down keys to <b>find an animal</b>.</p>
            <p> When you encounter an animal, you should use the left and right keys to <b>select a treasure chest</b>.</p>
            <p> Don't forget to look out for the robber! </p>","","instructions","","","","","","","","","","","","","",""
"revaluation","116","8413085","0.0-4.0-2.0-0.0","spark_pilot_2","7346","7","13","Female","","true","","","","","[]","./assets/img/canyon/memory/0.jpg","[]","value training","canyon","-5","{""ArrowUp,ArrowLeft"":23,""ArrowUp,ArrowRight"":10,""ArrowDown,ArrowLeft"":8,""ArrowDown,ArrowRight"":30}","false","","false","","","original","1","0","","",""
"html-keyboard-response","117","8413588","0.0-4.0-2.0-1.0","spark_pilot_2","7346","7","13","Female","","","","","","","null","<div style=""font-size:60px;"">+</div>","null","fixation","","","","","","","","","","","1","","",""
"revaluation","118","8417608","0.0-4.0-2.0-0.1","spark_pilot_2","7346","7","13","Female","","false","","","","","[706.9000000357628]","./assets/img/canyon/catch/5.jpg","[""ArrowUp""]","value training","canyon","-10","{""ArrowUp,ArrowLeft"":23,""ArrowUp,ArrowRight"":10,""ArrowDown,ArrowLeft"":8,""ArrowDown,ArrowRight"":30}","false","ArrowUp","true","","","original","1","2","","",""
"html-keyboard-response","119","8418119","0.0-4.0-2.0-1.1","spark_pilot_2","7346","7","13","Female","","","","","","","null","<div style=""font-size:60px;"">+</div>","null","fixation","","","","","","","","","","","3","","",""
"revaluation","120","8424151","0.0-4.0-2.0-0.2","spark_pilot_2","7346","7","13","Female","","false","","","","","[1154.5,611.5999999642372]","./assets/img/canyon/memory/6.jpg","[""ArrowUp"",""ArrowRight""]","value training","canyon","10","{""ArrowUp,ArrowLeft"":23,""ArrowUp,ArrowRight"":10,""ArrowDown,ArrowLeft"":8,""ArrowDown,ArrowRight"":30}","false","ArrowUp,ArrowRight","false","","","original","1","4","","",""
"html-keyboard-response","121","8424663","0.0-4.0-2.0-1.2","spark_pilot_2","7346","7","13","Female","","","","","","","null","<div style=""font-size:60px;"">+</div>","null","fixation","","","","","","","","","","","5","","",""
"revaluation","122","8430688","0.0-4.0-2.0-0.3","spark_pilot_2","7346","7","13","Female","","false","","","","","[616.1999999880791,474.30000001192093]","./assets/img/canyon/memory/10.jpg","[""ArrowUp"",""ArrowLeft""]","value training","canyon","23","{""ArrowUp,ArrowLeft"":23,""ArrowUp,ArrowRight"":10,""ArrowDown,ArrowLeft"":8,""ArrowDown,ArrowRight"":30}","false","ArrowUp,ArrowLeft","false","","","original","1","6","","",""
"html-keyboard-response","123","8431196","0.0-4.0-2.0-1.3","spark_pilot_2","7346","7","13","Female","","","","","","","null","<div style=""font-size:60px;"">+</div>","null","fixation","","","","","","","","","","","7","","",""
"revaluation","124","8437224","0.0-4.0-2.0-0.4","spark_pilot_2","7346","7","13","Female","","false","","","","","[982.6000000238419,637]","./assets/img/canyon/memory/17.jpg","[""ArrowDown"",""ArrowRight""]","value training","canyon","30","{""ArrowUp,ArrowLeft"":23,""ArrowUp,ArrowRight"":10,""ArrowDown,ArrowLeft"":8,""ArrowDown,ArrowRight"":30}","true","ArrowDown,ArrowRight","false","","","original","1","8","","",""
"html-keyboard-response","125","8437735","0.0-4.0-2.0-1.4","spark_pilot_2","7346","7","13","Female","","","","","","","null","<div style=""font-size:60px;"">+</div>","null","fixation","","","","","","","","","","","9","","",""
"revaluation","126","8441752","0.0-4.0-2.0-0.5","spark_pilot_2","7346","7","13","Female","","false","","","","","[784.1000000238419]","./assets/img/canyon/catch/4.jpg","[""ArrowDown""]","value training","canyon","-10","{""ArrowUp,ArrowLeft"":23,""ArrowUp,ArrowRight"":10,""ArrowDown,ArrowLeft"":8,""ArrowDown,ArrowRight"":30}","false","ArrowDown","true","","","original","1","10","","",""
"html-keyboard-response","127","8442263","0.0-4.0-2.0-1.5","spark_pilot_2","7346","7","13","Female","","","","","","","null","<div style=""font-size:60px;"">+</div>","null","fixation","","","","","","","","","","","11","","",""
"revaluation","128","8448296","0.0-4.0-2.0-0.6","spark_pilot_2","7346","7","13","Female","","false","","","","","[651.5,576.2000000476837]","./assets/img/canyon/memory/27.jpg","[""ArrowDown"",""ArrowLeft""]","value training","canyon","8","{""ArrowUp,ArrowLeft"":23,""ArrowUp,ArrowRight"":10,""ArrowDown,ArrowLeft"":8,""ArrowDown,ArrowRight"":30}","false","ArrowDown,ArrowLeft","false","","","original","1","12","","",""
"html-keyboard-response","129","8448807","0.0-4.0-2.0-1.6","spark_pilot_2","7346","7","13","Female","","","","","","","null","<div style=""font-size:60px;"">+</div>","null","fixation","","","","","","","","","","","13","","",""
"revaluation","130","8454840","0.0-4.0-2.0-0.7","spark_pilot_2","7346","7","13","Female","","false","","","","","[964.3000000119209,549.1000000238419]","./assets/img/canyon/memory/12.jpg","[""ArrowDown"",""ArrowRight""]","value training","canyon","30","{""ArrowUp,ArrowLeft"":23,""ArrowUp,ArrowRight"":10,""ArrowDown,ArrowLeft"":8,""ArrowDown,ArrowRight"":30}","true","ArrowDown,ArrowRight","false","","","original","1","14","","",""
"html-keyboard-response","131","8455351","0.0-4.0-2.0-1.7","spark_pilot_2","7346","7","13","Female","","","","","","","null","<div style=""font-size:60px;"">+</div>","null","fixation","","","","","","","","","","","15","","",""
"revaluation","132","8461384","0.0-4.0-2.0-0.8","spark_pilot_2","7346","7","13","Female","","false","","","","","[830.8000000119209,367.9000000357628]","./assets/img/canyon/memory/25.jpg","[""ArrowDown"",""ArrowRight""]","value training","canyon","30","{""ArrowUp,ArrowLeft"":23,""ArrowUp,ArrowRight"":10,""ArrowDown,ArrowLeft"":8,""ArrowDown,ArrowRight"":30}","true","ArrowDown,ArrowRight","false","","","original","1","16","","",""
"html-keyboard-response","133","8461895","0.0-4.0-2.0-1.8","spark_pilot_2","7346","7","13","Female","","","","","","","null","<div style=""font-size:60px;"">+</div>","null","fixation","","","","","","","","","","","17","","",""
"revaluation","134","8465917","0.0-4.0-2.0-0.9","spark_pilot_2","7346","7","13","Female","","false","","","","","[931.5]","./assets/img/canyon/catch/7.jpg","[""spaceBar""]","value training","canyon","0","{""ArrowUp,ArrowLeft"":23,""ArrowUp,ArrowRight"":10,""ArrowDown,ArrowLeft"":8,""ArrowDown,ArrowRight"":30}","true","spaceBar","true","","","original","1","18","","",""
"html-keyboard-response","135","8466428","0.0-4.0-2.0-1.9","spark_pilot_2","7346","7","13","Female","","","","","","","null","<div style=""font-size:60px;"">+</div>","null","fixation","","","","","","","","","","","19","","",""
"revaluation","136","8472455","0.0-4.0-2.0-0.10","spark_pilot_2","7346","7","13","Female","","false","","","","","[460.39999997615814,593.7000000476837]","./assets/img/canyon/memory/18.jpg","[""ArrowDown"",""ArrowRight""]","value training","canyon","30","{""ArrowUp,ArrowLeft"":23,""ArrowUp,ArrowRight"":10,""ArrowDown,ArrowLeft"":8,""ArrowDown,ArrowRight"":30}","true","ArrowDown,ArrowRight","false","","","original","1","20","","",""
"html-keyboard-response","137","8472967","0.0-4.0-2.0-1.10","spark_pilot_2","7346","7","13","Female","","","","","","","null","<div style=""font-size:60px;"">+</div>","null","fixation","","","","","","","","","","","21","","",""
"revaluation","138","8478999","0.0-4.0-2.0-0.11","spark_pilot_2","7346","7","13","Female","","false","","","","","[933.6999999880791,329]","./assets/img/canyon/memory/19.jpg","[""ArrowDown"",""ArrowRight""]","value training","canyon","30","{""ArrowUp,ArrowLeft"":23,""ArrowUp,ArrowRight"":10,""ArrowDown,ArrowLeft"":8,""ArrowDown,ArrowRight"":30}","true","ArrowDown,ArrowRight","false","","","original","1","22","","",""
"html-keyboard-response","139","8479511","0.0-4.0-2.0-1.11","spark_pilot_2","7346","7","13","Female","","","","","","","null","<div style=""font-size:60px;"">+</div>","null","fixation","","","","","","","","","","","23","","",""
"revaluation","140","8485538","0.0-4.0-2.0-0.12","spark_pilot_2","7346","7","13","Female","","false","","","","","[931.5,388]","./assets/img/canyon/memory/27.jpg","[""ArrowDown"",""ArrowRight""]","value training","canyon","30","{""ArrowUp,ArrowLeft"":23,""ArrowUp,ArrowRight"":10,""ArrowDown,ArrowLeft"":8,""ArrowDown,ArrowRight"":30}","true","ArrowDown,ArrowRight","false","","","original","1","24","","",""
"html-keyboard-response","141","8486046","0.0-4.0-2.0-1.12","spark_pilot_2","7346","7","13","Female","","","","","","","null","<div style=""font-size:60px;"">+</div>","null","fixation","","","","","","","","","","","25","","",""
"revaluation","142","8492071","0.0-4.0-2.0-0.13","spark_pilot_2","7346","7","13","Female","","false","","","","","[776.2000000476837,574.3000000119209]","./assets/img/canyon/memory/31.jpg","[""ArrowDown"",""ArrowRight""]","value training","canyon","30","{""ArrowUp,ArrowLeft"":23,""ArrowUp,ArrowRight"":10,""ArrowDown,ArrowLeft"":8,""ArrowDown,ArrowRight"":30}","true","ArrowDown,ArrowRight","false","","","original","1","26","","",""
"html-keyboard-response","143","8492583","0.0-4.0-2.0-1.13","spark_pilot_2","7346","7","13","Female","","","","","","","null","<div style=""font-size:60px;"">+</div>","null","fixation","","","","","","","","","","","27","","",""
"revaluation","144","8498601","0.0-4.0-2.0-0.14","spark_pilot_2","7346","7","13","Female","","false","","","","","[654,406.9000000357628]","./assets/img/canyon/memory/28.jpg","[""ArrowDown"",""ArrowRight""]","value training","canyon","30","{""ArrowUp,ArrowLeft"":23,""ArrowUp,ArrowRight"":10,""ArrowDown,ArrowLeft"":8,""ArrowDown,ArrowRight"":30}","true","ArrowDown,ArrowRight","false","","","original","1","28","","",""
"html-keyboard-response","145","8499111","0.0-4.0-2.0-1.14","spark_pilot_2","7346","7","13","Female","","","","","","","null","<div style=""font-size:60px;"">+</div>","null","fixation","","","","","","","","","","","29","","",""
"revaluation","146","8505132","0.0-4.0-2.0-0.15","spark_pilot_2","7346","7","13","Female","","false","","","","","[602.6999999880791,453.60000002384186]","./assets/img/canyon/memory/4.jpg","[""ArrowDown"",""ArrowRight""]","value training","canyon","30","{""ArrowUp,ArrowLeft"":23,""ArrowUp,ArrowRight"":10,""ArrowDown,ArrowLeft"":8,""ArrowDown,ArrowRight"":30}","true","ArrowDown,ArrowRight","false","","","original","1","30","","",""
"html-keyboard-response","147","8505638","0.0-4.0-2.0-1.15","spark_pilot_2","7346","7","13","Female","","","","","","","null","<div style=""font-size:60px;"">+</div>","null","fixation","","","","","","","","","","","31","","",""
"revaluation","148","8511660","0.0-4.0-2.0-0.16","spark_pilot_2","7346","7","13","Female","","false","","","","","[976.9000000357628,632.4000000357628]","./assets/img/canyon/memory/24.jpg","[""ArrowDown"",""ArrowRight""]","value training","canyon","30","{""ArrowUp,ArrowLeft"":23,""ArrowUp,ArrowRight"":10,""ArrowDown,ArrowLeft"":8,""ArrowDown,ArrowRight"":30}","true","ArrowDown,ArrowRight","false","","","original","1","32","","",""
"html-keyboard-response","149","8512172","0.0-4.0-2.0-1.16","spark_pilot_2","7346","7","13","Female","","","","","","","null","<div style=""font-size:60px;"">+</div>","null","fixation","","","","","","","","","","","33","","",""
"revaluation","150","8518199","0.0-4.0-2.0-0.17","spark_pilot_2","7346","7","13","Female","","false","","","","","[619.3000000119209,414.60000002384186]","./assets/img/canyon/memory/33.jpg","[""ArrowDown"",""ArrowRight""]","value training","canyon","30","{""ArrowUp,ArrowLeft"":23,""ArrowUp,ArrowRight"":10,""ArrowDown,ArrowLeft"":8,""ArrowDown,ArrowRight"":30}","true","ArrowDown,ArrowRight","false","","","original","1","34","","",""
"html-keyboard-response","151","8518710","0.0-4.0-2.0-1.17","spark_pilot_2","7346","7","13","Female","","","","","","","null","<div style=""font-size:60px;"">+</div>","null","fixation","","","","","","","","","","","35","","",""
"revaluation","152","8524743","0.0-4.0-2.0-0.18","spark_pilot_2","7346","7","13","Female","","false","","","","","[770.1999999880791,421.10000002384186]","./assets/img/canyon/memory/31.jpg","[""ArrowDown"",""ArrowRight""]","value training","canyon","30","{""ArrowUp,ArrowLeft"":23,""ArrowUp,ArrowRight"":10,""ArrowDown,ArrowLeft"":8,""ArrowDown,ArrowRight"":30}","true","ArrowDown,ArrowRight","false","","","original","1","36","","",""
"html-keyboard-response","153","8525254","0.0-4.0-2.0-1.18","spark_pilot_2","7346","7","13","Female","","","","","","","null","<div style=""font-size:60px;"">+</div>","null","fixation","","","","","","","","","","","37","","",""
"revaluation","154","8531287","0.0-4.0-2.0-0.19","spark_pilot_2","7346","7","13","Female","","false","","","","","[711.3000000119209,855.0999999642372]","./assets/img/canyon/memory/13.jpg","[""ArrowDown"",""ArrowRight""]","value training","canyon","30","{""ArrowUp,ArrowLeft"":23,""ArrowUp,ArrowRight"":10,""ArrowDown,ArrowLeft"":8,""ArrowDown,ArrowRight"":30}","true","ArrowDown,ArrowRight","false","","","original","1","38","","",""
"html-keyboard-response","155","8531798","0.0-4.0-2.0-1.19","spark_pilot_2","7346","7","13","Female","","","","","","","null","<div style=""font-size:60px;"">+</div>","null","fixation","","","","","","","","","","","39","","",""
"revaluation","156","8537831","0.0-4.0-2.0-0.20","spark_pilot_2","7346","7","13","Female","","false","","","","","[851,429]","./assets/img/canyon/memory/10.jpg","[""ArrowDown"",""ArrowRight""]","value training","canyon","30","{""ArrowUp,ArrowLeft"":23,""ArrowUp,ArrowRight"":10,""ArrowDown,ArrowLeft"":8,""ArrowDown,ArrowRight"":30}","true","ArrowDown,ArrowRight","false","","","original","1","40","","",""
"html-keyboard-response","157","8538342","0.0-4.0-2.0-1.20","spark_pilot_2","7346","7","13","Female","","","","","","","null","<div style=""font-size:60px;"">+</div>","null","fixation","","","","","","","","","","","41","","",""
"revaluation","158","8544374","0.0-4.0-2.0-0.21","spark_pilot_2","7346","7","13","Female","","false","","","","","[1001.6000000238419,424.10000002384186]","./assets/img/canyon/memory/19.jpg","[""ArrowDown"",""ArrowRight""]","value training","canyon","30","{""ArrowUp,ArrowLeft"":23,""ArrowUp,ArrowRight"":10,""ArrowDown,ArrowLeft"":8,""ArrowDown,ArrowRight"":30}","true","ArrowDown,ArrowRight","false","","","original","1","42","","",""
"html-keyboard-response","159","8544886","0.0-4.0-2.0-1.21","spark_pilot_2","7346","7","13","Female","","","","","","","null","<div style=""font-size:60px;"">+</div>","null","fixation","","","","","","","","","","","43","","",""
"revaluation","160","8550918","0.0-4.0-2.0-0.22","spark_pilot_2","7346","7","13","Female","","false","","","","","[784.3999999761581,487.19999998807907]","./assets/img/canyon/memory/0.jpg","[""ArrowDown"",""ArrowRight""]","value training","canyon","30","{""ArrowUp,ArrowLeft"":23,""ArrowUp,ArrowRight"":10,""ArrowDown,ArrowLeft"":8,""ArrowDown,ArrowRight"":30}","true","ArrowDown,ArrowRight","false","","","original","1","44","","",""
"html-keyboard-response","161","8551430","0.0-4.0-2.0-1.22","spark_pilot_2","7346","7","13","Female","","","","","","","null","<div style=""font-size:60px;"">+</div>","null","fixation","","","","","","","","","","","45","","",""
"revaluation","162","8557452","0.0-4.0-2.0-0.23","spark_pilot_2","7346","7","13","Female","","false","","","","","[663.8000000119209,445.4000000357628]","./assets/img/canyon/memory/20.jpg","[""ArrowDown"",""ArrowRight""]","value training","canyon","30","{""ArrowUp,ArrowLeft"":23,""ArrowUp,ArrowRight"":10,""ArrowDown,ArrowLeft"":8,""ArrowDown,ArrowRight"":30}","true","ArrowDown,ArrowRight","false","","","original","1","46","","",""
"html-keyboard-response","163","8557963","0.0-4.0-2.0-1.23","spark_pilot_2","7346","7","13","Female","","","","","","","null","<div style=""font-size:60px;"">+</div>","null","fixation","","","","","","","","","","","47","","",""
"revaluation","164","8561979","0.0-4.0-2.0-0.24","spark_pilot_2","7346","7","13","Female","","false","","","","","[868.5999999642372]","./assets/img/canyon/catch/1.jpg","[""spaceBar""]","value training","canyon","0","{""ArrowUp,ArrowLeft"":23,""ArrowUp,ArrowRight"":10,""ArrowDown,ArrowLeft"":8,""ArrowDown,ArrowRight"":30}","true","spaceBar","true","","","original","1","48","","",""
"html-keyboard-response","165","8562486","0.0-4.0-2.0-1.24","spark_pilot_2","7346","7","13","Female","","","","","","","null","<div style=""font-size:60px;"">+</div>","null","fixation","","","","","","","","","","","49","","",""
"revaluation","166","8568517","0.0-4.0-2.0-0.25","spark_pilot_2","7346","7","13","Female","","false","","","","","[1080.5,1069.9000000357628]","./assets/img/canyon/memory/9.jpg","[""ArrowDown"",""ArrowRight""]","value training","canyon","30","{""ArrowUp,ArrowLeft"":23,""ArrowUp,ArrowRight"":10,""ArrowDown,ArrowLeft"":8,""ArrowDown,ArrowRight"":30}","true","ArrowDown,ArrowRight","false","","","original","1","50","","",""
"html-keyboard-response","167","8569029","0.0-4.0-2.0-1.25","spark_pilot_2","7346","7","13","Female","","","","","","","null","<div style=""font-size:60px;"">+</div>","null","fixation","","","","","","","","","","","51","","",""
"revaluation","168","8575062","0.0-4.0-2.0-0.26","spark_pilot_2","7346","7","13","Female","","false","","","","","[1008.8000000119209,394]","./assets/img/canyon/memory/33.jpg","[""ArrowDown"",""ArrowRight""]","value training","canyon","30","{""ArrowUp,ArrowLeft"":23,""ArrowUp,ArrowRight"":10,""ArrowDown,ArrowLeft"":8,""ArrowDown,ArrowRight"":30}","true","ArrowDown,ArrowRight","false","","","original","1","52","","",""
"html-keyboard-response","169","8575573","0.0-4.0-2.0-1.26","spark_pilot_2","7346","7","13","Female","","","","","","","null","<div style=""font-size:60px;"">+</div>","null","fixation","","","","","","","","","","","53","","",""
"revaluation","170","8579595","0.0-4.0-2.0-0.27","spark_pilot_2","7346","7","13","Female","","false","","","","","[907.8999999761581]","./assets/img/canyon/catch/3.jpg","[""spaceBar""]","value training","canyon","0","{""ArrowUp,ArrowLeft"":23,""ArrowUp,ArrowRight"":10,""ArrowDown,ArrowLeft"":8,""ArrowDown,ArrowRight"":30}","true","spaceBar","true","","","original","1","54","","",""
"html-keyboard-response","171","8580102","0.0-4.0-2.0-1.27","spark_pilot_2","7346","7","13","Female","","","","","","","null","<div style=""font-size:60px;"">+</div>","null","fixation","","","","","","","","","","","55","","",""
"revaluation","172","8586134","0.0-4.0-2.0-0.28","spark_pilot_2","7346","7","13","Female","","false","","","","","[518.1999999880791,379.30000001192093]","./assets/img/canyon/memory/22.jpg","[""ArrowDown"",""ArrowRight""]","value training","canyon","30","{""ArrowUp,ArrowLeft"":23,""ArrowUp,ArrowRight"":10,""ArrowDown,ArrowLeft"":8,""ArrowDown,ArrowRight"":30}","true","ArrowDown,ArrowRight","false","","","original","1","56","","",""
"html-keyboard-response","173","8586645","0.0-4.0-2.0-1.28","spark_pilot_2","7346","7","13","Female","","","","","","","null","<div style=""font-size:60px;"">+</div>","null","fixation","","","","","","","","","","","57","","",""
"revaluation","174","8592678","0.0-4.0-2.0-0.29","spark_pilot_2","7346","7","13","Female","","false","","","","","[536.3000000119209,462.19999998807907]","./assets/img/canyon/memory/13.jpg","[""ArrowDown"",""ArrowRight""]","value training","canyon","30","{""ArrowUp,ArrowLeft"":23,""ArrowUp,ArrowRight"":10,""ArrowDown,ArrowLeft"":8,""ArrowDown,ArrowRight"":30}","true","ArrowDown,ArrowRight","false","","","original","1","58","","",""
"html-keyboard-response","175","8593189","0.0-4.0-2.0-1.29","spark_pilot_2","7346","7","13","Female","","","","","","","null","<div style=""font-size:60px;"">+</div>","null","fixation","","","","","","","","","","","59","","",""
"revaluation","176","8599221","0.0-4.0-2.0-0.30","spark_pilot_2","7346","7","13","Female","","false","","","","","[823.1000000238419,717.2000000476837]","./assets/img/canyon/memory/6.jpg","[""ArrowDown"",""ArrowRight""]","value training","canyon","30","{""ArrowUp,ArrowLeft"":23,""ArrowUp,ArrowRight"":10,""ArrowDown,ArrowLeft"":8,""ArrowDown,ArrowRight"":30}","true","ArrowDown,ArrowRight","false","","","original","1","60","","",""
"html-keyboard-response","177","8599733","0.0-4.0-2.0-1.30","spark_pilot_2","7346","7","13","Female","","","","","","","null","<div style=""font-size:60px;"">+</div>","null","fixation","","","","","","","","","","","61","","",""
"revaluation","178","8603755","0.0-4.0-2.0-0.31","spark_pilot_2","7346","7","13","Female","","false","","","","","[1044.5]","./assets/img/canyon/catch/6.jpg","[""spaceBar""]","value training","canyon","0","{""ArrowUp,ArrowLeft"":23,""ArrowUp,ArrowRight"":10,""ArrowDown,ArrowLeft"":8,""ArrowDown,ArrowRight"":30}","true","spaceBar","true","","","original","1","62","","",""
"html-keyboard-response","179","8604266","0.0-4.0-2.0-1.31","spark_pilot_2","7346","7","13","Female","","","","","","","null","<div style=""font-size:60px;"">+</div>","null","fixation","","","","","","","","","","","63","","",""
"revaluation","180","8610293","0.0-4.0-2.0-0.32","spark_pilot_2","7346","7","13","Female","","false","","","","","[568.9000000357628,478.2000000476837]","./assets/img/canyon/memory/20.jpg","[""ArrowDown"",""ArrowRight""]","value training","canyon","30","{""ArrowUp,ArrowLeft"":23,""ArrowUp,ArrowRight"":10,""ArrowDown,ArrowLeft"":8,""ArrowDown,ArrowRight"":30}","true","ArrowDown,ArrowRight","false","","","original","1","64","","",""
"html-keyboard-response","181","8610805","0.0-4.0-2.0-1.32","spark_pilot_2","7346","7","13","Female","","","","","","","null","<div style=""font-size:60px;"">+</div>","null","fixation","","","","","","","","","","","65","","",""
"revaluation","182","8616837","0.0-4.0-2.0-0.33","spark_pilot_2","7346","7","13","Female","","false","","","","","[616.3999999761581,571.3999999761581]","./assets/img/canyon/memory/18.jpg","[""ArrowDown"",""ArrowRight""]","value training","canyon","30","{""ArrowUp,ArrowLeft"":23,""ArrowUp,ArrowRight"":10,""ArrowDown,ArrowLeft"":8,""ArrowDown,ArrowRight"":30}","true","ArrowDown,ArrowRight","false","","","original","1","66","","",""
"html-keyboard-response","183","8617349","0.0-4.0-2.0-1.33","spark_pilot_2","7346","7","13","Female","","","","","","","null","<div style=""font-size:60px;"">+</div>","null","fixation","","","","","","","","","","","67","","",""
"revaluation","184","8623381","0.0-4.0-2.0-0.34","spark_pilot_2","7346","7","13","Female","","false","","","","","[808,491]","./assets/img/canyon/memory/1.jpg","[""ArrowDown"",""ArrowRight""]","value training","canyon","30","{""ArrowUp,ArrowLeft"":23,""ArrowUp,ArrowRight"":10,""ArrowDown,ArrowLeft"":8,""ArrowDown,ArrowRight"":30}","true","ArrowDown,ArrowRight","false","","","original","1","68","","",""
"html-keyboard-response","185","8623893","0.0-4.0-2.0-1.34","spark_pilot_2","7346","7","13","Female","","","","","","","null","<div style=""font-size:60px;"">+</div>","null","fixation","","","","","","","","","","","69","","",""
"revaluation","186","8627914","0.0-4.0-2.0-0.35","spark_pilot_2","7346","7","13","Female","","false","","","","","[1015.5]","./assets/img/canyon/catch/2.jpg","[""spaceBar""]","value training","canyon","0","{""ArrowUp,ArrowLeft"":23,""ArrowUp,ArrowRight"":10,""ArrowDown,ArrowLeft"":8,""ArrowDown,ArrowRight"":30}","true","spaceBar","true","","","original","1","70","","",""
"html-keyboard-response","187","8628426","0.0-4.0-2.0-1.35","spark_pilot_2","7346","7","13","Female","","","","","","","null","<div style=""font-size:60px;"">+</div>","null","fixation","","","","","","","","","","","71","","",""
"revaluation","188","8634453","0.0-4.0-2.0-0.36","spark_pilot_2","7346","7","13","Female","","false","","","","","[576.8000000119209,391.5]","./assets/img/canyon/memory/9.jpg","[""ArrowDown"",""ArrowRight""]","value training","canyon","30","{""ArrowUp,ArrowLeft"":23,""ArrowUp,ArrowRight"":10,""ArrowDown,ArrowLeft"":8,""ArrowDown,ArrowRight"":30}","true","ArrowDown,ArrowRight","false","","","original","1","72","","",""
"html-keyboard-response","189","8634964","0.0-4.0-2.0-1.36","spark_pilot_2","7346","7","13","Female","","","","","","","null","<div style=""font-size:60px;"">+</div>","null","fixation","","","","","","","","","","","73","","",""
"revaluation","190","8640986","0.0-4.0-2.0-0.37","spark_pilot_2","7346","7","13","Female","","false","","","","","[699.3000000119209,568.0999999642372]","./assets/img/canyon/memory/22.jpg","[""ArrowDown"",""ArrowRight""]","value training","canyon","30","{""ArrowUp,ArrowLeft"":23,""ArrowUp,ArrowRight"":10,""ArrowDown,ArrowLeft"":8,""ArrowDown,ArrowRight"":30}","true","ArrowDown,ArrowRight","false","","","original","1","74","","",""
"html-keyboard-response","191","8641498","0.0-4.0-2.0-1.37","spark_pilot_2","7346","7","13","Female","","","","","","","null","<div style=""font-size:60px;"">+</div>","null","fixation","","","","","","","","","","","75","","",""
"revaluation","192","8647519","0.0-4.0-2.0-0.38","spark_pilot_2","7346","7","13","Female","","false","","","","","[870.5,564.2000000476837]","./assets/img/canyon/memory/17.jpg","[""ArrowDown"",""ArrowRight""]","value training","canyon","30","{""ArrowUp,ArrowLeft"":23,""ArrowUp,ArrowRight"":10,""ArrowDown,ArrowLeft"":8,""ArrowDown,ArrowRight"":30}","true","ArrowDown,ArrowRight","false","","","original","1","76","","",""
"html-keyboard-response","193","8648026","0.0-4.0-2.0-1.38","spark_pilot_2","7346","7","13","Female","","","","","","","null","<div style=""font-size:60px;"">+</div>","null","fixation","","","","","","","","","","","77","","",""
"revaluation","194","8654053","0.0-4.0-2.0-0.39","spark_pilot_2","7346","7","13","Female","","false","","","","","[877,417.0999999642372]","./assets/img/canyon/memory/4.jpg","[""ArrowDown"",""ArrowRight""]","value training","canyon","30","{""ArrowUp,ArrowLeft"":23,""ArrowUp,ArrowRight"":10,""ArrowDown,ArrowLeft"":8,""ArrowDown,ArrowRight"":30}","true","ArrowDown,ArrowRight","false","","","original","1","78","","",""
"html-keyboard-response","195","8654564","0.0-4.0-2.0-1.39","spark_pilot_2","7346","7","13","Female","","","","","","","null","<div style=""font-size:60px;"">+</div>","null","fixation","","","","","","","","","","","79","","",""
"revaluation","196","8660597","0.0-4.0-2.0-0.40","spark_pilot_2","7346","7","13","Female","","false","","","","","[657.3000000119209,366.80000001192093]","./assets/img/canyon/memory/34.jpg","[""ArrowDown"",""ArrowRight""]","value training","canyon","30","{""ArrowUp,ArrowLeft"":23,""ArrowUp,ArrowRight"":10,""ArrowDown,ArrowLeft"":8,""ArrowDown,ArrowRight"":30}","true","ArrowDown,ArrowRight","false","","","original","1","80","","",""
"html-keyboard-response","197","8661107","0.0-4.0-2.0-1.40","spark_pilot_2","7346","7","13","Female","","","","","","","null","<div style=""font-size:60px;"">+</div>","null","fixation","","","","","","","","","","","81","","",""
"revaluation","198","8667129","0.0-4.0-2.0-0.41","spark_pilot_2","7346","7","13","Female","","false","","","","","[594.8999999761581,514.6999999880791]","./assets/img/canyon/memory/28.jpg","[""ArrowDown"",""ArrowRight""]","value training","canyon","30","{""ArrowUp,ArrowLeft"":23,""ArrowUp,ArrowRight"":10,""ArrowDown,ArrowLeft"":8,""ArrowDown,ArrowRight"":30}","true","ArrowDown,ArrowRight","false","","","original","1","82","","",""
"html-keyboard-response","199","8667636","0.0-4.0-2.0-1.41","spark_pilot_2","7346","7","13","Female","","","","","","","null","<div style=""font-size:60px;"">+</div>","null","fixation","","","","","","","","","","","83","","",""
"revaluation","200","8673669","0.0-4.0-2.0-0.42","spark_pilot_2","7346","7","13","Female","","false","","","","","[785.1000000238419,537.0999999642372]","./assets/img/canyon/memory/24.jpg","[""ArrowDown"",""ArrowRight""]","value training","canyon","30","{""ArrowUp,ArrowLeft"":23,""ArrowUp,ArrowRight"":10,""ArrowDown,ArrowLeft"":8,""ArrowDown,ArrowRight"":30}","true","ArrowDown,ArrowRight","false","","","original","1","84","","",""
"html-keyboard-response","201","8674180","0.0-4.0-2.0-1.42","spark_pilot_2","7346","7","13","Female","","","","","","","null","<div style=""font-size:60px;"">+</div>","null","fixation","","","","","","","","","","","85","","",""
"revaluation","202","8680212","0.0-4.0-2.0-0.43","spark_pilot_2","7346","7","13","Female","","false","","","","","[766.0999999642372,632.1000000238419]","./assets/img/canyon/memory/34.jpg","[""ArrowDown"",""ArrowRight""]","value training","canyon","30","{""ArrowUp,ArrowLeft"":23,""ArrowUp,ArrowRight"":10,""ArrowDown,ArrowLeft"":8,""ArrowDown,ArrowRight"":30}","true","ArrowDown,ArrowRight","false","","","original","1","86","","",""
"html-keyboard-response","203","8680724","0.0-4.0-2.0-1.43","spark_pilot_2","7346","7","13","Female","","","","","","","null","<div style=""font-size:60px;"">+</div>","null","fixation","","","","","","","","","","","87","","",""
"revaluation","204","8684746","0.0-4.0-2.0-0.44","spark_pilot_2","7346","7","13","Female","","false","","","","","[883.1999999880791]","./assets/img/canyon/catch/0.jpg","[""spaceBar""]","value training","canyon","0","{""ArrowUp,ArrowLeft"":23,""ArrowUp,ArrowRight"":10,""ArrowDown,ArrowLeft"":8,""ArrowDown,ArrowRight"":30}","true","spaceBar","true","","","original","1","88","","",""
"html-keyboard-response","205","8685257","0.0-4.0-2.0-1.44","spark_pilot_2","7346","7","13","Female","","","","","","","null","<div style=""font-size:60px;"">+</div>","null","fixation","","","","","","","","","","","89","","",""
"revaluation","206","8691269","0.0-4.0-2.0-0.45","spark_pilot_2","7346","7","13","Female","","false","","","","","[572.8999999761581,449.30000001192093]","./assets/img/canyon/memory/25.jpg","[""ArrowDown"",""ArrowRight""]","value training","canyon","30","{""ArrowUp,ArrowLeft"":23,""ArrowUp,ArrowRight"":10,""ArrowDown,ArrowLeft"":8,""ArrowDown,ArrowRight"":30}","true","ArrowDown,ArrowRight","false","","","original","1","90","","",""
"html-keyboard-response","207","8691779","0.0-4.0-2.0-1.45","spark_pilot_2","7346","7","13","Female","","","","","","","null","<div style=""font-size:60px;"">+</div>","null","fixation","","","","","","","","","","","91","","",""
"revaluation","208","8697812","0.0-4.0-2.0-0.46","spark_pilot_2","7346","7","13","Female","","false","","","","","[599.8000000119209,368.80000001192093]","./assets/img/canyon/memory/16.jpg","[""ArrowDown"",""ArrowRight""]","value training","canyon","30","{""ArrowUp,ArrowLeft"":23,""ArrowUp,ArrowRight"":10,""ArrowDown,ArrowLeft"":8,""ArrowDown,ArrowRight"":30}","true","ArrowDown,ArrowRight","false","","","original","1","92","","",""
"html-keyboard-response","209","8698323","0.0-4.0-2.0-1.46","spark_pilot_2","7346","7","13","Female","","","","","","","null","<div style=""font-size:60px;"">+</div>","null","fixation","","","","","","","","","","","93","","",""
"revaluation","210","8704356","0.0-4.0-2.0-0.47","spark_pilot_2","7346","7","13","Female","","false","","","","","[470.5999999642372,1177.1000000238419]","./assets/img/canyon/memory/12.jpg","[""ArrowDown"",""ArrowRight""]","value training","canyon","30","{""ArrowUp,ArrowLeft"":23,""ArrowUp,ArrowRight"":10,""ArrowDown,ArrowLeft"":8,""ArrowDown,ArrowRight"":30}","true","ArrowDown,ArrowRight","false","","","original","1","94","","",""
"html-keyboard-response","211","8704867","0.0-4.0-2.0-1.47","spark_pilot_2","7346","7","13","Female","","","","","","","null","<div style=""font-size:60px;"">+</div>","null","fixation","","","","","","","","","","","95","","",""
"revaluation","212","8710889","0.0-4.0-2.0-0.48","spark_pilot_2","7346","7","13","Female","","false","","","","","[593.1999999880791,438.5]","./assets/img/canyon/memory/1.jpg","[""ArrowDown"",""ArrowRight""]","value training","canyon","30","{""ArrowUp,ArrowLeft"":23,""ArrowUp,ArrowRight"":10,""ArrowDown,ArrowLeft"":8,""ArrowDown,ArrowRight"":30}","true","ArrowDown,ArrowRight","false","","","original","1","96","","",""
"html-keyboard-response","213","8711400","0.0-4.0-2.0-1.48","spark_pilot_2","7346","7","13","Female","","","","","","","null","<div style=""font-size:60px;"">+</div>","null","fixation","","","","","","","","","","","97","","",""
"revaluation","214","8717428","0.0-4.0-2.0-0.49","spark_pilot_2","7346","7","13","Female","","false","","","","","[488.5999999642372,465.30000001192093]","./assets/img/canyon/memory/16.jpg","[""ArrowDown"",""ArrowRight""]","value training","canyon","30","{""ArrowUp,ArrowLeft"":23,""ArrowUp,ArrowRight"":10,""ArrowDown,ArrowLeft"":8,""ArrowDown,ArrowRight"":30}","true","ArrowDown,ArrowRight","false","","","original","1","98","","",""
"html-keyboard-response","215","8717939","0.0-4.0-2.0-1.49","spark_pilot_2","7346","7","13","Female","","","","","","","null","<div style=""font-size:60px;"">+</div>","null","fixation","","","","","","","","","","","99","","",""
"learning-instructions","216","8733492","0.0-4.0-3.0-0.0","spark_pilot_2","7346","7","13","Female","","","","","","","2539.699999988079","<p> Now, you will travel with a friend who will choose whether you go up or down first. </p>
            <p> On these turns, you will just see the animal that they found. You will still get to choose which chest to search for treasure.</p>","","instructions","","","","","","","","","","","","","",""
"revaluation","217","8737512","0.0-4.0-4.0-0.0","spark_pilot_2","7346","7","13","Female","","false","","","","","[923.3000000119209]","./assets/img/canyon/animals/lion.jpg","[""ArrowRight""]","revaluation","canyon","30","{""ArrowUp,ArrowLeft"":23,""ArrowUp,ArrowRight"":10,""ArrowDown,ArrowLeft"":8,""ArrowDown,ArrowRight"":30}","true","ArrowDown,ArrowRight","","","","original","1","0","","",""
"html-keyboard-response","218","8738023","0.0-4.0-4.0-1.0","spark_pilot_2","7346","7","13","Female","","","","","","","null","<div style=""font-size:60px;"">+</div>","null","fixation","","","","","","","","","","","1","","",""
"revaluation","219","8742041","0.0-4.0-4.0-0.1","spark_pilot_2","7346","7","13","Female","","false","","","","","[719.4000000357628]","./assets/img/canyon/animals/lion.jpg","[""ArrowRight""]","revaluation","canyon","30","{""ArrowUp,ArrowLeft"":23,""ArrowUp,ArrowRight"":10,""ArrowDown,ArrowLeft"":8,""ArrowDown,ArrowRight"":30}","true","ArrowDown,ArrowRight","","","","original","1","2","","",""
"html-keyboard-response","220","8742551","0.0-4.0-4.0-1.1","spark_pilot_2","7346","7","13","Female","","","","","","","null","<div style=""font-size:60px;"">+</div>","null","fixation","","","","","","","","","","","3","","",""
"revaluation","221","8746568","0.0-4.0-4.0-0.2","spark_pilot_2","7346","7","13","Female","","false","","","","","[552.4000000357628]","./assets/img/canyon/animals/lion.jpg","[""ArrowRight""]","revaluation","canyon","30","{""ArrowUp,ArrowLeft"":23,""ArrowUp,ArrowRight"":10,""ArrowDown,ArrowLeft"":8,""ArrowDown,ArrowRight"":30}","true","ArrowDown,ArrowRight","","","","original","1","4","","",""
"html-keyboard-response","222","8747071","0.0-4.0-4.0-1.2","spark_pilot_2","7346","7","13","Female","","","","","","","null","<div style=""font-size:60px;"">+</div>","null","fixation","","","","","","","","","","","5","","",""
"revaluation","223","8751085","0.0-4.0-4.0-0.3","spark_pilot_2","7346","7","13","Female","","false","","","","","[467.9000000357628]","./assets/img/canyon/animals/lion.jpg","[""ArrowRight""]","revaluation","canyon","30","{""ArrowUp,ArrowLeft"":23,""ArrowUp,ArrowRight"":10,""ArrowDown,ArrowLeft"":8,""ArrowDown,ArrowRight"":30}","true","ArrowDown,ArrowRight","","","","original","1","6","","",""
"html-keyboard-response","224","8751591","0.0-4.0-4.0-1.3","spark_pilot_2","7346","7","13","Female","","","","","","","null","<div style=""font-size:60px;"">+</div>","null","fixation","","","","","","","","","","","7","","",""
"revaluation","225","8755611","0.0-4.0-4.0-0.4","spark_pilot_2","7346","7","13","Female","","false","","","","","[503.89999997615814]","./assets/img/canyon/animals/lion.jpg","[""ArrowRight""]","revaluation","canyon","30","{""ArrowUp,ArrowLeft"":23,""ArrowUp,ArrowRight"":10,""ArrowDown,ArrowLeft"":8,""ArrowDown,ArrowRight"":30}","true","ArrowDown,ArrowRight","","","","original","1","8","","",""
"html-keyboard-response","226","8756119","0.0-4.0-4.0-1.4","spark_pilot_2","7346","7","13","Female","","","","","","","null","<div style=""font-size:60px;"">+</div>","null","fixation","","","","","","","","","","","9","","",""
"revaluation","227","8760135","0.0-4.0-4.0-0.5","spark_pilot_2","7346","7","13","Female","","false","","","","","[751.6999999880791]","./assets/img/canyon/animals/giraffe.jpg","[""ArrowLeft""]","revaluation","canyon","23","{""ArrowUp,ArrowLeft"":23,""ArrowUp,ArrowRight"":10,""ArrowDown,ArrowLeft"":8,""ArrowDown,ArrowRight"":30}","true","ArrowUp,ArrowLeft","","","","original","1","10","","",""
"html-keyboard-response","228","8760641","0.0-4.0-4.0-1.5","spark_pilot_2","7346","7","13","Female","","","","","","","null","<div style=""font-size:60px;"">+</div>","null","fixation","","","","","","","","","","","11","","",""
"revaluation","229","8764648","0.0-4.0-4.0-0.6","spark_pilot_2","7346","7","13","Female","","false","","","","","[1120.300000011921]","./assets/img/canyon/animals/giraffe.jpg","[""ArrowLeft""]","revaluation","canyon","23","{""ArrowUp,ArrowLeft"":23,""ArrowUp,ArrowRight"":10,""ArrowDown,ArrowLeft"":8,""ArrowDown,ArrowRight"":30}","true","ArrowUp,ArrowLeft","","","","original","1","12","","",""
"html-keyboard-response","230","8765154","0.0-4.0-4.0-1.6","spark_pilot_2","7346","7","13","Female","","","","","","","null","<div style=""font-size:60px;"">+</div>","null","fixation","","","","","","","","","","","13","","",""
"revaluation","231","8769177","0.0-4.0-4.0-0.7","spark_pilot_2","7346","7","13","Female","","false","","","","","[578.6000000238419]","./assets/img/canyon/animals/lion.jpg","[""ArrowRight""]","revaluation","canyon","30","{""ArrowUp,ArrowLeft"":23,""ArrowUp,ArrowRight"":10,""ArrowDown,ArrowLeft"":8,""ArrowDown,ArrowRight"":30}","true","ArrowDown,ArrowRight","","","","original","1","14","","",""
"html-keyboard-response","232","8769687","0.0-4.0-4.0-1.7","spark_pilot_2","7346","7","13","Female","","","","","","","null","<div style=""font-size:60px;"">+</div>","null","fixation","","","","","","","","","","","15","","",""
"revaluation","233","8773703","0.0-4.0-4.0-0.8","spark_pilot_2","7346","7","13","Female","","false","","","","","[487.39999997615814]","./assets/img/canyon/animals/giraffe.jpg","[""ArrowLeft""]","revaluation","canyon","23","{""ArrowUp,ArrowLeft"":23,""ArrowUp,ArrowRight"":10,""ArrowDown,ArrowLeft"":8,""ArrowDown,ArrowRight"":30}","true","ArrowUp,ArrowLeft","","","","original","1","16","","",""
"html-keyboard-response","234","8774210","0.0-4.0-4.0-1.8","spark_pilot_2","7346","7","13","Female","","","","","","","null","<div style=""font-size:60px;"">+</div>","null","fixation","","","","","","","","","","","17","","",""
"revaluation","235","8778232","0.0-4.0-4.0-0.9","spark_pilot_2","7346","7","13","Female","","false","","","","","[435]","./assets/img/canyon/animals/giraffe.jpg","[""ArrowRight""]","revaluation","canyon","10","{""ArrowUp,ArrowLeft"":23,""ArrowUp,ArrowRight"":10,""ArrowDown,ArrowLeft"":8,""ArrowDown,ArrowRight"":30}","false","ArrowUp,ArrowRight","","","","original","1","18","","",""
"html-keyboard-response","236","8778743","0.0-4.0-4.0-1.9","spark_pilot_2","7346","7","13","Female","","","","","","","null","<div style=""font-size:60px;"">+</div>","null","fixation","","","","","","","","","","","19","","",""
"revaluation","237","8782761","0.0-4.0-4.0-0.10","spark_pilot_2","7346","7","13","Female","","false","","","","","[667.0999999642372]","./assets/img/canyon/animals/lion.jpg","[""ArrowRight""]","revaluation","canyon","30","{""ArrowUp,ArrowLeft"":23,""ArrowUp,ArrowRight"":10,""ArrowDown,ArrowLeft"":8,""ArrowDown,ArrowRight"":30}","true","ArrowDown,ArrowRight","","","","original","1","20","","",""
"html-keyboard-response","238","8783271","0.0-4.0-4.0-1.10","spark_pilot_2","7346","7","13","Female","","","","","","","null","<div style=""font-size:60px;"">+</div>","null","fixation","","","","","","","","","","","21","","",""
"revaluation","239","8787287","0.0-4.0-4.0-0.11","spark_pilot_2","7346","7","13","Female","","false","","","","","[721.1999999880791]","./assets/img/canyon/animals/giraffe.jpg","[""ArrowLeft""]","revaluation","canyon","23","{""ArrowUp,ArrowLeft"":23,""ArrowUp,ArrowRight"":10,""ArrowDown,ArrowLeft"":8,""ArrowDown,ArrowRight"":30}","true","ArrowUp,ArrowLeft","","","","original","1","22","","",""
"html-keyboard-response","240","8787794","0.0-4.0-4.0-1.11","spark_pilot_2","7346","7","13","Female","","","","","","","null","<div style=""font-size:60px;"">+</div>","null","fixation","","","","","","","","","","","23","","",""
"revaluation","241","8791816","0.0-4.0-4.0-0.12","spark_pilot_2","7346","7","13","Female","","false","","","","","[629.8999999761581]","./assets/img/canyon/animals/giraffe.jpg","[""ArrowLeft""]","revaluation","canyon","23","{""ArrowUp,ArrowLeft"":23,""ArrowUp,ArrowRight"":10,""ArrowDown,ArrowLeft"":8,""ArrowDown,ArrowRight"":30}","true","ArrowUp,ArrowLeft","","","","original","1","24","","",""
"html-keyboard-response","242","8792327","0.0-4.0-4.0-1.12","spark_pilot_2","7346","7","13","Female","","","","","","","null","<div style=""font-size:60px;"">+</div>","null","fixation","","","","","","","","","","","25","","",""
"revaluation","243","8796344","0.0-4.0-4.0-0.13","spark_pilot_2","7346","7","13","Female","","false","","","","","[678.6999999880791]","./assets/img/canyon/animals/giraffe.jpg","[""ArrowLeft""]","revaluation","canyon","23","{""ArrowUp,ArrowLeft"":23,""ArrowUp,ArrowRight"":10,""ArrowDown,ArrowLeft"":8,""ArrowDown,ArrowRight"":30}","true","ArrowUp,ArrowLeft","","","","original","1","26","","",""
"html-keyboard-response","244","8796855","0.0-4.0-4.0-1.13","spark_pilot_2","7346","7","13","Female","","","","","","","null","<div style=""font-size:60px;"">+</div>","null","fixation","","","","","","","","","","","27","","",""
"revaluation","245","8800871","0.0-4.0-4.0-0.14","spark_pilot_2","7346","7","13","Female","","false","","","","","[664.5]","./assets/img/canyon/animals/giraffe.jpg","[""ArrowLeft""]","revaluation","canyon","23","{""ArrowUp,ArrowLeft"":23,""ArrowUp,ArrowRight"":10,""ArrowDown,ArrowLeft"":8,""ArrowDown,ArrowRight"":30}","true","ArrowUp,ArrowLeft","","","","original","1","28","","",""
"html-keyboard-response","246","8801382","0.0-4.0-4.0-1.14","spark_pilot_2","7346","7","13","Female","","","","","","","null","<div style=""font-size:60px;"">+</div>","null","fixation","","","","","","","","","","","29","","",""
"revaluation","247","8805399","0.0-4.0-4.0-0.15","spark_pilot_2","7346","7","13","Female","","false","","","","","[664.1000000238419]","./assets/img/canyon/animals/lion.jpg","[""ArrowRight""]","revaluation","canyon","30","{""ArrowUp,ArrowLeft"":23,""ArrowUp,ArrowRight"":10,""ArrowDown,ArrowLeft"":8,""ArrowDown,ArrowRight"":30}","true","ArrowDown,ArrowRight","","","","original","1","30","","",""
"html-keyboard-response","248","8805906","0.0-4.0-4.0-1.15","spark_pilot_2","7346","7","13","Female","","","","","","","null","<div style=""font-size:60px;"">+</div>","null","fixation","","","","","","","","","","","31","","",""
"revaluation","249","8809927","0.0-4.0-4.0-0.16","spark_pilot_2","7346","7","13","Female","","false","","","","","[508.10000002384186]","./assets/img/canyon/animals/giraffe.jpg","[""ArrowLeft""]","revaluation","canyon","23","{""ArrowUp,ArrowLeft"":23,""ArrowUp,ArrowRight"":10,""ArrowDown,ArrowLeft"":8,""ArrowDown,ArrowRight"":30}","true","ArrowUp,ArrowLeft","","","","original","1","32","","",""
"html-keyboard-response","250","8810439","0.0-4.0-4.0-1.16","spark_pilot_2","7346","7","13","Female","","","","","","","null","<div style=""font-size:60px;"">+</div>","null","fixation","","","","","","","","","","","33","","",""
"revaluation","251","8814455","0.0-4.0-4.0-0.17","spark_pilot_2","7346","7","13","Female","","false","","","","","[649]","./assets/img/canyon/animals/lion.jpg","[""ArrowRight""]","revaluation","canyon","30","{""ArrowUp,ArrowLeft"":23,""ArrowUp,ArrowRight"":10,""ArrowDown,ArrowLeft"":8,""ArrowDown,ArrowRight"":30}","true","ArrowDown,ArrowRight","","","","original","1","34","","",""
"html-keyboard-response","252","8814960","0.0-4.0-4.0-1.17","spark_pilot_2","7346","7","13","Female","","","","","","","null","<div style=""font-size:60px;"">+</div>","null","fixation","","","","","","","","","","","35","","",""
"learning-instructions","253","8832747","0.0-4.0-5.0-0.0","spark_pilot_2","7346","7","13","Female","","","","","","","6288.5","<p> Time to play the dot game! </p>
            <p> For one minute, click the red dots on the following screen as they appear. </p>
            <p><b> Don't look away, as you will earn bonus for clicking dots</b>. </p>","","instructions","","","","","","","","","","","","","",""
"revaluation","254","8892783","0.0-4.0-6.0-0.0","spark_pilot_2","7346","7","13","Female","","","","","","","[78,59,54,53,54,54]","","","rest","","60","","","","","0","60000","","","","","",""
"learning-instructions","255","8900696","0.0-4.0-7.0-0.0","spark_pilot_2","7346","7","13","Female","","","","","","","1679.4000000357628","<p> You have almost finished this part of the game! </p>
            <p> We are going to ask you to make a few more choices. </p>","","instructions","","","","","","","","","","","","","",""
"learning-instructions","256","8915886","0.0-4.0-7.0-0.1","spark_pilot_2","7346","7","13","Female","","","","","","","1214.7999999523163","<p> First, you need to decide whether to go up or down. When you see each picture, use the arrow keys to make your choice. </p>
            <p><b>You will not see which animal you found, but try to get to the one that will give you the most treasure.</b></p>","","instructions","","","","","","","","","","","","","",""
"revaluation","257","8916411","0.0-4.0-8.0-0.0","spark_pilot_2","7346","7","13","Female","","false","","","","","[520.6999999880791]","./assets/img/canyon/test/2.jpg","[""ArrowDown""]","first stage test","canyon","0","{""ArrowUp,ArrowLeft"":23,""ArrowUp,ArrowRight"":10,""ArrowDown,ArrowLeft"":8,""ArrowDown,ArrowRight"":30}","true","ArrowDown","false","","","original","1","","","",""
"html-keyboard-response","258","8916913","0.0-4.0-8.0-1.0","spark_pilot_2","7346","7","13","Female","","","","","","","null","<div style=""font-size:60px;"">+</div>","null","fixation","","","","","","","","","","","","","",""
"revaluation","259","8917806","0.0-4.0-8.0-0.1","spark_pilot_2","7346","7","13","Female","","false","","","","","[890.2999999523163]","./assets/img/canyon/test/0.jpg","[""ArrowDown""]","first stage test","canyon","0","{""ArrowUp,ArrowLeft"":23,""ArrowUp,ArrowRight"":10,""ArrowDown,ArrowLeft"":8,""ArrowDown,ArrowRight"":30}","true","ArrowDown","false","","","original","1","","","",""
"html-keyboard-response","260","8918310","0.0-4.0-8.0-1.1","spark_pilot_2","7346","7","13","Female","","","","","","","null","<div style=""font-size:60px;"">+</div>","null","fixation","","","","","","","","","","","","","",""
"revaluation","261","8918994","0.0-4.0-8.0-0.2","spark_pilot_2","7346","7","13","Female","","false","","","","","[679.3000000119209]","./assets/img/canyon/test/1.jpg","[""ArrowDown""]","first stage test","canyon","0","{""ArrowUp,ArrowLeft"":23,""ArrowUp,ArrowRight"":10,""ArrowDown,ArrowLeft"":8,""ArrowDown,ArrowRight"":30}","true","ArrowDown","false","","","original","1","","","",""
"html-keyboard-response","262","8919503","0.0-4.0-8.0-1.2","spark_pilot_2","7346","7","13","Female","","","","","","","null","<div style=""font-size:60px;"">+</div>","null","fixation","","","","","","","","","","","","","",""
"revaluation","263","8919995","0.0-4.0-8.0-0.3","spark_pilot_2","7346","7","13","Female","","false","","","","","[487.5999999642372]","./assets/img/canyon/test/3.jpg","[""ArrowDown""]","first stage test","canyon","0","{""ArrowUp,ArrowLeft"":23,""ArrowUp,ArrowRight"":10,""ArrowDown,ArrowLeft"":8,""ArrowDown,ArrowRight"":30}","true","ArrowDown","false","","","original","1","","","",""
"html-keyboard-response","264","8920502","0.0-4.0-8.0-1.3","spark_pilot_2","7346","7","13","Female","","","","","","","null","<div style=""font-size:60px;"">+</div>","null","fixation","","","","","","","","","","","","","",""
"learning-instructions","265","8933164","0.0-4.0-9.0-0.0","spark_pilot_2","7346","7","13","Female","","","","","","","1318.5","<p> Now you will see the animals again and can search their chests for treasure. </p>
            <p> This time, you will not see how much treasure you earned, but you will earn more bonus money for making better choices. </p>","","instructions","","","","","","","","","","","","","",""
"revaluation","266","8934644","0.0-4.0-10.0-0.0","spark_pilot_2","7346","7","13","Female","","false","","","","","[1477.0999999642372]","./assets/img/canyon/animals/giraffe.jpg","[""ArrowLeft""]","second stage test","canyon","0","{""ArrowUp,ArrowLeft"":23,""ArrowUp,ArrowRight"":10,""ArrowDown,ArrowLeft"":8,""ArrowDown,ArrowRight"":30}","true","ArrowUp,ArrowLeft","","","","original","1","","","",""
"html-keyboard-response","267","8935151","0.0-4.0-10.0-1.0","spark_pilot_2","7346","7","13","Female","","","","","","","null","<div style=""font-size:60px;"">+</div>","null","fixation","","","","","","","","","","","","","",""
"revaluation","268","8935861","0.0-4.0-10.0-0.1","spark_pilot_2","7346","7","13","Female","","false","","","","","[705.2999999523163]","./assets/img/canyon/animals/giraffe.jpg","[""ArrowLeft""]","second stage test","canyon","0","{""ArrowUp,ArrowLeft"":23,""ArrowUp,ArrowRight"":10,""ArrowDown,ArrowLeft"":8,""ArrowDown,ArrowRight"":30}","true","ArrowUp,ArrowLeft","","","","original","1","","","",""
"html-keyboard-response","269","8936367","0.0-4.0-10.0-1.1","spark_pilot_2","7346","7","13","Female","","","","","","","null","<div style=""font-size:60px;"">+</div>","null","fixation","","","","","","","","","","","","","",""
"revaluation","270","8936945","0.0-4.0-10.0-0.2","spark_pilot_2","7346","7","13","Female","","false","","","","","[573.8000000119209]","./assets/img/canyon/animals/giraffe.jpg","[""ArrowLeft""]","second stage test","canyon","0","{""ArrowUp,ArrowLeft"":23,""ArrowUp,ArrowRight"":10,""ArrowDown,ArrowLeft"":8,""ArrowDown,ArrowRight"":30}","true","ArrowUp,ArrowLeft","","","","original","1","","","",""
"html-keyboard-response","271","8937450","0.0-4.0-10.0-1.2","spark_pilot_2","7346","7","13","Female","","","","","","","null","<div style=""font-size:60px;"">+</div>","null","fixation","","","","","","","","","","","","","",""
"revaluation","272","8937950","0.0-4.0-10.0-0.3","spark_pilot_2","7346","7","13","Female","","false","","","","","[496.30000001192093]","./assets/img/canyon/animals/giraffe.jpg","[""ArrowLeft""]","second stage test","canyon","0","{""ArrowUp,ArrowLeft"":23,""ArrowUp,ArrowRight"":10,""ArrowDown,ArrowLeft"":8,""ArrowDown,ArrowRight"":30}","true","ArrowUp,ArrowLeft","","","","original","1","","","",""
"html-keyboard-response","273","8938458","0.0-4.0-10.0-1.3","spark_pilot_2","7346","7","13","Female","","","","","","","null","<div style=""font-size:60px;"">+</div>","null","fixation","","","","","","","","","","","","","",""
"revaluation","274","8939100","0.0-4.0-10.0-0.4","spark_pilot_2","7346","7","13","Female","","false","","","","","[638.1999999880791]","./assets/img/canyon/animals/lion.jpg","[""ArrowRight""]","second stage test","canyon","0","{""ArrowUp,ArrowLeft"":23,""ArrowUp,ArrowRight"":10,""ArrowDown,ArrowLeft"":8,""ArrowDown,ArrowRight"":30}","true","ArrowDown,ArrowRight","","","","original","1","","","",""
"html-keyboard-response","275","8939610","0.0-4.0-10.0-1.4","spark_pilot_2","7346","7","13","Female","","","","","","","null","<div style=""font-size:60px;"">+</div>","null","fixation","","","","","","","","","","","","","",""
"revaluation","276","8940021","0.0-4.0-10.0-0.5","spark_pilot_2","7346","7","13","Female","","false","","","","","[406.80000001192093]","./assets/img/canyon/animals/lion.jpg","[""ArrowRight""]","second stage test","canyon","0","{""ArrowUp,ArrowLeft"":23,""ArrowUp,ArrowRight"":10,""ArrowDown,ArrowLeft"":8,""ArrowDown,ArrowRight"":30}","true","ArrowDown,ArrowRight","","","","original","1","","","",""
"html-keyboard-response","277","8940527","0.0-4.0-10.0-1.5","spark_pilot_2","7346","7","13","Female","","","","","","","null","<div style=""font-size:60px;"">+</div>","null","fixation","","","","","","","","","","","","","",""
"revaluation","278","8940956","0.0-4.0-10.0-0.6","spark_pilot_2","7346","7","13","Female","","false","","","","","[424.80000001192093]","./assets/img/canyon/animals/lion.jpg","[""ArrowRight""]","second stage test","canyon","0","{""ArrowUp,ArrowLeft"":23,""ArrowUp,ArrowRight"":10,""ArrowDown,ArrowLeft"":8,""ArrowDown,ArrowRight"":30}","true","ArrowDown,ArrowRight","","","","original","1","","","",""
"html-keyboard-response","279","8941466","0.0-4.0-10.0-1.6","spark_pilot_2","7346","7","13","Female","","","","","","","null","<div style=""font-size:60px;"">+</div>","null","fixation","","","","","","","","","","","","","",""
"revaluation","280","8941880","0.0-4.0-10.0-0.7","spark_pilot_2","7346","7","13","Female","","false","","","","","[409.89999997615814]","./assets/img/canyon/animals/lion.jpg","[""ArrowRight""]","second stage test","canyon","0","{""ArrowUp,ArrowLeft"":23,""ArrowUp,ArrowRight"":10,""ArrowDown,ArrowLeft"":8,""ArrowDown,ArrowRight"":30}","true","ArrowDown,ArrowRight","","","","original","1","","","",""
"html-keyboard-response","281","8942383","0.0-4.0-10.0-1.7","spark_pilot_2","7346","7","13","Female","","","","","","","null","<div style=""font-size:60px;"">+</div>","null","fixation","","","","","","","","","","","","","",""
"learning-instructions","282","8947336","0.0-4.0-0.1-0.2","spark_pilot_2","7346","7","13","Female","","","","","","","2243.300000011921","<p> This time you are searching for treasure in the <b>ocean</b>.</p>","","instructions","","","","","","","","","","","","","",""
"learning-instructions","283","8982543","0.0-4.0-0.1-0.3","spark_pilot_2","7346","7","13","Female","","","","","","","17956.400000035763","<p><b>New</b> animals with <b>new</b> treasure chests live here. You need to explore to discover where the animal with the best treasure chest is.</p>
                    <p> Like before, once you figure out which animal has the chest with the most treasure, you should try to get to that animal and select that chest! </p>","","instructions","","","","","","","","","","","","","",""
"learning-instructions","284","8998611","0.0-4.0-1.1-0.1","spark_pilot_2","7346","7","13","Female","","","","","","","1336.6000000238419","<p> Remember, when you see a picture of the place, use the up and down keys to <b>find an animal</b>.</p>
            <p> When you encounter an animal, you should use the left and right keys to <b>select a treasure chest</b>.</p>
            <p> Don't forget to look out for the robber! </p>","","instructions","","","","","","","","","","","","","",""
"revaluation","285","9004639","0.0-4.0-2.1-0.50","spark_pilot_2","7346","7","13","Female","","false","","","","","[1222.199999988079,695.4000000357628]","./assets/img/ocean/memory/34.jpg","[""ArrowDown"",""ArrowRight""]","value training","ocean","17","{""ArrowUp,ArrowLeft"":26,""ArrowUp,ArrowRight"":10,""ArrowDown,ArrowLeft"":5,""ArrowDown,ArrowRight"":17}","false","ArrowDown,ArrowRight","false","","","revaluation","2","0","","",""
"html-keyboard-response","286","9005145","0.0-4.0-2.1-1.50","spark_pilot_2","7346","7","13","Female","","","","","","","null","<div style=""font-size:60px;"">+</div>","null","fixation","","","","","","","","","","","1","","",""
"revaluation","287","9011178","0.0-4.0-2.1-0.51","spark_pilot_2","7346","7","13","Female","","false","","","","","[669.1000000238419,334.5]","./assets/img/ocean/memory/6.jpg","[""ArrowDown"",""ArrowLeft""]","value training","ocean","5","{""ArrowUp,ArrowLeft"":26,""ArrowUp,ArrowRight"":10,""ArrowDown,ArrowLeft"":5,""ArrowDown,ArrowRight"":17}","false","ArrowDown,ArrowLeft","false","","","revaluation","2","2","","",""
"html-keyboard-response","288","9011689","0.0-4.0-2.1-1.51","spark_pilot_2","7346","7","13","Female","","","","","","","null","<div style=""font-size:60px;"">+</div>","null","fixation","","","","","","","","","","","3","","",""
"revaluation","289","9017722","0.0-4.0-2.1-0.52","spark_pilot_2","7346","7","13","Female","","false","","","","","[497.89999997615814,705.3000000119209]","./assets/img/ocean/memory/10.jpg","[""ArrowUp"",""ArrowRight""]","value training","ocean","10","{""ArrowUp,ArrowLeft"":26,""ArrowUp,ArrowRight"":10,""ArrowDown,ArrowLeft"":5,""ArrowDown,ArrowRight"":17}","false","ArrowUp,ArrowRight","false","","","revaluation","2","4","","",""
"html-keyboard-response","290","9018233","0.0-4.0-2.1-1.52","spark_pilot_2","7346","7","13","Female","","","","","","","null","<div style=""font-size:60px;"">+</div>","null","fixation","","","","","","","","","","","5","","",""
"revaluation","291","9024254","0.0-4.0-2.1-0.53","spark_pilot_2","7346","7","13","Female","","false","","","","","[475.60000002384186,356.80000001192093]","./assets/img/ocean/memory/10.jpg","[""ArrowUp"",""ArrowLeft""]","value training","ocean","26","{""ArrowUp,ArrowLeft"":26,""ArrowUp,ArrowRight"":10,""ArrowDown,ArrowLeft"":5,""ArrowDown,ArrowRight"":17}","true","ArrowUp,ArrowLeft","false","","","revaluation","2","6","","",""
"html-keyboard-response","292","9024758","0.0-4.0-2.1-1.53","spark_pilot_2","7346","7","13","Female","","","","","","","null","<div style=""font-size:60px;"">+</div>","null","fixation","","","","","","","","","","","7","","",""
"revaluation","293","9030784","0.0-4.0-2.1-0.54","spark_pilot_2","7346","7","13","Female","","false","","","","","[536.7999999523163,493.19999998807907]","./assets/img/ocean/memory/34.jpg","[""ArrowUp"",""ArrowLeft""]","value training","ocean","26","{""ArrowUp,ArrowLeft"":26,""ArrowUp,ArrowRight"":10,""ArrowDown,ArrowLeft"":5,""ArrowDown,ArrowRight"":17}","true","ArrowUp,ArrowLeft","false","","","revaluation","2","8","","",""
"html-keyboard-response","294","9031295","0.0-4.0-2.1-1.54","spark_pilot_2","7346","7","13","Female","","","","","","","null","<div style=""font-size:60px;"">+</div>","null","fixation","","","","","","","","","","","9","","",""
"revaluation","295","9037322","0.0-4.0-2.1-0.55","spark_pilot_2","7346","7","13","Female","","false","","","","","[415.30000001192093,335.19999998807907]","./assets/img/ocean/memory/24.jpg","[""ArrowUp"",""ArrowLeft""]","value training","ocean","26","{""ArrowUp,ArrowLeft"":26,""ArrowUp,ArrowRight"":10,""ArrowDown,ArrowLeft"":5,""ArrowDown,ArrowRight"":17}","true","ArrowUp,ArrowLeft","false","","","revaluation","2","10","","",""
"html-keyboard-response","296","9037834","0.0-4.0-2.1-1.55","spark_pilot_2","7346","7","13","Female","","","","","","","null","<div style=""font-size:60px;"">+</div>","null","fixation","","","","","","","","","","","11","","",""
"revaluation","297","9043866","0.0-4.0-2.1-0.56","spark_pilot_2","7346","7","13","Female","","false","","","","","[495.69999998807907,543]","./assets/img/ocean/memory/25.jpg","[""ArrowUp"",""ArrowLeft""]","value training","ocean","26","{""ArrowUp,ArrowLeft"":26,""ArrowUp,ArrowRight"":10,""ArrowDown,ArrowLeft"":5,""ArrowDown,ArrowRight"":17}","true","ArrowUp,ArrowLeft","false","","","revaluation","2","12","","",""
"html-keyboard-response","298","9044378","0.0-4.0-2.1-1.56","spark_pilot_2","7346","7","13","Female","","","","","","","null","<div style=""font-size:60px;"">+</div>","null","fixation","","","","","","","","","","","13","","",""
"revaluation","299","9050410","0.0-4.0-2.1-0.57","spark_pilot_2","7346","7","13","Female","","false","","","","","[414.69999998807907,377.30000001192093]","./assets/img/ocean/memory/13.jpg","[""ArrowUp"",""ArrowLeft""]","value training","ocean","26","{""ArrowUp,ArrowLeft"":26,""ArrowUp,ArrowRight"":10,""ArrowDown,ArrowLeft"":5,""ArrowDown,ArrowRight"":17}","true","ArrowUp,ArrowLeft","false","","","revaluation","2","14","","",""
"html-keyboard-response","300","9050922","0.0-4.0-2.1-1.57","spark_pilot_2","7346","7","13","Female","","","","","","","null","<div style=""font-size:60px;"">+</div>","null","fixation","","","","","","","","","","","15","","",""
"revaluation","301","9056954","0.0-4.0-2.1-0.58","spark_pilot_2","7346","7","13","Female","","false","","","","","[378.19999998807907,561.0999999642372]","./assets/img/ocean/memory/13.jpg","[""ArrowUp"",""ArrowLeft""]","value training","ocean","26","{""ArrowUp,ArrowLeft"":26,""ArrowUp,ArrowRight"":10,""ArrowDown,ArrowLeft"":5,""ArrowDown,ArrowRight"":17}","true","ArrowUp,ArrowLeft","false","","","revaluation","2","16","","",""
"html-keyboard-response","302","9057466","0.0-4.0-2.1-1.58","spark_pilot_2","7346","7","13","Female","","","","","","","null","<div style=""font-size:60px;"">+</div>","null","fixation","","","","","","","","","","","17","","",""
"revaluation","303","9061487","0.0-4.0-2.1-0.59","spark_pilot_2","7346","7","13","Female","","false","","","","","[684.4000000357628]","./assets/img/ocean/catch/1.jpg","[""spaceBar""]","value training","ocean","0","{""ArrowUp,ArrowLeft"":26,""ArrowUp,ArrowRight"":10,""ArrowDown,ArrowLeft"":5,""ArrowDown,ArrowRight"":17}","true","spaceBar","true","","","revaluation","2","18","","",""
"html-keyboard-response","304","9061999","0.0-4.0-2.1-1.59","spark_pilot_2","7346","7","13","Female","","","","","","","null","<div style=""font-size:60px;"">+</div>","null","fixation","","","","","","","","","","","19","","",""
