"trial_type","trial_index","time_elapsed","internal_node_id","task_version","subject_id","assigned_condition","age","gender","success","timeout","failed_images","failed_audio","failed_video","browser_interaction","rt","stimulus","response","task_part","environment","score","rewardMap","correct","fullState","isCatch","numberMissed","duration","condition","order","trial_num","key_press","ground_truth","bonus"
"pavlovia","0","891","0.0-0.0","spark_pilot_2","7324","2","12","Male","","","","","","","","","","","","","","","","","","","","","","","",""
"preload","1","52326","0.0-1.0","spark_pilot_2","7324","2","12","Male","true","false","[]","[]","[]","[{""event"":""fullscreenenter"",""trial"":2,""time"":71219},{""event"":""blur"",""trial"":254,""time"":1620261},{""event"":""focus"",""trial"":254,""time"":2460073}]","","","","","","","","","","","","","","","","","",""
"fullscreen","2","72169","0.0-2.0","spark_pilot_2","7324","2","12","Male","true","","","","","","","","","","","","","","","","","","","","","","",""
"audio-button-response","3","92895","0.0-3.0-0.0-0.0","spark_pilot_2","7324","2","12","Male","","","","","","","20400","./assets/audio/audiotest/turtle.mp3","4","audio_test","","","","","","","","","","","","","",""
"audio-button-response","4","95379","0.0-3.0-0.1-0.1","spark_pilot_2","7324","2","12","Male","","","","","","","1461","./assets/audio/audiotest/turtle.mp3","2","audio_test","","","","","","","","","","","","","",""
"learning-instructions","5","107118","0.0-3.0-1.0-0.0","spark_pilot_2","7324","2","12","Male","","","","","","","4736.799999713898","<p> Welcome! Please remember to stay in fullscreen mode and don't click away from the experiment. </p>","","instructions","","","","","","","","","","","","","",""
"learning-instructions","6","116425","0.0-3.0-1.0-0.1","spark_pilot_2","7324","2","12","Male","","","","","","","846","<p> Today you will be playing a game to earn treasure. </p>
            <p> At the end of the experiment, you will earn a bonus based on how much treasure you find. </p>
            <img src='./assets/img/instructions/treasure.jpg' class='instructions-image'>","","instructions","","","","","","","","","","","","","",""
"learning-instructions","7","125915","0.0-3.0-1.0-0.2","spark_pilot_2","7324","2","12","Male","","","","","","","1196.5","<p> Animals have hidden treasure in treasure chests. </p>
            <p> You need to first find an animal and then choose which of their treasure chests to search. </p>
            <img src='./assets/img/space/animals/cat.jpg' class='instructions-image'>","","instructions","","","","","","","","","","","","","",""
"learning-instructions","8","140865","0.0-3.0-1.0-0.3","spark_pilot_2","7324","2","12","Male","","","","","","","1765.6999998092651","<p> In each round, you will search for treasure in a different place. In the real game, there will be two rounds. </p>
            <p> You will begin with a separate, practice round where you will search for treasure in outer space. </p>
            <img src='./assets/img/space/0.jpg' class='instructions-image'>","","instructions","","","","","","","","","","","","","",""
"learning-instructions","9","153969","0.0-3.0-1.0-0.4","spark_pilot_2","7324","2","12","Male","","","","","","","1644.4000000953674","<p> On every turn, you will see a picture of the place that you are in, but the specific image may be different each time. </p>
            <p> For example, both of these images mean you are in outer space. </p>
            <img src='./assets/img/instructions/outerspace.jpg' class='instructions-image'>","","instructions","","","","","","","","","","","","","",""
"learning-instructions","10","162823","0.0-3.0-1.0-0.5","spark_pilot_2","7324","2","12","Male","","","","","","","970.2000002861023","<p> You need to decide which direction to travel in. </p>
            <p> You can choose between going <b>up or down</b> by using the arrow keys. </p>
            <img src='./assets/img/instructions/updown.jpg' class='instructions-image'>","","instructions","","","","","","","","","","","","","",""
"learning-instructions","11","174046","0.0-3.0-1.0-0.6","spark_pilot_2","7324","2","12","Male","","","","","","","2344","<p> You will have <b>2 seconds</b> to make your choice. </p>
            <p> If you do not make a choice within 2 seconds, you will not find an animal or earn treasure. </p>
            <img src='./assets/img/instructions/2seconds.jpg' class='instructions-image'>","","instructions","","","","","","","","","","","","","",""
"learning-instructions","12","183225","0.0-3.0-1.0-0.7","spark_pilot_2","7324","2","12","Male","","","","","","","2113.4000000953674","<p> Let’s try practicing that now! </p>
            <p> When you see a picture of the place you are in, press the <b>up</b> key to travel up. </p>
            <img src='./assets/img/instructions/pressUp.jpg' class='instructions-image'>","","instructions","","","","","","","","","","","","","",""
"revaluation","13","187277","0.0-3.0-2.0-0.0","spark_pilot_2","7324","2","12","Male","","false","","","","","[1232.2999997138977]","./assets/img/space/0.jpg","[""ArrowUp""]","first stage practice","space","0","null","null","ArrowUp","false","","","","","","","",""
"html-keyboard-response","14","187787","0.0-3.0-2.0-1.0","spark_pilot_2","7324","2","12","Male","","","","","","","null","<div style=""font-size:60px;"">+</div>","null","fixation","","","","","","","","","","","","","",""
"revaluation","15","191819","0.0-3.0-2.0-0.1","spark_pilot_2","7324","2","12","Male","","true","","","","","[]","./assets/img/space/1.jpg","[]","first stage practice","space","-5","null","null","","false","","","","","","","",""
"html-keyboard-response","16","192324","0.0-3.0-2.0-1.1","spark_pilot_2","7324","2","12","Male","","","","","","","null","<div style=""font-size:60px;"">+</div>","null","fixation","","","","","","","","","","","","","",""
"revaluation","17","196356","0.0-3.0-2.0-0.2","spark_pilot_2","7324","2","12","Male","","true","","","","","[]","./assets/img/space/2.jpg","[]","first stage practice","space","-5","null","null","","false","","","","","","","",""
"html-keyboard-response","18","196859","0.0-3.0-2.0-1.2","spark_pilot_2","7324","2","12","Male","","","","","","","null","<div style=""font-size:60px;"">+</div>","null","fixation","","","","","","","","","","","","","",""
"learning-instructions","19","205006","0.0-3.0-3.0-0.0","spark_pilot_2","7324","2","12","Male","","","","","","","3424.699999809265","<p> Great job! Now try pressing the <b>down</b> key to travel down. </p>
            <img src='./assets/img/instructions/pressDown.jpg' class='instructions-image'>","","instructions","","","","","","","","","","","","","",""
"revaluation","20","209020","0.0-3.0-4.0-0.0","spark_pilot_2","7324","2","12","Male","","false","","","","","[813.6999998092651]","./assets/img/space/3.jpg","[""ArrowDown""]","first stage practice","space","0","null","null","ArrowDown","false","","","","","","","",""
"html-keyboard-response","21","209523","0.0-3.0-4.0-1.0","spark_pilot_2","7324","2","12","Male","","","","","","","null","<div style=""font-size:60px;"">+</div>","null","fixation","","","","","","","","","","","","","",""
"revaluation","22","213557","0.0-3.0-4.0-0.1","spark_pilot_2","7324","2","12","Male","","false","","","","","[666.7000002861023]","./assets/img/space/4.jpg","[""ArrowDown""]","first stage practice","space","0","null","null","ArrowDown","false","","","","","","","",""
"html-keyboard-response","23","214060","0.0-3.0-4.0-1.1","spark_pilot_2","7324","2","12","Male","","","","","","","null","<div style=""font-size:60px;"">+</div>","null","fixation","","","","","","","","","","","","","",""
"revaluation","24","218078","0.0-3.0-4.0-0.2","spark_pilot_2","7324","2","12","Male","","false","","","","","[640.7000002861023]","./assets/img/space/5.jpg","[""ArrowDown""]","first stage practice","space","0","null","null","ArrowDown","false","","","","","","","",""
"html-keyboard-response","25","218588","0.0-3.0-4.0-1.2","spark_pilot_2","7324","2","12","Male","","","","","","","null","<div style=""font-size:60px;"">+</div>","null","fixation","","","","","","","","","","","","","",""
"learning-instructions","26","230576","0.0-3.0-5.0-0.0","spark_pilot_2","7324","2","12","Male","","","","","","","2074.0999999046326","<p> The animals don’t move, so the animal in the upper part of a place will stay in the upper part of a place, and the animal in the lower part of a place will stay in the lower part of a place. </p>","","instructions","","","","","","","","","","","","","",""
"learning-instructions","27","242328","0.0-3.0-5.0-0.1","spark_pilot_2","7324","2","12","Male","","","","","","","2578.4000000953674","<p> Each animal has two treasure chests for you to choose from. </p>
            <p> The amount of treasure in each chest can range from <b> 0 to 40 pieces.</b></p>","","instructions","","","","","","","","","","","","","",""
"learning-instructions","28","261585","0.0-3.0-5.0-0.2","spark_pilot_2","7324","2","12","Male","","","","","","","8023.699999809265","<p> You should decide which chest to search for treasure by using the <b>left</b> and <b>right</b> arrow keys. </p>
            <p><b> Pay attention to which animal is on the screen, as the animals have different treasure chests. </b></p>
            <img src='./assets/img/instructions/leftright.jpg' class='instructions-image'>","","instructions","","","","","","","","","","","","","",""
"learning-instructions","29","269756","0.0-3.0-5.0-0.3","spark_pilot_2","7324","2","12","Male","","","","","","","1737.7000002861023","<p> Let’s try practicing that now. </p>
            <p> When you see an animal, choose which chest to search for treasure. </p>
            <img src='./assets/img/instructions/chooseChest.jpg' class='instructions-image'>","","instructions","","","","","","","","","","","","","",""
"revaluation","30","273797","0.0-3.0-6.0-0.0","spark_pilot_2","7324","2","12","Male","","false","","","","","[1742.5]","./assets/img/space/animals/cat.jpg","[""ArrowLeft""]","second stage practice","space","3","{""ArrowUp,ArrowLeft"":3,""ArrowUp,ArrowRight"":36,""ArrowDown,ArrowLeft"":15,""ArrowDown,ArrowRight"":23}","false","ArrowUp,ArrowLeft","","","","","","","","",""
"html-keyboard-response","31","274301","0.0-3.0-6.0-1.0","spark_pilot_2","7324","2","12","Male","","","","","","","null","<div style=""font-size:60px;"">+</div>","null","fixation","","","","","","","","","","","","","",""
"revaluation","32","278318","0.0-3.0-6.0-0.1","spark_pilot_2","7324","2","12","Male","","false","","","","","[606.3000001907349]","./assets/img/space/animals/rabbit.jpg","[""ArrowRight""]","second stage practice","space","23","{""ArrowUp,ArrowLeft"":3,""ArrowUp,ArrowRight"":36,""ArrowDown,ArrowLeft"":15,""ArrowDown,ArrowRight"":23}","true","ArrowDown,ArrowRight","","","","","","","","",""
"html-keyboard-response","33","278821","0.0-3.0-6.0-1.1","spark_pilot_2","7324","2","12","Male","","","","","","","null","<div style=""font-size:60px;"">+</div>","null","fixation","","","","","","","","","","","","","",""
"revaluation","34","282846","0.0-3.0-6.0-0.2","spark_pilot_2","7324","2","12","Male","","false","","","","","[1390.5999999046326]","./assets/img/space/animals/cat.jpg","[""ArrowLeft""]","second stage practice","space","3","{""ArrowUp,ArrowLeft"":3,""ArrowUp,ArrowRight"":36,""ArrowDown,ArrowLeft"":15,""ArrowDown,ArrowRight"":23}","false","ArrowUp,ArrowLeft","","","","","","","","",""
"html-keyboard-response","35","283349","0.0-3.0-6.0-1.2","spark_pilot_2","7324","2","12","Male","","","","","","","null","<div style=""font-size:60px;"">+</div>","null","fixation","","","","","","","","","","","","","",""
"revaluation","36","287374","0.0-3.0-6.0-0.3","spark_pilot_2","7324","2","12","Male","","false","","","","","[1530]","./assets/img/space/animals/rabbit.jpg","[""ArrowRight""]","second stage practice","space","23","{""ArrowUp,ArrowLeft"":3,""ArrowUp,ArrowRight"":36,""ArrowDown,ArrowLeft"":15,""ArrowDown,ArrowRight"":23}","true","ArrowDown,ArrowRight","","","","","","","","",""
"html-keyboard-response","37","287885","0.0-3.0-6.0-1.3","spark_pilot_2","7324","2","12","Male","","","","","","","null","<div style=""font-size:60px;"">+</div>","null","fixation","","","","","","","","","","","","","",""
"learning-instructions","38","309655","0.0-3.0-7.0-0.0","spark_pilot_2","7324","2","12","Male","","","","","","","4907.700000286102","<p> Great job. Now let’s try putting it together. </p>
            <p> On each turn, you will first see a picture to remind you of the place you are in, and you need to choose whether to go up or down. </p>
            <p> Then you will see an animal and choose which of its chests to search for treasure. </p>","","instructions","","","","","","","","","","","","","",""
"learning-instructions","39","320823","0.0-3.0-7.0-0.1","spark_pilot_2","7324","2","12","Male","","","","","","","2796.300000190735","<p> When you choose whether to go up or down, try to go to the animal with the chest with the most treasure. </p>
            <p> Try practicing that now! </p>","","instructions","","","","","","","","","","","","","",""
"revaluation","40","326839","0.0-3.0-8.0-0.0","spark_pilot_2","7324","2","12","Male","","true","","","","","[1584.5]","./assets/img/space/6.jpg","[""ArrowUp""]","full practice","space","-5","{""ArrowUp,ArrowLeft"":3,""ArrowUp,ArrowRight"":36,""ArrowDown,ArrowLeft"":15,""ArrowDown,ArrowRight"":23}","false","ArrowUp","false","","","","","","","",""
"html-keyboard-response","41","327349","0.0-3.0-8.0-1.0","spark_pilot_2","7324","2","12","Male","","","","","","","null","<div style=""font-size:60px;"">+</div>","null","fixation","","","","","","","","","","","","","",""
"revaluation","42","333369","0.0-3.0-8.0-0.1","spark_pilot_2","7324","2","12","Male","","false","","","","","[916.5999999046326,1352.6000003814697]","./assets/img/space/7.jpg","[""ArrowDown"",""ArrowLeft""]","full practice","space","15","{""ArrowUp,ArrowLeft"":3,""ArrowUp,ArrowRight"":36,""ArrowDown,ArrowLeft"":15,""ArrowDown,ArrowRight"":23}","false","ArrowDown,ArrowLeft","false","","","","","","","",""
"html-keyboard-response","43","333872","0.0-3.0-8.0-1.1","spark_pilot_2","7324","2","12","Male","","","","","","","null","<div style=""font-size:60px;"">+</div>","null","fixation","","","","","","","","","","","","","",""
"revaluation","44","339912","0.0-3.0-8.0-0.2","spark_pilot_2","7324","2","12","Male","","false","","","","","[728.0999999046326,574.1999998092651]","./assets/img/space/8.jpg","[""ArrowUp"",""ArrowRight""]","full practice","space","36","{""ArrowUp,ArrowLeft"":3,""ArrowUp,ArrowRight"":36,""ArrowDown,ArrowLeft"":15,""ArrowDown,ArrowRight"":23}","true","ArrowUp,ArrowRight","false","","","","","","","",""
"html-keyboard-response","45","340416","0.0-3.0-8.0-1.2","spark_pilot_2","7324","2","12","Male","","","","","","","null","<div style=""font-size:60px;"">+</div>","null","fixation","","","","","","","","","","","","","",""
"revaluation","46","346440","0.0-3.0-8.0-0.3","spark_pilot_2","7324","2","12","Male","","false","","","","","[934.5999999046326,676.4000000953674]","./assets/img/space/9.jpg","[""ArrowDown"",""ArrowLeft""]","full practice","space","15","{""ArrowUp,ArrowLeft"":3,""ArrowUp,ArrowRight"":36,""ArrowDown,ArrowLeft"":15,""ArrowDown,ArrowRight"":23}","false","ArrowDown,ArrowLeft","false","","","","","","","",""
"html-keyboard-response","47","346945","0.0-3.0-8.0-1.3","spark_pilot_2","7324","2","12","Male","","","","","","","null","<div style=""font-size:60px;"">+</div>","null","fixation","","","","","","","","","","","","","",""
"revaluation","48","352977","0.0-3.0-8.0-0.4","spark_pilot_2","7324","2","12","Male","","false","","","","","[631,509.5]","./assets/img/space/10.jpg","[""ArrowUp"",""ArrowRight""]","full practice","space","36","{""ArrowUp,ArrowLeft"":3,""ArrowUp,ArrowRight"":36,""ArrowDown,ArrowLeft"":15,""ArrowDown,ArrowRight"":23}","true","ArrowUp,ArrowRight","false","","","","","","","",""
"html-keyboard-response","49","353480","0.0-3.0-8.0-1.4","spark_pilot_2","7324","2","12","Male","","","","","","","null","<div style=""font-size:60px;"">+</div>","null","fixation","","","","","","","","","","","","","",""
"learning-instructions","50","366902","0.0-3.0-9.0-0.0","spark_pilot_2","7324","2","12","Male","","","","","","","2996.9000000953674","<p> One last thing: sometimes, you will see a robber. The robber can be anywhere in the picture. </p>
            <p> If you do not stop them, you will lose treasure. </p>
            <img src='./assets/img/instructions/robber.jpg' class='instructions-image'>","","instructions","","","","","","","","","","","","","",""
"learning-instructions","51","375754","0.0-3.0-9.0-0.1","spark_pilot_2","7324","2","12","Male","","","","","","","1657.5","<p> If you see the robber, you should <b>press the space bar</b> rather than using the arrow keys. </p>
            <p> Try practicing that now! </p>","","instructions","","","","","","","","","","","","","",""
"revaluation","52","379777","0.0-3.0-10.0-0.0","spark_pilot_2","7324","2","12","Male","","false","","","","","[779.4000000953674]","./assets/img/space/catch/0.jpg","[""spaceBar""]","catch practice","space","0","{""ArrowUp,ArrowLeft"":3,""ArrowUp,ArrowRight"":36,""ArrowDown,ArrowLeft"":15,""ArrowDown,ArrowRight"":23}","true","spaceBar","true","","","","","","","",""
"html-keyboard-response","53","380288","0.0-3.0-10.0-1.0","spark_pilot_2","7324","2","12","Male","","","","","","","null","<div style=""font-size:60px;"">+</div>","null","fixation","","","","","","","","","","","","","",""
"revaluation","54","384304","0.0-3.0-10.0-0.1","spark_pilot_2","7324","2","12","Male","","false","","","","","[1117.1999998092651]","./assets/img/space/catch/1.jpg","[""spaceBar""]","catch practice","space","0","{""ArrowUp,ArrowLeft"":3,""ArrowUp,ArrowRight"":36,""ArrowDown,ArrowLeft"":15,""ArrowDown,ArrowRight"":23}","true","spaceBar","true","","","","","","","",""
"html-keyboard-response","55","384809","0.0-3.0-10.0-1.1","spark_pilot_2","7324","2","12","Male","","","","","","","null","<div style=""font-size:60px;"">+</div>","null","fixation","","","","","","","","","","","","","",""
"revaluation","56","388832","0.0-3.0-10.0-0.2","spark_pilot_2","7324","2","12","Male","","false","","","","","[430.30000019073486]","./assets/img/space/catch/2.jpg","[""spaceBar""]","catch practice","space","0","{""ArrowUp,ArrowLeft"":3,""ArrowUp,ArrowRight"":36,""ArrowDown,ArrowLeft"":15,""ArrowDown,ArrowRight"":23}","true","spaceBar","true","","","","","","","",""
"html-keyboard-response","57","389336","0.0-3.0-10.0-1.2","spark_pilot_2","7324","2","12","Male","","","","","","","null","<div style=""font-size:60px;"">+</div>","null","fixation","","","","","","","","","","","","","",""
"learning-instructions","58","404321","0.0-3.0-11.0-0.0","spark_pilot_2","7324","2","12","Male","","","","","","","1334.7999997138977","<p> After you explore a place to find treasure, it will be time to play a different game. </p>
            <p> During this game, red dots will appear on the screen and fall down slowly. </p>
            <p><b> You must click on them before they reach the bottom. </b></p>
            <img src='./assets/img/instructions/dotGame.jpg' class='instructions-image'>","","instructions","","","","","","","","","","","","","",""
"learning-instructions","59","411168","0.0-3.0-11.0-0.1","spark_pilot_2","7324","2","12","Male","","","","","","","1150.0999999046326","<p> For every dot you click, you will earn additional treasure. </p>
            <p> Let’s try practicing that now. </p>","","instructions","","","","","","","","","","","","","",""
"revaluation","60","426202","0.0-3.0-12.0-0.0","spark_pilot_2","7324","2","12","Male","","","","","","","[144]","","","rest practice","","10","","","","","0","15000","","","","","",""
"learning-instructions","61","436710","0.0-3.0-13.0-0.0-0.0","spark_pilot_2","7324","2","12","Male","","","","","","","5205.5","<p> Now, you will practice a shortened version of the game to get a sense of how it all fits together. </p>","","instructions","","","","","","","","","","","","","",""
"learning-instructions","62","440951","0.0-3.0-13.0-0.0-0.1","spark_pilot_2","7324","2","12","Male","","","","","","","1004.3000001907349","<p>This time you are searching for treasure in outer space.</p>","","instructions","","","","","","","","","","","","","",""
"learning-instructions","63","457333","0.0-3.0-13.0-1.0-0.0","spark_pilot_2","7324","2","12","Male","","","","","","","1554","<p> Remember, when you see a picture of the place, use the up and down keys to <b>find an animal</b>.</p>
            <p> When you encounter an animal, you should use the left and right keys to <b>select a treasure chest</b>.</p>
            <p> Don't forget to look out for the robber! </p>","","instructions","","","","","","","","","","","","","",""
"revaluation","64","463364","0.0-3.0-13.0-2.0-0.0","spark_pilot_2","7324","2","12","Male","","false","","","","","[1033.3000001907349,745.6000003814697]","./assets/img/space/11.jpg","[""ArrowDown"",""ArrowLeft""]","practice block","space","15","{""ArrowUp,ArrowLeft"":3,""ArrowUp,ArrowRight"":36,""ArrowDown,ArrowLeft"":15,""ArrowDown,ArrowRight"":23}","false","ArrowDown,ArrowLeft","false","","","","","","","",""
"html-keyboard-response","65","463867","0.0-3.0-13.0-2.0-1.0","spark_pilot_2","7324","2","12","Male","","","","","","","null","<div style=""font-size:60px;"">+</div>","null","fixation","","","","","","","","","","","","","",""
"revaluation","66","469892","0.0-3.0-13.0-2.0-0.1","spark_pilot_2","7324","2","12","Male","","false","","","","","[835.4000000953674,430.5]","./assets/img/space/12.jpg","[""ArrowUp"",""ArrowRight""]","practice block","space","36","{""ArrowUp,ArrowLeft"":3,""ArrowUp,ArrowRight"":36,""ArrowDown,ArrowLeft"":15,""ArrowDown,ArrowRight"":23}","true","ArrowUp,ArrowRight","false","","","","","","","",""
"html-keyboard-response","67","470395","0.0-3.0-13.0-2.0-1.1","spark_pilot_2","7324","2","12","Male","","","","","","","null","<div style=""font-size:60px;"">+</div>","null","fixation","","","","","","","","","","","","","",""
"revaluation","68","476421","0.0-3.0-13.0-2.0-0.2","spark_pilot_2","7324","2","12","Male","","false","","","","","[452.69999980926514,774.7000002861023]","./assets/img/space/13.jpg","[""ArrowDown"",""ArrowLeft""]","practice block","space","15","{""ArrowUp,ArrowLeft"":3,""ArrowUp,ArrowRight"":36,""ArrowDown,ArrowLeft"":15,""ArrowDown,ArrowRight"":23}","false","ArrowDown,ArrowLeft","false","","","","","","","",""
"html-keyboard-response","69","476932","0.0-3.0-13.0-2.0-1.2","spark_pilot_2","7324","2","12","Male","","","","","","","null","<div style=""font-size:60px;"">+</div>","null","fixation","","","","","","","","","","","","","",""
"revaluation","70","482963","0.0-3.0-13.0-2.0-0.3","spark_pilot_2","7324","2","12","Male","","false","","","","","[409.09999990463257,406]","./assets/img/space/14.jpg","[""ArrowDown"",""ArrowRight""]","practice block","space","23","{""ArrowUp,ArrowLeft"":3,""ArrowUp,ArrowRight"":36,""ArrowDown,ArrowLeft"":15,""ArrowDown,ArrowRight"":23}","false","ArrowDown,ArrowRight","false","","","","","","","",""
"html-keyboard-response","71","483467","0.0-3.0-13.0-2.0-1.3","spark_pilot_2","7324","2","12","Male","","","","","","","null","<div style=""font-size:60px;"">+</div>","null","fixation","","","","","","","","","","","","","",""
"revaluation","72","489492","0.0-3.0-13.0-2.0-0.4","spark_pilot_2","7324","2","12","Male","","false","","","","","[705.1999998092651,498.19999980926514]","./assets/img/space/11.jpg","[""ArrowDown"",""ArrowRight""]","practice block","space","23","{""ArrowUp,ArrowLeft"":3,""ArrowUp,ArrowRight"":36,""ArrowDown,ArrowLeft"":15,""ArrowDown,ArrowRight"":23}","false","ArrowDown,ArrowRight","false","","","","","","","",""
"html-keyboard-response","73","489995","0.0-3.0-13.0-2.0-1.4","spark_pilot_2","7324","2","12","Male","","","","","","","null","<div style=""font-size:60px;"">+</div>","null","fixation","","","","","","","","","","","","","",""
"revaluation","74","496028","0.0-3.0-13.0-2.0-0.5","spark_pilot_2","7324","2","12","Male","","false","","","","","[437.80000019073486,290.6000003814697]","./assets/img/space/12.jpg","[""ArrowUp"",""ArrowRight""]","practice block","space","36","{""ArrowUp,ArrowLeft"":3,""ArrowUp,ArrowRight"":36,""ArrowDown,ArrowLeft"":15,""ArrowDown,ArrowRight"":23}","true","ArrowUp,ArrowRight","false","","","","","","","",""
"html-keyboard-response","75","496540","0.0-3.0-13.0-2.0-1.5","spark_pilot_2","7324","2","12","Male","","","","","","","null","<div style=""font-size:60px;"">+</div>","null","fixation","","","","","","","","","","","","","",""
"revaluation","76","502573","0.0-3.0-13.0-2.0-0.6","spark_pilot_2","7324","2","12","Male","","false","","","","","[442.80000019073486,325.90000009536743]","./assets/img/space/13.jpg","[""ArrowUp"",""ArrowRight""]","practice block","space","36","{""ArrowUp,ArrowLeft"":3,""ArrowUp,ArrowRight"":36,""ArrowDown,ArrowLeft"":15,""ArrowDown,ArrowRight"":23}","true","ArrowUp,ArrowRight","false","","","","","","","",""
"html-keyboard-response","77","503084","0.0-3.0-13.0-2.0-1.6","spark_pilot_2","7324","2","12","Male","","","","","","","null","<div style=""font-size:60px;"">+</div>","null","fixation","","","","","","","","","","","","","",""
"revaluation","78","509117","0.0-3.0-13.0-2.0-0.7","spark_pilot_2","7324","2","12","Male","","false","","","","","[525.3000001907349,321.2000002861023]","./assets/img/space/14.jpg","[""ArrowUp"",""ArrowLeft""]","practice block","space","3","{""ArrowUp,ArrowLeft"":3,""ArrowUp,ArrowRight"":36,""ArrowDown,ArrowLeft"":15,""ArrowDown,ArrowRight"":23}","false","ArrowUp,ArrowLeft","false","","","","","","","",""
"html-keyboard-response","79","509627","0.0-3.0-13.0-2.0-1.7","spark_pilot_2","7324","2","12","Male","","","","","","","null","<div style=""font-size:60px;"">+</div>","null","fixation","","","","","","","","","","","","","",""
"revaluation","80","513652","0.0-3.0-13.0-2.0-0.8","spark_pilot_2","7324","2","12","Male","","false","","","","","[482.09999990463257]","./assets/img/space/catch/3.jpg","[""ArrowDown""]","practice block","space","-10","{""ArrowUp,ArrowLeft"":3,""ArrowUp,ArrowRight"":36,""ArrowDown,ArrowLeft"":15,""ArrowDown,ArrowRight"":23}","false","ArrowDown","true","","","","","","","",""
"html-keyboard-response","81","514163","0.0-3.0-13.0-2.0-1.8","spark_pilot_2","7324","2","12","Male","","","","","","","null","<div style=""font-size:60px;"">+</div>","null","fixation","","","","","","","","","","","","","",""
"learning-instructions","82","529388","0.0-3.0-13.0-3.0-0.0","spark_pilot_2","7324","2","12","Male","","","","","","","2195.800000190735","<p> Now, you will travel with a friend who will choose whether you go up or down first. </p>
            <p> On these turns, you will just see the animal that they found. You will still get to choose which chest to search for treasure.</p>","","instructions","","","","","","","","","","","","","",""
"revaluation","83","533408","0.0-3.0-13.0-4.0-0.0","spark_pilot_2","7324","2","12","Male","","false","","","","","[894]","./assets/img/space/animals/rabbit.jpg","[""ArrowRight""]","practice block","space","23","{""ArrowUp,ArrowLeft"":3,""ArrowUp,ArrowRight"":36,""ArrowDown,ArrowLeft"":15,""ArrowDown,ArrowRight"":23}","true","ArrowDown,ArrowRight","","","","","","","","",""
"html-keyboard-response","84","533917","0.0-3.0-13.0-4.0-1.0","spark_pilot_2","7324","2","12","Male","","","","","","","null","<div style=""font-size:60px;"">+</div>","null","fixation","","","","","","","","","","","","","",""
"revaluation","85","537943","0.0-3.0-13.0-4.0-0.1","spark_pilot_2","7324","2","12","Male","","false","","","","","[464.59999990463257]","./assets/img/space/animals/cat.jpg","[""ArrowLeft""]","practice block","space","3","{""ArrowUp,ArrowLeft"":3,""ArrowUp,ArrowRight"":36,""ArrowDown,ArrowLeft"":15,""ArrowDown,ArrowRight"":23}","false","ArrowUp,ArrowLeft","","","","","","","","",""
"html-keyboard-response","86","538453","0.0-3.0-13.0-4.0-1.1","spark_pilot_2","7324","2","12","Male","","","","","","","null","<div style=""font-size:60px;"">+</div>","null","fixation","","","","","","","","","","","","","",""
"revaluation","87","542479","0.0-3.0-13.0-4.0-0.2","spark_pilot_2","7324","2","12","Male","","false","","","","","[442]","./assets/img/space/animals/rabbit.jpg","[""ArrowRight""]","practice block","space","23","{""ArrowUp,ArrowLeft"":3,""ArrowUp,ArrowRight"":36,""ArrowDown,ArrowLeft"":15,""ArrowDown,ArrowRight"":23}","true","ArrowDown,ArrowRight","","","","","","","","",""
"html-keyboard-response","88","542989","0.0-3.0-13.0-4.0-1.2","spark_pilot_2","7324","2","12","Male","","","","","","","null","<div style=""font-size:60px;"">+</div>","null","fixation","","","","","","","","","","","","","",""
"revaluation","89","547030","0.0-3.0-13.0-4.0-0.3","spark_pilot_2","7324","2","12","Male","","false","","","","","[457.19999980926514]","./assets/img/space/animals/cat.jpg","[""ArrowRight""]","practice block","space","36","{""ArrowUp,ArrowLeft"":3,""ArrowUp,ArrowRight"":36,""ArrowDown,ArrowLeft"":15,""ArrowDown,ArrowRight"":23}","true","ArrowUp,ArrowRight","","","","","","","","",""
"html-keyboard-response","90","547533","0.0-3.0-13.0-4.0-1.3","spark_pilot_2","7324","2","12","Male","","","","","","","null","<div style=""font-size:60px;"">+</div>","null","fixation","","","","","","","","","","","","","",""
"learning-instructions","91","556003","0.0-3.0-13.0-5.0-0.0","spark_pilot_2","7324","2","12","Male","","","","","","","1063.7000002861023","<p> Time to play the dot game! </p>
            <p> For 15 seconds, click the red dots on the following screen as they appear. </p>","","instructions","","","","","","","","","","","","","",""
"revaluation","92","571012","0.0-3.0-13.0-6.0-0.0","spark_pilot_2","7324","2","12","Male","","","","","","","[85]","","","rest practice","","10","","","","","0","15000","","","","","",""
"learning-instructions","93","579201","0.0-3.0-13.0-7.0-0.0","spark_pilot_2","7324","2","12","Male","","","","","","","1993","<p> You have almost finished this part of the game! </p>
            <p> We are going to ask you to make a few more choices. </p>","","instructions","","","","","","","","","","","","","",""
"learning-instructions","94","595622","0.0-3.0-13.0-7.0-0.1","spark_pilot_2","7324","2","12","Male","","","","","","","2347.5","<p> First, you need to decide whether to go up or down. When you see each picture, use the arrow keys to make your choice. </p>
            <p><b>You will not see which animal you found, but try to get to the one that will give you the most treasure.</b></p>","","instructions","","","","","","","","","","","","","",""
"revaluation","95","597524","0.0-3.0-13.0-8.0","spark_pilot_2","7324","2","12","Male","","false","","","","","[1888.6999998092651]","./assets/img/space/15.jpg","[""ArrowDown""]","practice block","space","0","{""ArrowUp,ArrowLeft"":3,""ArrowUp,ArrowRight"":36,""ArrowDown,ArrowLeft"":15,""ArrowDown,ArrowRight"":23}","false","ArrowDown","false","","","","","","","",""
"html-keyboard-response","96","598039","0.0-3.0-13.0-9.0","spark_pilot_2","7324","2","12","Male","","","","","","","null","<div style=""font-size:60px;"">+</div>","null","fixation","","","","","","","","","","","","","",""
"learning-instructions","97","611719","0.0-3.0-13.0-10.0-0.0","spark_pilot_2","7324","2","12","Male","","","","","","","2231.7999997138977","<p> Now you will see the animals again and can search their chests for treasure. </p>
            <p> This time, you will not see how much treasure you earned, but you will earn more bonus money for making better choices. </p>","","instructions","","","","","","","","","","","","","",""
"revaluation","98","612655","0.0-3.0-13.0-11.0-0.0","spark_pilot_2","7324","2","12","Male","","false","","","","","[930.4000000953674]","./assets/img/space/animals/cat.jpg","[""ArrowRight""]","practice block","space","0","{""ArrowUp,ArrowLeft"":3,""ArrowUp,ArrowRight"":36,""ArrowDown,ArrowLeft"":15,""ArrowDown,ArrowRight"":23}","true","ArrowUp,ArrowRight","","","","","","","","",""
"html-keyboard-response","99","613158","0.0-3.0-13.0-11.0-1.0","spark_pilot_2","7324","2","12","Male","","","","","","","null","<div style=""font-size:60px;"">+</div>","null","fixation","","","","","","","","","","","","","",""
"revaluation","100","613876","0.0-3.0-13.0-11.0-0.1","spark_pilot_2","7324","2","12","Male","","false","","","","","[703.7000002861023]","./assets/img/space/animals/rabbit.jpg","[""ArrowRight""]","practice block","space","0","{""ArrowUp,ArrowLeft"":3,""ArrowUp,ArrowRight"":36,""ArrowDown,ArrowLeft"":15,""ArrowDown,ArrowRight"":23}","true","ArrowDown,ArrowRight","","","","","","","","",""
"html-keyboard-response","101","614381","0.0-3.0-13.0-11.0-1.1","spark_pilot_2","7324","2","12","Male","","","","","","","null","<div style=""font-size:60px;"">+</div>","null","fixation","","","","","","","","","","","","","",""
"learning-instructions","102","620660","0.0-3.0-14.0-0.0","spark_pilot_2","7324","2","12","Male","","","","","","","1541.3000001907349","<p> Before you start, we're going to ask you a few questions about how the game works. </p>","","instructions","","","","","","","","","","","","","",""
"comp-q","103","628372","0.0-3.0-15.0-0.0-0.0","spark_pilot_2","7324","2","12","Male","","","","","","","2067.9000000953674","<p> <b> True or False? </b> </p>
            <p> There can be 50 pieces of treasure in a given animal's chest. </p>","1","comp_question","","","","true","","","","","","","","","",""
"comp-q","104","636134","0.0-3.0-15.0-0.0-1.0","spark_pilot_2","7324","2","12","Male","","","","","","","1066.5","<p> <b> That's right! </b> The amount of treasure in each chest can range from 0 to 40 pieces. </p>","0","comp_answer","","","","","","","","","","","","","",""
"comp-q","105","644168","0.0-3.0-15.0-0.1-0.1","spark_pilot_2","7324","2","12","Male","","","","","","","879.8000001907349","<p> <b> True or False? </b> </p><p> In this game, all animals have the same amount of treasure in their left and right chests. </p>","1","comp_question","","","","true","","","","","","","","","",""
"comp-q","106","651593","0.0-3.0-15.0-0.1-1.1","spark_pilot_2","7324","2","12","Male","","","","","","","2143.2000002861023","<p> <b> That's right! </b> Animals have different amounts of treasure in their treasure chests. </p>","0","comp_answer","","","","","","","","","","","","","",""
"comp-q","107","659546","0.0-3.0-15.0-0.2-0.2","spark_pilot_2","7324","2","12","Male","","","","","","","2045.7999997138977","<p> <b> True or False? </b> </p><p> The same animal will always be there if you go up in the same place. </p>","0","comp_question","","","","true","","","","","","","","","",""
"comp-q","108","667512","0.0-3.0-15.0-0.2-1.2","spark_pilot_2","7324","2","12","Male","","","","","","","1461.5","<p> <b> That's right! </b> One animal lives in the upper part and one lives in the lower part of every place. </p>","0","comp_answer","","","","","","","","","","","","","",""
"comp-q","109","675206","0.0-3.0-15.0-0.3-0.3","spark_pilot_2","7324","2","12","Male","","","","","","","2147.199999809265","<p> <b> True or False? </b> </p><p> If you see a different picture, it means you are in a new place. </p>","1","comp_question","","","","true","","","","","","","","","",""
"comp-q","110","687440","0.0-3.0-15.0-0.3-1.3","spark_pilot_2","7324","2","12","Male","","","","","","","969.0999999046326","<p> <b> That's right! </b> Lots of different images may show the same place. For example,  you may see three different images that all remind you that you are in outer space. </p>","0","comp_answer","","","","","","","","","","","","","",""
"learning-instructions","111","703823","0.0-3.0-16.0-0.0","spark_pilot_2","7324","2","12","Male","","","","","","","6483.199999809265","<p> Good job. Remember to do your best because the amount of treasure you earn will be converted into bonus money. </p>
            <p> It’s time to start the real game! </p>","","instructions","","","","","","","","","","","","","",""
"learning-instructions","112","707784","0.0-4.0-0.0-0.0","spark_pilot_2","7324","2","12","Male","","","","","","","1204.7999997138977","<p> This time you are searching for treasure in the <b>ocean</b>.</p>","","instructions","","","","","","","","","","","","","",""
"learning-instructions","113","726209","0.0-4.0-0.0-0.1","spark_pilot_2","7324","2","12","Male","","","","","","","1041.4000000953674","<p><b>New</b> animals with <b>new</b> treasure chests live here. You need to explore to discover where the animal with the best treasure chest is.</p>
                    <p> Like before, once you figure out which animal has the chest with the most treasure, you should try to get to that animal and select that chest! </p>","","instructions","","","","","","","","","","","","","",""
"learning-instructions","114","751661","0.0-4.0-1.0-0.0","spark_pilot_2","7324","2","12","Male","","","","","","","10720.199999809265","<p> Remember, when you see a picture of the place, use the up and down keys to <b>find an animal</b>.</p>
            <p> When you encounter an animal, you should use the left and right keys to <b>select a treasure chest</b>.</p>
            <p> Don't forget to look out for the robber! </p>","","instructions","","","","","","","","","","","","","",""
"revaluation","115","757682","0.0-4.0-2.0-0.0","spark_pilot_2","7324","2","12","Male","","false","","","","","[1283.8000001907349,902.1999998092651]","./assets/img/ocean/memory/0.jpg","[""ArrowDown"",""ArrowRight""]","value training","ocean","30","{""ArrowUp,ArrowLeft"":23,""ArrowUp,ArrowRight"":10,""ArrowDown,ArrowLeft"":8,""ArrowDown,ArrowRight"":30}","true","ArrowDown,ArrowRight","false","","","revaluation","1","0","","",""
"html-keyboard-response","116","758201","0.0-4.0-2.0-1.0","spark_pilot_2","7324","2","12","Male","","","","","","","null","<div style=""font-size:60px;"">+</div>","null","fixation","","","","","","","","","","","1","","",""
"revaluation","117","764235","0.0-4.0-2.0-0.1","spark_pilot_2","7324","2","12","Male","","false","","","","","[831.1999998092651,513.9000000953674]","./assets/img/ocean/memory/38.jpg","[""ArrowUp"",""ArrowLeft""]","value training","ocean","23","{""ArrowUp,ArrowLeft"":23,""ArrowUp,ArrowRight"":10,""ArrowDown,ArrowLeft"":8,""ArrowDown,ArrowRight"":30}","false","ArrowUp,ArrowLeft","false","","","revaluation","1","2","","",""
"html-keyboard-response","118","764745","0.0-4.0-2.0-1.1","spark_pilot_2","7324","2","12","Male","","","","","","","null","<div style=""font-size:60px;"">+</div>","null","fixation","","","","","","","","","","","3","","",""
"revaluation","119","770779","0.0-4.0-2.0-0.2","spark_pilot_2","7324","2","12","Male","","false","","","","","[477.40000009536743,263.40000009536743]","./assets/img/ocean/memory/33.jpg","[""ArrowDown"",""ArrowRight""]","value training","ocean","30","{""ArrowUp,ArrowLeft"":23,""ArrowUp,ArrowRight"":10,""ArrowDown,ArrowLeft"":8,""ArrowDown,ArrowRight"":30}","true","ArrowDown,ArrowRight","false","","","revaluation","1","4","","",""
"html-keyboard-response","120","771282","0.0-4.0-2.0-1.2","spark_pilot_2","7324","2","12","Male","","","","","","","null","<div style=""font-size:60px;"">+</div>","null","fixation","","","","","","","","","","","5","","",""
"revaluation","121","777314","0.0-4.0-2.0-0.3","spark_pilot_2","7324","2","12","Male","","false","","","","","[731.6000003814697,424.8999996185303]","./assets/img/ocean/memory/1.jpg","[""ArrowUp"",""ArrowRight""]","value training","ocean","10","{""ArrowUp,ArrowLeft"":23,""ArrowUp,ArrowRight"":10,""ArrowDown,ArrowLeft"":8,""ArrowDown,ArrowRight"":30}","false","ArrowUp,ArrowRight","false","","","revaluation","1","6","","",""
"html-keyboard-response","122","777818","0.0-4.0-2.0-1.3","spark_pilot_2","7324","2","12","Male","","","","","","","null","<div style=""font-size:60px;"">+</div>","null","fixation","","","","","","","","","","","7","","",""
"revaluation","123","781844","0.0-4.0-2.0-0.4","spark_pilot_2","7324","2","12","Male","","false","","","","","[424.5]","./assets/img/ocean/catch/4.jpg","[""ArrowDown""]","value training","ocean","-10","{""ArrowUp,ArrowLeft"":23,""ArrowUp,ArrowRight"":10,""ArrowDown,ArrowLeft"":8,""ArrowDown,ArrowRight"":30}","false","ArrowDown","true","","","revaluation","1","8","","",""
"html-keyboard-response","124","782355","0.0-4.0-2.0-1.4","spark_pilot_2","7324","2","12","Male","","","","","","","null","<div style=""font-size:60px;"">+</div>","null","fixation","","","","","","","","","","","9","","",""
"revaluation","125","788387","0.0-4.0-2.0-0.5","spark_pilot_2","7324","2","12","Male","","false","","","","","[809.2000002861023,441]","./assets/img/ocean/memory/36.jpg","[""ArrowDown"",""ArrowRight""]","value training","ocean","30","{""ArrowUp,ArrowLeft"":23,""ArrowUp,ArrowRight"":10,""ArrowDown,ArrowLeft"":8,""ArrowDown,ArrowRight"":30}","true","ArrowDown,ArrowRight","false","","","revaluation","1","10","","",""
"html-keyboard-response","126","788891","0.0-4.0-2.0-1.5","spark_pilot_2","7324","2","12","Male","","","","","","","null","<div style=""font-size:60px;"">+</div>","null","fixation","","","","","","","","","","","11","","",""
"revaluation","127","794925","0.0-4.0-2.0-0.6","spark_pilot_2","7324","2","12","Male","","false","","","","","[344.30000019073486,497.5]","./assets/img/ocean/memory/1.jpg","[""ArrowUp"",""ArrowLeft""]","value training","ocean","23","{""ArrowUp,ArrowLeft"":23,""ArrowUp,ArrowRight"":10,""ArrowDown,ArrowLeft"":8,""ArrowDown,ArrowRight"":30}","false","ArrowUp,ArrowLeft","false","","","revaluation","1","12","","",""
"html-keyboard-response","128","795434","0.0-4.0-2.0-1.6","spark_pilot_2","7324","2","12","Male","","","","","","","null","<div style=""font-size:60px;"">+</div>","null","fixation","","","","","","","","","","","13","","",""
"revaluation","129","801460","0.0-4.0-2.0-0.7","spark_pilot_2","7324","2","12","Male","","false","","","","","[520.5,458.30000019073486]","./assets/img/ocean/memory/21.jpg","[""ArrowDown"",""ArrowRight""]","value training","ocean","30","{""ArrowUp,ArrowLeft"":23,""ArrowUp,ArrowRight"":10,""ArrowDown,ArrowLeft"":8,""ArrowDown,ArrowRight"":30}","true","ArrowDown,ArrowRight","false","","","revaluation","1","14","","",""
"html-keyboard-response","130","801971","0.0-4.0-2.0-1.7","spark_pilot_2","7324","2","12","Male","","","","","","","null","<div style=""font-size:60px;"">+</div>","null","fixation","","","","","","","","","","","15","","",""
"revaluation","131","805996","0.0-4.0-2.0-0.8","spark_pilot_2","7324","2","12","Male","","false","","","","","[624.0999999046326]","./assets/img/ocean/catch/6.jpg","[""spaceBar""]","value training","ocean","0","{""ArrowUp,ArrowLeft"":23,""ArrowUp,ArrowRight"":10,""ArrowDown,ArrowLeft"":8,""ArrowDown,ArrowRight"":30}","true","spaceBar","true","","","revaluation","1","16","","",""
"html-keyboard-response","132","806507","0.0-4.0-2.0-1.8","spark_pilot_2","7324","2","12","Male","","","","","","","null","<div style=""font-size:60px;"">+</div>","null","fixation","","","","","","","","","","","17","","",""
"revaluation","133","812547","0.0-4.0-2.0-0.9","spark_pilot_2","7324","2","12","Male","","false","","","","","[401.2999997138977,430.59999990463257]","./assets/img/ocean/memory/24.jpg","[""ArrowDown"",""ArrowRight""]","value training","ocean","30","{""ArrowUp,ArrowLeft"":23,""ArrowUp,ArrowRight"":10,""ArrowDown,ArrowLeft"":8,""ArrowDown,ArrowRight"":30}","true","ArrowDown,ArrowRight","false","","","revaluation","1","18","","",""
"html-keyboard-response","134","813058","0.0-4.0-2.0-1.9","spark_pilot_2","7324","2","12","Male","","","","","","","null","<div style=""font-size:60px;"">+</div>","null","fixation","","","","","","","","","","","19","","",""
"revaluation","135","819097","0.0-4.0-2.0-0.10","spark_pilot_2","7324","2","12","Male","","false","","","","","[568,295.6000003814697]","./assets/img/ocean/memory/38.jpg","[""ArrowDown"",""ArrowRight""]","value training","ocean","30","{""ArrowUp,ArrowLeft"":23,""ArrowUp,ArrowRight"":10,""ArrowDown,ArrowLeft"":8,""ArrowDown,ArrowRight"":30}","true","ArrowDown,ArrowRight","false","","","revaluation","1","20","","",""
"html-keyboard-response","136","819605","0.0-4.0-2.0-1.10","spark_pilot_2","7324","2","12","Male","","","","","","","null","<div style=""font-size:60px;"">+</div>","null","fixation","","","","","","","","","","","21","","",""
"revaluation","137","825636","0.0-4.0-2.0-0.11","spark_pilot_2","7324","2","12","Male","","false","","","","","[654.2999997138977,311.19999980926514]","./assets/img/ocean/memory/40.jpg","[""ArrowDown"",""ArrowLeft""]","value training","ocean","8","{""ArrowUp,ArrowLeft"":23,""ArrowUp,ArrowRight"":10,""ArrowDown,ArrowLeft"":8,""ArrowDown,ArrowRight"":30}","false","ArrowDown,ArrowLeft","false","","","revaluation","1","22","","",""
"html-keyboard-response","138","826146","0.0-4.0-2.0-1.11","spark_pilot_2","7324","2","12","Male","","","","","","","null","<div style=""font-size:60px;"">+</div>","null","fixation","","","","","","","","","","","23","","",""
"revaluation","139","830171","0.0-4.0-2.0-0.12","spark_pilot_2","7324","2","12","Male","","true","","","","","[]","./assets/img/ocean/memory/32.jpg","[]","value training","ocean","-5","{""ArrowUp,ArrowLeft"":23,""ArrowUp,ArrowRight"":10,""ArrowDown,ArrowLeft"":8,""ArrowDown,ArrowRight"":30}","false","","false","","","revaluation","1","24","","",""
"html-keyboard-response","140","830684","0.0-4.0-2.0-1.12","spark_pilot_2","7324","2","12","Male","","","","","","","null","<div style=""font-size:60px;"">+</div>","null","fixation","","","","","","","","","","","25","","",""
"revaluation","141","836717","0.0-4.0-2.0-0.13","spark_pilot_2","7324","2","12","Male","","false","","","","","[455.2000002861023,436.09999990463257]","./assets/img/ocean/memory/30.jpg","[""ArrowUp"",""ArrowRight""]","value training","ocean","10","{""ArrowUp,ArrowLeft"":23,""ArrowUp,ArrowRight"":10,""ArrowDown,ArrowLeft"":8,""ArrowDown,ArrowRight"":30}","false","ArrowUp,ArrowRight","false","","","revaluation","1","26","","",""
"html-keyboard-response","142","837228","0.0-4.0-2.0-1.13","spark_pilot_2","7324","2","12","Male","","","","","","","null","<div style=""font-size:60px;"">+</div>","null","fixation","","","","","","","","","","","27","","",""
"revaluation","143","841251","0.0-4.0-2.0-0.14","spark_pilot_2","7324","2","12","Male","","false","","","","","[451.09999990463257]","./assets/img/ocean/catch/5.jpg","[""ArrowDown""]","value training","ocean","-10","{""ArrowUp,ArrowLeft"":23,""ArrowUp,ArrowRight"":10,""ArrowDown,ArrowLeft"":8,""ArrowDown,ArrowRight"":30}","false","ArrowDown","true","","","revaluation","1","28","","",""
"html-keyboard-response","144","841764","0.0-4.0-2.0-1.14","spark_pilot_2","7324","2","12","Male","","","","","","","null","<div style=""font-size:60px;"">+</div>","null","fixation","","","","","","","","","","","29","","",""
"revaluation","145","847796","0.0-4.0-2.0-0.15","spark_pilot_2","7324","2","12","Male","","false","","","","","[456.1000003814697,563.5]","./assets/img/ocean/memory/8.jpg","[""ArrowDown"",""ArrowLeft""]","value training","ocean","8","{""ArrowUp,ArrowLeft"":23,""ArrowUp,ArrowRight"":10,""ArrowDown,ArrowLeft"":8,""ArrowDown,ArrowRight"":30}","false","ArrowDown,ArrowLeft","false","","","revaluation","1","30","","",""
"html-keyboard-response","146","848298","0.0-4.0-2.0-1.15","spark_pilot_2","7324","2","12","Male","","","","","","","null","<div style=""font-size:60px;"">+</div>","null","fixation","","","","","","","","","","","31","","",""
"revaluation","147","854333","0.0-4.0-2.0-0.16","spark_pilot_2","7324","2","12","Male","","false","","","","","[1292.4000000953674,341.40000009536743]","./assets/img/ocean/memory/41.jpg","[""ArrowDown"",""ArrowRight""]","value training","ocean","30","{""ArrowUp,ArrowLeft"":23,""ArrowUp,ArrowRight"":10,""ArrowDown,ArrowLeft"":8,""ArrowDown,ArrowRight"":30}","true","ArrowDown,ArrowRight","false","","","revaluation","1","32","","",""
"html-keyboard-response","148","854843","0.0-4.0-2.0-1.16","spark_pilot_2","7324","2","12","Male","","","","","","","null","<div style=""font-size:60px;"">+</div>","null","fixation","","","","","","","","","","","33","","",""
"revaluation","149","858869","0.0-4.0-2.0-0.17","spark_pilot_2","7324","2","12","Male","","false","","","","","[493.19999980926514]","./assets/img/ocean/catch/1.jpg","[""spaceBar""]","value training","ocean","0","{""ArrowUp,ArrowLeft"":23,""ArrowUp,ArrowRight"":10,""ArrowDown,ArrowLeft"":8,""ArrowDown,ArrowRight"":30}","true","spaceBar","true","","","revaluation","1","34","","",""
"html-keyboard-response","150","859380","0.0-4.0-2.0-1.17","spark_pilot_2","7324","2","12","Male","","","","","","","null","<div style=""font-size:60px;"">+</div>","null","fixation","","","","","","","","","","","35","","",""
"revaluation","151","865411","0.0-4.0-2.0-0.18","spark_pilot_2","7324","2","12","Male","","false","","","","","[1642.2999997138977,495.90000009536743]","./assets/img/ocean/memory/39.jpg","[""ArrowDown"",""ArrowRight""]","value training","ocean","30","{""ArrowUp,ArrowLeft"":23,""ArrowUp,ArrowRight"":10,""ArrowDown,ArrowLeft"":8,""ArrowDown,ArrowRight"":30}","true","ArrowDown,ArrowRight","false","","","revaluation","1","36","","",""
"html-keyboard-response","152","865914","0.0-4.0-2.0-1.18","spark_pilot_2","7324","2","12","Male","","","","","","","null","<div style=""font-size:60px;"">+</div>","null","fixation","","","","","","","","","","","37","","",""
"revaluation","153","869930","0.0-4.0-2.0-0.19","spark_pilot_2","7324","2","12","Male","","false","","","","","[464.59999990463257]","./assets/img/ocean/catch/2.jpg","[""spaceBar""]","value training","ocean","0","{""ArrowUp,ArrowLeft"":23,""ArrowUp,ArrowRight"":10,""ArrowDown,ArrowLeft"":8,""ArrowDown,ArrowRight"":30}","true","spaceBar","true","","","revaluation","1","38","","",""
"html-keyboard-response","154","870435","0.0-4.0-2.0-1.19","spark_pilot_2","7324","2","12","Male","","","","","","","null","<div style=""font-size:60px;"">+</div>","null","fixation","","","","","","","","","","","39","","",""
"revaluation","155","876461","0.0-4.0-2.0-0.20","spark_pilot_2","7324","2","12","Male","","false","","","","","[409.69999980926514,319.6000003814697]","./assets/img/ocean/memory/0.jpg","[""ArrowDown"",""ArrowRight""]","value training","ocean","30","{""ArrowUp,ArrowLeft"":23,""ArrowUp,ArrowRight"":10,""ArrowDown,ArrowLeft"":8,""ArrowDown,ArrowRight"":30}","true","ArrowDown,ArrowRight","false","","","revaluation","1","40","","",""
"html-keyboard-response","156","876971","0.0-4.0-2.0-1.20","spark_pilot_2","7324","2","12","Male","","","","","","","null","<div style=""font-size:60px;"">+</div>","null","fixation","","","","","","","","","","","41","","",""
"revaluation","157","880996","0.0-4.0-2.0-0.21","spark_pilot_2","7324","2","12","Male","","false","","","","","[419.7999997138977]","./assets/img/ocean/catch/7.jpg","[""ArrowUp""]","value training","ocean","-10","{""ArrowUp,ArrowLeft"":23,""ArrowUp,ArrowRight"":10,""ArrowDown,ArrowLeft"":8,""ArrowDown,ArrowRight"":30}","false","ArrowUp","true","","","revaluation","1","42","","",""
"html-keyboard-response","158","881506","0.0-4.0-2.0-1.21","spark_pilot_2","7324","2","12","Male","","","","","","","null","<div style=""font-size:60px;"">+</div>","null","fixation","","","","","","","","","","","43","","",""
"revaluation","159","887532","0.0-4.0-2.0-0.22","spark_pilot_2","7324","2","12","Male","","false","","","","","[1173.3000001907349,444.59999990463257]","./assets/img/ocean/memory/12.jpg","[""ArrowDown"",""ArrowRight""]","value training","ocean","30","{""ArrowUp,ArrowLeft"":23,""ArrowUp,ArrowRight"":10,""ArrowDown,ArrowLeft"":8,""ArrowDown,ArrowRight"":30}","true","ArrowDown,ArrowRight","false","","","revaluation","1","44","","",""
"html-keyboard-response","160","888043","0.0-4.0-2.0-1.22","spark_pilot_2","7324","2","12","Male","","","","","","","null","<div style=""font-size:60px;"">+</div>","null","fixation","","","","","","","","","","","45","","",""
"revaluation","161","894071","0.0-4.0-2.0-0.23","spark_pilot_2","7324","2","12","Male","","false","","","","","[608.0999999046326,317.3999996185303]","./assets/img/ocean/memory/27.jpg","[""ArrowDown"",""ArrowRight""]","value training","ocean","30","{""ArrowUp,ArrowLeft"":23,""ArrowUp,ArrowRight"":10,""ArrowDown,ArrowLeft"":8,""ArrowDown,ArrowRight"":30}","true","ArrowDown,ArrowRight","false","","","revaluation","1","46","","",""
"html-keyboard-response","162","894581","0.0-4.0-2.0-1.23","spark_pilot_2","7324","2","12","Male","","","","","","","null","<div style=""font-size:60px;"">+</div>","null","fixation","","","","","","","","","","","47","","",""
"revaluation","163","900614","0.0-4.0-2.0-0.24","spark_pilot_2","7324","2","12","Male","","false","","","","","[565.6999998092651,258.59999990463257]","./assets/img/ocean/memory/12.jpg","[""ArrowDown"",""ArrowRight""]","value training","ocean","30","{""ArrowUp,ArrowLeft"":23,""ArrowUp,ArrowRight"":10,""ArrowDown,ArrowLeft"":8,""ArrowDown,ArrowRight"":30}","true","ArrowDown,ArrowRight","false","","","revaluation","1","48","","",""
"html-keyboard-response","164","901125","0.0-4.0-2.0-1.24","spark_pilot_2","7324","2","12","Male","","","","","","","null","<div style=""font-size:60px;"">+</div>","null","fixation","","","","","","","","","","","49","","",""
"revaluation","165","907159","0.0-4.0-2.0-0.25","spark_pilot_2","7324","2","12","Male","","false","","","","","[498,297.40000009536743]","./assets/img/ocean/memory/32.jpg","[""ArrowDown"",""ArrowRight""]","value training","ocean","30","{""ArrowUp,ArrowLeft"":23,""ArrowUp,ArrowRight"":10,""ArrowDown,ArrowLeft"":8,""ArrowDown,ArrowRight"":30}","true","ArrowDown,ArrowRight","false","","","revaluation","1","50","","",""
"html-keyboard-response","166","907669","0.0-4.0-2.0-1.25","spark_pilot_2","7324","2","12","Male","","","","","","","null","<div style=""font-size:60px;"">+</div>","null","fixation","","","","","","","","","","","51","","",""
"revaluation","167","913703","0.0-4.0-2.0-0.26","spark_pilot_2","7324","2","12","Male","","false","","","","","[619.3000001907349,349]","./assets/img/ocean/memory/37.jpg","[""ArrowDown"",""ArrowLeft""]","value training","ocean","8","{""ArrowUp,ArrowLeft"":23,""ArrowUp,ArrowRight"":10,""ArrowDown,ArrowLeft"":8,""ArrowDown,ArrowRight"":30}","false","ArrowDown,ArrowLeft","false","","","revaluation","1","52","","",""
"html-keyboard-response","168","914214","0.0-4.0-2.0-1.26","spark_pilot_2","7324","2","12","Male","","","","","","","null","<div style=""font-size:60px;"">+</div>","null","fixation","","","","","","","","","","","53","","",""
"revaluation","169","920246","0.0-4.0-2.0-0.27","spark_pilot_2","7324","2","12","Male","","false","","","","","[746.4000000953674,286.80000019073486]","./assets/img/ocean/memory/13.jpg","[""ArrowDown"",""ArrowRight""]","value training","ocean","30","{""ArrowUp,ArrowLeft"":23,""ArrowUp,ArrowRight"":10,""ArrowDown,ArrowLeft"":8,""ArrowDown,ArrowRight"":30}","true","ArrowDown,ArrowRight","false","","","revaluation","1","54","","",""
"html-keyboard-response","170","920756","0.0-4.0-2.0-1.27","spark_pilot_2","7324","2","12","Male","","","","","","","null","<div style=""font-size:60px;"">+</div>","null","fixation","","","","","","","","","","","55","","",""
"revaluation","171","926782","0.0-4.0-2.0-0.28","spark_pilot_2","7324","2","12","Male","","false","","","","","[613.4000000953674,292]","./assets/img/ocean/memory/36.jpg","[""ArrowDown"",""ArrowRight""]","value training","ocean","30","{""ArrowUp,ArrowLeft"":23,""ArrowUp,ArrowRight"":10,""ArrowDown,ArrowLeft"":8,""ArrowDown,ArrowRight"":30}","true","ArrowDown,ArrowRight","false","","","revaluation","1","56","","",""
"html-keyboard-response","172","927294","0.0-4.0-2.0-1.28","spark_pilot_2","7324","2","12","Male","","","","","","","null","<div style=""font-size:60px;"">+</div>","null","fixation","","","","","","","","","","","57","","",""
"revaluation","173","933327","0.0-4.0-2.0-0.29","spark_pilot_2","7324","2","12","Male","","false","","","","","[519.4000000953674,477.59999990463257]","./assets/img/ocean/memory/29.jpg","[""ArrowDown"",""ArrowLeft""]","value training","ocean","8","{""ArrowUp,ArrowLeft"":23,""ArrowUp,ArrowRight"":10,""ArrowDown,ArrowLeft"":8,""ArrowDown,ArrowRight"":30}","false","ArrowDown,ArrowLeft","false","","","revaluation","1","58","","",""
"html-keyboard-response","174","933837","0.0-4.0-2.0-1.29","spark_pilot_2","7324","2","12","Male","","","","","","","null","<div style=""font-size:60px;"">+</div>","null","fixation","","","","","","","","","","","59","","",""
"revaluation","175","937862","0.0-4.0-2.0-0.30","spark_pilot_2","7324","2","12","Male","","false","","","","","[567.4000000953674]","./assets/img/ocean/catch/0.jpg","[""spaceBar""]","value training","ocean","0","{""ArrowUp,ArrowLeft"":23,""ArrowUp,ArrowRight"":10,""ArrowDown,ArrowLeft"":8,""ArrowDown,ArrowRight"":30}","true","spaceBar","true","","","revaluation","1","60","","",""
"html-keyboard-response","176","938365","0.0-4.0-2.0-1.30","spark_pilot_2","7324","2","12","Male","","","","","","","null","<div style=""font-size:60px;"">+</div>","null","fixation","","","","","","","","","","","61","","",""
"revaluation","177","944405","0.0-4.0-2.0-0.31","spark_pilot_2","7324","2","12","Male","","false","","","","","[482,346.40000009536743]","./assets/img/ocean/memory/22.jpg","[""ArrowDown"",""ArrowRight""]","value training","ocean","30","{""ArrowUp,ArrowLeft"":23,""ArrowUp,ArrowRight"":10,""ArrowDown,ArrowLeft"":8,""ArrowDown,ArrowRight"":30}","true","ArrowDown,ArrowRight","false","","","revaluation","1","62","","",""
"html-keyboard-response","178","944909","0.0-4.0-2.0-1.31","spark_pilot_2","7324","2","12","Male","","","","","","","null","<div style=""font-size:60px;"">+</div>","null","fixation","","","","","","","","","","","63","","",""
"revaluation","179","950942","0.0-4.0-2.0-0.32","spark_pilot_2","7324","2","12","Male","","false","","","","","[562.2000002861023,564.9000000953674]","./assets/img/ocean/memory/5.jpg","[""ArrowDown"",""ArrowRight""]","value training","ocean","30","{""ArrowUp,ArrowLeft"":23,""ArrowUp,ArrowRight"":10,""ArrowDown,ArrowLeft"":8,""ArrowDown,ArrowRight"":30}","true","ArrowDown,ArrowRight","false","","","revaluation","1","64","","",""
"html-keyboard-response","180","951452","0.0-4.0-2.0-1.32","spark_pilot_2","7324","2","12","Male","","","","","","","null","<div style=""font-size:60px;"">+</div>","null","fixation","","","","","","","","","","","65","","",""
"revaluation","181","957487","0.0-4.0-2.0-0.33","spark_pilot_2","7324","2","12","Male","","false","","","","","[460.59999990463257,289.80000019073486]","./assets/img/ocean/memory/39.jpg","[""ArrowDown"",""ArrowRight""]","value training","ocean","30","{""ArrowUp,ArrowLeft"":23,""ArrowUp,ArrowRight"":10,""ArrowDown,ArrowLeft"":8,""ArrowDown,ArrowRight"":30}","true","ArrowDown,ArrowRight","false","","","revaluation","1","66","","",""
"html-keyboard-response","182","957998","0.0-4.0-2.0-1.33","spark_pilot_2","7324","2","12","Male","","","","","","","null","<div style=""font-size:60px;"">+</div>","null","fixation","","","","","","","","","","","67","","",""
"revaluation","183","964030","0.0-4.0-2.0-0.34","spark_pilot_2","7324","2","12","Male","","false","","","","","[471.3999996185303,282.09999990463257]","./assets/img/ocean/memory/30.jpg","[""ArrowDown"",""ArrowRight""]","value training","ocean","30","{""ArrowUp,ArrowLeft"":23,""ArrowUp,ArrowRight"":10,""ArrowDown,ArrowLeft"":8,""ArrowDown,ArrowRight"":30}","true","ArrowDown,ArrowRight","false","","","revaluation","1","68","","",""
"html-keyboard-response","184","964534","0.0-4.0-2.0-1.34","spark_pilot_2","7324","2","12","Male","","","","","","","null","<div style=""font-size:60px;"">+</div>","null","fixation","","","","","","","","","","","69","","",""
"revaluation","185","970566","0.0-4.0-2.0-0.35","spark_pilot_2","7324","2","12","Male","","false","","","","","[373.59999990463257,373.2000002861023]","./assets/img/ocean/memory/27.jpg","[""ArrowDown"",""ArrowRight""]","value training","ocean","30","{""ArrowUp,ArrowLeft"":23,""ArrowUp,ArrowRight"":10,""ArrowDown,ArrowLeft"":8,""ArrowDown,ArrowRight"":30}","true","ArrowDown,ArrowRight","false","","","revaluation","1","70","","",""
"html-keyboard-response","186","971070","0.0-4.0-2.0-1.35","spark_pilot_2","7324","2","12","Male","","","","","","","null","<div style=""font-size:60px;"">+</div>","null","fixation","","","","","","","","","","","71","","",""
"revaluation","187","977104","0.0-4.0-2.0-0.36","spark_pilot_2","7324","2","12","Male","","false","","","","","[341.7999997138977,465.09999990463257]","./assets/img/ocean/memory/41.jpg","[""ArrowDown"",""ArrowRight""]","value training","ocean","30","{""ArrowUp,ArrowLeft"":23,""ArrowUp,ArrowRight"":10,""ArrowDown,ArrowLeft"":8,""ArrowDown,ArrowRight"":30}","true","ArrowDown,ArrowRight","false","","","revaluation","1","72","","",""
"html-keyboard-response","188","977614","0.0-4.0-2.0-1.36","spark_pilot_2","7324","2","12","Male","","","","","","","null","<div style=""font-size:60px;"">+</div>","null","fixation","","","","","","","","","","","73","","",""
"revaluation","189","983655","0.0-4.0-2.0-0.37","spark_pilot_2","7324","2","12","Male","","false","","","","","[341.5,354.90000009536743]","./assets/img/ocean/memory/5.jpg","[""ArrowDown"",""ArrowRight""]","value training","ocean","30","{""ArrowUp,ArrowLeft"":23,""ArrowUp,ArrowRight"":10,""ArrowDown,ArrowLeft"":8,""ArrowDown,ArrowRight"":30}","true","ArrowDown,ArrowRight","false","","","revaluation","1","74","","",""
"html-keyboard-response","190","984157","0.0-4.0-2.0-1.37","spark_pilot_2","7324","2","12","Male","","","","","","","null","<div style=""font-size:60px;"">+</div>","null","fixation","","","","","","","","","","","75","","",""
"revaluation","191","990182","0.0-4.0-2.0-0.38","spark_pilot_2","7324","2","12","Male","","false","","","","","[407.40000009536743,339.59999990463257]","./assets/img/ocean/memory/40.jpg","[""ArrowDown"",""ArrowRight""]","value training","ocean","30","{""ArrowUp,ArrowLeft"":23,""ArrowUp,ArrowRight"":10,""ArrowDown,ArrowLeft"":8,""ArrowDown,ArrowRight"":30}","true","ArrowDown,ArrowRight","false","","","revaluation","1","76","","",""
"html-keyboard-response","192","990686","0.0-4.0-2.0-1.38","spark_pilot_2","7324","2","12","Male","","","","","","","null","<div style=""font-size:60px;"">+</div>","null","fixation","","","","","","","","","","","77","","",""
"revaluation","193","996719","0.0-4.0-2.0-0.39","spark_pilot_2","7324","2","12","Male","","false","","","","","[440,404.5]","./assets/img/ocean/memory/22.jpg","[""ArrowDown"",""ArrowRight""]","value training","ocean","30","{""ArrowUp,ArrowLeft"":23,""ArrowUp,ArrowRight"":10,""ArrowDown,ArrowLeft"":8,""ArrowDown,ArrowRight"":30}","true","ArrowDown,ArrowRight","false","","","revaluation","1","78","","",""
"html-keyboard-response","194","997230","0.0-4.0-2.0-1.39","spark_pilot_2","7324","2","12","Male","","","","","","","null","<div style=""font-size:60px;"">+</div>","null","fixation","","","","","","","","","","","79","","",""
"revaluation","195","1003272","0.0-4.0-2.0-0.40","spark_pilot_2","7324","2","12","Male","","false","","","","","[1796.8000001907349,533]","./assets/img/ocean/memory/8.jpg","[""ArrowUp"",""ArrowRight""]","value training","ocean","10","{""ArrowUp,ArrowLeft"":23,""ArrowUp,ArrowRight"":10,""ArrowDown,ArrowLeft"":8,""ArrowDown,ArrowRight"":30}","false","ArrowUp,ArrowRight","false","","","revaluation","1","80","","",""
"html-keyboard-response","196","1003782","0.0-4.0-2.0-1.40","spark_pilot_2","7324","2","12","Male","","","","","","","null","<div style=""font-size:60px;"">+</div>","null","fixation","","","","","","","","","","","81","","",""
"revaluation","197","1007807","0.0-4.0-2.0-0.41","spark_pilot_2","7324","2","12","Male","","false","","","","","[704]","./assets/img/ocean/catch/3.jpg","[""ArrowUp""]","value training","ocean","-10","{""ArrowUp,ArrowLeft"":23,""ArrowUp,ArrowRight"":10,""ArrowDown,ArrowLeft"":8,""ArrowDown,ArrowRight"":30}","false","ArrowUp","true","","","revaluation","1","82","","",""
"html-keyboard-response","198","1008310","0.0-4.0-2.0-1.41","spark_pilot_2","7324","2","12","Male","","","","","","","null","<div style=""font-size:60px;"">+</div>","null","fixation","","","","","","","","","","","83","","",""
"revaluation","199","1014346","0.0-4.0-2.0-0.42","spark_pilot_2","7324","2","12","Male","","false","","","","","[833.7000002861023,309.30000019073486]","./assets/img/ocean/memory/33.jpg","[""ArrowUp"",""ArrowLeft""]","value training","ocean","23","{""ArrowUp,ArrowLeft"":23,""ArrowUp,ArrowRight"":10,""ArrowDown,ArrowLeft"":8,""ArrowDown,ArrowRight"":30}","false","ArrowUp,ArrowLeft","false","","","revaluation","1","84","","",""
"html-keyboard-response","200","1014856","0.0-4.0-2.0-1.42","spark_pilot_2","7324","2","12","Male","","","","","","","null","<div style=""font-size:60px;"">+</div>","null","fixation","","","","","","","","","","","85","","",""
"revaluation","201","1020881","0.0-4.0-2.0-0.43","spark_pilot_2","7324","2","12","Male","","false","","","","","[539.0999999046326,347.2999997138977]","./assets/img/ocean/memory/24.jpg","[""ArrowUp"",""ArrowLeft""]","value training","ocean","23","{""ArrowUp,ArrowLeft"":23,""ArrowUp,ArrowRight"":10,""ArrowDown,ArrowLeft"":8,""ArrowDown,ArrowRight"":30}","false","ArrowUp,ArrowLeft","false","","","revaluation","1","86","","",""
"html-keyboard-response","202","1021392","0.0-4.0-2.0-1.43","spark_pilot_2","7324","2","12","Male","","","","","","","null","<div style=""font-size:60px;"">+</div>","null","fixation","","","","","","","","","","","87","","",""
"revaluation","203","1027426","0.0-4.0-2.0-0.44","spark_pilot_2","7324","2","12","Male","","false","","","","","[676.5,887.4000000953674]","./assets/img/ocean/memory/19.jpg","[""ArrowUp"",""ArrowLeft""]","value training","ocean","23","{""ArrowUp,ArrowLeft"":23,""ArrowUp,ArrowRight"":10,""ArrowDown,ArrowLeft"":8,""ArrowDown,ArrowRight"":30}","false","ArrowUp,ArrowLeft","false","","","revaluation","1","88","","",""
"html-keyboard-response","204","1027935","0.0-4.0-2.0-1.44","spark_pilot_2","7324","2","12","Male","","","","","","","null","<div style=""font-size:60px;"">+</div>","null","fixation","","","","","","","","","","","89","","",""
"revaluation","205","1033977","0.0-4.0-2.0-0.45","spark_pilot_2","7324","2","12","Male","","false","","","","","[585,623.2999997138977]","./assets/img/ocean/memory/13.jpg","[""ArrowUp"",""ArrowLeft""]","value training","ocean","23","{""ArrowUp,ArrowLeft"":23,""ArrowUp,ArrowRight"":10,""ArrowDown,ArrowLeft"":8,""ArrowDown,ArrowRight"":30}","false","ArrowUp,ArrowLeft","false","","","revaluation","1","90","","",""
"html-keyboard-response","206","1034488","0.0-4.0-2.0-1.45","spark_pilot_2","7324","2","12","Male","","","","","","","null","<div style=""font-size:60px;"">+</div>","null","fixation","","","","","","","","","","","91","","",""
"revaluation","207","1040520","0.0-4.0-2.0-0.46","spark_pilot_2","7324","2","12","Male","","false","","","","","[945.0999999046326,1718.3000001907349]","./assets/img/ocean/memory/29.jpg","[""ArrowUp"",""ArrowLeft""]","value training","ocean","23","{""ArrowUp,ArrowLeft"":23,""ArrowUp,ArrowRight"":10,""ArrowDown,ArrowLeft"":8,""ArrowDown,ArrowRight"":30}","false","ArrowUp,ArrowLeft","false","","","revaluation","1","92","","",""
"html-keyboard-response","208","1041024","0.0-4.0-2.0-1.46","spark_pilot_2","7324","2","12","Male","","","","","","","null","<div style=""font-size:60px;"">+</div>","null","fixation","","","","","","","","","","","93","","",""
"revaluation","209","1047057","0.0-4.0-2.0-0.47","spark_pilot_2","7324","2","12","Male","","false","","","","","[524.5999999046326,855.4000000953674]","./assets/img/ocean/memory/37.jpg","[""ArrowUp"",""ArrowLeft""]","value training","ocean","23","{""ArrowUp,ArrowLeft"":23,""ArrowUp,ArrowRight"":10,""ArrowDown,ArrowLeft"":8,""ArrowDown,ArrowRight"":30}","false","ArrowUp,ArrowLeft","false","","","revaluation","1","94","","",""
"html-keyboard-response","210","1047567","0.0-4.0-2.0-1.47","spark_pilot_2","7324","2","12","Male","","","","","","","null","<div style=""font-size:60px;"">+</div>","null","fixation","","","","","","","","","","","95","","",""
"revaluation","211","1053592","0.0-4.0-2.0-0.48","spark_pilot_2","7324","2","12","Male","","false","","","","","[537.5999999046326,880.2999997138977]","./assets/img/ocean/memory/21.jpg","[""ArrowUp"",""ArrowLeft""]","value training","ocean","23","{""ArrowUp,ArrowLeft"":23,""ArrowUp,ArrowRight"":10,""ArrowDown,ArrowLeft"":8,""ArrowDown,ArrowRight"":30}","false","ArrowUp,ArrowLeft","false","","","revaluation","1","96","","",""
"html-keyboard-response","212","1054096","0.0-4.0-2.0-1.48","spark_pilot_2","7324","2","12","Male","","","","","","","null","<div style=""font-size:60px;"">+</div>","null","fixation","","","","","","","","","","","97","","",""
"revaluation","213","1060128","0.0-4.0-2.0-0.49","spark_pilot_2","7324","2","12","Male","","false","","","","","[492.2999997138977,508.1000003814697]","./assets/img/ocean/memory/19.jpg","[""ArrowUp"",""ArrowRight""]","value training","ocean","10","{""ArrowUp,ArrowLeft"":23,""ArrowUp,ArrowRight"":10,""ArrowDown,ArrowLeft"":8,""ArrowDown,ArrowRight"":30}","false","ArrowUp,ArrowRight","false","","","revaluation","1","98","","",""
"html-keyboard-response","214","1060631","0.0-4.0-2.0-1.49","spark_pilot_2","7324","2","12","Male","","","","","","","null","<div style=""font-size:60px;"">+</div>","null","fixation","","","","","","","","","","","99","","",""
"learning-instructions","215","1162454","0.0-4.0-3.0-0.0","spark_pilot_2","7324","2","12","Male","","","","","","","88833.80000019073","<p> Now, you will travel with a friend who will choose whether you go up or down first. </p>
            <p> On these turns, you will just see the animal that they found. You will still get to choose which chest to search for treasure.</p>","","instructions","","","","","","","","","","","","","",""
"revaluation","216","1166474","0.0-4.0-4.0-0.0","spark_pilot_2","7324","2","12","Male","","false","","","","","[1900.2000002861023]","./assets/img/ocean/animals/seahorse.jpg","[""ArrowRight""]","revaluation","ocean","15","{""ArrowUp,ArrowLeft"":27,""ArrowUp,ArrowRight"":15,""ArrowDown,ArrowLeft"":21,""ArrowDown,ArrowRight"":7}","false","ArrowUp,ArrowRight","","","","revaluation","1","0","","",""
"html-keyboard-response","217","1166993","0.0-4.0-4.0-1.0","spark_pilot_2","7324","2","12","Male","","","","","","","null","<div style=""font-size:60px;"">+</div>","null","fixation","","","","","","","","","","","1","","",""
"revaluation","218","1171009","0.0-4.0-4.0-0.1","spark_pilot_2","7324","2","12","Male","","false","","","","","[497.7999997138977]","./assets/img/ocean/animals/octopus.jpg","[""ArrowLeft""]","revaluation","ocean","21","{""ArrowUp,ArrowLeft"":27,""ArrowUp,ArrowRight"":15,""ArrowDown,ArrowLeft"":21,""ArrowDown,ArrowRight"":7}","true","ArrowDown,ArrowLeft","","","","revaluation","1","2","","",""
"html-keyboard-response","219","1171513","0.0-4.0-4.0-1.1","spark_pilot_2","7324","2","12","Male","","","","","","","null","<div style=""font-size:60px;"">+</div>","null","fixation","","","","","","","","","","","3","","",""
"revaluation","220","1175529","0.0-4.0-4.0-0.2","spark_pilot_2","7324","2","12","Male","","false","","","","","[528.4000000953674]","./assets/img/ocean/animals/octopus.jpg","[""ArrowRight""]","revaluation","ocean","7","{""ArrowUp,ArrowLeft"":27,""ArrowUp,ArrowRight"":15,""ArrowDown,ArrowLeft"":21,""ArrowDown,ArrowRight"":7}","false","ArrowDown,ArrowRight","","","","revaluation","1","4","","",""
"html-keyboard-response","221","1176033","0.0-4.0-4.0-1.2","spark_pilot_2","7324","2","12","Male","","","","","","","null","<div style=""font-size:60px;"">+</div>","null","fixation","","","","","","","","","","","5","","",""
"revaluation","222","1180052","0.0-4.0-4.0-0.3","spark_pilot_2","7324","2","12","Male","","false","","","","","[494]","./assets/img/ocean/animals/seahorse.jpg","[""ArrowLeft""]","revaluation","ocean","27","{""ArrowUp,ArrowLeft"":27,""ArrowUp,ArrowRight"":15,""ArrowDown,ArrowLeft"":21,""ArrowDown,ArrowRight"":7}","true","ArrowUp,ArrowLeft","","","","revaluation","1","6","","",""
"html-keyboard-response","223","1180562","0.0-4.0-4.0-1.3","spark_pilot_2","7324","2","12","Male","","","","","","","null","<div style=""font-size:60px;"">+</div>","null","fixation","","","","","","","","","","","7","","",""
"revaluation","224","1184589","0.0-4.0-4.0-0.4","spark_pilot_2","7324","2","12","Male","","false","","","","","[521.3000001907349]","./assets/img/ocean/animals/octopus.jpg","[""ArrowRight""]","revaluation","ocean","7","{""ArrowUp,ArrowLeft"":27,""ArrowUp,ArrowRight"":15,""ArrowDown,ArrowLeft"":21,""ArrowDown,ArrowRight"":7}","false","ArrowDown,ArrowRight","","","","revaluation","1","8","","",""
"html-keyboard-response","225","1185099","0.0-4.0-4.0-1.4","spark_pilot_2","7324","2","12","Male","","","","","","","null","<div style=""font-size:60px;"">+</div>","null","fixation","","","","","","","","","","","9","","",""
"revaluation","226","1189125","0.0-4.0-4.0-0.5","spark_pilot_2","7324","2","12","Male","","false","","","","","[865.5]","./assets/img/ocean/animals/seahorse.jpg","[""ArrowLeft""]","revaluation","ocean","27","{""ArrowUp,ArrowLeft"":27,""ArrowUp,ArrowRight"":15,""ArrowDown,ArrowLeft"":21,""ArrowDown,ArrowRight"":7}","true","ArrowUp,ArrowLeft","","","","revaluation","1","10","","",""
"html-keyboard-response","227","1189635","0.0-4.0-4.0-1.5","spark_pilot_2","7324","2","12","Male","","","","","","","null","<div style=""font-size:60px;"">+</div>","null","fixation","","","","","","","","","","","11","","",""
"revaluation","228","1193661","0.0-4.0-4.0-0.6","spark_pilot_2","7324","2","12","Male","","false","","","","","[1308.5999999046326]","./assets/img/ocean/animals/octopus.jpg","[""ArrowLeft""]","revaluation","ocean","21","{""ArrowUp,ArrowLeft"":27,""ArrowUp,ArrowRight"":15,""ArrowDown,ArrowLeft"":21,""ArrowDown,ArrowRight"":7}","true","ArrowDown,ArrowLeft","","","","revaluation","1","12","","",""
"html-keyboard-response","229","1194172","0.0-4.0-4.0-1.6","spark_pilot_2","7324","2","12","Male","","","","","","","null","<div style=""font-size:60px;"">+</div>","null","fixation","","","","","","","","","","","13","","",""
"revaluation","230","1198213","0.0-4.0-4.0-0.7","spark_pilot_2","7324","2","12","Male","","false","","","","","[967.6999998092651]","./assets/img/ocean/animals/seahorse.jpg","[""ArrowRight""]","revaluation","ocean","15","{""ArrowUp,ArrowLeft"":27,""ArrowUp,ArrowRight"":15,""ArrowDown,ArrowLeft"":21,""ArrowDown,ArrowRight"":7}","false","ArrowUp,ArrowRight","","","","revaluation","1","14","","",""
"html-keyboard-response","231","1198723","0.0-4.0-4.0-1.7","spark_pilot_2","7324","2","12","Male","","","","","","","null","<div style=""font-size:60px;"">+</div>","null","fixation","","","","","","","","","","","15","","",""
"revaluation","232","1202748","0.0-4.0-4.0-0.8","spark_pilot_2","7324","2","12","Male","","false","","","","","[584.6000003814697]","./assets/img/ocean/animals/octopus.jpg","[""ArrowLeft""]","revaluation","ocean","21","{""ArrowUp,ArrowLeft"":27,""ArrowUp,ArrowRight"":15,""ArrowDown,ArrowLeft"":21,""ArrowDown,ArrowRight"":7}","true","ArrowDown,ArrowLeft","","","","revaluation","1","16","","",""
"html-keyboard-response","233","1203251","0.0-4.0-4.0-1.8","spark_pilot_2","7324","2","12","Male","","","","","","","null","<div style=""font-size:60px;"">+</div>","null","fixation","","","","","","","","","","","17","","",""
"revaluation","234","1207277","0.0-4.0-4.0-0.9","spark_pilot_2","7324","2","12","Male","","false","","","","","[670.8000001907349]","./assets/img/ocean/animals/seahorse.jpg","[""ArrowLeft""]","revaluation","ocean","27","{""ArrowUp,ArrowLeft"":27,""ArrowUp,ArrowRight"":15,""ArrowDown,ArrowLeft"":21,""ArrowDown,ArrowRight"":7}","true","ArrowUp,ArrowLeft","","","","revaluation","1","18","","",""
"html-keyboard-response","235","1207787","0.0-4.0-4.0-1.9","spark_pilot_2","7324","2","12","Male","","","","","","","null","<div style=""font-size:60px;"">+</div>","null","fixation","","","","","","","","","","","19","","",""
"revaluation","236","1211812","0.0-4.0-4.0-0.10","spark_pilot_2","7324","2","12","Male","","false","","","","","[746.0999999046326]","./assets/img/ocean/animals/seahorse.jpg","[""ArrowLeft""]","revaluation","ocean","27","{""ArrowUp,ArrowLeft"":27,""ArrowUp,ArrowRight"":15,""ArrowDown,ArrowLeft"":21,""ArrowDown,ArrowRight"":7}","true","ArrowUp,ArrowLeft","","","","revaluation","1","20","","",""
"html-keyboard-response","237","1212323","0.0-4.0-4.0-1.10","spark_pilot_2","7324","2","12","Male","","","","","","","null","<div style=""font-size:60px;"">+</div>","null","fixation","","","","","","","","","","","21","","",""
"revaluation","238","1216348","0.0-4.0-4.0-0.11","spark_pilot_2","7324","2","12","Male","","false","","","","","[494.80000019073486]","./assets/img/ocean/animals/octopus.jpg","[""ArrowRight""]","revaluation","ocean","7","{""ArrowUp,ArrowLeft"":27,""ArrowUp,ArrowRight"":15,""ArrowDown,ArrowLeft"":21,""ArrowDown,ArrowRight"":7}","false","ArrowDown,ArrowRight","","","","revaluation","1","22","","",""
"html-keyboard-response","239","1216852","0.0-4.0-4.0-1.11","spark_pilot_2","7324","2","12","Male","","","","","","","null","<div style=""font-size:60px;"">+</div>","null","fixation","","","","","","","","","","","23","","",""
"revaluation","240","1220876","0.0-4.0-4.0-0.12","spark_pilot_2","7324","2","12","Male","","false","","","","","[329.59999990463257]","./assets/img/ocean/animals/octopus.jpg","[""ArrowLeft""]","revaluation","ocean","21","{""ArrowUp,ArrowLeft"":27,""ArrowUp,ArrowRight"":15,""ArrowDown,ArrowLeft"":21,""ArrowDown,ArrowRight"":7}","true","ArrowDown,ArrowLeft","","","","revaluation","1","24","","",""
"html-keyboard-response","241","1221393","0.0-4.0-4.0-1.12","spark_pilot_2","7324","2","12","Male","","","","","","","null","<div style=""font-size:60px;"">+</div>","null","fixation","","","","","","","","","","","25","","",""
"revaluation","242","1225413","0.0-4.0-4.0-0.13","spark_pilot_2","7324","2","12","Male","","false","","","","","[364.1000003814697]","./assets/img/ocean/animals/octopus.jpg","[""ArrowLeft""]","revaluation","ocean","21","{""ArrowUp,ArrowLeft"":27,""ArrowUp,ArrowRight"":15,""ArrowDown,ArrowLeft"":21,""ArrowDown,ArrowRight"":7}","true","ArrowDown,ArrowLeft","","","","revaluation","1","26","","",""
"html-keyboard-response","243","1225924","0.0-4.0-4.0-1.13","spark_pilot_2","7324","2","12","Male","","","","","","","null","<div style=""font-size:60px;"">+</div>","null","fixation","","","","","","","","","","","27","","",""
"revaluation","244","1229965","0.0-4.0-4.0-0.14","spark_pilot_2","7324","2","12","Male","","false","","","","","[437.19999980926514]","./assets/img/ocean/animals/octopus.jpg","[""ArrowLeft""]","revaluation","ocean","21","{""ArrowUp,ArrowLeft"":27,""ArrowUp,ArrowRight"":15,""ArrowDown,ArrowLeft"":21,""ArrowDown,ArrowRight"":7}","true","ArrowDown,ArrowLeft","","","","revaluation","1","28","","",""
"html-keyboard-response","245","1230476","0.0-4.0-4.0-1.14","spark_pilot_2","7324","2","12","Male","","","","","","","null","<div style=""font-size:60px;"">+</div>","null","fixation","","","","","","","","","","","29","","",""
"revaluation","246","1234501","0.0-4.0-4.0-0.15","spark_pilot_2","7324","2","12","Male","","false","","","","","[319.3999996185303]","./assets/img/ocean/animals/seahorse.jpg","[""ArrowLeft""]","revaluation","ocean","27","{""ArrowUp,ArrowLeft"":27,""ArrowUp,ArrowRight"":15,""ArrowDown,ArrowLeft"":21,""ArrowDown,ArrowRight"":7}","true","ArrowUp,ArrowLeft","","","","revaluation","1","30","","",""
"html-keyboard-response","247","1235012","0.0-4.0-4.0-1.15","spark_pilot_2","7324","2","12","Male","","","","","","","null","<div style=""font-size:60px;"">+</div>","null","fixation","","","","","","","","","","","31","","",""
"revaluation","248","1239045","0.0-4.0-4.0-0.16","spark_pilot_2","7324","2","12","Male","","false","","","","","[338]","./assets/img/ocean/animals/seahorse.jpg","[""ArrowLeft""]","revaluation","ocean","27","{""ArrowUp,ArrowLeft"":27,""ArrowUp,ArrowRight"":15,""ArrowDown,ArrowLeft"":21,""ArrowDown,ArrowRight"":7}","true","ArrowUp,ArrowLeft","","","","revaluation","1","32","","",""
"html-keyboard-response","249","1239556","0.0-4.0-4.0-1.16","spark_pilot_2","7324","2","12","Male","","","","","","","null","<div style=""font-size:60px;"">+</div>","null","fixation","","","","","","","","","","","33","","",""
"revaluation","250","1243573","0.0-4.0-4.0-0.17","spark_pilot_2","7324","2","12","Male","","false","","","","","[456.7000002861023]","./assets/img/ocean/animals/seahorse.jpg","[""ArrowLeft""]","revaluation","ocean","27","{""ArrowUp,ArrowLeft"":27,""ArrowUp,ArrowRight"":15,""ArrowDown,ArrowLeft"":21,""ArrowDown,ArrowRight"":7}","true","ArrowUp,ArrowLeft","","","","revaluation","1","34","","",""
"html-keyboard-response","251","1244083","0.0-4.0-4.0-1.17","spark_pilot_2","7324","2","12","Male","","","","","","","null","<div style=""font-size:60px;"">+</div>","null","fixation","","","","","","","","","","","35","","",""
"learning-instructions","252","1257200","0.0-4.0-5.0-0.0","spark_pilot_2","7324","2","12","Male","","","","","","","1665.5","<p> Time to play the dot game! </p>
            <p> For one minute, click the red dots on the following screen as they appear. </p>
            <p><b> Don't look away, as you will earn bonus for clicking dots</b>. </p>","","instructions","","","","","","","","","","","","","",""
"revaluation","253","1317208","0.0-4.0-6.0-0.0","spark_pilot_2","7324","2","12","Male","","","","","","[{""event"":""fullscreenenter"",""trial"":2,""time"":71219},{""event"":""blur"",""trial"":254,""time"":1620261},{""event"":""focus"",""trial"":254,""time"":2460073}]","[105,115,80,63,53,75,66]","","","rest","","70","","","","","0","60000","","","","","",""
"learning-instructions","254","2461257","0.0-4.0-7.0-0.0","spark_pilot_2","7324","2","12","Male","","","","","","","1137815.5999999046","<p> You have almost finished this part of the game! </p>
            <p> We are going to ask you to make a few more choices. </p>","","instructions","","","","","","","","","","","","","",""
"learning-instructions","255","2478645","0.0-4.0-7.0-0.1","spark_pilot_2","7324","2","12","Male","","","","","","","3344.3999996185303","<p> First, you need to decide whether to go up or down. When you see each picture, use the arrow keys to make your choice. </p>
            <p><b>You will not see which animal you found, but try to get to the one that will give you the most treasure.</b></p>","","instructions","","","","","","","","","","","","","",""
"revaluation","256","2480067","0.0-4.0-8.0-0.0","spark_pilot_2","7324","2","12","Male","","false","","","","","[1415.4000000953674]","./assets/img/ocean/test/0.jpg","[""ArrowDown""]","first stage test","ocean","0","{""ArrowUp,ArrowLeft"":27,""ArrowUp,ArrowRight"":15,""ArrowDown,ArrowLeft"":21,""ArrowDown,ArrowRight"":7}","false","ArrowDown","false","","","revaluation","1","","","",""
"html-keyboard-response","257","2480570","0.0-4.0-8.0-1.0","spark_pilot_2","7324","2","12","Male","","","","","","","null","<div style=""font-size:60px;"">+</div>","null","fixation","","","","","","","","","","","","","",""
"revaluation","258","2481132","0.0-4.0-8.0-0.1","spark_pilot_2","7324","2","12","Male","","false","","","","","[555.9000000953674]","./assets/img/ocean/test/2.jpg","[""ArrowDown""]","first stage test","ocean","0","{""ArrowUp,ArrowLeft"":27,""ArrowUp,ArrowRight"":15,""ArrowDown,ArrowLeft"":21,""ArrowDown,ArrowRight"":7}","false","ArrowDown","false","","","revaluation","1","","","",""
"html-keyboard-response","259","2481634","0.0-4.0-8.0-1.1","spark_pilot_2","7324","2","12","Male","","","","","","","null","<div style=""font-size:60px;"">+</div>","null","fixation","","","","","","","","","","","","","",""
"revaluation","260","2482570","0.0-4.0-8.0-0.2","spark_pilot_2","7324","2","12","Male","","false","","","","","[926.5]","./assets/img/ocean/test/1.jpg","[""ArrowUp""]","first stage test","ocean","0","{""ArrowUp,ArrowLeft"":27,""ArrowUp,ArrowRight"":15,""ArrowDown,ArrowLeft"":21,""ArrowDown,ArrowRight"":7}","true","ArrowUp","false","","","revaluation","1","","","",""
"html-keyboard-response","261","2483074","0.0-4.0-8.0-1.2","spark_pilot_2","7324","2","12","Male","","","","","","","null","<div style=""font-size:60px;"">+</div>","null","fixation","","","","","","","","","","","","","",""
"revaluation","262","2483873","0.0-4.0-8.0-0.3","spark_pilot_2","7324","2","12","Male","","false","","","","","[780.6999998092651]","./assets/img/ocean/test/3.jpg","[""ArrowDown""]","first stage test","ocean","0","{""ArrowUp,ArrowLeft"":27,""ArrowUp,ArrowRight"":15,""ArrowDown,ArrowLeft"":21,""ArrowDown,ArrowRight"":7}","false","ArrowDown","false","","","revaluation","1","","","",""
"html-keyboard-response","263","2484378","0.0-4.0-8.0-1.3","spark_pilot_2","7324","2","12","Male","","","","","","","null","<div style=""font-size:60px;"">+</div>","null","fixation","","","","","","","","","","","","","",""
"learning-instructions","264","2498081","0.0-4.0-9.0-0.0","spark_pilot_2","7324","2","12","Male","","","","","","","2366.9000000953674","<p> Now you will see the animals again and can search their chests for treasure. </p>
            <p> This time, you will not see how much treasure you earned, but you will earn more bonus money for making better choices. </p>","","instructions","","","","","","","","","","","","","",""
"revaluation","265","2498922","0.0-4.0-10.0-0.0","spark_pilot_2","7324","2","12","Male","","false","","","","","[833.4000000953674]","./assets/img/ocean/animals/seahorse.jpg","[""ArrowRight""]","second stage test","ocean","0","{""ArrowUp,ArrowLeft"":27,""ArrowUp,ArrowRight"":15,""ArrowDown,ArrowLeft"":21,""ArrowDown,ArrowRight"":7}","false","ArrowUp,ArrowRight","","","","revaluation","1","","","",""
"html-keyboard-response","266","2499426","0.0-4.0-10.0-1.0","spark_pilot_2","7324","2","12","Male","","","","","","","null","<div style=""font-size:60px;"">+</div>","null","fixation","","","","","","","","","","","","","",""
"revaluation","267","2500113","0.0-4.0-10.0-0.1","spark_pilot_2","7324","2","12","Male","","false","","","","","[681.2999997138977]","./assets/img/ocean/animals/seahorse.jpg","[""ArrowRight""]","second stage test","ocean","0","{""ArrowUp,ArrowLeft"":27,""ArrowUp,ArrowRight"":15,""ArrowDown,ArrowLeft"":21,""ArrowDown,ArrowRight"":7}","false","ArrowUp,ArrowRight","","","","revaluation","1","","","",""
"html-keyboard-response","268","2500619","0.0-4.0-10.0-1.1","spark_pilot_2","7324","2","12","Male","","","","","","","null","<div style=""font-size:60px;"">+</div>","null","fixation","","","","","","","","","","","","","",""
"revaluation","269","2501370","0.0-4.0-10.0-0.2","spark_pilot_2","7324","2","12","Male","","false","","","","","[745.5]","./assets/img/ocean/animals/seahorse.jpg","[""ArrowRight""]","second stage test","ocean","0","{""ArrowUp,ArrowLeft"":27,""ArrowUp,ArrowRight"":15,""ArrowDown,ArrowLeft"":21,""ArrowDown,ArrowRight"":7}","false","ArrowUp,ArrowRight","","","","revaluation","1","","","",""
"html-keyboard-response","270","2501874","0.0-4.0-10.0-1.2","spark_pilot_2","7324","2","12","Male","","","","","","","null","<div style=""font-size:60px;"">+</div>","null","fixation","","","","","","","","","","","","","",""
"revaluation","271","2502725","0.0-4.0-10.0-0.3","spark_pilot_2","7324","2","12","Male","","false","","","","","[834.2000002861023]","./assets/img/ocean/animals/seahorse.jpg","[""ArrowLeft""]","second stage test","ocean","0","{""ArrowUp,ArrowLeft"":27,""ArrowUp,ArrowRight"":15,""ArrowDown,ArrowLeft"":21,""ArrowDown,ArrowRight"":7}","true","ArrowUp,ArrowLeft","","","","revaluation","1","","","",""
"html-keyboard-response","272","2503234","0.0-4.0-10.0-1.3","spark_pilot_2","7324","2","12","Male","","","","","","","null","<div style=""font-size:60px;"">+</div>","null","fixation","","","","","","","","","","","","","",""
"revaluation","273","2504062","0.0-4.0-10.0-0.4","spark_pilot_2","7324","2","12","Male","","false","","","","","[812.8000001907349]","./assets/img/ocean/animals/octopus.jpg","[""ArrowRight""]","second stage test","ocean","0","{""ArrowUp,ArrowLeft"":27,""ArrowUp,ArrowRight"":15,""ArrowDown,ArrowLeft"":21,""ArrowDown,ArrowRight"":7}","false","ArrowDown,ArrowRight","","","","revaluation","1","","","",""
"html-keyboard-response","274","2504570","0.0-4.0-10.0-1.4","spark_pilot_2","7324","2","12","Male","","","","","","","null","<div style=""font-size:60px;"">+</div>","null","fixation","","","","","","","","","","","","","",""
"revaluation","275","2505103","0.0-4.0-10.0-0.5","spark_pilot_2","7324","2","12","Male","","false","","","","","[522.1999998092651]","./assets/img/ocean/animals/octopus.jpg","[""ArrowLeft""]","second stage test","ocean","0","{""ArrowUp,ArrowLeft"":27,""ArrowUp,ArrowRight"":15,""ArrowDown,ArrowLeft"":21,""ArrowDown,ArrowRight"":7}","true","ArrowDown,ArrowLeft","","","","revaluation","1","","","",""
"html-keyboard-response","276","2505610","0.0-4.0-10.0-1.5","spark_pilot_2","7324","2","12","Male","","","","","","","null","<div style=""font-size:60px;"">+</div>","null","fixation","","","","","","","","","","","","","",""
"revaluation","277","2506115","0.0-4.0-10.0-0.6","spark_pilot_2","7324","2","12","Male","","false","","","","","[488.1000003814697]","./assets/img/ocean/animals/octopus.jpg","[""ArrowRight""]","second stage test","ocean","0","{""ArrowUp,ArrowLeft"":27,""ArrowUp,ArrowRight"":15,""ArrowDown,ArrowLeft"":21,""ArrowDown,ArrowRight"":7}","false","ArrowDown,ArrowRight","","","","revaluation","1","","","",""
"html-keyboard-response","278","2506619","0.0-4.0-10.0-1.6","spark_pilot_2","7324","2","12","Male","","","","","","","null","<div style=""font-size:60px;"">+</div>","null","fixation","","","","","","","","","","","","","",""
"revaluation","279","2506991","0.0-4.0-10.0-0.7","spark_pilot_2","7324","2","12","Male","","false","","","","","[355]","./assets/img/ocean/animals/octopus.jpg","[""ArrowLeft""]","second stage test","ocean","0","{""ArrowUp,ArrowLeft"":27,""ArrowUp,ArrowRight"":15,""ArrowDown,ArrowLeft"":21,""ArrowDown,ArrowRight"":7}","true","ArrowDown,ArrowLeft","","","","revaluation","1","","","",""
"html-keyboard-response","280","2507498","0.0-4.0-10.0-1.7","spark_pilot_2","7324","2","12","Male","","","","","","","null","<div style=""font-size:60px;"">+</div>","null","fixation","","","","","","","","","","","","","",""
"learning-instructions","281","2512392","0.0-4.0-0.1-0.2","spark_pilot_2","7324","2","12","Male","","","","","","","1990.8000001907349","<p> This time you are searching for treasure in the <b>canyon</b>.</p>","","instructions","","","","","","","","","","","","","",""
"learning-instructions","282","2531579","0.0-4.0-0.1-0.3","spark_pilot_2","7324","2","12","Male","","","","","","","1918.0999999046326","<p><b>New</b> animals with <b>new</b> treasure chests live here. You need to explore to discover where the animal with the best treasure chest is.</p>
                    <p> Like before, once you figure out which animal has the chest with the most treasure, you should try to get to that animal and select that chest! </p>","","instructions","","","","","","","","","","","","","",""
"learning-instructions","283","2548505","0.0-4.0-1.1-0.1","spark_pilot_2","7324","2","12","Male","","","","","","","2184.9000000953674","<p> Remember, when you see a picture of the place, use the up and down keys to <b>find an animal</b>.</p>
            <p> When you encounter an animal, you should use the left and right keys to <b>select a treasure chest</b>.</p>
            <p> Don't forget to look out for the robber! </p>","","instructions","","","","","","","","","","","","","",""
"revaluation","284","2554535","0.0-4.0-2.1-0.50","spark_pilot_2","7324","2","12","Male","","false","","","","","[855.1999998092651,602.0999999046326]","./assets/img/canyon/memory/39.jpg","[""ArrowDown"",""ArrowRight""]","value training","canyon","17","{""ArrowUp,ArrowLeft"":26,""ArrowUp,ArrowRight"":10,""ArrowDown,ArrowLeft"":5,""ArrowDown,ArrowRight"":17}","false","ArrowDown,ArrowRight","false","","","original","2","0","","",""
"html-keyboard-response","285","2555045","0.0-4.0-2.1-1.50","spark_pilot_2","7324","2","12","Male","","","","","","","null","<div style=""font-size:60px;"">+</div>","null","fixation","","","","","","","","","","","1","","",""
"revaluation","286","2561088","0.0-4.0-2.1-0.51","spark_pilot_2","7324","2","12","Male","","false","","","","","[398.09999990463257,464.80000019073486]","./assets/img/canyon/memory/5.jpg","[""ArrowUp"",""ArrowLeft""]","value training","canyon","26","{""ArrowUp,ArrowLeft"":26,""ArrowUp,ArrowRight"":10,""ArrowDown,ArrowLeft"":5,""ArrowDown,ArrowRight"":17}","true","ArrowUp,ArrowLeft","false","","","original","2","2","","",""
"html-keyboard-response","287","2561597","0.0-4.0-2.1-1.51","spark_pilot_2","7324","2","12","Male","","","","","","","null","<div style=""font-size:60px;"">+</div>","null","fixation","","","","","","","","","","","3","","",""
"revaluation","288","2565630","0.0-4.0-2.1-0.52","spark_pilot_2","7324","2","12","Male","","true","","","","","[]","./assets/img/canyon/memory/38.jpg","[]","value training","canyon","-5","{""ArrowUp,ArrowLeft"":26,""ArrowUp,ArrowRight"":10,""ArrowDown,ArrowLeft"":5,""ArrowDown,ArrowRight"":17}","false","","false","","","original","2","4","","",""
"html-keyboard-response","289","2566132","0.0-4.0-2.1-1.52","spark_pilot_2","7324","2","12","Male","","","","","","","null","<div style=""font-size:60px;"">+</div>","null","fixation","","","","","","","","","","","5","","",""
"revaluation","290","2572165","0.0-4.0-2.1-0.53","spark_pilot_2","7324","2","12","Male","","false","","","","","[1032,648.8999996185303]","./assets/img/canyon/memory/13.jpg","[""ArrowUp"",""ArrowRight""]","value training","canyon","10","{""ArrowUp,ArrowLeft"":26,""ArrowUp,ArrowRight"":10,""ArrowDown,ArrowLeft"":5,""ArrowDown,ArrowRight"":17}","false","ArrowUp,ArrowRight","false","","","original","2","6","","",""
"html-keyboard-response","291","2572668","0.0-4.0-2.1-1.53","spark_pilot_2","7324","2","12","Male","","","","","","","null","<div style=""font-size:60px;"">+</div>","null","fixation","","","","","","","","","","","7","","",""
"revaluation","292","2578694","0.0-4.0-2.1-0.54","spark_pilot_2","7324","2","12","Male","","false","","","","","[1521.4000000953674,757.7999997138977]","./assets/img/canyon/memory/1.jpg","[""ArrowDown"",""ArrowLeft""]","value training","canyon","5","{""ArrowUp,ArrowLeft"":26,""ArrowUp,ArrowRight"":10,""ArrowDown,ArrowLeft"":5,""ArrowDown,ArrowRight"":17}","false","ArrowDown,ArrowLeft","false","","","original","2","8","","",""
"html-keyboard-response","293","2579198","0.0-4.0-2.1-1.54","spark_pilot_2","7324","2","12","Male","","","","","","","null","<div style=""font-size:60px;"">+</div>","null","fixation","","","","","","","","","","","9","","",""
"revaluation","294","2585231","0.0-4.0-2.1-0.55","spark_pilot_2","7324","2","12","Male","","false","","","","","[393.19999980926514,388.90000009536743]","./assets/img/canyon/memory/37.jpg","[""ArrowUp"",""ArrowRight""]","value training","canyon","10","{""ArrowUp,ArrowLeft"":26,""ArrowUp,ArrowRight"":10,""ArrowDown,ArrowLeft"":5,""ArrowDown,ArrowRight"":17}","false","ArrowUp,ArrowRight","false","","","original","2","10","","",""
"html-keyboard-response","295","2585740","0.0-4.0-2.1-1.55","spark_pilot_2","7324","2","12","Male","","","","","","","null","<div style=""font-size:60px;"">+</div>","null","fixation","","","","","","","","","","","11","","",""
"revaluation","296","2591756","0.0-4.0-2.1-0.56","spark_pilot_2","7324","2","12","Male","","false","","","","","[483.3999996185303,376]","./assets/img/canyon/memory/32.jpg","[""ArrowDown"",""ArrowRight""]","value training","canyon","17","{""ArrowUp,ArrowLeft"":26,""ArrowUp,ArrowRight"":10,""ArrowDown,ArrowLeft"":5,""ArrowDown,ArrowRight"":17}","false","ArrowDown,ArrowRight","false","","","original","2","12","","",""
"html-keyboard-response","297","2592261","0.0-4.0-2.1-1.56","spark_pilot_2","7324","2","12","Male","","","","","","","null","<div style=""font-size:60px;"">+</div>","null","fixation","","","","","","","","","","","13","","",""
"revaluation","298","2598286","0.0-4.0-2.1-0.57","spark_pilot_2","7324","2","12","Male","","false","","","","","[483.2000002861023,365.3999996185303]","./assets/img/canyon/memory/24.jpg","[""ArrowDown"",""ArrowRight""]","value training","canyon","17","{""ArrowUp,ArrowLeft"":26,""ArrowUp,ArrowRight"":10,""ArrowDown,ArrowLeft"":5,""ArrowDown,ArrowRight"":17}","false","ArrowDown,ArrowRight","false","","","original","2","14","","",""
"html-keyboard-response","299","2598789","0.0-4.0-2.1-1.57","spark_pilot_2","7324","2","12","Male","","","","","","","null","<div style=""font-size:60px;"">+</div>","null","fixation","","","","","","","","","","","15","","",""
"revaluation","300","2604823","0.0-4.0-2.1-0.58","spark_pilot_2","7324","2","12","Male","","false","","","","","[389.5,358.19999980926514]","./assets/img/canyon/memory/12.jpg","[""ArrowDown"",""ArrowRight""]","value training","canyon","17","{""ArrowUp,ArrowLeft"":26,""ArrowUp,ArrowRight"":10,""ArrowDown,ArrowLeft"":5,""ArrowDown,ArrowRight"":17}","false","ArrowDown,ArrowRight","false","","","original","2","16","","",""
"html-keyboard-response","301","2605333","0.0-4.0-2.1-1.58","spark_pilot_2","7324","2","12","Male","","","","","","","null","<div style=""font-size:60px;"">+</div>","null","fixation","","","","","","","","","","","17","","",""
"revaluation","302","2611366","0.0-4.0-2.1-0.59","spark_pilot_2","7324","2","12","Male","","false","","","","","[507.30000019073486,365]","./assets/img/canyon/memory/19.jpg","[""ArrowDown"",""ArrowRight""]","value training","canyon","17","{""ArrowUp,ArrowLeft"":26,""ArrowUp,ArrowRight"":10,""ArrowDown,ArrowLeft"":5,""ArrowDown,ArrowRight"":17}","false","ArrowDown,ArrowRight","false","","","original","2","18","","",""
"html-keyboard-response","303","2611877","0.0-4.0-2.1-1.59","spark_pilot_2","7324","2","12","Male","","","","","","","null","<div style=""font-size:60px;"">+</div>","null","fixation","","","","","","","","","","","19","","",""
"revaluation","304","2617910","0.0-4.0-2.1-0.60","spark_pilot_2","7324","2","12","Male","","false","","","","","[339.90000009536743,415.09999990463257]","./assets/img/canyon/memory/41.jpg","[""ArrowUp"",""ArrowLeft""]","value training","canyon","26","{""ArrowUp,ArrowLeft"":26,""ArrowUp,ArrowRight"":10,""ArrowDown,ArrowLeft"":5,""ArrowDown,ArrowRight"":17}","true","ArrowUp,ArrowLeft","false","","","original","2","20","","",""
"html-keyboard-response","305","2618422","0.0-4.0-2.1-1.60","spark_pilot_2","7324","2","12","Male","","","","","","","null","<div style=""font-size:60px;"">+</div>","null","fixation","","","","","","","","","","","21","","",""
"revaluation","306","2624463","0.0-4.0-2.1-0.61","spark_pilot_2","7324","2","12","Male","","false","","","","","[517.0999999046326,358.6000003814697]","./assets/img/canyon/memory/5.jpg","[""ArrowUp"",""ArrowLeft""]","value training","canyon","26","{""ArrowUp,ArrowLeft"":26,""ArrowUp,ArrowRight"":10,""ArrowDown,ArrowLeft"":5,""ArrowDown,ArrowRight"":17}","true","ArrowUp,ArrowLeft","false","","","original","2","22","","",""
"html-keyboard-response","307","2624973","0.0-4.0-2.1-1.61","spark_pilot_2","7324","2","12","Male","","","","","","","null","<div style=""font-size:60px;"">+</div>","null","fixation","","","","","","","","","","","23","","",""
