"trial_type","trial_index","time_elapsed","internal_node_id","task_version","subject_id","assigned_condition","age","gender","browser_interaction","success","timeout","failed_images","failed_audio","failed_video","rt","stimulus","response","task_part","environment","score","rewardMap","correct","fullState","isCatch","numberMissed","duration","condition","order","trial_num","key_press","ground_truth","bonus"
"pavlovia","0","1723","0.0-0.0","spark_pilot_2","7285","1","10","Male","[{""event"":""blur"",""trial"":1,""time"":12980},{""event"":""focus"",""trial"":1,""time"":19709},{""event"":""fullscreenenter"",""trial"":2,""time"":31023}]","","","","","","","","","","","","","","","","","","","","","","",""
"preload","1","27071","0.0-1.0","spark_pilot_2","7285","1","10","Male","[{""event"":""blur"",""trial"":1,""time"":12980},{""event"":""focus"",""trial"":1,""time"":19709},{""event"":""fullscreenenter"",""trial"":2,""time"":31023}]","true","false","[]","[]","[]","","","","","","","","","","","","","","","","","",""
"fullscreen","2","31915","0.0-2.0","spark_pilot_2","7285","1","10","Male","","true","","","","","","","","","","","","","","","","","","","","","",""
"audio-button-response","3","35804","0.0-3.0-0.0-0.0","spark_pilot_2","7285","1","10","Male","","","","","","","3680","./assets/audio/audiotest/turtle.mp3","2","audio_test","","","","","","","","","","","","","",""
"learning-instructions","4","44408","0.0-3.0-1.0-0.0","spark_pilot_2","7285","1","10","Male","","","","","","","1570","<p> Welcome! Please remember to stay in fullscreen mode and don't click away from the experiment. </p>","","instructions","","","","","","","","","","","","","",""
"learning-instructions","5","54320","0.0-3.0-1.0-0.1","spark_pilot_2","7285","1","10","Male","","","","","","","1444.1999999999534","<p> Today you will be playing a game to earn treasure. </p>
            <p> At the end of the experiment, you will earn a bonus based on how much treasure you find. </p>
            <img src='./assets/img/instructions/treasure.jpg' class='instructions-image'>","","instructions","","","","","","","","","","","","","",""
"learning-instructions","6","63444","0.0-3.0-1.0-0.2","spark_pilot_2","7285","1","10","Male","","","","","","","805.2000000001863","<p> Animals have hidden treasure in treasure chests. </p>
            <p> You need to first find an animal and then choose which of their treasure chests to search. </p>
            <img src='./assets/img/space/animals/cat.jpg' class='instructions-image'>","","instructions","","","","","","","","","","","","","",""
"learning-instructions","7","78297","0.0-3.0-1.0-0.3","spark_pilot_2","7285","1","10","Male","","","","","","","1617.8999999999069","<p> In each round, you will search for treasure in a different place. In the real game, there will be two rounds. </p>
            <p> You will begin with a separate, practice round where you will search for treasure in outer space. </p>
            <img src='./assets/img/space/0.jpg' class='instructions-image'>","","instructions","","","","","","","","","","","","","",""
"learning-instructions","8","91346","0.0-3.0-1.0-0.4","spark_pilot_2","7285","1","10","Male","","","","","","","1566","<p> On every turn, you will see a picture of the place that you are in, but the specific image may be different each time. </p>
            <p> For example, both of these images mean you are in outer space. </p>
            <img src='./assets/img/instructions/outerspace.jpg' class='instructions-image'>","","instructions","","","","","","","","","","","","","",""
"learning-instructions","9","100056","0.0-3.0-1.0-0.5","spark_pilot_2","7285","1","10","Male","","","","","","","836.3000000000466","<p> You need to decide which direction to travel in. </p>
            <p> You can choose between going <b>up or down</b> by using the arrow keys. </p>
            <img src='./assets/img/instructions/updown.jpg' class='instructions-image'>","","instructions","","","","","","","","","","","","","",""
"learning-instructions","10","110295","0.0-3.0-1.0-0.6","spark_pilot_2","7285","1","10","Male","","","","","","","1366.3999999999069","<p> You will have <b>2 seconds</b> to make your choice. </p>
            <p> If you do not make a choice within 2 seconds, you will not find an animal or earn treasure. </p>
            <img src='./assets/img/instructions/2seconds.jpg' class='instructions-image'>","","instructions","","","","","","","","","","","","","",""
"learning-instructions","11","118033","0.0-3.0-1.0-0.7","spark_pilot_2","7285","1","10","Male","","","","","","","651.2999999998137","<p> Let’s try practicing that now! </p>
            <p> When you see a picture of the place you are in, press the <b>up</b> key to travel up. </p>
            <img src='./assets/img/instructions/pressUp.jpg' class='instructions-image'>","","instructions","","","","","","","","","","","","","",""
"revaluation","12","122066","0.0-3.0-2.0-0.0","spark_pilot_2","7285","1","10","Male","","","false","","","","[940.8999999999069]","./assets/img/space/0.jpg","[""ArrowUp""]","first stage practice","space","0","null","null","ArrowUp","false","","","","","","","",""
"html-keyboard-response","13","122578","0.0-3.0-2.0-1.0","spark_pilot_2","7285","1","10","Male","","","","","","","null","<div style=""font-size:60px;"">+</div>","null","fixation","","","","","","","","","","","","","",""
"revaluation","14","126608","0.0-3.0-2.0-0.1","spark_pilot_2","7285","1","10","Male","","","false","","","","[952]","./assets/img/space/1.jpg","[""ArrowUp""]","first stage practice","space","0","null","null","ArrowUp","false","","","","","","","",""
"html-keyboard-response","15","127121","0.0-3.0-2.0-1.1","spark_pilot_2","7285","1","10","Male","","","","","","","null","<div style=""font-size:60px;"">+</div>","null","fixation","","","","","","","","","","","","","",""
"revaluation","16","131139","0.0-3.0-2.0-0.2","spark_pilot_2","7285","1","10","Male","","","false","","","","[769.1000000000931]","./assets/img/space/2.jpg","[""ArrowUp""]","first stage practice","space","0","null","null","ArrowUp","false","","","","","","","",""
"html-keyboard-response","17","131654","0.0-3.0-2.0-1.2","spark_pilot_2","7285","1","10","Male","","","","","","","null","<div style=""font-size:60px;"">+</div>","null","fixation","","","","","","","","","","","","","",""
"learning-instructions","18","137652","0.0-3.0-3.0-0.0","spark_pilot_2","7285","1","10","Male","","","","","","","1251.5","<p> Great job! Now try pressing the <b>down</b> key to travel down. </p>
            <img src='./assets/img/instructions/pressDown.jpg' class='instructions-image'>","","instructions","","","","","","","","","","","","","",""
"revaluation","19","141681","0.0-3.0-4.0-0.0","spark_pilot_2","7285","1","10","Male","","","false","","","","[618.1999999999534]","./assets/img/space/3.jpg","[""ArrowDown""]","first stage practice","space","0","null","null","ArrowDown","false","","","","","","","",""
"html-keyboard-response","20","142198","0.0-3.0-4.0-1.0","spark_pilot_2","7285","1","10","Male","","","","","","","null","<div style=""font-size:60px;"">+</div>","null","fixation","","","","","","","","","","","","","",""
"revaluation","21","146225","0.0-3.0-4.0-0.1","spark_pilot_2","7285","1","10","Male","","","false","","","","[344.69999999995343]","./assets/img/space/4.jpg","[""ArrowDown""]","first stage practice","space","0","null","null","ArrowDown","false","","","","","","","",""
"html-keyboard-response","22","146739","0.0-3.0-4.0-1.1","spark_pilot_2","7285","1","10","Male","","","","","","","null","<div style=""font-size:60px;"">+</div>","null","fixation","","","","","","","","","","","","","",""
"revaluation","23","150789","0.0-3.0-4.0-0.2","spark_pilot_2","7285","1","10","Male","","","false","","","","[300.80000000004657]","./assets/img/space/5.jpg","[""ArrowDown""]","first stage practice","space","0","null","null","ArrowDown","false","","","","","","","",""
"html-keyboard-response","24","151303","0.0-3.0-4.0-1.2","spark_pilot_2","7285","1","10","Male","","","","","","","null","<div style=""font-size:60px;"">+</div>","null","fixation","","","","","","","","","","","","","",""
"learning-instructions","25","162818","0.0-3.0-5.0-0.0","spark_pilot_2","7285","1","10","Male","","","","","","","1606.8000000000466","<p> The animals don’t move, so the animal in the upper part of a place will stay in the upper part of a place, and the animal in the lower part of a place will stay in the lower part of a place. </p>","","instructions","","","","","","","","","","","","","",""
"learning-instructions","26","174991","0.0-3.0-5.0-0.1","spark_pilot_2","7285","1","10","Male","","","","","","","2979.600000000093","<p> Each animal has two treasure chests for you to choose from. </p>
            <p> The amount of treasure in each chest can range from <b> 0 to 40 pieces.</b></p>","","instructions","","","","","","","","","","","","","",""
"learning-instructions","27","186797","0.0-3.0-5.0-0.2","spark_pilot_2","7285","1","10","Male","","","","","","","543.6000000000931","<p> You should decide which chest to search for treasure by using the <b>left</b> and <b>right</b> arrow keys. </p>
            <p><b> Pay attention to which animal is on the screen, as the animals have different treasure chests. </b></p>
            <img src='./assets/img/instructions/leftright.jpg' class='instructions-image'>","","instructions","","","","","","","","","","","","","",""
"learning-instructions","28","193728","0.0-3.0-5.0-0.3","spark_pilot_2","7285","1","10","Male","","","","","","","514.8000000000466","<p> Let’s try practicing that now. </p>
            <p> When you see an animal, choose which chest to search for treasure. </p>
            <img src='./assets/img/instructions/chooseChest.jpg' class='instructions-image'>","","instructions","","","","","","","","","","","","","",""
"revaluation","29","197742","0.0-3.0-6.0-0.0","spark_pilot_2","7285","1","10","Male","","","false","","","","[997.0999999998603]","./assets/img/space/animals/rabbit.jpg","[""ArrowRight""]","second stage practice","space","23","{""ArrowUp,ArrowLeft"":3,""ArrowUp,ArrowRight"":36,""ArrowDown,ArrowLeft"":15,""ArrowDown,ArrowRight"":23}","true","ArrowDown,ArrowRight","","","","","","","","",""
"html-keyboard-response","30","198253","0.0-3.0-6.0-1.0","spark_pilot_2","7285","1","10","Male","","","","","","","null","<div style=""font-size:60px;"">+</div>","null","fixation","","","","","","","","","","","","","",""
"revaluation","31","202297","0.0-3.0-6.0-0.1","spark_pilot_2","7285","1","10","Male","","","false","","","","[402.69999999995343]","./assets/img/space/animals/cat.jpg","[""ArrowRight""]","second stage practice","space","36","{""ArrowUp,ArrowLeft"":3,""ArrowUp,ArrowRight"":36,""ArrowDown,ArrowLeft"":15,""ArrowDown,ArrowRight"":23}","true","ArrowUp,ArrowRight","","","","","","","","",""
"html-keyboard-response","32","202813","0.0-3.0-6.0-1.1","spark_pilot_2","7285","1","10","Male","","","","","","","null","<div style=""font-size:60px;"">+</div>","null","fixation","","","","","","","","","","","","","",""
"revaluation","33","206832","0.0-3.0-6.0-0.2","spark_pilot_2","7285","1","10","Male","","","false","","","","[346.69999999995343]","./assets/img/space/animals/cat.jpg","[""ArrowRight""]","second stage practice","space","36","{""ArrowUp,ArrowLeft"":3,""ArrowUp,ArrowRight"":36,""ArrowDown,ArrowLeft"":15,""ArrowDown,ArrowRight"":23}","true","ArrowUp,ArrowRight","","","","","","","","",""
"html-keyboard-response","34","207346","0.0-3.0-6.0-1.2","spark_pilot_2","7285","1","10","Male","","","","","","","null","<div style=""font-size:60px;"">+</div>","null","fixation","","","","","","","","","","","","","",""
"revaluation","35","211371","0.0-3.0-6.0-0.3","spark_pilot_2","7285","1","10","Male","","","false","","","","[542.5]","./assets/img/space/animals/rabbit.jpg","[""ArrowRight""]","second stage practice","space","23","{""ArrowUp,ArrowLeft"":3,""ArrowUp,ArrowRight"":36,""ArrowDown,ArrowLeft"":15,""ArrowDown,ArrowRight"":23}","true","ArrowDown,ArrowRight","","","","","","","","",""
"html-keyboard-response","36","211888","0.0-3.0-6.0-1.3","spark_pilot_2","7285","1","10","Male","","","","","","","null","<div style=""font-size:60px;"">+</div>","null","fixation","","","","","","","","","","","","","",""
"learning-instructions","37","232374","0.0-3.0-7.0-0.0","spark_pilot_2","7285","1","10","Male","","","","","","","3551.7999999998137","<p> Great job. Now let’s try putting it together. </p>
            <p> On each turn, you will first see a picture to remind you of the place you are in, and you need to choose whether to go up or down. </p>
            <p> Then you will see an animal and choose which of its chests to search for treasure. </p>","","instructions","","","","","","","","","","","","","",""
"learning-instructions","38","241190","0.0-3.0-7.0-0.1","spark_pilot_2","7285","1","10","Male","","","","","","","496.39999999990687","<p> When you choose whether to go up or down, try to go to the animal with the chest with the most treasure. </p>
            <p> Try practicing that now! </p>","","instructions","","","","","","","","","","","","","",""
"revaluation","39","247223","0.0-3.0-8.0-0.0","spark_pilot_2","7285","1","10","Male","","","false","","","","[878.0999999998603,489]","./assets/img/space/6.jpg","[""ArrowUp"",""ArrowRight""]","full practice","space","36","{""ArrowUp,ArrowLeft"":3,""ArrowUp,ArrowRight"":36,""ArrowDown,ArrowLeft"":15,""ArrowDown,ArrowRight"":23}","true","ArrowUp,ArrowRight","false","","","","","","","",""
"html-keyboard-response","40","247740","0.0-3.0-8.0-1.0","spark_pilot_2","7285","1","10","Male","","","","","","","null","<div style=""font-size:60px;"">+</div>","null","fixation","","","","","","","","","","","","","",""
"revaluation","41","253776","0.0-3.0-8.0-0.1","spark_pilot_2","7285","1","10","Male","","","false","","","","[523.1999999999534,422.60000000009313]","./assets/img/space/7.jpg","[""ArrowUp"",""ArrowLeft""]","full practice","space","3","{""ArrowUp,ArrowLeft"":3,""ArrowUp,ArrowRight"":36,""ArrowDown,ArrowLeft"":15,""ArrowDown,ArrowRight"":23}","false","ArrowUp,ArrowLeft","false","","","","","","","",""
"html-keyboard-response","42","254292","0.0-3.0-8.0-1.1","spark_pilot_2","7285","1","10","Male","","","","","","","null","<div style=""font-size:60px;"">+</div>","null","fixation","","","","","","","","","","","","","",""
"revaluation","43","260319","0.0-3.0-8.0-0.2","spark_pilot_2","7285","1","10","Male","","","false","","","","[693.5999999998603,512.9000000001397]","./assets/img/space/8.jpg","[""ArrowUp"",""ArrowRight""]","full practice","space","36","{""ArrowUp,ArrowLeft"":3,""ArrowUp,ArrowRight"":36,""ArrowDown,ArrowLeft"":15,""ArrowDown,ArrowRight"":23}","true","ArrowUp,ArrowRight","false","","","","","","","",""
"html-keyboard-response","44","260835","0.0-3.0-8.0-1.2","spark_pilot_2","7285","1","10","Male","","","","","","","null","<div style=""font-size:60px;"">+</div>","null","fixation","","","","","","","","","","","","","",""
"revaluation","45","266875","0.0-3.0-8.0-0.3","spark_pilot_2","7285","1","10","Male","","","false","","","","[684.4000000001397,559.6999999999534]","./assets/img/space/9.jpg","[""ArrowDown"",""ArrowLeft""]","full practice","space","15","{""ArrowUp,ArrowLeft"":3,""ArrowUp,ArrowRight"":36,""ArrowDown,ArrowLeft"":15,""ArrowDown,ArrowRight"":23}","false","ArrowDown,ArrowLeft","false","","","","","","","",""
"html-keyboard-response","46","267391","0.0-3.0-8.0-1.3","spark_pilot_2","7285","1","10","Male","","","","","","","null","<div style=""font-size:60px;"">+</div>","null","fixation","","","","","","","","","","","","","",""
"revaluation","47","273410","0.0-3.0-8.0-0.4","spark_pilot_2","7285","1","10","Male","","","false","","","","[400,340.20000000018626]","./assets/img/space/10.jpg","[""ArrowUp"",""ArrowRight""]","full practice","space","36","{""ArrowUp,ArrowLeft"":3,""ArrowUp,ArrowRight"":36,""ArrowDown,ArrowLeft"":15,""ArrowDown,ArrowRight"":23}","true","ArrowUp,ArrowRight","false","","","","","","","",""
"html-keyboard-response","48","273915","0.0-3.0-8.0-1.4","spark_pilot_2","7285","1","10","Male","","","","","","","null","<div style=""font-size:60px;"">+</div>","null","fixation","","","","","","","","","","","","","",""
"learning-instructions","49","285830","0.0-3.0-9.0-0.0","spark_pilot_2","7285","1","10","Male","","","","","","","1531.0999999998603","<p> One last thing: sometimes, you will see a robber. The robber can be anywhere in the picture. </p>
            <p> If you do not stop them, you will lose treasure. </p>
            <img src='./assets/img/instructions/robber.jpg' class='instructions-image'>","","instructions","","","","","","","","","","","","","",""
"learning-instructions","50","293507","0.0-3.0-9.0-0.1","spark_pilot_2","7285","1","10","Male","","","","","","","459.80000000004657","<p> If you see the robber, you should <b>press the space bar</b> rather than using the arrow keys. </p>
            <p> Try practicing that now! </p>","","instructions","","","","","","","","","","","","","",""
"revaluation","51","297536","0.0-3.0-10.0-0.0","spark_pilot_2","7285","1","10","Male","","","false","","","","[819.8999999999069]","./assets/img/space/catch/0.jpg","[""spaceBar""]","catch practice","space","0","{""ArrowUp,ArrowLeft"":3,""ArrowUp,ArrowRight"":36,""ArrowDown,ArrowLeft"":15,""ArrowDown,ArrowRight"":23}","true","spaceBar","true","","","","","","","",""
"html-keyboard-response","52","298051","0.0-3.0-10.0-1.0","spark_pilot_2","7285","1","10","Male","","","","","","","null","<div style=""font-size:60px;"">+</div>","null","fixation","","","","","","","","","","","","","",""
"revaluation","53","302086","0.0-3.0-10.0-0.1","spark_pilot_2","7285","1","10","Male","","","false","","","","[503.69999999995343]","./assets/img/space/catch/1.jpg","[""spaceBar""]","catch practice","space","0","{""ArrowUp,ArrowLeft"":3,""ArrowUp,ArrowRight"":36,""ArrowDown,ArrowLeft"":15,""ArrowDown,ArrowRight"":23}","true","spaceBar","true","","","","","","","",""
"html-keyboard-response","54","302601","0.0-3.0-10.0-1.1","spark_pilot_2","7285","1","10","Male","","","","","","","null","<div style=""font-size:60px;"">+</div>","null","fixation","","","","","","","","","","","","","",""
"revaluation","55","306642","0.0-3.0-10.0-0.2","spark_pilot_2","7285","1","10","Male","","","false","","","","[505.4000000001397]","./assets/img/space/catch/2.jpg","[""spaceBar""]","catch practice","space","0","{""ArrowUp,ArrowLeft"":3,""ArrowUp,ArrowRight"":36,""ArrowDown,ArrowLeft"":15,""ArrowDown,ArrowRight"":23}","true","spaceBar","true","","","","","","","",""
"html-keyboard-response","56","307156","0.0-3.0-10.0-1.2","spark_pilot_2","7285","1","10","Male","","","","","","","null","<div style=""font-size:60px;"">+</div>","null","fixation","","","","","","","","","","","","","",""
"learning-instructions","57","321625","0.0-3.0-11.0-0.0","spark_pilot_2","7285","1","10","Male","","","","","","","705.5","<p> After you explore a place to find treasure, it will be time to play a different game. </p>
            <p> During this game, red dots will appear on the screen and fall down slowly. </p>
            <p><b> You must click on them before they reach the bottom. </b></p>
            <img src='./assets/img/instructions/dotGame.jpg' class='instructions-image'>","","instructions","","","","","","","","","","","","","",""
"learning-instructions","58","327922","0.0-3.0-11.0-0.1","spark_pilot_2","7285","1","10","Male","","","","","","","574.6999999999534","<p> For every dot you click, you will earn additional treasure. </p>
            <p> Let’s try practicing that now. </p>","","instructions","","","","","","","","","","","","","",""
"revaluation","59","342943","0.0-3.0-12.0-0.0","spark_pilot_2","7285","1","10","Male","","","","","","","[63]","","","rest practice","","10","","","","","0","15000","","","","","",""
"learning-instructions","60","348786","0.0-3.0-13.0-0.0-0.0","spark_pilot_2","7285","1","10","Male","","","","","","","507.60000000009313","<p> Now, you will practice a shortened version of the game to get a sense of how it all fits together. </p>","","instructions","","","","","","","","","","","","","",""
"learning-instructions","61","354060","0.0-3.0-13.0-0.0-0.1","spark_pilot_2","7285","1","10","Male","","","","","","","2060.5999999998603","<p>This time you are searching for treasure in outer space.</p>","","instructions","","","","","","","","","","","","","",""
"learning-instructions","62","369409","0.0-3.0-13.0-1.0-0.0","spark_pilot_2","7285","1","10","Male","","","","","","","489.39999999990687","<p> Remember, when you see a picture of the place, use the up and down keys to <b>find an animal</b>.</p>
            <p> When you encounter an animal, you should use the left and right keys to <b>select a treasure chest</b>.</p>
            <p> Don't forget to look out for the robber! </p>","","instructions","","","","","","","","","","","","","",""
"revaluation","63","375443","0.0-3.0-13.0-2.0-0.0","spark_pilot_2","7285","1","10","Male","","","false","","","","[1056.8000000000466,782.0999999998603]","./assets/img/space/11.jpg","[""ArrowUp"",""ArrowRight""]","practice block","space","36","{""ArrowUp,ArrowLeft"":3,""ArrowUp,ArrowRight"":36,""ArrowDown,ArrowLeft"":15,""ArrowDown,ArrowRight"":23}","true","ArrowUp,ArrowRight","false","","","","","","","",""
"html-keyboard-response","64","375947","0.0-3.0-13.0-2.0-1.0","spark_pilot_2","7285","1","10","Male","","","","","","","null","<div style=""font-size:60px;"">+</div>","null","fixation","","","","","","","","","","","","","",""
"revaluation","65","381993","0.0-3.0-13.0-2.0-0.1","spark_pilot_2","7285","1","10","Male","","","false","","","","[564.6000000000931,607.2000000001863]","./assets/img/space/12.jpg","[""ArrowUp"",""ArrowRight""]","practice block","space","36","{""ArrowUp,ArrowLeft"":3,""ArrowUp,ArrowRight"":36,""ArrowDown,ArrowLeft"":15,""ArrowDown,ArrowRight"":23}","true","ArrowUp,ArrowRight","false","","","","","","","",""
"html-keyboard-response","66","382511","0.0-3.0-13.0-2.0-1.1","spark_pilot_2","7285","1","10","Male","","","","","","","null","<div style=""font-size:60px;"">+</div>","null","fixation","","","","","","","","","","","","","",""
"revaluation","67","388547","0.0-3.0-13.0-2.0-0.2","spark_pilot_2","7285","1","10","Male","","","false","","","","[584,435.5]","./assets/img/space/13.jpg","[""ArrowUp"",""ArrowRight""]","practice block","space","36","{""ArrowUp,ArrowLeft"":3,""ArrowUp,ArrowRight"":36,""ArrowDown,ArrowLeft"":15,""ArrowDown,ArrowRight"":23}","true","ArrowUp,ArrowRight","false","","","","","","","",""
"html-keyboard-response","68","389063","0.0-3.0-13.0-2.0-1.2","spark_pilot_2","7285","1","10","Male","","","","","","","null","<div style=""font-size:60px;"">+</div>","null","fixation","","","","","","","","","","","","","",""
"revaluation","69","395100","0.0-3.0-13.0-2.0-0.3","spark_pilot_2","7285","1","10","Male","","","false","","","","[593.8000000000466,518.3000000000466]","./assets/img/space/14.jpg","[""ArrowUp"",""ArrowRight""]","practice block","space","36","{""ArrowUp,ArrowLeft"":3,""ArrowUp,ArrowRight"":36,""ArrowDown,ArrowLeft"":15,""ArrowDown,ArrowRight"":23}","true","ArrowUp,ArrowRight","false","","","","","","","",""
"html-keyboard-response","70","395616","0.0-3.0-13.0-2.0-1.3","spark_pilot_2","7285","1","10","Male","","","","","","","null","<div style=""font-size:60px;"">+</div>","null","fixation","","","","","","","","","","","","","",""
"revaluation","71","401635","0.0-3.0-13.0-2.0-0.4","spark_pilot_2","7285","1","10","Male","","","false","","","","[680.4000000001397,685.6000000000931]","./assets/img/space/11.jpg","[""ArrowUp"",""ArrowRight""]","practice block","space","36","{""ArrowUp,ArrowLeft"":3,""ArrowUp,ArrowRight"":36,""ArrowDown,ArrowLeft"":15,""ArrowDown,ArrowRight"":23}","true","ArrowUp,ArrowRight","false","","","","","","","",""
"html-keyboard-response","72","402139","0.0-3.0-13.0-2.0-1.4","spark_pilot_2","7285","1","10","Male","","","","","","","null","<div style=""font-size:60px;"">+</div>","null","fixation","","","","","","","","","","","","","",""
"revaluation","73","408160","0.0-3.0-13.0-2.0-0.5","spark_pilot_2","7285","1","10","Male","","","false","","","","[570.1999999999534,564.5]","./assets/img/space/12.jpg","[""ArrowUp"",""ArrowRight""]","practice block","space","36","{""ArrowUp,ArrowLeft"":3,""ArrowUp,ArrowRight"":36,""ArrowDown,ArrowLeft"":15,""ArrowDown,ArrowRight"":23}","true","ArrowUp,ArrowRight","false","","","","","","","",""
"html-keyboard-response","74","408663","0.0-3.0-13.0-2.0-1.5","spark_pilot_2","7285","1","10","Male","","","","","","","null","<div style=""font-size:60px;"">+</div>","null","fixation","","","","","","","","","","","","","",""
"revaluation","75","414677","0.0-3.0-13.0-2.0-0.6","spark_pilot_2","7285","1","10","Male","","","false","","","","[692.1000000000931,650.6999999999534]","./assets/img/space/13.jpg","[""ArrowUp"",""ArrowRight""]","practice block","space","36","{""ArrowUp,ArrowLeft"":3,""ArrowUp,ArrowRight"":36,""ArrowDown,ArrowLeft"":15,""ArrowDown,ArrowRight"":23}","true","ArrowUp,ArrowRight","false","","","","","","","",""
"html-keyboard-response","76","415182","0.0-3.0-13.0-2.0-1.6","spark_pilot_2","7285","1","10","Male","","","","","","","null","<div style=""font-size:60px;"">+</div>","null","fixation","","","","","","","","","","","","","",""
"revaluation","77","421206","0.0-3.0-13.0-2.0-0.7","spark_pilot_2","7285","1","10","Male","","","false","","","","[737.8000000000466,680.6999999999534]","./assets/img/space/14.jpg","[""ArrowUp"",""ArrowRight""]","practice block","space","36","{""ArrowUp,ArrowLeft"":3,""ArrowUp,ArrowRight"":36,""ArrowDown,ArrowLeft"":15,""ArrowDown,ArrowRight"":23}","true","ArrowUp,ArrowRight","false","","","","","","","",""
"html-keyboard-response","78","421711","0.0-3.0-13.0-2.0-1.7","spark_pilot_2","7285","1","10","Male","","","","","","","null","<div style=""font-size:60px;"">+</div>","null","fixation","","","","","","","","","","","","","",""
"revaluation","79","425739","0.0-3.0-13.0-2.0-0.8","spark_pilot_2","7285","1","10","Male","","","false","","","","[697.3999999999069]","./assets/img/space/catch/3.jpg","[""spaceBar""]","practice block","space","0","{""ArrowUp,ArrowLeft"":3,""ArrowUp,ArrowRight"":36,""ArrowDown,ArrowLeft"":15,""ArrowDown,ArrowRight"":23}","true","spaceBar","true","","","","","","","",""
"html-keyboard-response","80","426244","0.0-3.0-13.0-2.0-1.8","spark_pilot_2","7285","1","10","Male","","","","","","","null","<div style=""font-size:60px;"">+</div>","null","fixation","","","","","","","","","","","","","",""
"learning-instructions","81","440738","0.0-3.0-13.0-3.0-0.0","spark_pilot_2","7285","1","10","Male","","","","","","","1457.5","<p> Now, you will travel with a friend who will choose whether you go up or down first. </p>
            <p> On these turns, you will just see the animal that they found. You will still get to choose which chest to search for treasure.</p>","","instructions","","","","","","","","","","","","","",""
"revaluation","82","444761","0.0-3.0-13.0-4.0-0.0","spark_pilot_2","7285","1","10","Male","","","false","","","","[841.9000000001397]","./assets/img/space/animals/rabbit.jpg","[""ArrowRight""]","practice block","space","23","{""ArrowUp,ArrowLeft"":3,""ArrowUp,ArrowRight"":36,""ArrowDown,ArrowLeft"":15,""ArrowDown,ArrowRight"":23}","true","ArrowDown,ArrowRight","","","","","","","","",""
"html-keyboard-response","83","445278","0.0-3.0-13.0-4.0-1.0","spark_pilot_2","7285","1","10","Male","","","","","","","null","<div style=""font-size:60px;"">+</div>","null","fixation","","","","","","","","","","","","","",""
"revaluation","84","449298","0.0-3.0-13.0-4.0-0.1","spark_pilot_2","7285","1","10","Male","","","false","","","","[360.89999999990687]","./assets/img/space/animals/cat.jpg","[""ArrowRight""]","practice block","space","36","{""ArrowUp,ArrowLeft"":3,""ArrowUp,ArrowRight"":36,""ArrowDown,ArrowLeft"":15,""ArrowDown,ArrowRight"":23}","true","ArrowUp,ArrowRight","","","","","","","","",""
"html-keyboard-response","85","449802","0.0-3.0-13.0-4.0-1.1","spark_pilot_2","7285","1","10","Male","","","","","","","null","<div style=""font-size:60px;"">+</div>","null","fixation","","","","","","","","","","","","","",""
"revaluation","86","453839","0.0-3.0-13.0-4.0-0.2","spark_pilot_2","7285","1","10","Male","","","false","","","","[605.5999999998603]","./assets/img/space/animals/cat.jpg","[""ArrowRight""]","practice block","space","36","{""ArrowUp,ArrowLeft"":3,""ArrowUp,ArrowRight"":36,""ArrowDown,ArrowLeft"":15,""ArrowDown,ArrowRight"":23}","true","ArrowUp,ArrowRight","","","","","","","","",""
"html-keyboard-response","87","454353","0.0-3.0-13.0-4.0-1.2","spark_pilot_2","7285","1","10","Male","","","","","","","null","<div style=""font-size:60px;"">+</div>","null","fixation","","","","","","","","","","","","","",""
"revaluation","88","458374","0.0-3.0-13.0-4.0-0.3","spark_pilot_2","7285","1","10","Male","","","false","","","","[698.3000000000466]","./assets/img/space/animals/rabbit.jpg","[""ArrowRight""]","practice block","space","23","{""ArrowUp,ArrowLeft"":3,""ArrowUp,ArrowRight"":36,""ArrowDown,ArrowLeft"":15,""ArrowDown,ArrowRight"":23}","true","ArrowDown,ArrowRight","","","","","","","","",""
"html-keyboard-response","89","458890","0.0-3.0-13.0-4.0-1.3","spark_pilot_2","7285","1","10","Male","","","","","","","null","<div style=""font-size:60px;"">+</div>","null","fixation","","","","","","","","","","","","","",""
"learning-instructions","90","466959","0.0-3.0-13.0-5.0-0.0","spark_pilot_2","7285","1","10","Male","","","","","","","647.5","<p> Time to play the dot game! </p>
            <p> For 15 seconds, click the red dots on the following screen as they appear. </p>","","instructions","","","","","","","","","","","","","",""
"revaluation","91","481972","0.0-3.0-13.0-6.0-0.0","spark_pilot_2","7285","1","10","Male","","","","","","","[108]","","","rest practice","","10","","","","","0","15000","","","","","",""
"learning-instructions","92","490230","0.0-3.0-13.0-7.0-0.0","spark_pilot_2","7285","1","10","Male","","","","","","","2068","<p> You have almost finished this part of the game! </p>
            <p> We are going to ask you to make a few more choices. </p>","","instructions","","","","","","","","","","","","","",""
"learning-instructions","93","506319","0.0-3.0-13.0-7.0-0.1","spark_pilot_2","7285","1","10","Male","","","","","","","1995.8999999999069","<p> First, you need to decide whether to go up or down. When you see each picture, use the arrow keys to make your choice. </p>
            <p><b>You will not see which animal you found, but try to get to the one that will give you the most treasure.</b></p>","","instructions","","","","","","","","","","","","","",""
"revaluation","94","507344","0.0-3.0-13.0-8.0","spark_pilot_2","7285","1","10","Male","","","false","","","","[1018.3999999999069]","./assets/img/space/15.jpg","[""ArrowUp""]","practice block","space","0","{""ArrowUp,ArrowLeft"":3,""ArrowUp,ArrowRight"":36,""ArrowDown,ArrowLeft"":15,""ArrowDown,ArrowRight"":23}","true","ArrowUp","false","","","","","","","",""
"html-keyboard-response","95","507851","0.0-3.0-13.0-9.0","spark_pilot_2","7285","1","10","Male","","","","","","","null","<div style=""font-size:60px;"">+</div>","null","fixation","","","","","","","","","","","","","",""
"learning-instructions","96","521979","0.0-3.0-13.0-10.0-0.0","spark_pilot_2","7285","1","10","Male","","","","","","","2656","<p> Now you will see the animals again and can search their chests for treasure. </p>
            <p> This time, you will not see how much treasure you earned, but you will earn more bonus money for making better choices. </p>","","instructions","","","","","","","","","","","","","",""
"revaluation","97","522782","0.0-3.0-13.0-11.0-0.0","spark_pilot_2","7285","1","10","Male","","","false","","","","[796.5999999998603]","./assets/img/space/animals/cat.jpg","[""ArrowRight""]","practice block","space","0","{""ArrowUp,ArrowLeft"":3,""ArrowUp,ArrowRight"":36,""ArrowDown,ArrowLeft"":15,""ArrowDown,ArrowRight"":23}","true","ArrowUp,ArrowRight","","","","","","","","",""
"html-keyboard-response","98","523292","0.0-3.0-13.0-11.0-1.0","spark_pilot_2","7285","1","10","Male","","","","","","","null","<div style=""font-size:60px;"">+</div>","null","fixation","","","","","","","","","","","","","",""
"revaluation","99","524513","0.0-3.0-13.0-11.0-0.1","spark_pilot_2","7285","1","10","Male","","","false","","","","[1209.3000000000466]","./assets/img/space/animals/rabbit.jpg","[""ArrowRight""]","practice block","space","0","{""ArrowUp,ArrowLeft"":3,""ArrowUp,ArrowRight"":36,""ArrowDown,ArrowLeft"":15,""ArrowDown,ArrowRight"":23}","true","ArrowDown,ArrowRight","","","","","","","","",""
"html-keyboard-response","100","525018","0.0-3.0-13.0-11.0-1.1","spark_pilot_2","7285","1","10","Male","","","","","","","null","<div style=""font-size:60px;"">+</div>","null","fixation","","","","","","","","","","","","","",""
"learning-instructions","101","530807","0.0-3.0-14.0-0.0","spark_pilot_2","7285","1","10","Male","","","","","","","1174.5","<p> Before you start, we're going to ask you a few questions about how the game works. </p>","","instructions","","","","","","","","","","","","","",""
"comp-q","102","537381","0.0-3.0-15.0-0.0-0.0","spark_pilot_2","7285","1","10","Male","","","","","","","940.6000000000931","<p> <b> True or False? </b> </p>
            <p> There can be 50 pieces of treasure in a given animal's chest. </p>","1","comp_question","","","","true","","","","","","","","","",""
"comp-q","103","547718","0.0-3.0-15.0-0.0-1.0","spark_pilot_2","7285","1","10","Male","","","","","","","3624.399999999907","<p> <b> That's right! </b> The amount of treasure in each chest can range from 0 to 40 pieces. </p>","0","comp_answer","","","","","","","","","","","","","",""
"comp-q","104","556859","0.0-3.0-15.0-0.1-0.1","spark_pilot_2","7285","1","10","Male","","","","","","","1943.8000000000466","<p> <b> True or False? </b> </p><p> In this game, all animals have the same amount of treasure in their left and right chests. </p>","1","comp_question","","","","true","","","","","","","","","",""
"comp-q","105","565721","0.0-3.0-15.0-0.1-1.1","spark_pilot_2","7285","1","10","Male","","","","","","","3596.5","<p> <b> That's right! </b> Animals have different amounts of treasure in their treasure chests. </p>","0","comp_answer","","","","","","","","","","","","","",""
"comp-q","106","582654","0.0-3.0-15.0-0.2-0.2","spark_pilot_2","7285","1","10","Male","","","","","","","11049.199999999953","<p> <b> True or False? </b> </p><p> The same animal will always be there if you go up in the same place. </p>","0","comp_question","","","","true","","","","","","","","","",""
"comp-q","107","590989","0.0-3.0-15.0-0.2-1.2","spark_pilot_2","7285","1","10","Male","","","","","","","1823.3999999999069","<p> <b> That's right! </b> One animal lives in the upper part and one lives in the lower part of every place. </p>","0","comp_answer","","","","","","","","","","","","","",""
"comp-q","108","601105","0.0-3.0-15.0-0.3-0.3","spark_pilot_2","7285","1","10","Male","","","","","","","4549.699999999953","<p> <b> True or False? </b> </p><p> If you see a different picture, it means you are in a new place. </p>","1","comp_question","","","","true","","","","","","","","","",""
"comp-q","109","617796","0.0-3.0-15.0-0.3-1.3","spark_pilot_2","7285","1","10","Male","","","","","","","5390.100000000093","<p> <b> That's right! </b> Lots of different images may show the same place. For example,  you may see three different images that all remind you that you are in outer space. </p>","0","comp_answer","","","","","","","","","","","","","",""
"learning-instructions","110","628800","0.0-3.0-16.0-0.0","spark_pilot_2","7285","1","10","Male","","","","","","","993.5999999998603","<p> Good job. Remember to do your best because the amount of treasure you earn will be converted into bonus money. </p>
            <p> It’s time to start the real game! </p>","","instructions","","","","","","","","","","","","","",""
"learning-instructions","111","634153","0.0-4.0-0.0-0.0","spark_pilot_2","7285","1","10","Male","","","","","","","2627.100000000093","<p> This time you are searching for treasure in the <b>ocean</b>.</p>","","instructions","","","","","","","","","","","","","",""
"learning-instructions","112","653240","0.0-4.0-0.0-0.1","spark_pilot_2","7285","1","10","Male","","","","","","","1653","<p><b>New</b> animals with <b>new</b> treasure chests live here. You need to explore to discover where the animal with the best treasure chest is.</p>
                    <p> Like before, once you figure out which animal has the chest with the most treasure, you should try to get to that animal and select that chest! </p>","","instructions","","","","","","","","","","","","","",""
"learning-instructions","113","669581","0.0-4.0-1.0-0.0","spark_pilot_2","7285","1","10","Male","","","","","","","1612.6999999999534","<p> Remember, when you see a picture of the place, use the up and down keys to <b>find an animal</b>.</p>
            <p> When you encounter an animal, you should use the left and right keys to <b>select a treasure chest</b>.</p>
            <p> Don't forget to look out for the robber! </p>","","instructions","","","","","","","","","","","","","",""
"revaluation","114","675616","0.0-4.0-2.0-0.0","spark_pilot_2","7285","1","10","Male","","","false","","","","[999.5,725.0999999998603]","./assets/img/ocean/memory/5.jpg","[""ArrowUp"",""ArrowRight""]","value training","ocean","10","{""ArrowUp,ArrowLeft"":26,""ArrowUp,ArrowRight"":10,""ArrowDown,ArrowLeft"":5,""ArrowDown,ArrowRight"":17}","false","ArrowUp,ArrowRight","false","","","original","1","0","","",""
"html-keyboard-response","115","676131","0.0-4.0-2.0-1.0","spark_pilot_2","7285","1","10","Male","","","","","","","null","<div style=""font-size:60px;"">+</div>","null","fixation","","","","","","","","","","","1","","",""
"revaluation","116","682158","0.0-4.0-2.0-0.1","spark_pilot_2","7285","1","10","Male","","","false","","","","[553.8999999999069,363.5999999998603]","./assets/img/ocean/memory/33.jpg","[""ArrowUp"",""ArrowLeft""]","value training","ocean","26","{""ArrowUp,ArrowLeft"":26,""ArrowUp,ArrowRight"":10,""ArrowDown,ArrowLeft"":5,""ArrowDown,ArrowRight"":17}","true","ArrowUp,ArrowLeft","false","","","original","1","2","","",""
"html-keyboard-response","117","682675","0.0-4.0-2.0-1.1","spark_pilot_2","7285","1","10","Male","","","","","","","null","<div style=""font-size:60px;"">+</div>","null","fixation","","","","","","","","","","","3","","",""
"revaluation","118","688704","0.0-4.0-2.0-0.2","spark_pilot_2","7285","1","10","Male","","","false","","","","[480.79999999981374,457.4000000001397]","./assets/img/ocean/memory/34.jpg","[""ArrowDown"",""ArrowRight""]","value training","ocean","17","{""ArrowUp,ArrowLeft"":26,""ArrowUp,ArrowRight"":10,""ArrowDown,ArrowLeft"":5,""ArrowDown,ArrowRight"":17}","false","ArrowDown,ArrowRight","false","","","original","1","4","","",""
"html-keyboard-response","119","689221","0.0-4.0-2.0-1.2","spark_pilot_2","7285","1","10","Male","","","","","","","null","<div style=""font-size:60px;"">+</div>","null","fixation","","","","","","","","","","","5","","",""
"revaluation","120","695257","0.0-4.0-2.0-0.3","spark_pilot_2","7285","1","10","Male","","","false","","","","[479,348.89999999990687]","./assets/img/ocean/memory/16.jpg","[""ArrowDown"",""ArrowLeft""]","value training","ocean","5","{""ArrowUp,ArrowLeft"":26,""ArrowUp,ArrowRight"":10,""ArrowDown,ArrowLeft"":5,""ArrowDown,ArrowRight"":17}","false","ArrowDown,ArrowLeft","false","","","original","1","6","","",""
"html-keyboard-response","121","695770","0.0-4.0-2.0-1.3","spark_pilot_2","7285","1","10","Male","","","","","","","null","<div style=""font-size:60px;"">+</div>","null","fixation","","","","","","","","","","","7","","",""
"revaluation","122","699786","0.0-4.0-2.0-0.4","spark_pilot_2","7285","1","10","Male","","","false","","","","[752.6999999999534]","./assets/img/ocean/catch/7.jpg","[""spaceBar""]","value training","ocean","0","{""ArrowUp,ArrowLeft"":26,""ArrowUp,ArrowRight"":10,""ArrowDown,ArrowLeft"":5,""ArrowDown,ArrowRight"":17}","true","spaceBar","true","","","original","1","8","","",""
"html-keyboard-response","123","700292","0.0-4.0-2.0-1.4","spark_pilot_2","7285","1","10","Male","","","","","","","null","<div style=""font-size:60px;"">+</div>","null","fixation","","","","","","","","","","","9","","",""
"revaluation","124","706320","0.0-4.0-2.0-0.5","spark_pilot_2","7285","1","10","Male","","","false","","","","[521.3000000000466,312.39999999990687]","./assets/img/ocean/memory/36.jpg","[""ArrowUp"",""ArrowLeft""]","value training","ocean","26","{""ArrowUp,ArrowLeft"":26,""ArrowUp,ArrowRight"":10,""ArrowDown,ArrowLeft"":5,""ArrowDown,ArrowRight"":17}","true","ArrowUp,ArrowLeft","false","","","original","1","10","","",""
"html-keyboard-response","125","706823","0.0-4.0-2.0-1.5","spark_pilot_2","7285","1","10","Male","","","","","","","null","<div style=""font-size:60px;"">+</div>","null","fixation","","","","","","","","","","","11","","",""
"revaluation","126","712856","0.0-4.0-2.0-0.6","spark_pilot_2","7285","1","10","Male","","","false","","","","[578.6999999999534,426.80000000004657]","./assets/img/ocean/memory/37.jpg","[""ArrowUp"",""ArrowLeft""]","value training","ocean","26","{""ArrowUp,ArrowLeft"":26,""ArrowUp,ArrowRight"":10,""ArrowDown,ArrowLeft"":5,""ArrowDown,ArrowRight"":17}","true","ArrowUp,ArrowLeft","false","","","original","1","12","","",""
"html-keyboard-response","127","713361","0.0-4.0-2.0-1.6","spark_pilot_2","7285","1","10","Male","","","","","","","null","<div style=""font-size:60px;"">+</div>","null","fixation","","","","","","","","","","","13","","",""
"revaluation","128","719400","0.0-4.0-2.0-0.7","spark_pilot_2","7285","1","10","Male","","","false","","","","[466.60000000009313,519.6999999999534]","./assets/img/ocean/memory/6.jpg","[""ArrowUp"",""ArrowLeft""]","value training","ocean","26","{""ArrowUp,ArrowLeft"":26,""ArrowUp,ArrowRight"":10,""ArrowDown,ArrowLeft"":5,""ArrowDown,ArrowRight"":17}","true","ArrowUp,ArrowLeft","false","","","original","1","14","","",""
"html-keyboard-response","129","719904","0.0-4.0-2.0-1.7","spark_pilot_2","7285","1","10","Male","","","","","","","null","<div style=""font-size:60px;"">+</div>","null","fixation","","","","","","","","","","","15","","",""
"revaluation","130","725921","0.0-4.0-2.0-0.8","spark_pilot_2","7285","1","10","Male","","","false","","","","[471.69999999995343,443.89999999990687]","./assets/img/ocean/memory/16.jpg","[""ArrowUp"",""ArrowLeft""]","value training","ocean","26","{""ArrowUp,ArrowLeft"":26,""ArrowUp,ArrowRight"":10,""ArrowDown,ArrowLeft"":5,""ArrowDown,ArrowRight"":17}","true","ArrowUp,ArrowLeft","false","","","original","1","16","","",""
"html-keyboard-response","131","726425","0.0-4.0-2.0-1.8","spark_pilot_2","7285","1","10","Male","","","","","","","null","<div style=""font-size:60px;"">+</div>","null","fixation","","","","","","","","","","","17","","",""
"revaluation","132","732451","0.0-4.0-2.0-0.9","spark_pilot_2","7285","1","10","Male","","","false","","","","[603,530.6000000000931]","./assets/img/ocean/memory/11.jpg","[""ArrowUp"",""ArrowLeft""]","value training","ocean","26","{""ArrowUp,ArrowLeft"":26,""ArrowUp,ArrowRight"":10,""ArrowDown,ArrowLeft"":5,""ArrowDown,ArrowRight"":17}","true","ArrowUp,ArrowLeft","false","","","original","1","18","","",""
"html-keyboard-response","133","732956","0.0-4.0-2.0-1.9","spark_pilot_2","7285","1","10","Male","","","","","","","null","<div style=""font-size:60px;"">+</div>","null","fixation","","","","","","","","","","","19","","",""
"revaluation","134","736985","0.0-4.0-2.0-0.10","spark_pilot_2","7285","1","10","Male","","","false","","","","[714.6000000000931]","./assets/img/ocean/catch/1.jpg","[""spaceBar""]","value training","ocean","0","{""ArrowUp,ArrowLeft"":26,""ArrowUp,ArrowRight"":10,""ArrowDown,ArrowLeft"":5,""ArrowDown,ArrowRight"":17}","true","spaceBar","true","","","original","1","20","","",""
"html-keyboard-response","135","737489","0.0-4.0-2.0-1.10","spark_pilot_2","7285","1","10","Male","","","","","","","null","<div style=""font-size:60px;"">+</div>","null","fixation","","","","","","","","","","","21","","",""
"revaluation","136","743522","0.0-4.0-2.0-0.11","spark_pilot_2","7285","1","10","Male","","","false","","","","[410.5999999998603,459.10000000009313]","./assets/img/ocean/memory/4.jpg","[""ArrowUp"",""ArrowLeft""]","value training","ocean","26","{""ArrowUp,ArrowLeft"":26,""ArrowUp,ArrowRight"":10,""ArrowDown,ArrowLeft"":5,""ArrowDown,ArrowRight"":17}","true","ArrowUp,ArrowLeft","false","","","original","1","22","","",""
"html-keyboard-response","137","744027","0.0-4.0-2.0-1.11","spark_pilot_2","7285","1","10","Male","","","","","","","null","<div style=""font-size:60px;"">+</div>","null","fixation","","","","","","","","","","","23","","",""
"revaluation","138","750050","0.0-4.0-2.0-0.12","spark_pilot_2","7285","1","10","Male","","","false","","","","[628.9000000001397,434]","./assets/img/ocean/memory/23.jpg","[""ArrowUp"",""ArrowLeft""]","value training","ocean","26","{""ArrowUp,ArrowLeft"":26,""ArrowUp,ArrowRight"":10,""ArrowDown,ArrowLeft"":5,""ArrowDown,ArrowRight"":17}","true","ArrowUp,ArrowLeft","false","","","original","1","24","","",""
"html-keyboard-response","139","750552","0.0-4.0-2.0-1.12","spark_pilot_2","7285","1","10","Male","","","","","","","null","<div style=""font-size:60px;"">+</div>","null","fixation","","","","","","","","","","","25","","",""
"revaluation","140","756563","0.0-4.0-2.0-0.13","spark_pilot_2","7285","1","10","Male","","","false","","","","[1120.1000000000931,613.8999999999069]","./assets/img/ocean/memory/39.jpg","[""ArrowUp"",""ArrowLeft""]","value training","ocean","26","{""ArrowUp,ArrowLeft"":26,""ArrowUp,ArrowRight"":10,""ArrowDown,ArrowLeft"":5,""ArrowDown,ArrowRight"":17}","true","ArrowUp,ArrowLeft","false","","","original","1","26","","",""
"html-keyboard-response","141","757066","0.0-4.0-2.0-1.13","spark_pilot_2","7285","1","10","Male","","","","","","","null","<div style=""font-size:60px;"">+</div>","null","fixation","","","","","","","","","","","27","","",""
"revaluation","142","763084","0.0-4.0-2.0-0.14","spark_pilot_2","7285","1","10","Male","","","false","","","","[595.8000000000466,558.9000000001397]","./assets/img/ocean/memory/31.jpg","[""ArrowUp"",""ArrowLeft""]","value training","ocean","26","{""ArrowUp,ArrowLeft"":26,""ArrowUp,ArrowRight"":10,""ArrowDown,ArrowLeft"":5,""ArrowDown,ArrowRight"":17}","true","ArrowUp,ArrowLeft","false","","","original","1","28","","",""
"html-keyboard-response","143","763588","0.0-4.0-2.0-1.14","spark_pilot_2","7285","1","10","Male","","","","","","","null","<div style=""font-size:60px;"">+</div>","null","fixation","","","","","","","","","","","29","","",""
"revaluation","144","769618","0.0-4.0-2.0-0.15","spark_pilot_2","7285","1","10","Male","","","false","","","","[615.3000000000466,401.60000000009313]","./assets/img/ocean/memory/14.jpg","[""ArrowUp"",""ArrowLeft""]","value training","ocean","26","{""ArrowUp,ArrowLeft"":26,""ArrowUp,ArrowRight"":10,""ArrowDown,ArrowLeft"":5,""ArrowDown,ArrowRight"":17}","true","ArrowUp,ArrowLeft","false","","","original","1","30","","",""
"html-keyboard-response","145","770124","0.0-4.0-2.0-1.15","spark_pilot_2","7285","1","10","Male","","","","","","","null","<div style=""font-size:60px;"">+</div>","null","fixation","","","","","","","","","","","31","","",""
"revaluation","146","774144","0.0-4.0-2.0-0.16","spark_pilot_2","7285","1","10","Male","","","false","","","","[600.3999999999069]","./assets/img/ocean/catch/2.jpg","[""spaceBar""]","value training","ocean","0","{""ArrowUp,ArrowLeft"":26,""ArrowUp,ArrowRight"":10,""ArrowDown,ArrowLeft"":5,""ArrowDown,ArrowRight"":17}","true","spaceBar","true","","","original","1","32","","",""
"html-keyboard-response","147","774646","0.0-4.0-2.0-1.16","spark_pilot_2","7285","1","10","Male","","","","","","","null","<div style=""font-size:60px;"">+</div>","null","fixation","","","","","","","","","","","33","","",""
"revaluation","148","780657","0.0-4.0-2.0-0.17","spark_pilot_2","7285","1","10","Male","","","false","","","","[626.7999999998137,280.70000000018626]","./assets/img/ocean/memory/36.jpg","[""ArrowUp"",""ArrowLeft""]","value training","ocean","26","{""ArrowUp,ArrowLeft"":26,""ArrowUp,ArrowRight"":10,""ArrowDown,ArrowLeft"":5,""ArrowDown,ArrowRight"":17}","true","ArrowUp,ArrowLeft","false","","","original","1","34","","",""
"html-keyboard-response","149","781163","0.0-4.0-2.0-1.17","spark_pilot_2","7285","1","10","Male","","","","","","","null","<div style=""font-size:60px;"">+</div>","null","fixation","","","","","","","","","","","35","","",""
"revaluation","150","787186","0.0-4.0-2.0-0.18","spark_pilot_2","7285","1","10","Male","","","false","","","","[607.6999999999534,629.5]","./assets/img/ocean/memory/21.jpg","[""ArrowUp"",""ArrowLeft""]","value training","ocean","26","{""ArrowUp,ArrowLeft"":26,""ArrowUp,ArrowRight"":10,""ArrowDown,ArrowLeft"":5,""ArrowDown,ArrowRight"":17}","true","ArrowUp,ArrowLeft","false","","","original","1","36","","",""
"html-keyboard-response","151","787692","0.0-4.0-2.0-1.18","spark_pilot_2","7285","1","10","Male","","","","","","","null","<div style=""font-size:60px;"">+</div>","null","fixation","","","","","","","","","","","37","","",""
"revaluation","152","793712","0.0-4.0-2.0-0.19","spark_pilot_2","7285","1","10","Male","","","false","","","","[498.69999999995343,459]","./assets/img/ocean/memory/34.jpg","[""ArrowUp"",""ArrowLeft""]","value training","ocean","26","{""ArrowUp,ArrowLeft"":26,""ArrowUp,ArrowRight"":10,""ArrowDown,ArrowLeft"":5,""ArrowDown,ArrowRight"":17}","true","ArrowUp,ArrowLeft","false","","","original","1","38","","",""
"html-keyboard-response","153","794215","0.0-4.0-2.0-1.19","spark_pilot_2","7285","1","10","Male","","","","","","","null","<div style=""font-size:60px;"">+</div>","null","fixation","","","","","","","","","","","39","","",""
"revaluation","154","800245","0.0-4.0-2.0-0.20","spark_pilot_2","7285","1","10","Male","","","false","","","","[536.9000000001397,382.69999999995343]","./assets/img/ocean/memory/10.jpg","[""ArrowUp"",""ArrowLeft""]","value training","ocean","26","{""ArrowUp,ArrowLeft"":26,""ArrowUp,ArrowRight"":10,""ArrowDown,ArrowLeft"":5,""ArrowDown,ArrowRight"":17}","true","ArrowUp,ArrowLeft","false","","","original","1","40","","",""
"html-keyboard-response","155","800762","0.0-4.0-2.0-1.20","spark_pilot_2","7285","1","10","Male","","","","","","","null","<div style=""font-size:60px;"">+</div>","null","fixation","","","","","","","","","","","41","","",""
"revaluation","156","806793","0.0-4.0-2.0-0.21","spark_pilot_2","7285","1","10","Male","","","false","","","","[670.6999999999534,562.5]","./assets/img/ocean/memory/12.jpg","[""ArrowUp"",""ArrowLeft""]","value training","ocean","26","{""ArrowUp,ArrowLeft"":26,""ArrowUp,ArrowRight"":10,""ArrowDown,ArrowLeft"":5,""ArrowDown,ArrowRight"":17}","true","ArrowUp,ArrowLeft","false","","","original","1","42","","",""
"html-keyboard-response","157","807297","0.0-4.0-2.0-1.21","spark_pilot_2","7285","1","10","Male","","","","","","","null","<div style=""font-size:60px;"">+</div>","null","fixation","","","","","","","","","","","43","","",""
"revaluation","158","811320","0.0-4.0-2.0-0.22","spark_pilot_2","7285","1","10","Male","","","false","","","","[580.6999999999534]","./assets/img/ocean/catch/3.jpg","[""spaceBar""]","value training","ocean","0","{""ArrowUp,ArrowLeft"":26,""ArrowUp,ArrowRight"":10,""ArrowDown,ArrowLeft"":5,""ArrowDown,ArrowRight"":17}","true","spaceBar","true","","","original","1","44","","",""
"html-keyboard-response","159","811825","0.0-4.0-2.0-1.22","spark_pilot_2","7285","1","10","Male","","","","","","","null","<div style=""font-size:60px;"">+</div>","null","fixation","","","","","","","","","","","45","","",""
"revaluation","160","817838","0.0-4.0-2.0-0.23","spark_pilot_2","7285","1","10","Male","","","false","","","","[1006.1000000000931,499.10000000009313]","./assets/img/ocean/memory/24.jpg","[""ArrowUp"",""ArrowLeft""]","value training","ocean","26","{""ArrowUp,ArrowLeft"":26,""ArrowUp,ArrowRight"":10,""ArrowDown,ArrowLeft"":5,""ArrowDown,ArrowRight"":17}","true","ArrowUp,ArrowLeft","false","","","original","1","46","","",""
"html-keyboard-response","161","818343","0.0-4.0-2.0-1.23","spark_pilot_2","7285","1","10","Male","","","","","","","null","<div style=""font-size:60px;"">+</div>","null","fixation","","","","","","","","","","","47","","",""
"revaluation","162","824368","0.0-4.0-2.0-0.24","spark_pilot_2","7285","1","10","Male","","","false","","","","[618.6000000000931,599.1999999999534]","./assets/img/ocean/memory/3.jpg","[""ArrowUp"",""ArrowLeft""]","value training","ocean","26","{""ArrowUp,ArrowLeft"":26,""ArrowUp,ArrowRight"":10,""ArrowDown,ArrowLeft"":5,""ArrowDown,ArrowRight"":17}","true","ArrowUp,ArrowLeft","false","","","original","1","48","","",""
"html-keyboard-response","163","824873","0.0-4.0-2.0-1.24","spark_pilot_2","7285","1","10","Male","","","","","","","null","<div style=""font-size:60px;"">+</div>","null","fixation","","","","","","","","","","","49","","",""
"revaluation","164","828899","0.0-4.0-2.0-0.25","spark_pilot_2","7285","1","10","Male","","","false","","","","[704.1999999999534]","./assets/img/ocean/catch/6.jpg","[""spaceBar""]","value training","ocean","0","{""ArrowUp,ArrowLeft"":26,""ArrowUp,ArrowRight"":10,""ArrowDown,ArrowLeft"":5,""ArrowDown,ArrowRight"":17}","true","spaceBar","true","","","original","1","50","","",""
"html-keyboard-response","165","829402","0.0-4.0-2.0-1.25","spark_pilot_2","7285","1","10","Male","","","","","","","null","<div style=""font-size:60px;"">+</div>","null","fixation","","","","","","","","","","","51","","",""
"revaluation","166","835415","0.0-4.0-2.0-0.26","spark_pilot_2","7285","1","10","Male","","","false","","","","[827.9000000001397,832.3999999999069]","./assets/img/ocean/memory/39.jpg","[""ArrowUp"",""ArrowLeft""]","value training","ocean","26","{""ArrowUp,ArrowLeft"":26,""ArrowUp,ArrowRight"":10,""ArrowDown,ArrowLeft"":5,""ArrowDown,ArrowRight"":17}","true","ArrowUp,ArrowLeft","false","","","original","1","52","","",""
"html-keyboard-response","167","835920","0.0-4.0-2.0-1.26","spark_pilot_2","7285","1","10","Male","","","","","","","null","<div style=""font-size:60px;"">+</div>","null","fixation","","","","","","","","","","","53","","",""
"revaluation","168","841954","0.0-4.0-2.0-0.27","spark_pilot_2","7285","1","10","Male","","","false","","","","[635.5,515.5]","./assets/img/ocean/memory/28.jpg","[""ArrowUp"",""ArrowLeft""]","value training","ocean","26","{""ArrowUp,ArrowLeft"":26,""ArrowUp,ArrowRight"":10,""ArrowDown,ArrowLeft"":5,""ArrowDown,ArrowRight"":17}","true","ArrowUp,ArrowLeft","false","","","original","1","54","","",""
"html-keyboard-response","169","842460","0.0-4.0-2.0-1.27","spark_pilot_2","7285","1","10","Male","","","","","","","null","<div style=""font-size:60px;"">+</div>","null","fixation","","","","","","","","","","","55","","",""
"revaluation","170","846470","0.0-4.0-2.0-0.28","spark_pilot_2","7285","1","10","Male","","","false","","","","[656.3999999999069]","./assets/img/ocean/catch/4.jpg","[""spaceBar""]","value training","ocean","0","{""ArrowUp,ArrowLeft"":26,""ArrowUp,ArrowRight"":10,""ArrowDown,ArrowLeft"":5,""ArrowDown,ArrowRight"":17}","true","spaceBar","true","","","original","1","56","","",""
"html-keyboard-response","171","846975","0.0-4.0-2.0-1.28","spark_pilot_2","7285","1","10","Male","","","","","","","null","<div style=""font-size:60px;"">+</div>","null","fixation","","","","","","","","","","","57","","",""
"revaluation","172","852994","0.0-4.0-2.0-0.29","spark_pilot_2","7285","1","10","Male","","","false","","","","[550.5999999998603,741.8000000000466]","./assets/img/ocean/memory/23.jpg","[""ArrowUp"",""ArrowLeft""]","value training","ocean","26","{""ArrowUp,ArrowLeft"":26,""ArrowUp,ArrowRight"":10,""ArrowDown,ArrowLeft"":5,""ArrowDown,ArrowRight"":17}","true","ArrowUp,ArrowLeft","false","","","original","1","58","","",""
"html-keyboard-response","173","853499","0.0-4.0-2.0-1.29","spark_pilot_2","7285","1","10","Male","","","","","","","null","<div style=""font-size:60px;"">+</div>","null","fixation","","","","","","","","","","","59","","",""
"revaluation","174","857522","0.0-4.0-2.0-0.30","spark_pilot_2","7285","1","10","Male","","","false","","","","[610.8000000000466]","./assets/img/ocean/catch/5.jpg","[""spaceBar""]","value training","ocean","0","{""ArrowUp,ArrowLeft"":26,""ArrowUp,ArrowRight"":10,""ArrowDown,ArrowLeft"":5,""ArrowDown,ArrowRight"":17}","true","spaceBar","true","","","original","1","60","","",""
"html-keyboard-response","175","858036","0.0-4.0-2.0-1.30","spark_pilot_2","7285","1","10","Male","","","","","","","null","<div style=""font-size:60px;"">+</div>","null","fixation","","","","","","","","","","","61","","",""
"revaluation","176","864048","0.0-4.0-2.0-0.31","spark_pilot_2","7285","1","10","Male","","","false","","","","[668.2999999998137,447.30000000004657]","./assets/img/ocean/memory/19.jpg","[""ArrowUp"",""ArrowLeft""]","value training","ocean","26","{""ArrowUp,ArrowLeft"":26,""ArrowUp,ArrowRight"":10,""ArrowDown,ArrowLeft"":5,""ArrowDown,ArrowRight"":17}","true","ArrowUp,ArrowLeft","false","","","original","1","62","","",""
"html-keyboard-response","177","864553","0.0-4.0-2.0-1.31","spark_pilot_2","7285","1","10","Male","","","","","","","null","<div style=""font-size:60px;"">+</div>","null","fixation","","","","","","","","","","","63","","",""
"revaluation","178","870575","0.0-4.0-2.0-0.32","spark_pilot_2","7285","1","10","Male","","","false","","","","[675.6000000000931,501.30000000004657]","./assets/img/ocean/memory/14.jpg","[""ArrowUp"",""ArrowLeft""]","value training","ocean","26","{""ArrowUp,ArrowLeft"":26,""ArrowUp,ArrowRight"":10,""ArrowDown,ArrowLeft"":5,""ArrowDown,ArrowRight"":17}","true","ArrowUp,ArrowLeft","false","","","original","1","64","","",""
"html-keyboard-response","179","871080","0.0-4.0-2.0-1.32","spark_pilot_2","7285","1","10","Male","","","","","","","null","<div style=""font-size:60px;"">+</div>","null","fixation","","","","","","","","","","","65","","",""
"revaluation","180","877109","0.0-4.0-2.0-0.33","spark_pilot_2","7285","1","10","Male","","","false","","","","[636.5,647.3999999999069]","./assets/img/ocean/memory/37.jpg","[""ArrowUp"",""ArrowLeft""]","value training","ocean","26","{""ArrowUp,ArrowLeft"":26,""ArrowUp,ArrowRight"":10,""ArrowDown,ArrowLeft"":5,""ArrowDown,ArrowRight"":17}","true","ArrowUp,ArrowLeft","false","","","original","1","66","","",""
"html-keyboard-response","181","877611","0.0-4.0-2.0-1.33","spark_pilot_2","7285","1","10","Male","","","","","","","null","<div style=""font-size:60px;"">+</div>","null","fixation","","","","","","","","","","","67","","",""
"revaluation","182","883630","0.0-4.0-2.0-0.34","spark_pilot_2","7285","1","10","Male","","","false","","","","[549.5,615.3999999999069]","./assets/img/ocean/memory/6.jpg","[""ArrowUp"",""ArrowLeft""]","value training","ocean","26","{""ArrowUp,ArrowLeft"":26,""ArrowUp,ArrowRight"":10,""ArrowDown,ArrowLeft"":5,""ArrowDown,ArrowRight"":17}","true","ArrowUp,ArrowLeft","false","","","original","1","68","","",""
"html-keyboard-response","183","884151","0.0-4.0-2.0-1.34","spark_pilot_2","7285","1","10","Male","","","","","","","null","<div style=""font-size:60px;"">+</div>","null","fixation","","","","","","","","","","","69","","",""
"revaluation","184","890162","0.0-4.0-2.0-0.35","spark_pilot_2","7285","1","10","Male","","","false","","","","[669.5,587.7999999998137]","./assets/img/ocean/memory/24.jpg","[""ArrowUp"",""ArrowLeft""]","value training","ocean","26","{""ArrowUp,ArrowLeft"":26,""ArrowUp,ArrowRight"":10,""ArrowDown,ArrowLeft"":5,""ArrowDown,ArrowRight"":17}","true","ArrowUp,ArrowLeft","false","","","original","1","70","","",""
"html-keyboard-response","185","890667","0.0-4.0-2.0-1.35","spark_pilot_2","7285","1","10","Male","","","","","","","null","<div style=""font-size:60px;"">+</div>","null","fixation","","","","","","","","","","","71","","",""
"revaluation","186","896697","0.0-4.0-2.0-0.36","spark_pilot_2","7285","1","10","Male","","","false","","","","[558.1000000000931,539.5]","./assets/img/ocean/memory/31.jpg","[""ArrowUp"",""ArrowLeft""]","value training","ocean","26","{""ArrowUp,ArrowLeft"":26,""ArrowUp,ArrowRight"":10,""ArrowDown,ArrowLeft"":5,""ArrowDown,ArrowRight"":17}","true","ArrowUp,ArrowLeft","false","","","original","1","72","","",""
"html-keyboard-response","187","897202","0.0-4.0-2.0-1.36","spark_pilot_2","7285","1","10","Male","","","","","","","null","<div style=""font-size:60px;"">+</div>","null","fixation","","","","","","","","","","","73","","",""
"revaluation","188","903215","0.0-4.0-2.0-0.37","spark_pilot_2","7285","1","10","Male","","","false","","","","[661.7000000001863,527.5999999998603]","./assets/img/ocean/memory/10.jpg","[""ArrowUp"",""ArrowLeft""]","value training","ocean","26","{""ArrowUp,ArrowLeft"":26,""ArrowUp,ArrowRight"":10,""ArrowDown,ArrowLeft"":5,""ArrowDown,ArrowRight"":17}","true","ArrowUp,ArrowLeft","false","","","original","1","74","","",""
"html-keyboard-response","189","903719","0.0-4.0-2.0-1.37","spark_pilot_2","7285","1","10","Male","","","","","","","null","<div style=""font-size:60px;"">+</div>","null","fixation","","","","","","","","","","","75","","",""
"revaluation","190","909730","0.0-4.0-2.0-0.38","spark_pilot_2","7285","1","10","Male","","","false","","","","[539.3000000000466,320.69999999995343]","./assets/img/ocean/memory/11.jpg","[""ArrowUp"",""ArrowLeft""]","value training","ocean","26","{""ArrowUp,ArrowLeft"":26,""ArrowUp,ArrowRight"":10,""ArrowDown,ArrowLeft"":5,""ArrowDown,ArrowRight"":17}","true","ArrowUp,ArrowLeft","false","","","original","1","76","","",""
"html-keyboard-response","191","910233","0.0-4.0-2.0-1.38","spark_pilot_2","7285","1","10","Male","","","","","","","null","<div style=""font-size:60px;"">+</div>","null","fixation","","","","","","","","","","","77","","",""
"revaluation","192","916244","0.0-4.0-2.0-0.39","spark_pilot_2","7285","1","10","Male","","","false","","","","[598.5,651.1999999999534]","./assets/img/ocean/memory/19.jpg","[""ArrowUp"",""ArrowLeft""]","value training","ocean","26","{""ArrowUp,ArrowLeft"":26,""ArrowUp,ArrowRight"":10,""ArrowDown,ArrowLeft"":5,""ArrowDown,ArrowRight"":17}","true","ArrowUp,ArrowLeft","false","","","original","1","78","","",""
"html-keyboard-response","193","916747","0.0-4.0-2.0-1.39","spark_pilot_2","7285","1","10","Male","","","","","","","null","<div style=""font-size:60px;"">+</div>","null","fixation","","","","","","","","","","","79","","",""
"revaluation","194","922772","0.0-4.0-2.0-0.40","spark_pilot_2","7285","1","10","Male","","","false","","","","[613.8000000000466,400.89999999990687]","./assets/img/ocean/memory/3.jpg","[""ArrowUp"",""ArrowLeft""]","value training","ocean","26","{""ArrowUp,ArrowLeft"":26,""ArrowUp,ArrowRight"":10,""ArrowDown,ArrowLeft"":5,""ArrowDown,ArrowRight"":17}","true","ArrowUp,ArrowLeft","false","","","original","1","80","","",""
"html-keyboard-response","195","923277","0.0-4.0-2.0-1.40","spark_pilot_2","7285","1","10","Male","","","","","","","null","<div style=""font-size:60px;"">+</div>","null","fixation","","","","","","","","","","","81","","",""
"revaluation","196","929310","0.0-4.0-2.0-0.41","spark_pilot_2","7285","1","10","Male","","","false","","","","[511.5,346.39999999990687]","./assets/img/ocean/memory/4.jpg","[""ArrowUp"",""ArrowLeft""]","value training","ocean","26","{""ArrowUp,ArrowLeft"":26,""ArrowUp,ArrowRight"":10,""ArrowDown,ArrowLeft"":5,""ArrowDown,ArrowRight"":17}","true","ArrowUp,ArrowLeft","false","","","original","1","82","","",""
"html-keyboard-response","197","929814","0.0-4.0-2.0-1.41","spark_pilot_2","7285","1","10","Male","","","","","","","null","<div style=""font-size:60px;"">+</div>","null","fixation","","","","","","","","","","","83","","",""
"revaluation","198","935839","0.0-4.0-2.0-0.42","spark_pilot_2","7285","1","10","Male","","","false","","","","[576.9000000001397,513.7999999998137]","./assets/img/ocean/memory/33.jpg","[""ArrowUp"",""ArrowLeft""]","value training","ocean","26","{""ArrowUp,ArrowLeft"":26,""ArrowUp,ArrowRight"":10,""ArrowDown,ArrowLeft"":5,""ArrowDown,ArrowRight"":17}","true","ArrowUp,ArrowLeft","false","","","original","1","84","","",""
"html-keyboard-response","199","936344","0.0-4.0-2.0-1.42","spark_pilot_2","7285","1","10","Male","","","","","","","null","<div style=""font-size:60px;"">+</div>","null","fixation","","","","","","","","","","","85","","",""
"revaluation","200","942365","0.0-4.0-2.0-0.43","spark_pilot_2","7285","1","10","Male","","","false","","","","[563.3999999999069,311]","./assets/img/ocean/memory/26.jpg","[""ArrowUp"",""ArrowLeft""]","value training","ocean","26","{""ArrowUp,ArrowLeft"":26,""ArrowUp,ArrowRight"":10,""ArrowDown,ArrowLeft"":5,""ArrowDown,ArrowRight"":17}","true","ArrowUp,ArrowLeft","false","","","original","1","86","","",""
"html-keyboard-response","201","942870","0.0-4.0-2.0-1.43","spark_pilot_2","7285","1","10","Male","","","","","","","null","<div style=""font-size:60px;"">+</div>","null","fixation","","","","","","","","","","","87","","",""
"revaluation","202","948896","0.0-4.0-2.0-0.44","spark_pilot_2","7285","1","10","Male","","","false","","","","[508,566.3000000000466]","./assets/img/ocean/memory/28.jpg","[""ArrowUp"",""ArrowLeft""]","value training","ocean","26","{""ArrowUp,ArrowLeft"":26,""ArrowUp,ArrowRight"":10,""ArrowDown,ArrowLeft"":5,""ArrowDown,ArrowRight"":17}","true","ArrowUp,ArrowLeft","false","","","original","1","88","","",""
"html-keyboard-response","203","949404","0.0-4.0-2.0-1.44","spark_pilot_2","7285","1","10","Male","","","","","","","null","<div style=""font-size:60px;"">+</div>","null","fixation","","","","","","","","","","","89","","",""
"revaluation","204","955417","0.0-4.0-2.0-0.45","spark_pilot_2","7285","1","10","Male","","","false","","","","[628.3000000000466,475.5999999998603]","./assets/img/ocean/memory/21.jpg","[""ArrowUp"",""ArrowLeft""]","value training","ocean","26","{""ArrowUp,ArrowLeft"":26,""ArrowUp,ArrowRight"":10,""ArrowDown,ArrowLeft"":5,""ArrowDown,ArrowRight"":17}","true","ArrowUp,ArrowLeft","false","","","original","1","90","","",""
"html-keyboard-response","205","955922","0.0-4.0-2.0-1.45","spark_pilot_2","7285","1","10","Male","","","","","","","null","<div style=""font-size:60px;"">+</div>","null","fixation","","","","","","","","","","","91","","",""
"revaluation","206","959949","0.0-4.0-2.0-0.46","spark_pilot_2","7285","1","10","Male","","","false","","","","[579.3000000000466]","./assets/img/ocean/catch/0.jpg","[""spaceBar""]","value training","ocean","0","{""ArrowUp,ArrowLeft"":26,""ArrowUp,ArrowRight"":10,""ArrowDown,ArrowLeft"":5,""ArrowDown,ArrowRight"":17}","true","spaceBar","true","","","original","1","92","","",""
"html-keyboard-response","207","960454","0.0-4.0-2.0-1.46","spark_pilot_2","7285","1","10","Male","","","","","","","null","<div style=""font-size:60px;"">+</div>","null","fixation","","","","","","","","","","","93","","",""
"revaluation","208","966468","0.0-4.0-2.0-0.47","spark_pilot_2","7285","1","10","Male","","","false","","","","[612.6000000000931,694.3000000000466]","./assets/img/ocean/memory/26.jpg","[""ArrowUp"",""ArrowLeft""]","value training","ocean","26","{""ArrowUp,ArrowLeft"":26,""ArrowUp,ArrowRight"":10,""ArrowDown,ArrowLeft"":5,""ArrowDown,ArrowRight"":17}","true","ArrowUp,ArrowLeft","false","","","original","1","94","","",""
"html-keyboard-response","209","966973","0.0-4.0-2.0-1.47","spark_pilot_2","7285","1","10","Male","","","","","","","null","<div style=""font-size:60px;"">+</div>","null","fixation","","","","","","","","","","","95","","",""
"revaluation","210","972993","0.0-4.0-2.0-0.48","spark_pilot_2","7285","1","10","Male","","","false","","","","[762.6999999999534,615.2999999998137]","./assets/img/ocean/memory/5.jpg","[""ArrowUp"",""ArrowLeft""]","value training","ocean","26","{""ArrowUp,ArrowLeft"":26,""ArrowUp,ArrowRight"":10,""ArrowDown,ArrowLeft"":5,""ArrowDown,ArrowRight"":17}","true","ArrowUp,ArrowLeft","false","","","original","1","96","","",""
"html-keyboard-response","211","973496","0.0-4.0-2.0-1.48","spark_pilot_2","7285","1","10","Male","","","","","","","null","<div style=""font-size:60px;"">+</div>","null","fixation","","","","","","","","","","","97","","",""
"revaluation","212","979527","0.0-4.0-2.0-0.49","spark_pilot_2","7285","1","10","Male","","","false","","","","[494.5,737.1000000000931]","./assets/img/ocean/memory/12.jpg","[""ArrowUp"",""ArrowLeft""]","value training","ocean","26","{""ArrowUp,ArrowLeft"":26,""ArrowUp,ArrowRight"":10,""ArrowDown,ArrowLeft"":5,""ArrowDown,ArrowRight"":17}","true","ArrowUp,ArrowLeft","false","","","original","1","98","","",""
"html-keyboard-response","213","980030","0.0-4.0-2.0-1.49","spark_pilot_2","7285","1","10","Male","","","","","","","null","<div style=""font-size:60px;"">+</div>","null","fixation","","","","","","","","","","","99","","",""
"learning-instructions","214","995748","0.0-4.0-3.0-0.0","spark_pilot_2","7285","1","10","Male","","","","","","","2781.3000000000466","<p> Now, you will travel with a friend who will choose whether you go up or down first. </p>
            <p> On these turns, you will just see the animal that they found. You will still get to choose which chest to search for treasure.</p>","","instructions","","","","","","","","","","","","","",""
"revaluation","215","999762","0.0-4.0-4.0-0.0","spark_pilot_2","7285","1","10","Male","","","false","","","","[964]","./assets/img/ocean/animals/seahorse.jpg","[""ArrowLeft""]","revaluation","ocean","26","{""ArrowUp,ArrowLeft"":26,""ArrowUp,ArrowRight"":10,""ArrowDown,ArrowLeft"":5,""ArrowDown,ArrowRight"":17}","true","ArrowUp,ArrowLeft","","","","original","1","0","","",""
"html-keyboard-response","216","1000276","0.0-4.0-4.0-1.0","spark_pilot_2","7285","1","10","Male","","","","","","","null","<div style=""font-size:60px;"">+</div>","null","fixation","","","","","","","","","","","1","","",""
"revaluation","217","1004303","0.0-4.0-4.0-0.1","spark_pilot_2","7285","1","10","Male","","","false","","","","[391.80000000004657]","./assets/img/ocean/animals/octopus.jpg","[""ArrowRight""]","revaluation","ocean","17","{""ArrowUp,ArrowLeft"":26,""ArrowUp,ArrowRight"":10,""ArrowDown,ArrowLeft"":5,""ArrowDown,ArrowRight"":17}","true","ArrowDown,ArrowRight","","","","original","1","2","","",""
"html-keyboard-response","218","1004819","0.0-4.0-4.0-1.1","spark_pilot_2","7285","1","10","Male","","","","","","","null","<div style=""font-size:60px;"">+</div>","null","fixation","","","","","","","","","","","3","","",""
"revaluation","219","1008840","0.0-4.0-4.0-0.2","spark_pilot_2","7285","1","10","Male","","","false","","","","[751.5]","./assets/img/ocean/animals/octopus.jpg","[""ArrowRight""]","revaluation","ocean","17","{""ArrowUp,ArrowLeft"":26,""ArrowUp,ArrowRight"":10,""ArrowDown,ArrowLeft"":5,""ArrowDown,ArrowRight"":17}","true","ArrowDown,ArrowRight","","","","original","1","4","","",""
"html-keyboard-response","220","1009356","0.0-4.0-4.0-1.2","spark_pilot_2","7285","1","10","Male","","","","","","","null","<div style=""font-size:60px;"">+</div>","null","fixation","","","","","","","","","","","5","","",""
"revaluation","221","1013387","0.0-4.0-4.0-0.3","spark_pilot_2","7285","1","10","Male","","","false","","","","[498.5]","./assets/img/ocean/animals/octopus.jpg","[""ArrowLeft""]","revaluation","ocean","5","{""ArrowUp,ArrowLeft"":26,""ArrowUp,ArrowRight"":10,""ArrowDown,ArrowLeft"":5,""ArrowDown,ArrowRight"":17}","false","ArrowDown,ArrowLeft","","","","original","1","6","","",""
"html-keyboard-response","222","1013896","0.0-4.0-4.0-1.3","spark_pilot_2","7285","1","10","Male","","","","","","","null","<div style=""font-size:60px;"">+</div>","null","fixation","","","","","","","","","","","7","","",""
"revaluation","223","1017916","0.0-4.0-4.0-0.4","spark_pilot_2","7285","1","10","Male","","","false","","","","[645.3999999999069]","./assets/img/ocean/animals/seahorse.jpg","[""ArrowLeft""]","revaluation","ocean","26","{""ArrowUp,ArrowLeft"":26,""ArrowUp,ArrowRight"":10,""ArrowDown,ArrowLeft"":5,""ArrowDown,ArrowRight"":17}","true","ArrowUp,ArrowLeft","","","","original","1","8","","",""
"html-keyboard-response","224","1018430","0.0-4.0-4.0-1.4","spark_pilot_2","7285","1","10","Male","","","","","","","null","<div style=""font-size:60px;"">+</div>","null","fixation","","","","","","","","","","","9","","",""
"revaluation","225","1022453","0.0-4.0-4.0-0.5","spark_pilot_2","7285","1","10","Male","","","false","","","","[552.9000000001397]","./assets/img/ocean/animals/seahorse.jpg","[""ArrowLeft""]","revaluation","ocean","26","{""ArrowUp,ArrowLeft"":26,""ArrowUp,ArrowRight"":10,""ArrowDown,ArrowLeft"":5,""ArrowDown,ArrowRight"":17}","true","ArrowUp,ArrowLeft","","","","original","1","10","","",""
"html-keyboard-response","226","1022970","0.0-4.0-4.0-1.5","spark_pilot_2","7285","1","10","Male","","","","","","","null","<div style=""font-size:60px;"">+</div>","null","fixation","","","","","","","","","","","11","","",""
"revaluation","227","1026981","0.0-4.0-4.0-0.6","spark_pilot_2","7285","1","10","Male","","","false","","","","[692.5]","./assets/img/ocean/animals/seahorse.jpg","[""ArrowLeft""]","revaluation","ocean","26","{""ArrowUp,ArrowLeft"":26,""ArrowUp,ArrowRight"":10,""ArrowDown,ArrowLeft"":5,""ArrowDown,ArrowRight"":17}","true","ArrowUp,ArrowLeft","","","","original","1","12","","",""
"html-keyboard-response","228","1027486","0.0-4.0-4.0-1.6","spark_pilot_2","7285","1","10","Male","","","","","","","null","<div style=""font-size:60px;"">+</div>","null","fixation","","","","","","","","","","","13","","",""
"revaluation","229","1031512","0.0-4.0-4.0-0.7","spark_pilot_2","7285","1","10","Male","","","false","","","","[601.9000000001397]","./assets/img/ocean/animals/seahorse.jpg","[""ArrowLeft""]","revaluation","ocean","26","{""ArrowUp,ArrowLeft"":26,""ArrowUp,ArrowRight"":10,""ArrowDown,ArrowLeft"":5,""ArrowDown,ArrowRight"":17}","true","ArrowUp,ArrowLeft","","","","original","1","14","","",""
"html-keyboard-response","230","1032021","0.0-4.0-4.0-1.7","spark_pilot_2","7285","1","10","Male","","","","","","","null","<div style=""font-size:60px;"">+</div>","null","fixation","","","","","","","","","","","15","","",""
"revaluation","231","1036043","0.0-4.0-4.0-0.8","spark_pilot_2","7285","1","10","Male","","","false","","","","[600.1999999999534]","./assets/img/ocean/animals/octopus.jpg","[""ArrowRight""]","revaluation","ocean","17","{""ArrowUp,ArrowLeft"":26,""ArrowUp,ArrowRight"":10,""ArrowDown,ArrowLeft"":5,""ArrowDown,ArrowRight"":17}","true","ArrowDown,ArrowRight","","","","original","1","16","","",""
"html-keyboard-response","232","1036549","0.0-4.0-4.0-1.8","spark_pilot_2","7285","1","10","Male","","","","","","","null","<div style=""font-size:60px;"">+</div>","null","fixation","","","","","","","","","","","17","","",""
"revaluation","233","1040572","0.0-4.0-4.0-0.9","spark_pilot_2","7285","1","10","Male","","","false","","","","[723.7000000001863]","./assets/img/ocean/animals/seahorse.jpg","[""ArrowLeft""]","revaluation","ocean","26","{""ArrowUp,ArrowLeft"":26,""ArrowUp,ArrowRight"":10,""ArrowDown,ArrowLeft"":5,""ArrowDown,ArrowRight"":17}","true","ArrowUp,ArrowLeft","","","","original","1","18","","",""
"html-keyboard-response","234","1041075","0.0-4.0-4.0-1.9","spark_pilot_2","7285","1","10","Male","","","","","","","null","<div style=""font-size:60px;"">+</div>","null","fixation","","","","","","","","","","","19","","",""
"revaluation","235","1045086","0.0-4.0-4.0-0.10","spark_pilot_2","7285","1","10","Male","","","false","","","","[482.0999999998603]","./assets/img/ocean/animals/octopus.jpg","[""ArrowRight""]","revaluation","ocean","17","{""ArrowUp,ArrowLeft"":26,""ArrowUp,ArrowRight"":10,""ArrowDown,ArrowLeft"":5,""ArrowDown,ArrowRight"":17}","true","ArrowDown,ArrowRight","","","","original","1","20","","",""
"html-keyboard-response","236","1045592","0.0-4.0-4.0-1.10","spark_pilot_2","7285","1","10","Male","","","","","","","null","<div style=""font-size:60px;"">+</div>","null","fixation","","","","","","","","","","","21","","",""
"revaluation","237","1049604","0.0-4.0-4.0-0.11","spark_pilot_2","7285","1","10","Male","","","false","","","","[558.5]","./assets/img/ocean/animals/seahorse.jpg","[""ArrowLeft""]","revaluation","ocean","26","{""ArrowUp,ArrowLeft"":26,""ArrowUp,ArrowRight"":10,""ArrowDown,ArrowLeft"":5,""ArrowDown,ArrowRight"":17}","true","ArrowUp,ArrowLeft","","","","original","1","22","","",""
"html-keyboard-response","238","1050109","0.0-4.0-4.0-1.11","spark_pilot_2","7285","1","10","Male","","","","","","","null","<div style=""font-size:60px;"">+</div>","null","fixation","","","","","","","","","","","23","","",""
"revaluation","239","1054132","0.0-4.0-4.0-0.12","spark_pilot_2","7285","1","10","Male","","","false","","","","[694.3000000000466]","./assets/img/ocean/animals/octopus.jpg","[""ArrowRight""]","revaluation","ocean","17","{""ArrowUp,ArrowLeft"":26,""ArrowUp,ArrowRight"":10,""ArrowDown,ArrowLeft"":5,""ArrowDown,ArrowRight"":17}","true","ArrowDown,ArrowRight","","","","original","1","24","","",""
"html-keyboard-response","240","1054637","0.0-4.0-4.0-1.12","spark_pilot_2","7285","1","10","Male","","","","","","","null","<div style=""font-size:60px;"">+</div>","null","fixation","","","","","","","","","","","25","","",""
"revaluation","241","1058661","0.0-4.0-4.0-0.13","spark_pilot_2","7285","1","10","Male","","","false","","","","[745.1000000000931]","./assets/img/ocean/animals/octopus.jpg","[""ArrowRight""]","revaluation","ocean","17","{""ArrowUp,ArrowLeft"":26,""ArrowUp,ArrowRight"":10,""ArrowDown,ArrowLeft"":5,""ArrowDown,ArrowRight"":17}","true","ArrowDown,ArrowRight","","","","original","1","26","","",""
"html-keyboard-response","242","1059166","0.0-4.0-4.0-1.13","spark_pilot_2","7285","1","10","Male","","","","","","","null","<div style=""font-size:60px;"">+</div>","null","fixation","","","","","","","","","","","27","","",""
"revaluation","243","1063192","0.0-4.0-4.0-0.14","spark_pilot_2","7285","1","10","Male","","","false","","","","[933.5]","./assets/img/ocean/animals/octopus.jpg","[""ArrowRight""]","revaluation","ocean","17","{""ArrowUp,ArrowLeft"":26,""ArrowUp,ArrowRight"":10,""ArrowDown,ArrowLeft"":5,""ArrowDown,ArrowRight"":17}","true","ArrowDown,ArrowRight","","","","original","1","28","","",""
"html-keyboard-response","244","1063697","0.0-4.0-4.0-1.14","spark_pilot_2","7285","1","10","Male","","","","","","","null","<div style=""font-size:60px;"">+</div>","null","fixation","","","","","","","","","","","29","","",""
"revaluation","245","1067721","0.0-4.0-4.0-0.15","spark_pilot_2","7285","1","10","Male","","","false","","","","[649.3000000000466]","./assets/img/ocean/animals/octopus.jpg","[""ArrowRight""]","revaluation","ocean","17","{""ArrowUp,ArrowLeft"":26,""ArrowUp,ArrowRight"":10,""ArrowDown,ArrowLeft"":5,""ArrowDown,ArrowRight"":17}","true","ArrowDown,ArrowRight","","","","original","1","30","","",""
"html-keyboard-response","246","1068226","0.0-4.0-4.0-1.15","spark_pilot_2","7285","1","10","Male","","","","","","","null","<div style=""font-size:60px;"">+</div>","null","fixation","","","","","","","","","","","31","","",""
"revaluation","247","1072237","0.0-4.0-4.0-0.16","spark_pilot_2","7285","1","10","Male","","","false","","","","[975.0999999998603]","./assets/img/ocean/animals/seahorse.jpg","[""ArrowLeft""]","revaluation","ocean","26","{""ArrowUp,ArrowLeft"":26,""ArrowUp,ArrowRight"":10,""ArrowDown,ArrowLeft"":5,""ArrowDown,ArrowRight"":17}","true","ArrowUp,ArrowLeft","","","","original","1","32","","",""
"html-keyboard-response","248","1072740","0.0-4.0-4.0-1.16","spark_pilot_2","7285","1","10","Male","","","","","","","null","<div style=""font-size:60px;"">+</div>","null","fixation","","","","","","","","","","","33","","",""
"revaluation","249","1076752","0.0-4.0-4.0-0.17","spark_pilot_2","7285","1","10","Male","","","false","","","","[665.8000000000466]","./assets/img/ocean/animals/seahorse.jpg","[""ArrowLeft""]","revaluation","ocean","26","{""ArrowUp,ArrowLeft"":26,""ArrowUp,ArrowRight"":10,""ArrowDown,ArrowLeft"":5,""ArrowDown,ArrowRight"":17}","true","ArrowUp,ArrowLeft","","","","original","1","34","","",""
"html-keyboard-response","250","1077262","0.0-4.0-4.0-1.17","spark_pilot_2","7285","1","10","Male","","","","","","","null","<div style=""font-size:60px;"">+</div>","null","fixation","","","","","","","","","","","35","","",""
"learning-instructions","251","1090117","0.0-4.0-5.0-0.0","spark_pilot_2","7285","1","10","Male","","","","","","","1292.8000000000466","<p> Time to play the dot game! </p>
            <p> For one minute, click the red dots on the following screen as they appear. </p>
            <p><b> Don't look away, as you will earn bonus for clicking dots</b>. </p>","","instructions","","","","","","","","","","","","","",""
"revaluation","252","1150121","0.0-4.0-6.0-0.0","spark_pilot_2","7285","1","10","Male","","","","","","","[167,120,71,87,85,72]","","","rest","","60","","","","","0","60000","","","","","",""
"learning-instructions","253","1157075","0.0-4.0-7.0-0.0","spark_pilot_2","7285","1","10","Male","","","","","","","798.2999999998137","<p> You have almost finished this part of the game! </p>
            <p> We are going to ask you to make a few more choices. </p>","","instructions","","","","","","","","","","","","","",""
"learning-instructions","254","1171142","0.0-4.0-7.0-0.1","spark_pilot_2","7285","1","10","Male","","","","","","","94.29999999981374","<p> First, you need to decide whether to go up or down. When you see each picture, use the arrow keys to make your choice. </p>
            <p><b>You will not see which animal you found, but try to get to the one that will give you the most treasure.</b></p>","","instructions","","","","","","","","","","","","","",""
"revaluation","255","1172410","0.0-4.0-8.0-0.0","spark_pilot_2","7285","1","10","Male","","","false","","","","[1263.5]","./assets/img/ocean/test/3.jpg","[""ArrowUp""]","first stage test","ocean","0","{""ArrowUp,ArrowLeft"":26,""ArrowUp,ArrowRight"":10,""ArrowDown,ArrowLeft"":5,""ArrowDown,ArrowRight"":17}","true","ArrowUp","false","","","original","1","","","",""
"html-keyboard-response","256","1172917","0.0-4.0-8.0-1.0","spark_pilot_2","7285","1","10","Male","","","","","","","null","<div style=""font-size:60px;"">+</div>","null","fixation","","","","","","","","","","","","","",""
"revaluation","257","1173597","0.0-4.0-8.0-0.1","spark_pilot_2","7285","1","10","Male","","","false","","","","[671.3999999999069]","./assets/img/ocean/test/0.jpg","[""ArrowUp""]","first stage test","ocean","0","{""ArrowUp,ArrowLeft"":26,""ArrowUp,ArrowRight"":10,""ArrowDown,ArrowLeft"":5,""ArrowDown,ArrowRight"":17}","true","ArrowUp","false","","","original","1","","","",""
"html-keyboard-response","258","1174106","0.0-4.0-8.0-1.1","spark_pilot_2","7285","1","10","Male","","","","","","","null","<div style=""font-size:60px;"">+</div>","null","fixation","","","","","","","","","","","","","",""
"revaluation","259","1174633","0.0-4.0-8.0-0.2","spark_pilot_2","7285","1","10","Male","","","false","","","","[519.5999999996275]","./assets/img/ocean/test/1.jpg","[""ArrowUp""]","first stage test","ocean","0","{""ArrowUp,ArrowLeft"":26,""ArrowUp,ArrowRight"":10,""ArrowDown,ArrowLeft"":5,""ArrowDown,ArrowRight"":17}","true","ArrowUp","false","","","original","1","","","",""
"html-keyboard-response","260","1175148","0.0-4.0-8.0-1.2","spark_pilot_2","7285","1","10","Male","","","","","","","null","<div style=""font-size:60px;"">+</div>","null","fixation","","","","","","","","","","","","","",""
"revaluation","261","1175640","0.0-4.0-8.0-0.3","spark_pilot_2","7285","1","10","Male","","","false","","","","[475.70000000018626]","./assets/img/ocean/test/2.jpg","[""ArrowUp""]","first stage test","ocean","0","{""ArrowUp,ArrowLeft"":26,""ArrowUp,ArrowRight"":10,""ArrowDown,ArrowLeft"":5,""ArrowDown,ArrowRight"":17}","true","ArrowUp","false","","","original","1","","","",""
"html-keyboard-response","262","1176148","0.0-4.0-8.0-1.3","spark_pilot_2","7285","1","10","Male","","","","","","","null","<div style=""font-size:60px;"">+</div>","null","fixation","","","","","","","","","","","","","",""
"learning-instructions","263","1188408","0.0-4.0-9.0-0.0","spark_pilot_2","7285","1","10","Male","","","","","","","919.6000000000931","<p> Now you will see the animals again and can search their chests for treasure. </p>
            <p> This time, you will not see how much treasure you earned, but you will earn more bonus money for making better choices. </p>","","instructions","","","","","","","","","","","","","",""
"revaluation","264","1189179","0.0-4.0-10.0-0.0","spark_pilot_2","7285","1","10","Male","","","false","","","","[766]","./assets/img/ocean/animals/seahorse.jpg","[""ArrowLeft""]","second stage test","ocean","0","{""ArrowUp,ArrowLeft"":26,""ArrowUp,ArrowRight"":10,""ArrowDown,ArrowLeft"":5,""ArrowDown,ArrowRight"":17}","true","ArrowUp,ArrowLeft","","","","original","1","","","",""
"html-keyboard-response","265","1189685","0.0-4.0-10.0-1.0","spark_pilot_2","7285","1","10","Male","","","","","","","null","<div style=""font-size:60px;"">+</div>","null","fixation","","","","","","","","","","","","","",""
"revaluation","266","1190196","0.0-4.0-10.0-0.1","spark_pilot_2","7285","1","10","Male","","","false","","","","[493.79999999981374]","./assets/img/ocean/animals/seahorse.jpg","[""ArrowLeft""]","second stage test","ocean","0","{""ArrowUp,ArrowLeft"":26,""ArrowUp,ArrowRight"":10,""ArrowDown,ArrowLeft"":5,""ArrowDown,ArrowRight"":17}","true","ArrowUp,ArrowLeft","","","","original","1","","","",""
"html-keyboard-response","267","1190714","0.0-4.0-10.0-1.1","spark_pilot_2","7285","1","10","Male","","","","","","","null","<div style=""font-size:60px;"">+</div>","null","fixation","","","","","","","","","","","","","",""
"revaluation","268","1191210","0.0-4.0-10.0-0.2","spark_pilot_2","7285","1","10","Male","","","false","","","","[483.90000000037253]","./assets/img/ocean/animals/seahorse.jpg","[""ArrowLeft""]","second stage test","ocean","0","{""ArrowUp,ArrowLeft"":26,""ArrowUp,ArrowRight"":10,""ArrowDown,ArrowLeft"":5,""ArrowDown,ArrowRight"":17}","true","ArrowUp,ArrowLeft","","","","original","1","","","",""
"html-keyboard-response","269","1191727","0.0-4.0-10.0-1.2","spark_pilot_2","7285","1","10","Male","","","","","","","null","<div style=""font-size:60px;"">+</div>","null","fixation","","","","","","","","","","","","","",""
"revaluation","270","1192226","0.0-4.0-10.0-0.3","spark_pilot_2","7285","1","10","Male","","","false","","","","[491.10000000009313]","./assets/img/ocean/animals/seahorse.jpg","[""ArrowLeft""]","second stage test","ocean","0","{""ArrowUp,ArrowLeft"":26,""ArrowUp,ArrowRight"":10,""ArrowDown,ArrowLeft"":5,""ArrowDown,ArrowRight"":17}","true","ArrowUp,ArrowLeft","","","","original","1","","","",""
"html-keyboard-response","271","1192739","0.0-4.0-10.0-1.3","spark_pilot_2","7285","1","10","Male","","","","","","","null","<div style=""font-size:60px;"">+</div>","null","fixation","","","","","","","","","","","","","",""
"revaluation","272","1193275","0.0-4.0-10.0-0.4","spark_pilot_2","7285","1","10","Male","","","false","","","","[528.7000000001863]","./assets/img/ocean/animals/octopus.jpg","[""ArrowRight""]","second stage test","ocean","0","{""ArrowUp,ArrowLeft"":26,""ArrowUp,ArrowRight"":10,""ArrowDown,ArrowLeft"":5,""ArrowDown,ArrowRight"":17}","true","ArrowDown,ArrowRight","","","","original","1","","","",""
"html-keyboard-response","273","1193780","0.0-4.0-10.0-1.4","spark_pilot_2","7285","1","10","Male","","","","","","","null","<div style=""font-size:60px;"">+</div>","null","fixation","","","","","","","","","","","","","",""
"revaluation","274","1194270","0.0-4.0-10.0-0.5","spark_pilot_2","7285","1","10","Male","","","false","","","","[473.39999999990687]","./assets/img/ocean/animals/octopus.jpg","[""ArrowRight""]","second stage test","ocean","0","{""ArrowUp,ArrowLeft"":26,""ArrowUp,ArrowRight"":10,""ArrowDown,ArrowLeft"":5,""ArrowDown,ArrowRight"":17}","true","ArrowDown,ArrowRight","","","","original","1","","","",""
"html-keyboard-response","275","1194776","0.0-4.0-10.0-1.5","spark_pilot_2","7285","1","10","Male","","","","","","","null","<div style=""font-size:60px;"">+</div>","null","fixation","","","","","","","","","","","","","",""
"revaluation","276","1195271","0.0-4.0-10.0-0.6","spark_pilot_2","7285","1","10","Male","","","false","","","","[487.79999999981374]","./assets/img/ocean/animals/octopus.jpg","[""ArrowRight""]","second stage test","ocean","0","{""ArrowUp,ArrowLeft"":26,""ArrowUp,ArrowRight"":10,""ArrowDown,ArrowLeft"":5,""ArrowDown,ArrowRight"":17}","true","ArrowDown,ArrowRight","","","","original","1","","","",""
"html-keyboard-response","277","1195773","0.0-4.0-10.0-1.6","spark_pilot_2","7285","1","10","Male","","","","","","","null","<div style=""font-size:60px;"">+</div>","null","fixation","","","","","","","","","","","","","",""
"revaluation","278","1196215","0.0-4.0-10.0-0.7","spark_pilot_2","7285","1","10","Male","","","false","","","","[433.79999999981374]","./assets/img/ocean/animals/octopus.jpg","[""ArrowRight""]","second stage test","ocean","0","{""ArrowUp,ArrowLeft"":26,""ArrowUp,ArrowRight"":10,""ArrowDown,ArrowLeft"":5,""ArrowDown,ArrowRight"":17}","true","ArrowDown,ArrowRight","","","","original","1","","","",""
"html-keyboard-response","279","1196727","0.0-4.0-10.0-1.7","spark_pilot_2","7285","1","10","Male","","","","","","","null","<div style=""font-size:60px;"">+</div>","null","fixation","","","","","","","","","","","","","",""
"learning-instructions","280","1200565","0.0-4.0-0.1-0.2","spark_pilot_2","7285","1","10","Male","","","","","","","1026.5","<p> This time you are searching for treasure in the <b>canyon</b>.</p>","","instructions","","","","","","","","","","","","","",""
"learning-instructions","281","1218366","0.0-4.0-0.1-0.3","spark_pilot_2","7285","1","10","Male","","","","","","","547.5999999996275","<p><b>New</b> animals with <b>new</b> treasure chests live here. You need to explore to discover where the animal with the best treasure chest is.</p>
                    <p> Like before, once you figure out which animal has the chest with the most treasure, you should try to get to that animal and select that chest! </p>","","instructions","","","","","","","","","","","","","",""
"learning-instructions","282","1234255","0.0-4.0-1.1-0.1","spark_pilot_2","7285","1","10","Male","","","","","","","1155.6000000000931","<p> Remember, when you see a picture of the place, use the up and down keys to <b>find an animal</b>.</p>
            <p> When you encounter an animal, you should use the left and right keys to <b>select a treasure chest</b>.</p>
            <p> Don't forget to look out for the robber! </p>","","instructions","","","","","","","","","","","","","",""
"revaluation","283","1238273","0.0-4.0-2.1-0.50","spark_pilot_2","7285","1","10","Male","","","false","","","","[732.3999999999069]","./assets/img/canyon/catch/1.jpg","[""spaceBar""]","value training","canyon","0","{""ArrowUp,ArrowLeft"":23,""ArrowUp,ArrowRight"":10,""ArrowDown,ArrowLeft"":8,""ArrowDown,ArrowRight"":30}","true","spaceBar","true","","","revaluation","2","0","","",""
"html-keyboard-response","284","1238777","0.0-4.0-2.1-1.50","spark_pilot_2","7285","1","10","Male","","","","","","","null","<div style=""font-size:60px;"">+</div>","null","fixation","","","","","","","","","","","1","","",""
"revaluation","285","1244813","0.0-4.0-2.1-0.51","spark_pilot_2","7285","1","10","Male","","","false","","","","[649,629]","./assets/img/canyon/memory/4.jpg","[""ArrowUp"",""ArrowRight""]","value training","canyon","10","{""ArrowUp,ArrowLeft"":23,""ArrowUp,ArrowRight"":10,""ArrowDown,ArrowLeft"":8,""ArrowDown,ArrowRight"":30}","false","ArrowUp,ArrowRight","false","","","revaluation","2","2","","",""
"html-keyboard-response","286","1245327","0.0-4.0-2.1-1.51","spark_pilot_2","7285","1","10","Male","","","","","","","null","<div style=""font-size:60px;"">+</div>","null","fixation","","","","","","","","","","","3","","",""
"revaluation","287","1251357","0.0-4.0-2.1-0.52","spark_pilot_2","7285","1","10","Male","","","false","","","","[554,311.5]","./assets/img/canyon/memory/36.jpg","[""ArrowUp"",""ArrowLeft""]","value training","canyon","23","{""ArrowUp,ArrowLeft"":23,""ArrowUp,ArrowRight"":10,""ArrowDown,ArrowLeft"":8,""ArrowDown,ArrowRight"":30}","false","ArrowUp,ArrowLeft","false","","","revaluation","2","4","","",""
"html-keyboard-response","288","1251870","0.0-4.0-2.1-1.52","spark_pilot_2","7285","1","10","Male","","","","","","","null","<div style=""font-size:60px;"">+</div>","null","fixation","","","","","","","","","","","5","","",""
"revaluation","289","1257884","0.0-4.0-2.1-0.53","spark_pilot_2","7285","1","10","Male","","","false","","","","[477.20000000018626,500.39999999990687]","./assets/img/canyon/memory/6.jpg","[""ArrowDown"",""ArrowRight""]","value training","canyon","30","{""ArrowUp,ArrowLeft"":23,""ArrowUp,ArrowRight"":10,""ArrowDown,ArrowLeft"":8,""ArrowDown,ArrowRight"":30}","true","ArrowDown,ArrowRight","false","","","revaluation","2","6","","",""
"html-keyboard-response","290","1258398","0.0-4.0-2.1-1.53","spark_pilot_2","7285","1","10","Male","","","","","","","null","<div style=""font-size:60px;"">+</div>","null","fixation","","","","","","","","","","","7","","",""
"revaluation","291","1264433","0.0-4.0-2.1-0.54","spark_pilot_2","7285","1","10","Male","","","false","","","","[561.5,479.60000000009313]","./assets/img/canyon/memory/26.jpg","[""ArrowDown"",""ArrowLeft""]","value training","canyon","8","{""ArrowUp,ArrowLeft"":23,""ArrowUp,ArrowRight"":10,""ArrowDown,ArrowLeft"":8,""ArrowDown,ArrowRight"":30}","false","ArrowDown,ArrowLeft","false","","","revaluation","2","8","","",""
"html-keyboard-response","292","1264938","0.0-4.0-2.1-1.54","spark_pilot_2","7285","1","10","Male","","","","","","","null","<div style=""font-size:60px;"">+</div>","null","fixation","","","","","","","","","","","9","","",""
"revaluation","293","1270954","0.0-4.0-2.1-0.55","spark_pilot_2","7285","1","10","Male","","","false","","","","[583.1000000000931,450.79999999981374]","./assets/img/canyon/memory/16.jpg","[""ArrowDown"",""ArrowRight""]","value training","canyon","30","{""ArrowUp,ArrowLeft"":23,""ArrowUp,ArrowRight"":10,""ArrowDown,ArrowLeft"":8,""ArrowDown,ArrowRight"":30}","true","ArrowDown,ArrowRight","false","","","revaluation","2","10","","",""
"html-keyboard-response","294","1271459","0.0-4.0-2.1-1.55","spark_pilot_2","7285","1","10","Male","","","","","","","null","<div style=""font-size:60px;"">+</div>","null","fixation","","","","","","","","","","","11","","",""
"revaluation","295","1277471","0.0-4.0-2.1-0.56","spark_pilot_2","7285","1","10","Male","","","false","","","","[783.7000000001863,587.8000000002794]","./assets/img/canyon/memory/10.jpg","[""ArrowDown"",""ArrowRight""]","value training","canyon","30","{""ArrowUp,ArrowLeft"":23,""ArrowUp,ArrowRight"":10,""ArrowDown,ArrowLeft"":8,""ArrowDown,ArrowRight"":30}","true","ArrowDown,ArrowRight","false","","","revaluation","2","12","","",""
"html-keyboard-response","296","1277973","0.0-4.0-2.1-1.56","spark_pilot_2","7285","1","10","Male","","","","","","","null","<div style=""font-size:60px;"">+</div>","null","fixation","","","","","","","","","","","13","","",""
"revaluation","297","1283983","0.0-4.0-2.1-0.57","spark_pilot_2","7285","1","10","Male","","","false","","","","[553.5,431.8000000002794]","./assets/img/canyon/memory/19.jpg","[""ArrowDown"",""ArrowRight""]","value training","canyon","30","{""ArrowUp,ArrowLeft"":23,""ArrowUp,ArrowRight"":10,""ArrowDown,ArrowLeft"":8,""ArrowDown,ArrowRight"":30}","true","ArrowDown,ArrowRight","false","","","revaluation","2","14","","",""
"html-keyboard-response","298","1284500","0.0-4.0-2.1-1.57","spark_pilot_2","7285","1","10","Male","","","","","","","null","<div style=""font-size:60px;"">+</div>","null","fixation","","","","","","","","","","","15","","",""
"revaluation","299","1290518","0.0-4.0-2.1-0.58","spark_pilot_2","7285","1","10","Male","","","false","","","","[480.70000000018626,420.5]","./assets/img/canyon/memory/23.jpg","[""ArrowDown"",""ArrowRight""]","value training","canyon","30","{""ArrowUp,ArrowLeft"":23,""ArrowUp,ArrowRight"":10,""ArrowDown,ArrowLeft"":8,""ArrowDown,ArrowRight"":30}","true","ArrowDown,ArrowRight","false","","","revaluation","2","16","","",""
"html-keyboard-response","300","1291023","0.0-4.0-2.1-1.58","spark_pilot_2","7285","1","10","Male","","","","","","","null","<div style=""font-size:60px;"">+</div>","null","fixation","","","","","","","","","","","17","","",""
"revaluation","301","1297046","0.0-4.0-2.1-0.59","spark_pilot_2","7285","1","10","Male","","","false","","","","[656.2000000001863,493]","./assets/img/canyon/memory/12.jpg","[""ArrowDown"",""ArrowRight""]","value training","canyon","30","{""ArrowUp,ArrowLeft"":23,""ArrowUp,ArrowRight"":10,""ArrowDown,ArrowLeft"":8,""ArrowDown,ArrowRight"":30}","true","ArrowDown,ArrowRight","false","","","revaluation","2","18","","",""
"html-keyboard-response","302","1297550","0.0-4.0-2.1-1.59","spark_pilot_2","7285","1","10","Male","","","","","","","null","<div style=""font-size:60px;"">+</div>","null","fixation","","","","","","","","","","","19","","",""
"revaluation","303","1303563","0.0-4.0-2.1-0.60","spark_pilot_2","7285","1","10","Male","","","false","","","","[648.3999999999069,405.79999999981374]","./assets/img/canyon/memory/14.jpg","[""ArrowDown"",""ArrowRight""]","value training","canyon","30","{""ArrowUp,ArrowLeft"":23,""ArrowUp,ArrowRight"":10,""ArrowDown,ArrowLeft"":8,""ArrowDown,ArrowRight"":30}","true","ArrowDown,ArrowRight","false","","","revaluation","2","20","","",""
"html-keyboard-response","304","1304069","0.0-4.0-2.1-1.60","spark_pilot_2","7285","1","10","Male","","","","","","","null","<div style=""font-size:60px;"">+</div>","null","fixation","","","","","","","","","","","21","","",""
"revaluation","305","1308090","0.0-4.0-2.1-0.61","spark_pilot_2","7285","1","10","Male","","","false","","","","[581.3000000002794]","./assets/img/canyon/catch/7.jpg","[""spaceBar""]","value training","canyon","0","{""ArrowUp,ArrowLeft"":23,""ArrowUp,ArrowRight"":10,""ArrowDown,ArrowLeft"":8,""ArrowDown,ArrowRight"":30}","true","spaceBar","true","","","revaluation","2","22","","",""
"html-keyboard-response","306","1308593","0.0-4.0-2.1-1.61","spark_pilot_2","7285","1","10","Male","","","","","","","null","<div style=""font-size:60px;"">+</div>","null","fixation","","","","","","","","","","","23","","",""
"revaluation","307","1314612","0.0-4.0-2.1-0.62","spark_pilot_2","7285","1","10","Male","","","false","","","","[633,756.2999999998137]","./assets/img/canyon/memory/12.jpg","[""ArrowDown"",""ArrowRight""]","value training","canyon","30","{""ArrowUp,ArrowLeft"":23,""ArrowUp,ArrowRight"":10,""ArrowDown,ArrowLeft"":8,""ArrowDown,ArrowRight"":30}","true","ArrowDown,ArrowRight","false","","","revaluation","2","24","","",""
