"trial_type","trial_index","time_elapsed","internal_node_id","task_version","subject_id","assigned_condition","age","gender","success","timeout","failed_images","failed_audio","failed_video","browser_interaction","rt","stimulus","response","task_part","environment","score","rewardMap","correct","fullState","isCatch","numberMissed","duration","condition","order","trial_num","key_press","ground_truth","bonus"
"pavlovia","0","2525","0.0-0.0","spark_pilot_2","7305","4","11","Female","","","","","","","","","","","","","","","","","","","","","","","",""
"preload","1","39264","0.0-1.0","spark_pilot_2","7305","4","11","Female","true","false","[]","[]","[]","[{""event"":""fullscreenenter"",""trial"":2,""time"":42883}]","","","","","","","","","","","","","","","","","",""
"fullscreen","2","43865","0.0-2.0","spark_pilot_2","7305","4","11","Female","true","","","","","","","","","","","","","","","","","","","","","","",""
"audio-button-response","3","46510","0.0-3.0-0.0-0.0","spark_pilot_2","7305","4","11","Female","","","","","","","2261","./assets/audio/audiotest/turtle.mp3","2","audio_test","","","","","","","","","","","","","",""
"learning-instructions","4","63322","0.0-3.0-1.0-0.0","spark_pilot_2","7305","4","11","Female","","","","","","","9830.199999988079","<p> Welcome! Please remember to stay in fullscreen mode and don't click away from the experiment. </p>","","instructions","","","","","","","","","","","","","",""
"learning-instructions","5","74991","0.0-3.0-1.0-0.1","spark_pilot_2","7305","4","11","Female","","","","","","","3260.199999988079","<p> Today you will be playing a game to earn treasure. </p>
            <p> At the end of the experiment, you will earn a bonus based on how much treasure you find. </p>
            <img src='./assets/img/instructions/treasure.jpg' class='instructions-image'>","","instructions","","","","","","","","","","","","","",""
"learning-instructions","6","85851","0.0-3.0-1.0-0.2","spark_pilot_2","7305","4","11","Female","","","","","","","2599.5999999940395","<p> Animals have hidden treasure in treasure chests. </p>
            <p> You need to first find an animal and then choose which of their treasure chests to search. </p>
            <img src='./assets/img/space/animals/cat.jpg' class='instructions-image'>","","instructions","","","","","","","","","","","","","",""
"learning-instructions","7","102675","0.0-3.0-1.0-0.3","spark_pilot_2","7305","4","11","Female","","","","","","","3673.2999999821186","<p> In each round, you will search for treasure in a different place. In the real game, there will be two rounds. </p>
            <p> You will begin with a separate, practice round where you will search for treasure in outer space. </p>
            <img src='./assets/img/space/0.jpg' class='instructions-image'>","","instructions","","","","","","","","","","","","","",""
"learning-instructions","8","115829","0.0-3.0-1.0-0.4","spark_pilot_2","7305","4","11","Female","","","","","","","1736.0999999940395","<p> On every turn, you will see a picture of the place that you are in, but the specific image may be different each time. </p>
            <p> For example, both of these images mean you are in outer space. </p>
            <img src='./assets/img/instructions/outerspace.jpg' class='instructions-image'>","","instructions","","","","","","","","","","","","","",""
"learning-instructions","9","126972","0.0-3.0-1.0-0.5","spark_pilot_2","7305","4","11","Female","","","","","","","3318.5999999940395","<p> You need to decide which direction to travel in. </p>
            <p> You can choose between going <b>up or down</b> by using the arrow keys. </p>
            <img src='./assets/img/instructions/updown.jpg' class='instructions-image'>","","instructions","","","","","","","","","","","","","",""
"learning-instructions","10","139802","0.0-3.0-1.0-0.6","spark_pilot_2","7305","4","11","Female","","","","","","","4028.7000000178814","<p> You will have <b>2 seconds</b> to make your choice. </p>
            <p> If you do not make a choice within 2 seconds, you will not find an animal or earn treasure. </p>
            <img src='./assets/img/instructions/2seconds.jpg' class='instructions-image'>","","instructions","","","","","","","","","","","","","",""
"learning-instructions","11","152659","0.0-3.0-1.0-0.7","spark_pilot_2","7305","4","11","Female","","","","","","","5838","<p> Let’s try practicing that now! </p>
            <p> When you see a picture of the place you are in, press the <b>up</b> key to travel up. </p>
            <img src='./assets/img/instructions/pressUp.jpg' class='instructions-image'>","","instructions","","","","","","","","","","","","","",""
"revaluation","12","156672","0.0-3.0-2.0-0.0","spark_pilot_2","7305","4","11","Female","","true","","","","","[]","./assets/img/space/0.jpg","[]","first stage practice","space","-5","null","null","","false","","","","","","","",""
"html-keyboard-response","13","157174","0.0-3.0-2.0-1.0","spark_pilot_2","7305","4","11","Female","","","","","","","null","<div style=""font-size:60px;"">+</div>","null","fixation","","","","","","","","","","","","","",""
"revaluation","14","161179","0.0-3.0-2.0-0.1","spark_pilot_2","7305","4","11","Female","","false","","","","","[509.59999999403954]","./assets/img/space/1.jpg","[""ArrowUp""]","first stage practice","space","0","null","null","ArrowUp","false","","","","","","","",""
"html-keyboard-response","15","161681","0.0-3.0-2.0-1.1","spark_pilot_2","7305","4","11","Female","","","","","","","null","<div style=""font-size:60px;"">+</div>","null","fixation","","","","","","","","","","","","","",""
"revaluation","16","165686","0.0-3.0-2.0-0.2","spark_pilot_2","7305","4","11","Female","","false","","","","","[474.19999998807907]","./assets/img/space/2.jpg","[""ArrowUp""]","first stage practice","space","0","null","null","ArrowUp","false","","","","","","","",""
"html-keyboard-response","17","166188","0.0-3.0-2.0-1.2","spark_pilot_2","7305","4","11","Female","","","","","","","null","<div style=""font-size:60px;"">+</div>","null","fixation","","","","","","","","","","","","","",""
"learning-instructions","18","173332","0.0-3.0-3.0-0.0","spark_pilot_2","7305","4","11","Female","","","","","","","2448.0999999940395","<p> Great job! Now try pressing the <b>down</b> key to travel down. </p>
            <img src='./assets/img/instructions/pressDown.jpg' class='instructions-image'>","","instructions","","","","","","","","","","","","","",""
"revaluation","19","177335","0.0-3.0-4.0-0.0","spark_pilot_2","7305","4","11","Female","","false","","","","","[627.2999999821186]","./assets/img/space/3.jpg","[""ArrowDown""]","first stage practice","space","0","null","null","ArrowDown","false","","","","","","","",""
"html-keyboard-response","20","177837","0.0-3.0-4.0-1.0","spark_pilot_2","7305","4","11","Female","","","","","","","null","<div style=""font-size:60px;"">+</div>","null","fixation","","","","","","","","","","","","","",""
"revaluation","21","181843","0.0-3.0-4.0-0.1","spark_pilot_2","7305","4","11","Female","","false","","","","","[305.40000000596046]","./assets/img/space/4.jpg","[""ArrowDown""]","first stage practice","space","0","null","null","ArrowDown","false","","","","","","","",""
"html-keyboard-response","22","182345","0.0-3.0-4.0-1.1","spark_pilot_2","7305","4","11","Female","","","","","","","null","<div style=""font-size:60px;"">+</div>","null","fixation","","","","","","","","","","","","","",""
"revaluation","23","186351","0.0-3.0-4.0-0.2","spark_pilot_2","7305","4","11","Female","","false","","","","","[369.30000001192093]","./assets/img/space/5.jpg","[""ArrowDown""]","first stage practice","space","0","null","null","ArrowDown","false","","","","","","","",""
"html-keyboard-response","24","186853","0.0-3.0-4.0-1.2","spark_pilot_2","7305","4","11","Female","","","","","","","null","<div style=""font-size:60px;"">+</div>","null","fixation","","","","","","","","","","","","","",""
"learning-instructions","25","209325","0.0-3.0-5.0-0.0","spark_pilot_2","7305","4","11","Female","","","","","","","12623.40000000596","<p> The animals don’t move, so the animal in the upper part of a place will stay in the upper part of a place, and the animal in the lower part of a place will stay in the lower part of a place. </p>","","instructions","","","","","","","","","","","","","",""
"learning-instructions","26","220493","0.0-3.0-5.0-0.1","spark_pilot_2","7305","4","11","Female","","","","","","","2040.5","<p> Each animal has two treasure chests for you to choose from. </p>
            <p> The amount of treasure in each chest can range from <b> 0 to 40 pieces.</b></p>","","instructions","","","","","","","","","","","","","",""
"learning-instructions","27","234367","0.0-3.0-5.0-0.2","spark_pilot_2","7305","4","11","Female","","","","","","","2704.7000000178814","<p> You should decide which chest to search for treasure by using the <b>left</b> and <b>right</b> arrow keys. </p>
            <p><b> Pay attention to which animal is on the screen, as the animals have different treasure chests. </b></p>
            <img src='./assets/img/instructions/leftright.jpg' class='instructions-image'>","","instructions","","","","","","","","","","","","","",""
"learning-instructions","28","241717","0.0-3.0-5.0-0.3","spark_pilot_2","7305","4","11","Female","","","","","","","984.0999999940395","<p> Let’s try practicing that now. </p>
            <p> When you see an animal, choose which chest to search for treasure. </p>
            <img src='./assets/img/instructions/chooseChest.jpg' class='instructions-image'>","","instructions","","","","","","","","","","","","","",""
"revaluation","29","245722","0.0-3.0-6.0-0.0","spark_pilot_2","7305","4","11","Female","","false","","","","","[932]","./assets/img/space/animals/cat.jpg","[""ArrowRight""]","second stage practice","space","36","{""ArrowUp,ArrowLeft"":3,""ArrowUp,ArrowRight"":36,""ArrowDown,ArrowLeft"":15,""ArrowDown,ArrowRight"":23}","true","ArrowUp,ArrowRight","","","","","","","","",""
"html-keyboard-response","30","246223","0.0-3.0-6.0-1.0","spark_pilot_2","7305","4","11","Female","","","","","","","null","<div style=""font-size:60px;"">+</div>","null","fixation","","","","","","","","","","","","","",""
"revaluation","31","250229","0.0-3.0-6.0-0.1","spark_pilot_2","7305","4","11","Female","","false","","","","","[338.19999998807907]","./assets/img/space/animals/rabbit.jpg","[""ArrowRight""]","second stage practice","space","23","{""ArrowUp,ArrowLeft"":3,""ArrowUp,ArrowRight"":36,""ArrowDown,ArrowLeft"":15,""ArrowDown,ArrowRight"":23}","true","ArrowDown,ArrowRight","","","","","","","","",""
"html-keyboard-response","32","250731","0.0-3.0-6.0-1.1","spark_pilot_2","7305","4","11","Female","","","","","","","null","<div style=""font-size:60px;"">+</div>","null","fixation","","","","","","","","","","","","","",""
"revaluation","33","254736","0.0-3.0-6.0-0.2","spark_pilot_2","7305","4","11","Female","","false","","","","","[661.9000000059605]","./assets/img/space/animals/cat.jpg","[""ArrowRight""]","second stage practice","space","36","{""ArrowUp,ArrowLeft"":3,""ArrowUp,ArrowRight"":36,""ArrowDown,ArrowLeft"":15,""ArrowDown,ArrowRight"":23}","true","ArrowUp,ArrowRight","","","","","","","","",""
"html-keyboard-response","34","255238","0.0-3.0-6.0-1.2","spark_pilot_2","7305","4","11","Female","","","","","","","null","<div style=""font-size:60px;"">+</div>","null","fixation","","","","","","","","","","","","","",""
"revaluation","35","259244","0.0-3.0-6.0-0.3","spark_pilot_2","7305","4","11","Female","","false","","","","","[466.30000001192093]","./assets/img/space/animals/rabbit.jpg","[""ArrowLeft""]","second stage practice","space","15","{""ArrowUp,ArrowLeft"":3,""ArrowUp,ArrowRight"":36,""ArrowDown,ArrowLeft"":15,""ArrowDown,ArrowRight"":23}","false","ArrowDown,ArrowLeft","","","","","","","","",""
"html-keyboard-response","36","259746","0.0-3.0-6.0-1.3","spark_pilot_2","7305","4","11","Female","","","","","","","null","<div style=""font-size:60px;"">+</div>","null","fixation","","","","","","","","","","","","","",""
"learning-instructions","37","278468","0.0-3.0-7.0-0.0","spark_pilot_2","7305","4","11","Female","","","","","","","1906.6000000238419","<p> Great job. Now let’s try putting it together. </p>
            <p> On each turn, you will first see a picture to remind you of the place you are in, and you need to choose whether to go up or down. </p>
            <p> Then you will see an animal and choose which of its chests to search for treasure. </p>","","instructions","","","","","","","","","","","","","",""
"learning-instructions","38","287576","0.0-3.0-7.0-0.1","spark_pilot_2","7305","4","11","Female","","","","","","","844.0999999940395","<p> When you choose whether to go up or down, try to go to the animal with the chest with the most treasure. </p>
            <p> Try practicing that now! </p>","","instructions","","","","","","","","","","","","","",""
"revaluation","39","293581","0.0-3.0-8.0-0.0","spark_pilot_2","7305","4","11","Female","","false","","","","","[1382.199999988079,694.9000000059605]","./assets/img/space/6.jpg","[""ArrowUp"",""ArrowRight""]","full practice","space","36","{""ArrowUp,ArrowLeft"":3,""ArrowUp,ArrowRight"":36,""ArrowDown,ArrowLeft"":15,""ArrowDown,ArrowRight"":23}","true","ArrowUp,ArrowRight","false","","","","","","","",""
"html-keyboard-response","40","294084","0.0-3.0-8.0-1.0","spark_pilot_2","7305","4","11","Female","","","","","","","null","<div style=""font-size:60px;"">+</div>","null","fixation","","","","","","","","","","","","","",""
"revaluation","41","300089","0.0-3.0-8.0-0.1","spark_pilot_2","7305","4","11","Female","","false","","","","","[602.5,713.8000000119209]","./assets/img/space/7.jpg","[""ArrowUp"",""ArrowRight""]","full practice","space","36","{""ArrowUp,ArrowLeft"":3,""ArrowUp,ArrowRight"":36,""ArrowDown,ArrowLeft"":15,""ArrowDown,ArrowRight"":23}","true","ArrowUp,ArrowRight","false","","","","","","","",""
"html-keyboard-response","42","300591","0.0-3.0-8.0-1.1","spark_pilot_2","7305","4","11","Female","","","","","","","null","<div style=""font-size:60px;"">+</div>","null","fixation","","","","","","","","","","","","","",""
"revaluation","43","306597","0.0-3.0-8.0-0.2","spark_pilot_2","7305","4","11","Female","","false","","","","","[788.8000000119209,657.7999999821186]","./assets/img/space/8.jpg","[""ArrowDown"",""ArrowLeft""]","full practice","space","15","{""ArrowUp,ArrowLeft"":3,""ArrowUp,ArrowRight"":36,""ArrowDown,ArrowLeft"":15,""ArrowDown,ArrowRight"":23}","false","ArrowDown,ArrowLeft","false","","","","","","","",""
"html-keyboard-response","44","307098","0.0-3.0-8.0-1.2","spark_pilot_2","7305","4","11","Female","","","","","","","null","<div style=""font-size:60px;"">+</div>","null","fixation","","","","","","","","","","","","","",""
"revaluation","45","313104","0.0-3.0-8.0-0.3","spark_pilot_2","7305","4","11","Female","","false","","","","","[401.5,332.80000001192093]","./assets/img/space/9.jpg","[""ArrowUp"",""ArrowRight""]","full practice","space","36","{""ArrowUp,ArrowLeft"":3,""ArrowUp,ArrowRight"":36,""ArrowDown,ArrowLeft"":15,""ArrowDown,ArrowRight"":23}","true","ArrowUp,ArrowRight","false","","","","","","","",""
"html-keyboard-response","46","313605","0.0-3.0-8.0-1.3","spark_pilot_2","7305","4","11","Female","","","","","","","null","<div style=""font-size:60px;"">+</div>","null","fixation","","","","","","","","","","","","","",""
"revaluation","47","319609","0.0-3.0-8.0-0.4","spark_pilot_2","7305","4","11","Female","","false","","","","","[362.69999998807907,363.09999999403954]","./assets/img/space/10.jpg","[""ArrowUp"",""ArrowRight""]","full practice","space","36","{""ArrowUp,ArrowLeft"":3,""ArrowUp,ArrowRight"":36,""ArrowDown,ArrowLeft"":15,""ArrowDown,ArrowRight"":23}","true","ArrowUp,ArrowRight","false","","","","","","","",""
"html-keyboard-response","48","320111","0.0-3.0-8.0-1.4","spark_pilot_2","7305","4","11","Female","","","","","","","null","<div style=""font-size:60px;"">+</div>","null","fixation","","","","","","","","","","","","","",""
"learning-instructions","49","333405","0.0-3.0-9.0-0.0","spark_pilot_2","7305","4","11","Female","","","","","","","2579.9000000059605","<p> One last thing: sometimes, you will see a robber. The robber can be anywhere in the picture. </p>
            <p> If you do not stop them, you will lose treasure. </p>
            <img src='./assets/img/instructions/robber.jpg' class='instructions-image'>","","instructions","","","","","","","","","","","","","",""
"learning-instructions","50","341814","0.0-3.0-9.0-0.1","spark_pilot_2","7305","4","11","Female","","","","","","","1250.5","<p> If you see the robber, you should <b>press the space bar</b> rather than using the arrow keys. </p>
            <p> Try practicing that now! </p>","","instructions","","","","","","","","","","","","","",""
"revaluation","51","345817","0.0-3.0-10.0-0.0","spark_pilot_2","7305","4","11","Female","","false","","","","","[743.9000000059605]","./assets/img/space/catch/0.jpg","[""spaceBar""]","catch practice","space","0","{""ArrowUp,ArrowLeft"":3,""ArrowUp,ArrowRight"":36,""ArrowDown,ArrowLeft"":15,""ArrowDown,ArrowRight"":23}","true","spaceBar","true","","","","","","","",""
"html-keyboard-response","52","346318","0.0-3.0-10.0-1.0","spark_pilot_2","7305","4","11","Female","","","","","","","null","<div style=""font-size:60px;"">+</div>","null","fixation","","","","","","","","","","","","","",""
"revaluation","53","350322","0.0-3.0-10.0-0.1","spark_pilot_2","7305","4","11","Female","","false","","","","","[314]","./assets/img/space/catch/1.jpg","[""spaceBar""]","catch practice","space","0","{""ArrowUp,ArrowLeft"":3,""ArrowUp,ArrowRight"":36,""ArrowDown,ArrowLeft"":15,""ArrowDown,ArrowRight"":23}","true","spaceBar","true","","","","","","","",""
"html-keyboard-response","54","350823","0.0-3.0-10.0-1.1","spark_pilot_2","7305","4","11","Female","","","","","","","null","<div style=""font-size:60px;"">+</div>","null","fixation","","","","","","","","","","","","","",""
"revaluation","55","354827","0.0-3.0-10.0-0.2","spark_pilot_2","7305","4","11","Female","","false","","","","","[211.69999998807907]","./assets/img/space/catch/2.jpg","[""spaceBar""]","catch practice","space","0","{""ArrowUp,ArrowLeft"":3,""ArrowUp,ArrowRight"":36,""ArrowDown,ArrowLeft"":15,""ArrowDown,ArrowRight"":23}","true","spaceBar","true","","","","","","","",""
"html-keyboard-response","56","355328","0.0-3.0-10.0-1.2","spark_pilot_2","7305","4","11","Female","","","","","","","null","<div style=""font-size:60px;"">+</div>","null","fixation","","","","","","","","","","","","","",""
"learning-instructions","57","370200","0.0-3.0-11.0-0.0","spark_pilot_2","7305","4","11","Female","","","","","","","1285.5","<p> After you explore a place to find treasure, it will be time to play a different game. </p>
            <p> During this game, red dots will appear on the screen and fall down slowly. </p>
            <p><b> You must click on them before they reach the bottom. </b></p>
            <img src='./assets/img/instructions/dotGame.jpg' class='instructions-image'>","","instructions","","","","","","","","","","","","","",""
"learning-instructions","58","377050","0.0-3.0-11.0-0.1","spark_pilot_2","7305","4","11","Female","","","","","","","1184.4000000059605","<p> For every dot you click, you will earn additional treasure. </p>
            <p> Let’s try practicing that now. </p>","","instructions","","","","","","","","","","","","","",""
"revaluation","59","392059","0.0-3.0-12.0-0.0","spark_pilot_2","7305","4","11","Female","","","","","","","[97]","","","rest practice","","10","","","","","0","15000","","","","","",""
"learning-instructions","60","398326","0.0-3.0-13.0-0.0-0.0","spark_pilot_2","7305","4","11","Female","","","","","","","1012.1999999880791","<p> Now, you will practice a shortened version of the game to get a sense of how it all fits together. </p>","","instructions","","","","","","","","","","","","","",""
"learning-instructions","61","402123","0.0-3.0-13.0-0.0-0.1","spark_pilot_2","7305","4","11","Female","","","","","","","618.9000000059605","<p>This time you are searching for treasure in outer space.</p>","","instructions","","","","","","","","","","","","","",""
"learning-instructions","62","419063","0.0-3.0-13.0-1.0-0.0","spark_pilot_2","7305","4","11","Female","","","","","","","2178.300000011921","<p> Remember, when you see a picture of the place, use the up and down keys to <b>find an animal</b>.</p>
            <p> When you encounter an animal, you should use the left and right keys to <b>select a treasure chest</b>.</p>
            <p> Don't forget to look out for the robber! </p>","","instructions","","","","","","","","","","","","","",""
"revaluation","63","425068","0.0-3.0-13.0-2.0-0.0","spark_pilot_2","7305","4","11","Female","","false","","","","","[1212.1000000238419,365.89999997615814]","./assets/img/space/11.jpg","[""ArrowUp"",""ArrowRight""]","practice block","space","36","{""ArrowUp,ArrowLeft"":3,""ArrowUp,ArrowRight"":36,""ArrowDown,ArrowLeft"":15,""ArrowDown,ArrowRight"":23}","true","ArrowUp,ArrowRight","false","","","","","","","",""
"html-keyboard-response","64","425570","0.0-3.0-13.0-2.0-1.0","spark_pilot_2","7305","4","11","Female","","","","","","","null","<div style=""font-size:60px;"">+</div>","null","fixation","","","","","","","","","","","","","",""
"revaluation","65","431576","0.0-3.0-13.0-2.0-0.1","spark_pilot_2","7305","4","11","Female","","false","","","","","[720.2000000178814,304.2999999821186]","./assets/img/space/12.jpg","[""ArrowUp"",""ArrowRight""]","practice block","space","36","{""ArrowUp,ArrowLeft"":3,""ArrowUp,ArrowRight"":36,""ArrowDown,ArrowLeft"":15,""ArrowDown,ArrowRight"":23}","true","ArrowUp,ArrowRight","false","","","","","","","",""
"html-keyboard-response","66","432078","0.0-3.0-13.0-2.0-1.1","spark_pilot_2","7305","4","11","Female","","","","","","","null","<div style=""font-size:60px;"">+</div>","null","fixation","","","","","","","","","","","","","",""
"revaluation","67","438082","0.0-3.0-13.0-2.0-0.2","spark_pilot_2","7305","4","11","Female","","false","","","","","[887,385]","./assets/img/space/13.jpg","[""ArrowUp"",""ArrowRight""]","practice block","space","36","{""ArrowUp,ArrowLeft"":3,""ArrowUp,ArrowRight"":36,""ArrowDown,ArrowLeft"":15,""ArrowDown,ArrowRight"":23}","true","ArrowUp,ArrowRight","false","","","","","","","",""
"html-keyboard-response","68","438585","0.0-3.0-13.0-2.0-1.2","spark_pilot_2","7305","4","11","Female","","","","","","","null","<div style=""font-size:60px;"">+</div>","null","fixation","","","","","","","","","","","","","",""
"revaluation","69","444589","0.0-3.0-13.0-2.0-0.3","spark_pilot_2","7305","4","11","Female","","false","","","","","[721.1999999880791,707.3000000119209]","./assets/img/space/14.jpg","[""ArrowUp"",""ArrowRight""]","practice block","space","36","{""ArrowUp,ArrowLeft"":3,""ArrowUp,ArrowRight"":36,""ArrowDown,ArrowLeft"":15,""ArrowDown,ArrowRight"":23}","true","ArrowUp,ArrowRight","false","","","","","","","",""
"html-keyboard-response","70","445090","0.0-3.0-13.0-2.0-1.3","spark_pilot_2","7305","4","11","Female","","","","","","","null","<div style=""font-size:60px;"">+</div>","null","fixation","","","","","","","","","","","","","",""
"revaluation","71","451097","0.0-3.0-13.0-2.0-0.4","spark_pilot_2","7305","4","11","Female","","false","","","","","[1093.5999999940395,807.5]","./assets/img/space/11.jpg","[""ArrowUp"",""ArrowRight""]","practice block","space","36","{""ArrowUp,ArrowLeft"":3,""ArrowUp,ArrowRight"":36,""ArrowDown,ArrowLeft"":15,""ArrowDown,ArrowRight"":23}","true","ArrowUp,ArrowRight","false","","","","","","","",""
"html-keyboard-response","72","451598","0.0-3.0-13.0-2.0-1.4","spark_pilot_2","7305","4","11","Female","","","","","","","null","<div style=""font-size:60px;"">+</div>","null","fixation","","","","","","","","","","","","","",""
"revaluation","73","457603","0.0-3.0-13.0-2.0-0.5","spark_pilot_2","7305","4","11","Female","","false","","","","","[692.9000000059605,817.8000000119209]","./assets/img/space/12.jpg","[""ArrowUp"",""ArrowRight""]","practice block","space","36","{""ArrowUp,ArrowLeft"":3,""ArrowUp,ArrowRight"":36,""ArrowDown,ArrowLeft"":15,""ArrowDown,ArrowRight"":23}","true","ArrowUp,ArrowRight","false","","","","","","","",""
"html-keyboard-response","74","458104","0.0-3.0-13.0-2.0-1.5","spark_pilot_2","7305","4","11","Female","","","","","","","null","<div style=""font-size:60px;"">+</div>","null","fixation","","","","","","","","","","","","","",""
"revaluation","75","464111","0.0-3.0-13.0-2.0-0.6","spark_pilot_2","7305","4","11","Female","","false","","","","","[710.7000000178814,696.9000000059605]","./assets/img/space/13.jpg","[""ArrowUp"",""ArrowRight""]","practice block","space","36","{""ArrowUp,ArrowLeft"":3,""ArrowUp,ArrowRight"":36,""ArrowDown,ArrowLeft"":15,""ArrowDown,ArrowRight"":23}","true","ArrowUp,ArrowRight","false","","","","","","","",""
"html-keyboard-response","76","464612","0.0-3.0-13.0-2.0-1.6","spark_pilot_2","7305","4","11","Female","","","","","","","null","<div style=""font-size:60px;"">+</div>","null","fixation","","","","","","","","","","","","","",""
"revaluation","77","470618","0.0-3.0-13.0-2.0-0.7","spark_pilot_2","7305","4","11","Female","","false","","","","","[631.5999999940395,637.1999999880791]","./assets/img/space/14.jpg","[""ArrowUp"",""ArrowRight""]","practice block","space","36","{""ArrowUp,ArrowLeft"":3,""ArrowUp,ArrowRight"":36,""ArrowDown,ArrowLeft"":15,""ArrowDown,ArrowRight"":23}","true","ArrowUp,ArrowRight","false","","","","","","","",""
"html-keyboard-response","78","471119","0.0-3.0-13.0-2.0-1.7","spark_pilot_2","7305","4","11","Female","","","","","","","null","<div style=""font-size:60px;"">+</div>","null","fixation","","","","","","","","","","","","","",""
"revaluation","79","475125","0.0-3.0-13.0-2.0-0.8","spark_pilot_2","7305","4","11","Female","","false","","","","","[695.7999999821186]","./assets/img/space/catch/3.jpg","[""spaceBar""]","practice block","space","0","{""ArrowUp,ArrowLeft"":3,""ArrowUp,ArrowRight"":36,""ArrowDown,ArrowLeft"":15,""ArrowDown,ArrowRight"":23}","true","spaceBar","true","","","","","","","",""
"html-keyboard-response","80","475626","0.0-3.0-13.0-2.0-1.8","spark_pilot_2","7305","4","11","Female","","","","","","","null","<div style=""font-size:60px;"">+</div>","null","fixation","","","","","","","","","","","","","",""
"learning-instructions","81","490319","0.0-3.0-13.0-3.0-0.0","spark_pilot_2","7305","4","11","Female","","","","","","","1518.5","<p> Now, you will travel with a friend who will choose whether you go up or down first. </p>
            <p> On these turns, you will just see the animal that they found. You will still get to choose which chest to search for treasure.</p>","","instructions","","","","","","","","","","","","","",""
"revaluation","82","494322","0.0-3.0-13.0-4.0-0.0","spark_pilot_2","7305","4","11","Female","","false","","","","","[1244.2999999821186]","./assets/img/space/animals/cat.jpg","[""ArrowRight""]","practice block","space","36","{""ArrowUp,ArrowLeft"":3,""ArrowUp,ArrowRight"":36,""ArrowDown,ArrowLeft"":15,""ArrowDown,ArrowRight"":23}","true","ArrowUp,ArrowRight","","","","","","","","",""
"html-keyboard-response","83","494823","0.0-3.0-13.0-4.0-1.0","spark_pilot_2","7305","4","11","Female","","","","","","","null","<div style=""font-size:60px;"">+</div>","null","fixation","","","","","","","","","","","","","",""
"revaluation","84","498828","0.0-3.0-13.0-4.0-0.1","spark_pilot_2","7305","4","11","Female","","false","","","","","[1340.2999999821186]","./assets/img/space/animals/rabbit.jpg","[""ArrowRight""]","practice block","space","23","{""ArrowUp,ArrowLeft"":3,""ArrowUp,ArrowRight"":36,""ArrowDown,ArrowLeft"":15,""ArrowDown,ArrowRight"":23}","true","ArrowDown,ArrowRight","","","","","","","","",""
"html-keyboard-response","85","499330","0.0-3.0-13.0-4.0-1.1","spark_pilot_2","7305","4","11","Female","","","","","","","null","<div style=""font-size:60px;"">+</div>","null","fixation","","","","","","","","","","","","","",""
"revaluation","86","503334","0.0-3.0-13.0-4.0-0.2","spark_pilot_2","7305","4","11","Female","","false","","","","","[404.59999999403954]","./assets/img/space/animals/cat.jpg","[""ArrowRight""]","practice block","space","36","{""ArrowUp,ArrowLeft"":3,""ArrowUp,ArrowRight"":36,""ArrowDown,ArrowLeft"":15,""ArrowDown,ArrowRight"":23}","true","ArrowUp,ArrowRight","","","","","","","","",""
"html-keyboard-response","87","503836","0.0-3.0-13.0-4.0-1.2","spark_pilot_2","7305","4","11","Female","","","","","","","null","<div style=""font-size:60px;"">+</div>","null","fixation","","","","","","","","","","","","","",""
"revaluation","88","507839","0.0-3.0-13.0-4.0-0.3","spark_pilot_2","7305","4","11","Female","","false","","","","","[293.5]","./assets/img/space/animals/rabbit.jpg","[""ArrowRight""]","practice block","space","23","{""ArrowUp,ArrowLeft"":3,""ArrowUp,ArrowRight"":36,""ArrowDown,ArrowLeft"":15,""ArrowDown,ArrowRight"":23}","true","ArrowDown,ArrowRight","","","","","","","","",""
"html-keyboard-response","89","508340","0.0-3.0-13.0-4.0-1.3","spark_pilot_2","7305","4","11","Female","","","","","","","null","<div style=""font-size:60px;"">+</div>","null","fixation","","","","","","","","","","","","","",""
"learning-instructions","90","516405","0.0-3.0-13.0-5.0-0.0","spark_pilot_2","7305","4","11","Female","","","","","","","704.8000000119209","<p> Time to play the dot game! </p>
            <p> For 15 seconds, click the red dots on the following screen as they appear. </p>","","instructions","","","","","","","","","","","","","",""
"revaluation","91","531407","0.0-3.0-13.0-6.0-0.0","spark_pilot_2","7305","4","11","Female","","","","","","","[65,77]","","","rest practice","","20","","","","","0","15000","","","","","",""
"learning-instructions","92","538949","0.0-3.0-13.0-7.0-0.0","spark_pilot_2","7305","4","11","Female","","","","","","","1418.5","<p> You have almost finished this part of the game! </p>
            <p> We are going to ask you to make a few more choices. </p>","","instructions","","","","","","","","","","","","","",""
"learning-instructions","93","554301","0.0-3.0-13.0-7.0-0.1","spark_pilot_2","7305","4","11","Female","","","","","","","1342.6000000238419","<p> First, you need to decide whether to go up or down. When you see each picture, use the arrow keys to make your choice. </p>
            <p><b>You will not see which animal you found, but try to get to the one that will give you the most treasure.</b></p>","","instructions","","","","","","","","","","","","","",""
"revaluation","94","555571","0.0-3.0-13.0-8.0","spark_pilot_2","7305","4","11","Female","","false","","","","","[1267.7999999821186]","./assets/img/space/15.jpg","[""ArrowUp""]","practice block","space","0","{""ArrowUp,ArrowLeft"":3,""ArrowUp,ArrowRight"":36,""ArrowDown,ArrowLeft"":15,""ArrowDown,ArrowRight"":23}","true","ArrowUp","false","","","","","","","",""
"html-keyboard-response","95","556072","0.0-3.0-13.0-9.0","spark_pilot_2","7305","4","11","Female","","","","","","","null","<div style=""font-size:60px;"">+</div>","null","fixation","","","","","","","","","","","","","",""
"learning-instructions","96","569394","0.0-3.0-13.0-10.0-0.0","spark_pilot_2","7305","4","11","Female","","","","","","","1944.4000000059605","<p> Now you will see the animals again and can search their chests for treasure. </p>
            <p> This time, you will not see how much treasure you earned, but you will earn more bonus money for making better choices. </p>","","instructions","","","","","","","","","","","","","",""
"revaluation","97","570215","0.0-3.0-13.0-11.0-0.0","spark_pilot_2","7305","4","11","Female","","false","","","","","[819.0999999940395]","./assets/img/space/animals/cat.jpg","[""ArrowRight""]","practice block","space","0","{""ArrowUp,ArrowLeft"":3,""ArrowUp,ArrowRight"":36,""ArrowDown,ArrowLeft"":15,""ArrowDown,ArrowRight"":23}","true","ArrowUp,ArrowRight","","","","","","","","",""
"html-keyboard-response","98","570716","0.0-3.0-13.0-11.0-1.0","spark_pilot_2","7305","4","11","Female","","","","","","","null","<div style=""font-size:60px;"">+</div>","null","fixation","","","","","","","","","","","","","",""
"revaluation","99","572016","0.0-3.0-13.0-11.0-0.1","spark_pilot_2","7305","4","11","Female","","false","","","","","[1297.5]","./assets/img/space/animals/rabbit.jpg","[""ArrowRight""]","practice block","space","0","{""ArrowUp,ArrowLeft"":3,""ArrowUp,ArrowRight"":36,""ArrowDown,ArrowLeft"":15,""ArrowDown,ArrowRight"":23}","true","ArrowDown,ArrowRight","","","","","","","","",""
"html-keyboard-response","100","572518","0.0-3.0-13.0-11.0-1.1","spark_pilot_2","7305","4","11","Female","","","","","","","null","<div style=""font-size:60px;"">+</div>","null","fixation","","","","","","","","","","","","","",""
"learning-instructions","101","578448","0.0-3.0-14.0-0.0","spark_pilot_2","7305","4","11","Female","","","","","","","1348.9000000059605","<p> Before you start, we're going to ask you a few questions about how the game works. </p>","","instructions","","","","","","","","","","","","","",""
"comp-q","102","585197","0.0-3.0-15.0-0.0-0.0","spark_pilot_2","7305","4","11","Female","","","","","","","1173.4000000059605","<p> <b> True or False? </b> </p>
            <p> There can be 50 pieces of treasure in a given animal's chest. </p>","1","comp_question","","","","true","","","","","","","","","",""
"comp-q","103","593728","0.0-3.0-15.0-0.0-1.0","spark_pilot_2","7305","4","11","Female","","","","","","","1868.6000000238419","<p> <b> That's right! </b> The amount of treasure in each chest can range from 0 to 40 pieces. </p>","0","comp_answer","","","","","","","","","","","","","",""
"comp-q","104","602231","0.0-3.0-15.0-0.1-0.1","spark_pilot_2","7305","4","11","Female","","","","","","","1391.7999999821186","<p> <b> True or False? </b> </p><p> In this game, all animals have the same amount of treasure in their left and right chests. </p>","1","comp_question","","","","true","","","","","","","","","",""
"comp-q","105","609459","0.0-3.0-15.0-0.1-1.1","spark_pilot_2","7305","4","11","Female","","","","","","","1999.0999999940395","<p> <b> That's right! </b> Animals have different amounts of treasure in their treasure chests. </p>","0","comp_answer","","","","","","","","","","","","","",""
"comp-q","106","615744","0.0-3.0-15.0-0.2-0.2","spark_pilot_2","7305","4","11","Female","","","","","","","444.10000002384186","<p> <b> True or False? </b> </p><p> The same animal will always be there if you go up in the same place. </p>","0","comp_question","","","","true","","","","","","","","","",""
"comp-q","107","624009","0.0-3.0-15.0-0.2-1.2","spark_pilot_2","7305","4","11","Female","","","","","","","1829","<p> <b> That's right! </b> One animal lives in the upper part and one lives in the lower part of every place. </p>","0","comp_answer","","","","","","","","","","","","","",""
"comp-q","108","630231","0.0-3.0-15.0-0.3-0.3","spark_pilot_2","7305","4","11","Female","","","","","","","432.19999998807907","<p> <b> True or False? </b> </p><p> If you see a different picture, it means you are in a new place. </p>","0","comp_question","","","","false","","","","","","","","","",""
"comp-q","109","646640","0.0-3.0-15.0-0.3-1.3","spark_pilot_2","7305","4","11","Female","","","","","","","5320.300000011921","<p> <b>Incorrect.</b> Lots of different images may show the same place. For example,  you may see three different images that all remind you that you are in outer space. </p>","0","comp_answer","","","","","","","","","","","","","",""
"comp-q","110","655272","0.0-3.0-15.0-0.4-0.4","spark_pilot_2","7305","4","11","Female","","","","","","","3132.0999999940395","<p> <b> True or False? </b> </p><p> If you see a different picture, it means you are in a new place. </p>","1","comp_question","","","","true","","","","","","","","","",""
"comp-q","111","670368","0.0-3.0-15.0-0.4-1.4","spark_pilot_2","7305","4","11","Female","","","","","","","3868.2000000178814","<p> <b> That's right! </b> Lots of different images may show the same place. For example,  you may see three different images that all remind you that you are in outer space. </p>","0","comp_answer","","","","","","","","","","","","","",""
"learning-instructions","112","682048","0.0-3.0-16.0-0.0","spark_pilot_2","7305","4","11","Female","","","","","","","1838.4000000059605","<p> Good job. Remember to do your best because the amount of treasure you earn will be converted into bonus money. </p>
            <p> It’s time to start the real game! </p>","","instructions","","","","","","","","","","","","","",""
"learning-instructions","113","685264","0.0-4.0-0.0-0.0","spark_pilot_2","7305","4","11","Female","","","","","","","504.69999998807907","<p> This time you are searching for treasure in the <b>ocean</b>.</p>","","instructions","","","","","","","","","","","","","",""
"learning-instructions","114","703831","0.0-4.0-0.0-0.1","spark_pilot_2","7305","4","11","Female","","","","","","","1270.4000000059605","<p><b>New</b> animals with <b>new</b> treasure chests live here. You need to explore to discover where the animal with the best treasure chest is.</p>
                    <p> Like before, once you figure out which animal has the chest with the most treasure, you should try to get to that animal and select that chest! </p>","","instructions","","","","","","","","","","","","","",""
"learning-instructions","115","719622","0.0-4.0-1.0-0.0","spark_pilot_2","7305","4","11","Female","","","","","","","1061.2000000178814","<p> Remember, when you see a picture of the place, use the up and down keys to <b>find an animal</b>.</p>
            <p> When you encounter an animal, you should use the left and right keys to <b>select a treasure chest</b>.</p>
            <p> Don't forget to look out for the robber! </p>","","instructions","","","","","","","","","","","","","",""
"revaluation","116","725629","0.0-4.0-2.0-0.0","spark_pilot_2","7305","4","11","Female","","false","","","","","[717.2000000178814,543.9000000059605]","./assets/img/ocean/memory/16.jpg","[""ArrowUp"",""ArrowRight""]","value training","ocean","10","{""ArrowUp,ArrowLeft"":26,""ArrowUp,ArrowRight"":10,""ArrowDown,ArrowLeft"":5,""ArrowDown,ArrowRight"":17}","false","ArrowUp,ArrowRight","false","","","revaluation","1","0","","",""
"html-keyboard-response","117","726135","0.0-4.0-2.0-1.0","spark_pilot_2","7305","4","11","Female","","","","","","","null","<div style=""font-size:60px;"">+</div>","null","fixation","","","","","","","","","","","1","","",""
"revaluation","118","732141","0.0-4.0-2.0-0.1","spark_pilot_2","7305","4","11","Female","","false","","","","","[475.2999999821186,471]","./assets/img/ocean/memory/4.jpg","[""ArrowUp"",""ArrowLeft""]","value training","ocean","26","{""ArrowUp,ArrowLeft"":26,""ArrowUp,ArrowRight"":10,""ArrowDown,ArrowLeft"":5,""ArrowDown,ArrowRight"":17}","true","ArrowUp,ArrowLeft","false","","","revaluation","1","2","","",""
"html-keyboard-response","119","732642","0.0-4.0-2.0-1.1","spark_pilot_2","7305","4","11","Female","","","","","","","null","<div style=""font-size:60px;"">+</div>","null","fixation","","","","","","","","","","","3","","",""
"revaluation","120","736647","0.0-4.0-2.0-0.2","spark_pilot_2","7305","4","11","Female","","false","","","","","[722.0999999940395]","./assets/img/ocean/catch/6.jpg","[""spaceBar""]","value training","ocean","0","{""ArrowUp,ArrowLeft"":26,""ArrowUp,ArrowRight"":10,""ArrowDown,ArrowLeft"":5,""ArrowDown,ArrowRight"":17}","true","spaceBar","true","","","revaluation","1","4","","",""
"html-keyboard-response","121","737148","0.0-4.0-2.0-1.2","spark_pilot_2","7305","4","11","Female","","","","","","","null","<div style=""font-size:60px;"">+</div>","null","fixation","","","","","","","","","","","5","","",""
"revaluation","122","743153","0.0-4.0-2.0-0.3","spark_pilot_2","7305","4","11","Female","","false","","","","","[759.5999999940395,726.1999999880791]","./assets/img/ocean/memory/22.jpg","[""ArrowDown"",""ArrowLeft""]","value training","ocean","5","{""ArrowUp,ArrowLeft"":26,""ArrowUp,ArrowRight"":10,""ArrowDown,ArrowLeft"":5,""ArrowDown,ArrowRight"":17}","false","ArrowDown,ArrowLeft","false","","","revaluation","1","6","","",""
"html-keyboard-response","123","743655","0.0-4.0-2.0-1.3","spark_pilot_2","7305","4","11","Female","","","","","","","null","<div style=""font-size:60px;"">+</div>","null","fixation","","","","","","","","","","","7","","",""
"revaluation","124","747660","0.0-4.0-2.0-0.4","spark_pilot_2","7305","4","11","Female","","false","","","","","[656.2000000178814]","./assets/img/ocean/catch/0.jpg","[""spaceBar""]","value training","ocean","0","{""ArrowUp,ArrowLeft"":26,""ArrowUp,ArrowRight"":10,""ArrowDown,ArrowLeft"":5,""ArrowDown,ArrowRight"":17}","true","spaceBar","true","","","revaluation","1","8","","",""
"html-keyboard-response","125","748161","0.0-4.0-2.0-1.4","spark_pilot_2","7305","4","11","Female","","","","","","","null","<div style=""font-size:60px;"">+</div>","null","fixation","","","","","","","","","","","9","","",""
"revaluation","126","752164","0.0-4.0-2.0-0.5","spark_pilot_2","7305","4","11","Female","","false","","","","","[646.1000000238419]","./assets/img/ocean/catch/1.jpg","[""spaceBar""]","value training","ocean","0","{""ArrowUp,ArrowLeft"":26,""ArrowUp,ArrowRight"":10,""ArrowDown,ArrowLeft"":5,""ArrowDown,ArrowRight"":17}","true","spaceBar","true","","","revaluation","1","10","","",""
"html-keyboard-response","127","752665","0.0-4.0-2.0-1.5","spark_pilot_2","7305","4","11","Female","","","","","","","null","<div style=""font-size:60px;"">+</div>","null","fixation","","","","","","","","","","","11","","",""
"revaluation","128","758671","0.0-4.0-2.0-0.6","spark_pilot_2","7305","4","11","Female","","false","","","","","[804.6000000238419,567.8000000119209]","./assets/img/ocean/memory/31.jpg","[""ArrowDown"",""ArrowRight""]","value training","ocean","17","{""ArrowUp,ArrowLeft"":26,""ArrowUp,ArrowRight"":10,""ArrowDown,ArrowLeft"":5,""ArrowDown,ArrowRight"":17}","false","ArrowDown,ArrowRight","false","","","revaluation","1","12","","",""
"html-keyboard-response","129","759173","0.0-4.0-2.0-1.6","spark_pilot_2","7305","4","11","Female","","","","","","","null","<div style=""font-size:60px;"">+</div>","null","fixation","","","","","","","","","","","13","","",""
"revaluation","130","765178","0.0-4.0-2.0-0.7","spark_pilot_2","7305","4","11","Female","","false","","","","","[729.7000000178814,324.69999998807907]","./assets/img/ocean/memory/5.jpg","[""ArrowUp"",""ArrowRight""]","value training","ocean","10","{""ArrowUp,ArrowLeft"":26,""ArrowUp,ArrowRight"":10,""ArrowDown,ArrowLeft"":5,""ArrowDown,ArrowRight"":17}","false","ArrowUp,ArrowRight","false","","","revaluation","1","14","","",""
"html-keyboard-response","131","765680","0.0-4.0-2.0-1.7","spark_pilot_2","7305","4","11","Female","","","","","","","null","<div style=""font-size:60px;"">+</div>","null","fixation","","","","","","","","","","","15","","",""
"revaluation","132","771686","0.0-4.0-2.0-0.8","spark_pilot_2","7305","4","11","Female","","false","","","","","[1041.8999999761581,459.09999999403954]","./assets/img/ocean/memory/26.jpg","[""ArrowUp"",""ArrowLeft""]","value training","ocean","26","{""ArrowUp,ArrowLeft"":26,""ArrowUp,ArrowRight"":10,""ArrowDown,ArrowLeft"":5,""ArrowDown,ArrowRight"":17}","true","ArrowUp,ArrowLeft","false","","","revaluation","1","16","","",""
"html-keyboard-response","133","772187","0.0-4.0-2.0-1.8","spark_pilot_2","7305","4","11","Female","","","","","","","null","<div style=""font-size:60px;"">+</div>","null","fixation","","","","","","","","","","","17","","",""
"revaluation","134","778192","0.0-4.0-2.0-0.9","spark_pilot_2","7305","4","11","Female","","false","","","","","[550.5,365.30000001192093]","./assets/img/ocean/memory/30.jpg","[""ArrowUp"",""ArrowLeft""]","value training","ocean","26","{""ArrowUp,ArrowLeft"":26,""ArrowUp,ArrowRight"":10,""ArrowDown,ArrowLeft"":5,""ArrowDown,ArrowRight"":17}","true","ArrowUp,ArrowLeft","false","","","revaluation","1","18","","",""
"html-keyboard-response","135","778694","0.0-4.0-2.0-1.9","spark_pilot_2","7305","4","11","Female","","","","","","","null","<div style=""font-size:60px;"">+</div>","null","fixation","","","","","","","","","","","19","","",""
"revaluation","136","784699","0.0-4.0-2.0-0.10","spark_pilot_2","7305","4","11","Female","","false","","","","","[811.1999999880791,1102.199999988079]","./assets/img/ocean/memory/10.jpg","[""ArrowUp"",""ArrowLeft""]","value training","ocean","26","{""ArrowUp,ArrowLeft"":26,""ArrowUp,ArrowRight"":10,""ArrowDown,ArrowLeft"":5,""ArrowDown,ArrowRight"":17}","true","ArrowUp,ArrowLeft","false","","","revaluation","1","20","","",""
"html-keyboard-response","137","785200","0.0-4.0-2.0-1.10","spark_pilot_2","7305","4","11","Female","","","","","","","null","<div style=""font-size:60px;"">+</div>","null","fixation","","","","","","","","","","","21","","",""
"revaluation","138","791206","0.0-4.0-2.0-0.11","spark_pilot_2","7305","4","11","Female","","false","","","","","[936.5,841.5]","./assets/img/ocean/memory/32.jpg","[""ArrowUp"",""ArrowLeft""]","value training","ocean","26","{""ArrowUp,ArrowLeft"":26,""ArrowUp,ArrowRight"":10,""ArrowDown,ArrowLeft"":5,""ArrowDown,ArrowRight"":17}","true","ArrowUp,ArrowLeft","false","","","revaluation","1","22","","",""
"html-keyboard-response","139","791708","0.0-4.0-2.0-1.11","spark_pilot_2","7305","4","11","Female","","","","","","","null","<div style=""font-size:60px;"">+</div>","null","fixation","","","","","","","","","","","23","","",""
"revaluation","140","797713","0.0-4.0-2.0-0.12","spark_pilot_2","7305","4","11","Female","","false","","","","","[509.19999998807907,550.5]","./assets/img/ocean/memory/11.jpg","[""ArrowUp"",""ArrowLeft""]","value training","ocean","26","{""ArrowUp,ArrowLeft"":26,""ArrowUp,ArrowRight"":10,""ArrowDown,ArrowLeft"":5,""ArrowDown,ArrowRight"":17}","true","ArrowUp,ArrowLeft","false","","","revaluation","1","24","","",""
"html-keyboard-response","141","798216","0.0-4.0-2.0-1.12","spark_pilot_2","7305","4","11","Female","","","","","","","null","<div style=""font-size:60px;"">+</div>","null","fixation","","","","","","","","","","","25","","",""
"revaluation","142","804220","0.0-4.0-2.0-0.13","spark_pilot_2","7305","4","11","Female","","false","","","","","[607.5999999940395,739.2999999821186]","./assets/img/ocean/memory/28.jpg","[""ArrowUp"",""ArrowLeft""]","value training","ocean","26","{""ArrowUp,ArrowLeft"":26,""ArrowUp,ArrowRight"":10,""ArrowDown,ArrowLeft"":5,""ArrowDown,ArrowRight"":17}","true","ArrowUp,ArrowLeft","false","","","revaluation","1","26","","",""
"html-keyboard-response","143","804722","0.0-4.0-2.0-1.13","spark_pilot_2","7305","4","11","Female","","","","","","","null","<div style=""font-size:60px;"">+</div>","null","fixation","","","","","","","","","","","27","","",""
"revaluation","144","810727","0.0-4.0-2.0-0.14","spark_pilot_2","7305","4","11","Female","","false","","","","","[920.5999999940395,528.9000000059605]","./assets/img/ocean/memory/0.jpg","[""ArrowUp"",""ArrowLeft""]","value training","ocean","26","{""ArrowUp,ArrowLeft"":26,""ArrowUp,ArrowRight"":10,""ArrowDown,ArrowLeft"":5,""ArrowDown,ArrowRight"":17}","true","ArrowUp,ArrowLeft","false","","","revaluation","1","28","","",""
"html-keyboard-response","145","811228","0.0-4.0-2.0-1.14","spark_pilot_2","7305","4","11","Female","","","","","","","null","<div style=""font-size:60px;"">+</div>","null","fixation","","","","","","","","","","","29","","",""
"revaluation","146","817233","0.0-4.0-2.0-0.15","spark_pilot_2","7305","4","11","Female","","false","","","","","[1177.300000011921,540.3999999761581]","./assets/img/ocean/memory/0.jpg","[""ArrowUp"",""ArrowLeft""]","value training","ocean","26","{""ArrowUp,ArrowLeft"":26,""ArrowUp,ArrowRight"":10,""ArrowDown,ArrowLeft"":5,""ArrowDown,ArrowRight"":17}","true","ArrowUp,ArrowLeft","false","","","revaluation","1","30","","",""
"html-keyboard-response","147","817735","0.0-4.0-2.0-1.15","spark_pilot_2","7305","4","11","Female","","","","","","","null","<div style=""font-size:60px;"">+</div>","null","fixation","","","","","","","","","","","31","","",""
"revaluation","148","823740","0.0-4.0-2.0-0.16","spark_pilot_2","7305","4","11","Female","","false","","","","","[922.1999999880791,475.39999997615814]","./assets/img/ocean/memory/10.jpg","[""ArrowUp"",""ArrowLeft""]","value training","ocean","26","{""ArrowUp,ArrowLeft"":26,""ArrowUp,ArrowRight"":10,""ArrowDown,ArrowLeft"":5,""ArrowDown,ArrowRight"":17}","true","ArrowUp,ArrowLeft","false","","","revaluation","1","32","","",""
"html-keyboard-response","149","824241","0.0-4.0-2.0-1.16","spark_pilot_2","7305","4","11","Female","","","","","","","null","<div style=""font-size:60px;"">+</div>","null","fixation","","","","","","","","","","","33","","",""
"revaluation","150","830245","0.0-4.0-2.0-0.17","spark_pilot_2","7305","4","11","Female","","false","","","","","[692.3000000119209,799.5]","./assets/img/ocean/memory/6.jpg","[""ArrowUp"",""ArrowLeft""]","value training","ocean","26","{""ArrowUp,ArrowLeft"":26,""ArrowUp,ArrowRight"":10,""ArrowDown,ArrowLeft"":5,""ArrowDown,ArrowRight"":17}","true","ArrowUp,ArrowLeft","false","","","revaluation","1","34","","",""
"html-keyboard-response","151","830747","0.0-4.0-2.0-1.17","spark_pilot_2","7305","4","11","Female","","","","","","","null","<div style=""font-size:60px;"">+</div>","null","fixation","","","","","","","","","","","35","","",""
"revaluation","152","836755","0.0-4.0-2.0-0.18","spark_pilot_2","7305","4","11","Female","","false","","","","","[538,1424.4000000059605]","./assets/img/ocean/memory/6.jpg","[""ArrowUp"",""ArrowLeft""]","value training","ocean","26","{""ArrowUp,ArrowLeft"":26,""ArrowUp,ArrowRight"":10,""ArrowDown,ArrowLeft"":5,""ArrowDown,ArrowRight"":17}","true","ArrowUp,ArrowLeft","false","","","revaluation","1","36","","",""
"html-keyboard-response","153","837256","0.0-4.0-2.0-1.18","spark_pilot_2","7305","4","11","Female","","","","","","","null","<div style=""font-size:60px;"">+</div>","null","fixation","","","","","","","","","","","37","","",""
"revaluation","154","843263","0.0-4.0-2.0-0.19","spark_pilot_2","7305","4","11","Female","","false","","","","","[533.6999999880791,625]","./assets/img/ocean/memory/26.jpg","[""ArrowUp"",""ArrowLeft""]","value training","ocean","26","{""ArrowUp,ArrowLeft"":26,""ArrowUp,ArrowRight"":10,""ArrowDown,ArrowLeft"":5,""ArrowDown,ArrowRight"":17}","true","ArrowUp,ArrowLeft","false","","","revaluation","1","38","","",""
"html-keyboard-response","155","843765","0.0-4.0-2.0-1.19","spark_pilot_2","7305","4","11","Female","","","","","","","null","<div style=""font-size:60px;"">+</div>","null","fixation","","","","","","","","","","","39","","",""
"revaluation","156","849769","0.0-4.0-2.0-0.20","spark_pilot_2","7305","4","11","Female","","false","","","","","[544.8000000119209,575.0999999940395]","./assets/img/ocean/memory/16.jpg","[""ArrowUp"",""ArrowLeft""]","value training","ocean","26","{""ArrowUp,ArrowLeft"":26,""ArrowUp,ArrowRight"":10,""ArrowDown,ArrowLeft"":5,""ArrowDown,ArrowRight"":17}","true","ArrowUp,ArrowLeft","false","","","revaluation","1","40","","",""
"html-keyboard-response","157","850270","0.0-4.0-2.0-1.20","spark_pilot_2","7305","4","11","Female","","","","","","","null","<div style=""font-size:60px;"">+</div>","null","fixation","","","","","","","","","","","41","","",""
"revaluation","158","856275","0.0-4.0-2.0-0.21","spark_pilot_2","7305","4","11","Female","","false","","","","","[855.6000000238419,766.4000000059605]","./assets/img/ocean/memory/24.jpg","[""ArrowUp"",""ArrowLeft""]","value training","ocean","26","{""ArrowUp,ArrowLeft"":26,""ArrowUp,ArrowRight"":10,""ArrowDown,ArrowLeft"":5,""ArrowDown,ArrowRight"":17}","true","ArrowUp,ArrowLeft","false","","","revaluation","1","42","","",""
"html-keyboard-response","159","856776","0.0-4.0-2.0-1.21","spark_pilot_2","7305","4","11","Female","","","","","","","null","<div style=""font-size:60px;"">+</div>","null","fixation","","","","","","","","","","","43","","",""
"revaluation","160","862782","0.0-4.0-2.0-0.22","spark_pilot_2","7305","4","11","Female","","false","","","","","[645.8999999761581,625.2000000178814]","./assets/img/ocean/memory/34.jpg","[""ArrowUp"",""ArrowLeft""]","value training","ocean","26","{""ArrowUp,ArrowLeft"":26,""ArrowUp,ArrowRight"":10,""ArrowDown,ArrowLeft"":5,""ArrowDown,ArrowRight"":17}","true","ArrowUp,ArrowLeft","false","","","revaluation","1","44","","",""
"html-keyboard-response","161","863283","0.0-4.0-2.0-1.22","spark_pilot_2","7305","4","11","Female","","","","","","","null","<div style=""font-size:60px;"">+</div>","null","fixation","","","","","","","","","","","45","","",""
"revaluation","162","869288","0.0-4.0-2.0-0.23","spark_pilot_2","7305","4","11","Female","","false","","","","","[478.40000000596046,650.4000000059605]","./assets/img/ocean/memory/23.jpg","[""ArrowUp"",""ArrowLeft""]","value training","ocean","26","{""ArrowUp,ArrowLeft"":26,""ArrowUp,ArrowRight"":10,""ArrowDown,ArrowLeft"":5,""ArrowDown,ArrowRight"":17}","true","ArrowUp,ArrowLeft","false","","","revaluation","1","46","","",""
"html-keyboard-response","163","869789","0.0-4.0-2.0-1.23","spark_pilot_2","7305","4","11","Female","","","","","","","null","<div style=""font-size:60px;"">+</div>","null","fixation","","","","","","","","","","","47","","",""
"revaluation","164","875794","0.0-4.0-2.0-0.24","spark_pilot_2","7305","4","11","Female","","false","","","","","[607.4000000059605,475.90000000596046]","./assets/img/ocean/memory/37.jpg","[""ArrowUp"",""ArrowLeft""]","value training","ocean","26","{""ArrowUp,ArrowLeft"":26,""ArrowUp,ArrowRight"":10,""ArrowDown,ArrowLeft"":5,""ArrowDown,ArrowRight"":17}","true","ArrowUp,ArrowLeft","false","","","revaluation","1","48","","",""
"html-keyboard-response","165","876295","0.0-4.0-2.0-1.24","spark_pilot_2","7305","4","11","Female","","","","","","","null","<div style=""font-size:60px;"">+</div>","null","fixation","","","","","","","","","","","49","","",""
"revaluation","166","882300","0.0-4.0-2.0-0.25","spark_pilot_2","7305","4","11","Female","","false","","","","","[645.8000000119209,587.7000000178814]","./assets/img/ocean/memory/41.jpg","[""ArrowUp"",""ArrowLeft""]","value training","ocean","26","{""ArrowUp,ArrowLeft"":26,""ArrowUp,ArrowRight"":10,""ArrowDown,ArrowLeft"":5,""ArrowDown,ArrowRight"":17}","true","ArrowUp,ArrowLeft","false","","","revaluation","1","50","","",""
"html-keyboard-response","167","882802","0.0-4.0-2.0-1.25","spark_pilot_2","7305","4","11","Female","","","","","","","null","<div style=""font-size:60px;"">+</div>","null","fixation","","","","","","","","","","","51","","",""
"revaluation","168","888807","0.0-4.0-2.0-0.26","spark_pilot_2","7305","4","11","Female","","false","","","","","[525.2000000178814,1385.2999999821186]","./assets/img/ocean/memory/31.jpg","[""ArrowUp"",""ArrowLeft""]","value training","ocean","26","{""ArrowUp,ArrowLeft"":26,""ArrowUp,ArrowRight"":10,""ArrowDown,ArrowLeft"":5,""ArrowDown,ArrowRight"":17}","true","ArrowUp,ArrowLeft","false","","","revaluation","1","52","","",""
"html-keyboard-response","169","889308","0.0-4.0-2.0-1.26","spark_pilot_2","7305","4","11","Female","","","","","","","null","<div style=""font-size:60px;"">+</div>","null","fixation","","","","","","","","","","","53","","",""
"revaluation","170","895316","0.0-4.0-2.0-0.27","spark_pilot_2","7305","4","11","Female","","false","","","","","[426.09999999403954,826.4000000059605]","./assets/img/ocean/memory/7.jpg","[""ArrowUp"",""ArrowLeft""]","value training","ocean","26","{""ArrowUp,ArrowLeft"":26,""ArrowUp,ArrowRight"":10,""ArrowDown,ArrowLeft"":5,""ArrowDown,ArrowRight"":17}","true","ArrowUp,ArrowLeft","false","","","revaluation","1","54","","",""
"html-keyboard-response","171","895817","0.0-4.0-2.0-1.27","spark_pilot_2","7305","4","11","Female","","","","","","","null","<div style=""font-size:60px;"">+</div>","null","fixation","","","","","","","","","","","55","","",""
"revaluation","172","901821","0.0-4.0-2.0-0.28","spark_pilot_2","7305","4","11","Female","","false","","","","","[494.40000000596046,580]","./assets/img/ocean/memory/37.jpg","[""ArrowUp"",""ArrowLeft""]","value training","ocean","26","{""ArrowUp,ArrowLeft"":26,""ArrowUp,ArrowRight"":10,""ArrowDown,ArrowLeft"":5,""ArrowDown,ArrowRight"":17}","true","ArrowUp,ArrowLeft","false","","","revaluation","1","56","","",""
"html-keyboard-response","173","902323","0.0-4.0-2.0-1.28","spark_pilot_2","7305","4","11","Female","","","","","","","null","<div style=""font-size:60px;"">+</div>","null","fixation","","","","","","","","","","","57","","",""
"revaluation","174","908328","0.0-4.0-2.0-0.29","spark_pilot_2","7305","4","11","Female","","false","","","","","[760.5,561.3000000119209]","./assets/img/ocean/memory/15.jpg","[""ArrowUp"",""ArrowLeft""]","value training","ocean","26","{""ArrowUp,ArrowLeft"":26,""ArrowUp,ArrowRight"":10,""ArrowDown,ArrowLeft"":5,""ArrowDown,ArrowRight"":17}","true","ArrowUp,ArrowLeft","false","","","revaluation","1","58","","",""
"html-keyboard-response","175","908830","0.0-4.0-2.0-1.29","spark_pilot_2","7305","4","11","Female","","","","","","","null","<div style=""font-size:60px;"">+</div>","null","fixation","","","","","","","","","","","59","","",""
"revaluation","176","912835","0.0-4.0-2.0-0.30","spark_pilot_2","7305","4","11","Female","","false","","","","","[590.8000000119209]","./assets/img/ocean/catch/3.jpg","[""spaceBar""]","value training","ocean","0","{""ArrowUp,ArrowLeft"":26,""ArrowUp,ArrowRight"":10,""ArrowDown,ArrowLeft"":5,""ArrowDown,ArrowRight"":17}","true","spaceBar","true","","","revaluation","1","60","","",""
"html-keyboard-response","177","913336","0.0-4.0-2.0-1.30","spark_pilot_2","7305","4","11","Female","","","","","","","null","<div style=""font-size:60px;"">+</div>","null","fixation","","","","","","","","","","","61","","",""
"revaluation","178","919341","0.0-4.0-2.0-0.31","spark_pilot_2","7305","4","11","Female","","false","","","","","[813.6999999880791,639.0999999940395]","./assets/img/ocean/memory/41.jpg","[""ArrowUp"",""ArrowLeft""]","value training","ocean","26","{""ArrowUp,ArrowLeft"":26,""ArrowUp,ArrowRight"":10,""ArrowDown,ArrowLeft"":5,""ArrowDown,ArrowRight"":17}","true","ArrowUp,ArrowLeft","false","","","revaluation","1","62","","",""
"html-keyboard-response","179","919842","0.0-4.0-2.0-1.31","spark_pilot_2","7305","4","11","Female","","","","","","","null","<div style=""font-size:60px;"">+</div>","null","fixation","","","","","","","","","","","63","","",""
"revaluation","180","925848","0.0-4.0-2.0-0.32","spark_pilot_2","7305","4","11","Female","","false","","","","","[679.8999999761581,735.9000000059605]","./assets/img/ocean/memory/22.jpg","[""ArrowUp"",""ArrowLeft""]","value training","ocean","26","{""ArrowUp,ArrowLeft"":26,""ArrowUp,ArrowRight"":10,""ArrowDown,ArrowLeft"":5,""ArrowDown,ArrowRight"":17}","true","ArrowUp,ArrowLeft","false","","","revaluation","1","64","","",""
"html-keyboard-response","181","926349","0.0-4.0-2.0-1.32","spark_pilot_2","7305","4","11","Female","","","","","","","null","<div style=""font-size:60px;"">+</div>","null","fixation","","","","","","","","","","","65","","",""
"revaluation","182","932355","0.0-4.0-2.0-0.33","spark_pilot_2","7305","4","11","Female","","false","","","","","[693.3000000119209,649.5]","./assets/img/ocean/memory/24.jpg","[""ArrowUp"",""ArrowLeft""]","value training","ocean","26","{""ArrowUp,ArrowLeft"":26,""ArrowUp,ArrowRight"":10,""ArrowDown,ArrowLeft"":5,""ArrowDown,ArrowRight"":17}","true","ArrowUp,ArrowLeft","false","","","revaluation","1","66","","",""
"html-keyboard-response","183","932856","0.0-4.0-2.0-1.33","spark_pilot_2","7305","4","11","Female","","","","","","","null","<div style=""font-size:60px;"">+</div>","null","fixation","","","","","","","","","","","67","","",""
"revaluation","184","938862","0.0-4.0-2.0-0.34","spark_pilot_2","7305","4","11","Female","","false","","","","","[644.5,920.1999999880791]","./assets/img/ocean/memory/15.jpg","[""ArrowUp"",""ArrowLeft""]","value training","ocean","26","{""ArrowUp,ArrowLeft"":26,""ArrowUp,ArrowRight"":10,""ArrowDown,ArrowLeft"":5,""ArrowDown,ArrowRight"":17}","true","ArrowUp,ArrowLeft","false","","","revaluation","1","68","","",""
"html-keyboard-response","185","939364","0.0-4.0-2.0-1.34","spark_pilot_2","7305","4","11","Female","","","","","","","null","<div style=""font-size:60px;"">+</div>","null","fixation","","","","","","","","","","","69","","",""
"revaluation","186","943368","0.0-4.0-2.0-0.35","spark_pilot_2","7305","4","11","Female","","false","","","","","[573]","./assets/img/ocean/catch/5.jpg","[""ArrowUp""]","value training","ocean","-10","{""ArrowUp,ArrowLeft"":26,""ArrowUp,ArrowRight"":10,""ArrowDown,ArrowLeft"":5,""ArrowDown,ArrowRight"":17}","false","ArrowUp","true","","","revaluation","1","70","","",""
"html-keyboard-response","187","943869","0.0-4.0-2.0-1.35","spark_pilot_2","7305","4","11","Female","","","","","","","null","<div style=""font-size:60px;"">+</div>","null","fixation","","","","","","","","","","","71","","",""
"revaluation","188","949875","0.0-4.0-2.0-0.36","spark_pilot_2","7305","4","11","Female","","false","","","","","[823.5999999940395,612.6999999880791]","./assets/img/ocean/memory/7.jpg","[""ArrowUp"",""ArrowLeft""]","value training","ocean","26","{""ArrowUp,ArrowLeft"":26,""ArrowUp,ArrowRight"":10,""ArrowDown,ArrowLeft"":5,""ArrowDown,ArrowRight"":17}","true","ArrowUp,ArrowLeft","false","","","revaluation","1","72","","",""
"html-keyboard-response","189","950376","0.0-4.0-2.0-1.36","spark_pilot_2","7305","4","11","Female","","","","","","","null","<div style=""font-size:60px;"">+</div>","null","fixation","","","","","","","","","","","73","","",""
"revaluation","190","956383","0.0-4.0-2.0-0.37","spark_pilot_2","7305","4","11","Female","","false","","","","","[732.5,587.5999999940395]","./assets/img/ocean/memory/28.jpg","[""ArrowUp"",""ArrowLeft""]","value training","ocean","26","{""ArrowUp,ArrowLeft"":26,""ArrowUp,ArrowRight"":10,""ArrowDown,ArrowLeft"":5,""ArrowDown,ArrowRight"":17}","true","ArrowUp,ArrowLeft","false","","","revaluation","1","74","","",""
"html-keyboard-response","191","956885","0.0-4.0-2.0-1.37","spark_pilot_2","7305","4","11","Female","","","","","","","null","<div style=""font-size:60px;"">+</div>","null","fixation","","","","","","","","","","","75","","",""
"revaluation","192","960888","0.0-4.0-2.0-0.38","spark_pilot_2","7305","4","11","Female","","false","","","","","[727.4000000059605]","./assets/img/ocean/catch/4.jpg","[""spaceBar""]","value training","ocean","0","{""ArrowUp,ArrowLeft"":26,""ArrowUp,ArrowRight"":10,""ArrowDown,ArrowLeft"":5,""ArrowDown,ArrowRight"":17}","true","spaceBar","true","","","revaluation","1","76","","",""
"html-keyboard-response","193","961390","0.0-4.0-2.0-1.38","spark_pilot_2","7305","4","11","Female","","","","","","","null","<div style=""font-size:60px;"">+</div>","null","fixation","","","","","","","","","","","77","","",""
"revaluation","194","965394","0.0-4.0-2.0-0.39","spark_pilot_2","7305","4","11","Female","","false","","","","","[731.4000000059605]","./assets/img/ocean/catch/2.jpg","[""spaceBar""]","value training","ocean","0","{""ArrowUp,ArrowLeft"":26,""ArrowUp,ArrowRight"":10,""ArrowDown,ArrowLeft"":5,""ArrowDown,ArrowRight"":17}","true","spaceBar","true","","","revaluation","1","78","","",""
"html-keyboard-response","195","965894","0.0-4.0-2.0-1.39","spark_pilot_2","7305","4","11","Female","","","","","","","null","<div style=""font-size:60px;"">+</div>","null","fixation","","","","","","","","","","","79","","",""
"revaluation","196","971901","0.0-4.0-2.0-0.40","spark_pilot_2","7305","4","11","Female","","false","","","","","[781.5999999940395,523.1000000238419]","./assets/img/ocean/memory/5.jpg","[""ArrowUp"",""ArrowLeft""]","value training","ocean","26","{""ArrowUp,ArrowLeft"":26,""ArrowUp,ArrowRight"":10,""ArrowDown,ArrowLeft"":5,""ArrowDown,ArrowRight"":17}","true","ArrowUp,ArrowLeft","false","","","revaluation","1","80","","",""
"html-keyboard-response","197","972402","0.0-4.0-2.0-1.40","spark_pilot_2","7305","4","11","Female","","","","","","","null","<div style=""font-size:60px;"">+</div>","null","fixation","","","","","","","","","","","81","","",""
"revaluation","198","978409","0.0-4.0-2.0-0.41","spark_pilot_2","7305","4","11","Female","","false","","","","","[929.7999999821186,1382.800000011921]","./assets/img/ocean/memory/23.jpg","[""ArrowUp"",""ArrowLeft""]","value training","ocean","26","{""ArrowUp,ArrowLeft"":26,""ArrowUp,ArrowRight"":10,""ArrowDown,ArrowLeft"":5,""ArrowDown,ArrowRight"":17}","true","ArrowUp,ArrowLeft","false","","","revaluation","1","82","","",""
"html-keyboard-response","199","978911","0.0-4.0-2.0-1.41","spark_pilot_2","7305","4","11","Female","","","","","","","null","<div style=""font-size:60px;"">+</div>","null","fixation","","","","","","","","","","","83","","",""
"revaluation","200","984915","0.0-4.0-2.0-0.42","spark_pilot_2","7305","4","11","Female","","false","","","","","[590.9000000059605,595.5]","./assets/img/ocean/memory/4.jpg","[""ArrowUp"",""ArrowLeft""]","value training","ocean","26","{""ArrowUp,ArrowLeft"":26,""ArrowUp,ArrowRight"":10,""ArrowDown,ArrowLeft"":5,""ArrowDown,ArrowRight"":17}","true","ArrowUp,ArrowLeft","false","","","revaluation","1","84","","",""
"html-keyboard-response","201","985416","0.0-4.0-2.0-1.42","spark_pilot_2","7305","4","11","Female","","","","","","","null","<div style=""font-size:60px;"">+</div>","null","fixation","","","","","","","","","","","85","","",""
"revaluation","202","991422","0.0-4.0-2.0-0.43","spark_pilot_2","7305","4","11","Female","","false","","","","","[665.1999999880791,896.6000000238419]","./assets/img/ocean/memory/34.jpg","[""ArrowUp"",""ArrowLeft""]","value training","ocean","26","{""ArrowUp,ArrowLeft"":26,""ArrowUp,ArrowRight"":10,""ArrowDown,ArrowLeft"":5,""ArrowDown,ArrowRight"":17}","true","ArrowUp,ArrowLeft","false","","","revaluation","1","86","","",""
"html-keyboard-response","203","991924","0.0-4.0-2.0-1.43","spark_pilot_2","7305","4","11","Female","","","","","","","null","<div style=""font-size:60px;"">+</div>","null","fixation","","","","","","","","","","","87","","",""
"revaluation","204","997930","0.0-4.0-2.0-0.44","spark_pilot_2","7305","4","11","Female","","false","","","","","[570,1286.9000000059605]","./assets/img/ocean/memory/11.jpg","[""ArrowUp"",""ArrowLeft""]","value training","ocean","26","{""ArrowUp,ArrowLeft"":26,""ArrowUp,ArrowRight"":10,""ArrowDown,ArrowLeft"":5,""ArrowDown,ArrowRight"":17}","true","ArrowUp,ArrowLeft","false","","","revaluation","1","88","","",""
"html-keyboard-response","205","998432","0.0-4.0-2.0-1.44","spark_pilot_2","7305","4","11","Female","","","","","","","null","<div style=""font-size:60px;"">+</div>","null","fixation","","","","","","","","","","","89","","",""
"revaluation","206","1004438","0.0-4.0-2.0-0.45","spark_pilot_2","7305","4","11","Female","","false","","","","","[1535.5,714.4000000059605]","./assets/img/ocean/memory/30.jpg","[""ArrowUp"",""ArrowLeft""]","value training","ocean","26","{""ArrowUp,ArrowLeft"":26,""ArrowUp,ArrowRight"":10,""ArrowDown,ArrowLeft"":5,""ArrowDown,ArrowRight"":17}","true","ArrowUp,ArrowLeft","false","","","revaluation","1","90","","",""
"html-keyboard-response","207","1004939","0.0-4.0-2.0-1.45","spark_pilot_2","7305","4","11","Female","","","","","","","null","<div style=""font-size:60px;"">+</div>","null","fixation","","","","","","","","","","","91","","",""
"revaluation","208","1010945","0.0-4.0-2.0-0.46","spark_pilot_2","7305","4","11","Female","","false","","","","","[1035,848.7000000178814]","./assets/img/ocean/memory/32.jpg","[""ArrowUp"",""ArrowLeft""]","value training","ocean","26","{""ArrowUp,ArrowLeft"":26,""ArrowUp,ArrowRight"":10,""ArrowDown,ArrowLeft"":5,""ArrowDown,ArrowRight"":17}","true","ArrowUp,ArrowLeft","false","","","revaluation","1","92","","",""
"html-keyboard-response","209","1011447","0.0-4.0-2.0-1.46","spark_pilot_2","7305","4","11","Female","","","","","","","null","<div style=""font-size:60px;"">+</div>","null","fixation","","","","","","","","","","","93","","",""
"revaluation","210","1017452","0.0-4.0-2.0-0.47","spark_pilot_2","7305","4","11","Female","","false","","","","","[885.5,748.5]","./assets/img/ocean/memory/29.jpg","[""ArrowUp"",""ArrowLeft""]","value training","ocean","26","{""ArrowUp,ArrowLeft"":26,""ArrowUp,ArrowRight"":10,""ArrowDown,ArrowLeft"":5,""ArrowDown,ArrowRight"":17}","true","ArrowUp,ArrowLeft","false","","","revaluation","1","94","","",""
"html-keyboard-response","211","1017953","0.0-4.0-2.0-1.47","spark_pilot_2","7305","4","11","Female","","","","","","","null","<div style=""font-size:60px;"">+</div>","null","fixation","","","","","","","","","","","95","","",""
"revaluation","212","1023957","0.0-4.0-2.0-0.48","spark_pilot_2","7305","4","11","Female","","false","","","","","[775.9000000059605,645.0999999940395]","./assets/img/ocean/memory/29.jpg","[""ArrowUp"",""ArrowLeft""]","value training","ocean","26","{""ArrowUp,ArrowLeft"":26,""ArrowUp,ArrowRight"":10,""ArrowDown,ArrowLeft"":5,""ArrowDown,ArrowRight"":17}","true","ArrowUp,ArrowLeft","false","","","revaluation","1","96","","",""
"html-keyboard-response","213","1024458","0.0-4.0-2.0-1.48","spark_pilot_2","7305","4","11","Female","","","","","","","null","<div style=""font-size:60px;"">+</div>","null","fixation","","","","","","","","","","","97","","",""
"revaluation","214","1028463","0.0-4.0-2.0-0.49","spark_pilot_2","7305","4","11","Female","","false","","","","","[996.4000000059605]","./assets/img/ocean/catch/7.jpg","[""spaceBar""]","value training","ocean","0","{""ArrowUp,ArrowLeft"":26,""ArrowUp,ArrowRight"":10,""ArrowDown,ArrowLeft"":5,""ArrowDown,ArrowRight"":17}","true","spaceBar","true","","","revaluation","1","98","","",""
"html-keyboard-response","215","1028964","0.0-4.0-2.0-1.49","spark_pilot_2","7305","4","11","Female","","","","","","","null","<div style=""font-size:60px;"">+</div>","null","fixation","","","","","","","","","","","99","","",""
"learning-instructions","216","1048544","0.0-4.0-3.0-0.0","spark_pilot_2","7305","4","11","Female","","","","","","","6407.5","<p> Now, you will travel with a friend who will choose whether you go up or down first. </p>
            <p> On these turns, you will just see the animal that they found. You will still get to choose which chest to search for treasure.</p>","","instructions","","","","","","","","","","","","","",""
"revaluation","217","1052549","0.0-4.0-4.0-0.0","spark_pilot_2","7305","4","11","Female","","false","","","","","[1563.4000000059605]","./assets/img/ocean/animals/seahorse.jpg","[""ArrowRight""]","revaluation","ocean","27","{""ArrowUp,ArrowLeft"":2,""ArrowUp,ArrowRight"":11,""ArrowDown,ArrowLeft"":8,""ArrowDown,ArrowRight"":27}","true","ArrowDown,ArrowRight","","","","revaluation","1","0","","",""
"html-keyboard-response","218","1053055","0.0-4.0-4.0-1.0","spark_pilot_2","7305","4","11","Female","","","","","","","null","<div style=""font-size:60px;"">+</div>","null","fixation","","","","","","","","","","","1","","",""
"revaluation","219","1057060","0.0-4.0-4.0-0.1","spark_pilot_2","7305","4","11","Female","","false","","","","","[567.5999999940395]","./assets/img/ocean/animals/seahorse.jpg","[""ArrowRight""]","revaluation","ocean","27","{""ArrowUp,ArrowLeft"":2,""ArrowUp,ArrowRight"":11,""ArrowDown,ArrowLeft"":8,""ArrowDown,ArrowRight"":27}","true","ArrowDown,ArrowRight","","","","revaluation","1","2","","",""
"html-keyboard-response","220","1057561","0.0-4.0-4.0-1.1","spark_pilot_2","7305","4","11","Female","","","","","","","null","<div style=""font-size:60px;"">+</div>","null","fixation","","","","","","","","","","","3","","",""
"revaluation","221","1061566","0.0-4.0-4.0-0.2","spark_pilot_2","7305","4","11","Female","","false","","","","","[510.7999999821186]","./assets/img/ocean/animals/seahorse.jpg","[""ArrowRight""]","revaluation","ocean","27","{""ArrowUp,ArrowLeft"":2,""ArrowUp,ArrowRight"":11,""ArrowDown,ArrowLeft"":8,""ArrowDown,ArrowRight"":27}","true","ArrowDown,ArrowRight","","","","revaluation","1","4","","",""
"html-keyboard-response","222","1062067","0.0-4.0-4.0-1.2","spark_pilot_2","7305","4","11","Female","","","","","","","null","<div style=""font-size:60px;"">+</div>","null","fixation","","","","","","","","","","","5","","",""
"revaluation","223","1066072","0.0-4.0-4.0-0.3","spark_pilot_2","7305","4","11","Female","","false","","","","","[977.5999999940395]","./assets/img/ocean/animals/octopus.jpg","[""ArrowRight""]","revaluation","ocean","11","{""ArrowUp,ArrowLeft"":2,""ArrowUp,ArrowRight"":11,""ArrowDown,ArrowLeft"":8,""ArrowDown,ArrowRight"":27}","true","ArrowUp,ArrowRight","","","","revaluation","1","6","","",""
"html-keyboard-response","224","1066575","0.0-4.0-4.0-1.3","spark_pilot_2","7305","4","11","Female","","","","","","","null","<div style=""font-size:60px;"">+</div>","null","fixation","","","","","","","","","","","7","","",""
"revaluation","225","1070579","0.0-4.0-4.0-0.4","spark_pilot_2","7305","4","11","Female","","false","","","","","[502.90000000596046]","./assets/img/ocean/animals/seahorse.jpg","[""ArrowRight""]","revaluation","ocean","27","{""ArrowUp,ArrowLeft"":2,""ArrowUp,ArrowRight"":11,""ArrowDown,ArrowLeft"":8,""ArrowDown,ArrowRight"":27}","true","ArrowDown,ArrowRight","","","","revaluation","1","8","","",""
"html-keyboard-response","226","1071080","0.0-4.0-4.0-1.4","spark_pilot_2","7305","4","11","Female","","","","","","","null","<div style=""font-size:60px;"">+</div>","null","fixation","","","","","","","","","","","9","","",""
"revaluation","227","1075084","0.0-4.0-4.0-0.5","spark_pilot_2","7305","4","11","Female","","true","","","","","[]","./assets/img/ocean/animals/seahorse.jpg","[]","revaluation","ocean","-5","{""ArrowUp,ArrowLeft"":2,""ArrowUp,ArrowRight"":11,""ArrowDown,ArrowLeft"":8,""ArrowDown,ArrowRight"":27}","false","ArrowDown","","","","revaluation","1","10","","",""
"html-keyboard-response","228","1075587","0.0-4.0-4.0-1.5","spark_pilot_2","7305","4","11","Female","","","","","","","null","<div style=""font-size:60px;"">+</div>","null","fixation","","","","","","","","","","","11","","",""
"revaluation","229","1079593","0.0-4.0-4.0-0.6","spark_pilot_2","7305","4","11","Female","","false","","","","","[626.1000000238419]","./assets/img/ocean/animals/seahorse.jpg","[""ArrowLeft""]","revaluation","ocean","8","{""ArrowUp,ArrowLeft"":2,""ArrowUp,ArrowRight"":11,""ArrowDown,ArrowLeft"":8,""ArrowDown,ArrowRight"":27}","false","ArrowDown,ArrowLeft","","","","revaluation","1","12","","",""
"html-keyboard-response","230","1080095","0.0-4.0-4.0-1.6","spark_pilot_2","7305","4","11","Female","","","","","","","null","<div style=""font-size:60px;"">+</div>","null","fixation","","","","","","","","","","","13","","",""
"revaluation","231","1084100","0.0-4.0-4.0-0.7","spark_pilot_2","7305","4","11","Female","","false","","","","","[1008.0999999940395]","./assets/img/ocean/animals/octopus.jpg","[""ArrowLeft""]","revaluation","ocean","2","{""ArrowUp,ArrowLeft"":2,""ArrowUp,ArrowRight"":11,""ArrowDown,ArrowLeft"":8,""ArrowDown,ArrowRight"":27}","false","ArrowUp,ArrowLeft","","","","revaluation","1","14","","",""
"html-keyboard-response","232","1084602","0.0-4.0-4.0-1.7","spark_pilot_2","7305","4","11","Female","","","","","","","null","<div style=""font-size:60px;"">+</div>","null","fixation","","","","","","","","","","","15","","",""
"revaluation","233","1088606","0.0-4.0-4.0-0.8","spark_pilot_2","7305","4","11","Female","","false","","","","","[526.5]","./assets/img/ocean/animals/seahorse.jpg","[""ArrowRight""]","revaluation","ocean","27","{""ArrowUp,ArrowLeft"":2,""ArrowUp,ArrowRight"":11,""ArrowDown,ArrowLeft"":8,""ArrowDown,ArrowRight"":27}","true","ArrowDown,ArrowRight","","","","revaluation","1","16","","",""
"html-keyboard-response","234","1089108","0.0-4.0-4.0-1.8","spark_pilot_2","7305","4","11","Female","","","","","","","null","<div style=""font-size:60px;"">+</div>","null","fixation","","","","","","","","","","","17","","",""
"revaluation","235","1093112","0.0-4.0-4.0-0.9","spark_pilot_2","7305","4","11","Female","","false","","","","","[420.5]","./assets/img/ocean/animals/octopus.jpg","[""ArrowRight""]","revaluation","ocean","11","{""ArrowUp,ArrowLeft"":2,""ArrowUp,ArrowRight"":11,""ArrowDown,ArrowLeft"":8,""ArrowDown,ArrowRight"":27}","true","ArrowUp,ArrowRight","","","","revaluation","1","18","","",""
"html-keyboard-response","236","1093614","0.0-4.0-4.0-1.9","spark_pilot_2","7305","4","11","Female","","","","","","","null","<div style=""font-size:60px;"">+</div>","null","fixation","","","","","","","","","","","19","","",""
"revaluation","237","1097620","0.0-4.0-4.0-0.10","spark_pilot_2","7305","4","11","Female","","false","","","","","[518]","./assets/img/ocean/animals/octopus.jpg","[""ArrowRight""]","revaluation","ocean","11","{""ArrowUp,ArrowLeft"":2,""ArrowUp,ArrowRight"":11,""ArrowDown,ArrowLeft"":8,""ArrowDown,ArrowRight"":27}","true","ArrowUp,ArrowRight","","","","revaluation","1","20","","",""
"html-keyboard-response","238","1098121","0.0-4.0-4.0-1.10","spark_pilot_2","7305","4","11","Female","","","","","","","null","<div style=""font-size:60px;"">+</div>","null","fixation","","","","","","","","","","","21","","",""
"revaluation","239","1102126","0.0-4.0-4.0-0.11","spark_pilot_2","7305","4","11","Female","","false","","","","","[445.80000001192093]","./assets/img/ocean/animals/octopus.jpg","[""ArrowRight""]","revaluation","ocean","11","{""ArrowUp,ArrowLeft"":2,""ArrowUp,ArrowRight"":11,""ArrowDown,ArrowLeft"":8,""ArrowDown,ArrowRight"":27}","true","ArrowUp,ArrowRight","","","","revaluation","1","22","","",""
"html-keyboard-response","240","1102627","0.0-4.0-4.0-1.11","spark_pilot_2","7305","4","11","Female","","","","","","","null","<div style=""font-size:60px;"">+</div>","null","fixation","","","","","","","","","","","23","","",""
"revaluation","241","1106633","0.0-4.0-4.0-0.12","spark_pilot_2","7305","4","11","Female","","false","","","","","[803.3000000119209]","./assets/img/ocean/animals/octopus.jpg","[""ArrowRight""]","revaluation","ocean","11","{""ArrowUp,ArrowLeft"":2,""ArrowUp,ArrowRight"":11,""ArrowDown,ArrowLeft"":8,""ArrowDown,ArrowRight"":27}","true","ArrowUp,ArrowRight","","","","revaluation","1","24","","",""
"html-keyboard-response","242","1107135","0.0-4.0-4.0-1.12","spark_pilot_2","7305","4","11","Female","","","","","","","null","<div style=""font-size:60px;"">+</div>","null","fixation","","","","","","","","","","","25","","",""
"revaluation","243","1111139","0.0-4.0-4.0-0.13","spark_pilot_2","7305","4","11","Female","","false","","","","","[70]","./assets/img/ocean/animals/octopus.jpg","[""ArrowRight""]","revaluation","ocean","11","{""ArrowUp,ArrowLeft"":2,""ArrowUp,ArrowRight"":11,""ArrowDown,ArrowLeft"":8,""ArrowDown,ArrowRight"":27}","true","ArrowUp,ArrowRight","","","","revaluation","1","26","","",""
"html-keyboard-response","244","1111641","0.0-4.0-4.0-1.13","spark_pilot_2","7305","4","11","Female","","","","","","","null","<div style=""font-size:60px;"">+</div>","null","fixation","","","","","","","","","","","27","","",""
"revaluation","245","1115645","0.0-4.0-4.0-0.14","spark_pilot_2","7305","4","11","Female","","false","","","","","[29.900000005960464]","./assets/img/ocean/animals/octopus.jpg","[""ArrowRight""]","revaluation","ocean","11","{""ArrowUp,ArrowLeft"":2,""ArrowUp,ArrowRight"":11,""ArrowDown,ArrowLeft"":8,""ArrowDown,ArrowRight"":27}","true","ArrowUp,ArrowRight","","","","revaluation","1","28","","",""
"html-keyboard-response","246","1116147","0.0-4.0-4.0-1.14","spark_pilot_2","7305","4","11","Female","","","","","","","null","<div style=""font-size:60px;"">+</div>","null","fixation","","","","","","","","","","","29","","",""
"revaluation","247","1120152","0.0-4.0-4.0-0.15","spark_pilot_2","7305","4","11","Female","","false","","","","","[13.800000011920929]","./assets/img/ocean/animals/seahorse.jpg","[""ArrowRight""]","revaluation","ocean","27","{""ArrowUp,ArrowLeft"":2,""ArrowUp,ArrowRight"":11,""ArrowDown,ArrowLeft"":8,""ArrowDown,ArrowRight"":27}","true","ArrowDown,ArrowRight","","","","revaluation","1","30","","",""
"html-keyboard-response","248","1120653","0.0-4.0-4.0-1.15","spark_pilot_2","7305","4","11","Female","","","","","","","null","<div style=""font-size:60px;"">+</div>","null","fixation","","","","","","","","","","","31","","",""
"revaluation","249","1124657","0.0-4.0-4.0-0.16","spark_pilot_2","7305","4","11","Female","","false","","","","","[21.899999976158142]","./assets/img/ocean/animals/octopus.jpg","[""ArrowRight""]","revaluation","ocean","11","{""ArrowUp,ArrowLeft"":2,""ArrowUp,ArrowRight"":11,""ArrowDown,ArrowLeft"":8,""ArrowDown,ArrowRight"":27}","true","ArrowUp,ArrowRight","","","","revaluation","1","32","","",""
"html-keyboard-response","250","1125159","0.0-4.0-4.0-1.16","spark_pilot_2","7305","4","11","Female","","","","","","","null","<div style=""font-size:60px;"">+</div>","null","fixation","","","","","","","","","","","33","","",""
"revaluation","251","1129163","0.0-4.0-4.0-0.17","spark_pilot_2","7305","4","11","Female","","false","","","","","[1.5]","./assets/img/ocean/animals/seahorse.jpg","[""ArrowRight""]","revaluation","ocean","27","{""ArrowUp,ArrowLeft"":2,""ArrowUp,ArrowRight"":11,""ArrowDown,ArrowLeft"":8,""ArrowDown,ArrowRight"":27}","true","ArrowDown,ArrowRight","","","","revaluation","1","34","","",""
"html-keyboard-response","252","1129665","0.0-4.0-4.0-1.17","spark_pilot_2","7305","4","11","Female","","","","","","","null","<div style=""font-size:60px;"">+</div>","null","fixation","","","","","","","","","","","35","","",""
"learning-instructions","253","1143088","0.0-4.0-5.0-0.0","spark_pilot_2","7305","4","11","Female","","","","","","","1785.2000000178814","<p> Time to play the dot game! </p>
            <p> For one minute, click the red dots on the following screen as they appear. </p>
            <p><b> Don't look away, as you will earn bonus for clicking dots</b>. </p>","","instructions","","","","","","","","","","","","","",""
"revaluation","254","1203090","0.0-4.0-6.0-0.0","spark_pilot_2","7305","4","11","Female","","","","","","","[84,166,147,101,121,69]","","","rest","","60","","","","","0","60000","","","","","",""
"learning-instructions","255","1210972","0.0-4.0-7.0-0.0","spark_pilot_2","7305","4","11","Female","","","","","","","1473.9000000059605","<p> You have almost finished this part of the game! </p>
            <p> We are going to ask you to make a few more choices. </p>","","instructions","","","","","","","","","","","","","",""
"learning-instructions","256","1227266","0.0-4.0-7.0-0.1","spark_pilot_2","7305","4","11","Female","","","","","","","2327.5999999940395","<p> First, you need to decide whether to go up or down. When you see each picture, use the arrow keys to make your choice. </p>
            <p><b>You will not see which animal you found, but try to get to the one that will give you the most treasure.</b></p>","","instructions","","","","","","","","","","","","","",""
"revaluation","257","1227925","0.0-4.0-8.0-0.0","spark_pilot_2","7305","4","11","Female","","false","","","","","[657.8000000119209]","./assets/img/ocean/test/2.jpg","[""ArrowUp""]","first stage test","ocean","0","{""ArrowUp,ArrowLeft"":2,""ArrowUp,ArrowRight"":11,""ArrowDown,ArrowLeft"":8,""ArrowDown,ArrowRight"":27}","false","ArrowUp","false","","","revaluation","1","","","",""
"html-keyboard-response","258","1228427","0.0-4.0-8.0-1.0","spark_pilot_2","7305","4","11","Female","","","","","","","null","<div style=""font-size:60px;"">+</div>","null","fixation","","","","","","","","","","","","","",""
"revaluation","259","1229270","0.0-4.0-8.0-0.1","spark_pilot_2","7305","4","11","Female","","false","","","","","[839.2999999821186]","./assets/img/ocean/test/0.jpg","[""ArrowUp""]","first stage test","ocean","0","{""ArrowUp,ArrowLeft"":2,""ArrowUp,ArrowRight"":11,""ArrowDown,ArrowLeft"":8,""ArrowDown,ArrowRight"":27}","false","ArrowUp","false","","","revaluation","1","","","",""
"html-keyboard-response","260","1229771","0.0-4.0-8.0-1.1","spark_pilot_2","7305","4","11","Female","","","","","","","null","<div style=""font-size:60px;"">+</div>","null","fixation","","","","","","","","","","","","","",""
"revaluation","261","1230293","0.0-4.0-8.0-0.2","spark_pilot_2","7305","4","11","Female","","false","","","","","[518.5]","./assets/img/ocean/test/1.jpg","[""ArrowUp""]","first stage test","ocean","0","{""ArrowUp,ArrowLeft"":2,""ArrowUp,ArrowRight"":11,""ArrowDown,ArrowLeft"":8,""ArrowDown,ArrowRight"":27}","false","ArrowUp","false","","","revaluation","1","","","",""
"html-keyboard-response","262","1230794","0.0-4.0-8.0-1.2","spark_pilot_2","7305","4","11","Female","","","","","","","null","<div style=""font-size:60px;"">+</div>","null","fixation","","","","","","","","","","","","","",""
"revaluation","263","1231185","0.0-4.0-8.0-0.3","spark_pilot_2","7305","4","11","Female","","false","","","","","[388.2999999821186]","./assets/img/ocean/test/3.jpg","[""ArrowUp""]","first stage test","ocean","0","{""ArrowUp,ArrowLeft"":2,""ArrowUp,ArrowRight"":11,""ArrowDown,ArrowLeft"":8,""ArrowDown,ArrowRight"":27}","false","ArrowUp","false","","","revaluation","1","","","",""
"html-keyboard-response","264","1231687","0.0-4.0-8.0-1.3","spark_pilot_2","7305","4","11","Female","","","","","","","null","<div style=""font-size:60px;"">+</div>","null","fixation","","","","","","","","","","","","","",""
"learning-instructions","265","1245009","0.0-4.0-9.0-0.0","spark_pilot_2","7305","4","11","Female","","","","","","","1981.4000000059605","<p> Now you will see the animals again and can search their chests for treasure. </p>
            <p> This time, you will not see how much treasure you earned, but you will earn more bonus money for making better choices. </p>","","instructions","","","","","","","","","","","","","",""
"revaluation","266","1246829","0.0-4.0-10.0-0.0","spark_pilot_2","7305","4","11","Female","","false","","","","","[1817.9000000059605]","./assets/img/ocean/animals/octopus.jpg","[""ArrowRight""]","second stage test","ocean","0","{""ArrowUp,ArrowLeft"":2,""ArrowUp,ArrowRight"":11,""ArrowDown,ArrowLeft"":8,""ArrowDown,ArrowRight"":27}","true","ArrowUp,ArrowRight","","","","revaluation","1","","","",""
"html-keyboard-response","267","1247330","0.0-4.0-10.0-1.0","spark_pilot_2","7305","4","11","Female","","","","","","","null","<div style=""font-size:60px;"">+</div>","null","fixation","","","","","","","","","","","","","",""
"revaluation","268","1247802","0.0-4.0-10.0-0.1","spark_pilot_2","7305","4","11","Female","","false","","","","","[469.5]","./assets/img/ocean/animals/octopus.jpg","[""ArrowRight""]","second stage test","ocean","0","{""ArrowUp,ArrowLeft"":2,""ArrowUp,ArrowRight"":11,""ArrowDown,ArrowLeft"":8,""ArrowDown,ArrowRight"":27}","true","ArrowUp,ArrowRight","","","","revaluation","1","","","",""
"html-keyboard-response","269","1248304","0.0-4.0-10.0-1.1","spark_pilot_2","7305","4","11","Female","","","","","","","null","<div style=""font-size:60px;"">+</div>","null","fixation","","","","","","","","","","","","","",""
"revaluation","270","1248405","0.0-4.0-10.0-0.2","spark_pilot_2","7305","4","11","Female","","false","","","","","[97.59999999403954]","./assets/img/ocean/animals/octopus.jpg","[""ArrowRight""]","second stage test","ocean","0","{""ArrowUp,ArrowLeft"":2,""ArrowUp,ArrowRight"":11,""ArrowDown,ArrowLeft"":8,""ArrowDown,ArrowRight"":27}","true","ArrowUp,ArrowRight","","","","revaluation","1","","","",""
"html-keyboard-response","271","1248906","0.0-4.0-10.0-1.2","spark_pilot_2","7305","4","11","Female","","","","","","","null","<div style=""font-size:60px;"">+</div>","null","fixation","","","","","","","","","","","","","",""
"revaluation","272","1248917","0.0-4.0-10.0-0.3","spark_pilot_2","7305","4","11","Female","","false","","","","","[8.099999994039536]","./assets/img/ocean/animals/octopus.jpg","[""ArrowRight""]","second stage test","ocean","0","{""ArrowUp,ArrowLeft"":2,""ArrowUp,ArrowRight"":11,""ArrowDown,ArrowLeft"":8,""ArrowDown,ArrowRight"":27}","true","ArrowUp,ArrowRight","","","","revaluation","1","","","",""
"html-keyboard-response","273","1249418","0.0-4.0-10.0-1.3","spark_pilot_2","7305","4","11","Female","","","","","","","null","<div style=""font-size:60px;"">+</div>","null","fixation","","","","","","","","","","","","","",""
"revaluation","274","1249428","0.0-4.0-10.0-0.4","spark_pilot_2","7305","4","11","Female","","false","","","","","[6.5999999940395355]","./assets/img/ocean/animals/seahorse.jpg","[""ArrowRight""]","second stage test","ocean","0","{""ArrowUp,ArrowLeft"":2,""ArrowUp,ArrowRight"":11,""ArrowDown,ArrowLeft"":8,""ArrowDown,ArrowRight"":27}","true","ArrowDown,ArrowRight","","","","revaluation","1","","","",""
"html-keyboard-response","275","1249929","0.0-4.0-10.0-1.4","spark_pilot_2","7305","4","11","Female","","","","","","","null","<div style=""font-size:60px;"">+</div>","null","fixation","","","","","","","","","","","","","",""
"revaluation","276","1250090","0.0-4.0-10.0-0.5","spark_pilot_2","7305","4","11","Female","","false","","","","","[157.89999997615814]","./assets/img/ocean/animals/seahorse.jpg","[""ArrowRight""]","second stage test","ocean","0","{""ArrowUp,ArrowLeft"":2,""ArrowUp,ArrowRight"":11,""ArrowDown,ArrowLeft"":8,""ArrowDown,ArrowRight"":27}","true","ArrowDown,ArrowRight","","","","revaluation","1","","","",""
"html-keyboard-response","277","1250592","0.0-4.0-10.0-1.5","spark_pilot_2","7305","4","11","Female","","","","","","","null","<div style=""font-size:60px;"">+</div>","null","fixation","","","","","","","","","","","","","",""
"revaluation","278","1250692","0.0-4.0-10.0-0.6","spark_pilot_2","7305","4","11","Female","","false","","","","","[97.30000001192093]","./assets/img/ocean/animals/seahorse.jpg","[""ArrowRight""]","second stage test","ocean","0","{""ArrowUp,ArrowLeft"":2,""ArrowUp,ArrowRight"":11,""ArrowDown,ArrowLeft"":8,""ArrowDown,ArrowRight"":27}","true","ArrowDown,ArrowRight","","","","revaluation","1","","","",""
"html-keyboard-response","279","1251195","0.0-4.0-10.0-1.6","spark_pilot_2","7305","4","11","Female","","","","","","","null","<div style=""font-size:60px;"">+</div>","null","fixation","","","","","","","","","","","","","",""
"revaluation","280","1251203","0.0-4.0-10.0-0.7","spark_pilot_2","7305","4","11","Female","","false","","","","","[7.5999999940395355]","./assets/img/ocean/animals/seahorse.jpg","[""ArrowRight""]","second stage test","ocean","0","{""ArrowUp,ArrowLeft"":2,""ArrowUp,ArrowRight"":11,""ArrowDown,ArrowLeft"":8,""ArrowDown,ArrowRight"":27}","true","ArrowDown,ArrowRight","","","","revaluation","1","","","",""
"html-keyboard-response","281","1251704","0.0-4.0-10.0-1.7","spark_pilot_2","7305","4","11","Female","","","","","","","null","<div style=""font-size:60px;"">+</div>","null","fixation","","","","","","","","","","","","","",""
"learning-instructions","282","1256017","0.0-4.0-0.1-0.2","spark_pilot_2","7305","4","11","Female","","","","","","","1549.5","<p> This time you are searching for treasure in the <b>canyon</b>.</p>","","instructions","","","","","","","","","","","","","",""
"learning-instructions","283","1274579","0.0-4.0-0.1-0.3","spark_pilot_2","7305","4","11","Female","","","","","","","1311.2000000178814","<p><b>New</b> animals with <b>new</b> treasure chests live here. You need to explore to discover where the animal with the best treasure chest is.</p>
                    <p> Like before, once you figure out which animal has the chest with the most treasure, you should try to get to that animal and select that chest! </p>","","instructions","","","","","","","","","","","","","",""
"learning-instructions","284","1290043","0.0-4.0-1.1-0.1","spark_pilot_2","7305","4","11","Female","","","","","","","736","<p> Remember, when you see a picture of the place, use the up and down keys to <b>find an animal</b>.</p>
            <p> When you encounter an animal, you should use the left and right keys to <b>select a treasure chest</b>.</p>
            <p> Don't forget to look out for the robber! </p>","","instructions","","","","","","","","","","","","","",""
"revaluation","285","1296047","0.0-4.0-2.1-0.50","spark_pilot_2","7305","4","11","Female","","false","","","","","[1790.7999999821186,904.0999999940395]","./assets/img/canyon/memory/26.jpg","[""ArrowUp"",""ArrowLeft""]","value training","canyon","23","{""ArrowUp,ArrowLeft"":23,""ArrowUp,ArrowRight"":10,""ArrowDown,ArrowLeft"":8,""ArrowDown,ArrowRight"":30}","false","ArrowUp,ArrowLeft","false","","","original","2","0","","",""
"html-keyboard-response","286","1296549","0.0-4.0-2.1-1.50","spark_pilot_2","7305","4","11","Female","","","","","","","null","<div style=""font-size:60px;"">+</div>","null","fixation","","","","","","","","","","","1","","",""
"revaluation","287","1302554","0.0-4.0-2.1-0.51","spark_pilot_2","7305","4","11","Female","","false","","","","","[722.8000000119209,597.6999999880791]","./assets/img/canyon/memory/30.jpg","[""ArrowUp"",""ArrowRight""]","value training","canyon","10","{""ArrowUp,ArrowLeft"":23,""ArrowUp,ArrowRight"":10,""ArrowDown,ArrowLeft"":8,""ArrowDown,ArrowRight"":30}","false","ArrowUp,ArrowRight","false","","","original","2","2","","",""
"html-keyboard-response","288","1303055","0.0-4.0-2.1-1.51","spark_pilot_2","7305","4","11","Female","","","","","","","null","<div style=""font-size:60px;"">+</div>","null","fixation","","","","","","","","","","","3","","",""
"revaluation","289","1309061","0.0-4.0-2.1-0.52","spark_pilot_2","7305","4","11","Female","","false","","","","","[407.80000001192093,486.7000000178814]","./assets/img/canyon/memory/29.jpg","[""ArrowUp"",""ArrowLeft""]","value training","canyon","23","{""ArrowUp,ArrowLeft"":23,""ArrowUp,ArrowRight"":10,""ArrowDown,ArrowLeft"":8,""ArrowDown,ArrowRight"":30}","false","ArrowUp,ArrowLeft","false","","","original","2","4","","",""
"html-keyboard-response","290","1309562","0.0-4.0-2.1-1.52","spark_pilot_2","7305","4","11","Female","","","","","","","null","<div style=""font-size:60px;"">+</div>","null","fixation","","","","","","","","","","","5","","",""
"revaluation","291","1313567","0.0-4.0-2.1-0.53","spark_pilot_2","7305","4","11","Female","","false","","","","","[1229.7999999821186]","./assets/img/canyon/catch/6.jpg","[""spaceBar""]","value training","canyon","0","{""ArrowUp,ArrowLeft"":23,""ArrowUp,ArrowRight"":10,""ArrowDown,ArrowLeft"":8,""ArrowDown,ArrowRight"":30}","true","spaceBar","true","","","original","2","6","","",""
"html-keyboard-response","292","1314069","0.0-4.0-2.1-1.53","spark_pilot_2","7305","4","11","Female","","","","","","","null","<div style=""font-size:60px;"">+</div>","null","fixation","","","","","","","","","","","7","","",""
"revaluation","293","1320074","0.0-4.0-2.1-0.54","spark_pilot_2","7305","4","11","Female","","false","","","","","[796.8999999761581,681.9000000059605]","./assets/img/canyon/memory/23.jpg","[""ArrowUp"",""ArrowLeft""]","value training","canyon","23","{""ArrowUp,ArrowLeft"":23,""ArrowUp,ArrowRight"":10,""ArrowDown,ArrowLeft"":8,""ArrowDown,ArrowRight"":30}","false","ArrowUp,ArrowLeft","false","","","original","2","8","","",""
"html-keyboard-response","294","1320576","0.0-4.0-2.1-1.54","spark_pilot_2","7305","4","11","Female","","","","","","","null","<div style=""font-size:60px;"">+</div>","null","fixation","","","","","","","","","","","9","","",""
"revaluation","295","1326582","0.0-4.0-2.1-0.55","spark_pilot_2","7305","4","11","Female","","false","","","","","[514.7000000178814,616.1999999880791]","./assets/img/canyon/memory/23.jpg","[""ArrowUp"",""ArrowLeft""]","value training","canyon","23","{""ArrowUp,ArrowLeft"":23,""ArrowUp,ArrowRight"":10,""ArrowDown,ArrowLeft"":8,""ArrowDown,ArrowRight"":30}","false","ArrowUp,ArrowLeft","false","","","original","2","10","","",""
"html-keyboard-response","296","1327083","0.0-4.0-2.1-1.55","spark_pilot_2","7305","4","11","Female","","","","","","","null","<div style=""font-size:60px;"">+</div>","null","fixation","","","","","","","","","","","11","","",""
"revaluation","297","1331087","0.0-4.0-2.1-0.56","spark_pilot_2","7305","4","11","Female","","false","","","","","[525.5999999940395]","./assets/img/canyon/catch/7.jpg","[""spaceBar""]","value training","canyon","0","{""ArrowUp,ArrowLeft"":23,""ArrowUp,ArrowRight"":10,""ArrowDown,ArrowLeft"":8,""ArrowDown,ArrowRight"":30}","true","spaceBar","true","","","original","2","12","","",""
"html-keyboard-response","298","1331589","0.0-4.0-2.1-1.56","spark_pilot_2","7305","4","11","Female","","","","","","","null","<div style=""font-size:60px;"">+</div>","null","fixation","","","","","","","","","","","13","","",""
"revaluation","299","1337594","0.0-4.0-2.1-0.57","spark_pilot_2","7305","4","11","Female","","false","","","","","[450.2000000178814,766.5999999940395]","./assets/img/canyon/memory/29.jpg","[""ArrowUp"",""ArrowLeft""]","value training","canyon","23","{""ArrowUp,ArrowLeft"":23,""ArrowUp,ArrowRight"":10,""ArrowDown,ArrowLeft"":8,""ArrowDown,ArrowRight"":30}","false","ArrowUp,ArrowLeft","false","","","original","2","14","","",""
"html-keyboard-response","300","1338095","0.0-4.0-2.1-1.57","spark_pilot_2","7305","4","11","Female","","","","","","","null","<div style=""font-size:60px;"">+</div>","null","fixation","","","","","","","","","","","15","","",""
"revaluation","301","1344101","0.0-4.0-2.1-0.58","spark_pilot_2","7305","4","11","Female","","false","","","","","[867.4000000059605,486.60000002384186]","./assets/img/canyon/memory/0.jpg","[""ArrowUp"",""ArrowLeft""]","value training","canyon","23","{""ArrowUp,ArrowLeft"":23,""ArrowUp,ArrowRight"":10,""ArrowDown,ArrowLeft"":8,""ArrowDown,ArrowRight"":30}","false","ArrowUp,ArrowLeft","false","","","original","2","16","","",""
"html-keyboard-response","302","1344602","0.0-4.0-2.1-1.58","spark_pilot_2","7305","4","11","Female","","","","","","","null","<div style=""font-size:60px;"">+</div>","null","fixation","","","","","","","","","","","17","","",""
"revaluation","303","1350609","0.0-4.0-2.1-0.59","spark_pilot_2","7305","4","11","Female","","false","","","","","[830.5999999940395,344.7000000178814]","./assets/img/canyon/memory/11.jpg","[""ArrowUp"",""ArrowLeft""]","value training","canyon","23","{""ArrowUp,ArrowLeft"":23,""ArrowUp,ArrowRight"":10,""ArrowDown,ArrowLeft"":8,""ArrowDown,ArrowRight"":30}","false","ArrowUp,ArrowLeft","false","","","original","2","18","","",""
"html-keyboard-response","304","1351111","0.0-4.0-2.1-1.59","spark_pilot_2","7305","4","11","Female","","","","","","","null","<div style=""font-size:60px;"">+</div>","null","fixation","","","","","","","","","","","19","","",""
"revaluation","305","1357116","0.0-4.0-2.1-0.60","spark_pilot_2","7305","4","11","Female","","true","","","","","[0.7999999821186066]","./assets/img/canyon/memory/24.jpg","[""ArrowUp""]","value training","canyon","-5","{""ArrowUp,ArrowLeft"":23,""ArrowUp,ArrowRight"":10,""ArrowDown,ArrowLeft"":8,""ArrowDown,ArrowRight"":30}","false","ArrowUp","false","","","original","2","20","","",""
"html-keyboard-response","306","1357618","0.0-4.0-2.1-1.60","spark_pilot_2","7305","4","11","Female","","","","","","","null","<div style=""font-size:60px;"">+</div>","null","fixation","","","","","","","","","","","21","","",""
