"trial_type","trial_index","time_elapsed","internal_node_id","task_version","subject_id","assigned_condition","age","gender","success","timeout","failed_images","failed_audio","failed_video","browser_interaction","rt","stimulus","response","task_part","environment","score","rewardMap","correct","fullState","isCatch","numberMissed","duration","condition","order","trial_num","key_press","ground_truth","bonus"
"pavlovia","0","1186","0.0-0.0","spark_pilot_2","7131","3","9","Male","","","","","","","","","","","","","","","","","","","","","","","",""
"preload","1","27970","0.0-1.0","spark_pilot_2","7131","3","9","Male","true","false","[]","[]","[]","[{""event"":""fullscreenenter"",""trial"":2,""time"":37253}]","","","","","","","","","","","","","","","","","",""
"fullscreen","2","38224","0.0-2.0","spark_pilot_2","7131","3","9","Male","true","","","","","","","","","","","","","","","","","","","","","","",""
"audio-button-response","3","39562","0.0-3.0-0.0-0.0","spark_pilot_2","7131","3","9","Male","","","","","","","1261","./assets/audio/audiotest/turtle.mp3","2","audio_test","","","","","","","","","","","","","",""
"learning-instructions","4","50547","0.0-3.0-1.0-0.0","spark_pilot_2","7131","3","9","Male","","","","","","","3960","<p> Welcome! Please remember to stay in fullscreen mode and don't click away from the experiment. </p>","","instructions","","","","","","","","","","","","","",""
"learning-instructions","5","60604","0.0-3.0-1.0-0.1","spark_pilot_2","7131","3","9","Male","","","","","","","1627.399999999965","<p> Today you will be playing a game to earn treasure. </p>
            <p> At the end of the experiment, you will earn a bonus based on how much treasure you find. </p>
            <img src='./assets/img/instructions/treasure.jpg' class='instructions-image'>","","instructions","","","","","","","","","","","","","",""
"learning-instructions","6","70427","0.0-3.0-1.0-0.2","spark_pilot_2","7131","3","9","Male","","","","","","","1529.7999999999884","<p> Animals have hidden treasure in treasure chests. </p>
            <p> You need to first find an animal and then choose which of their treasure chests to search. </p>
            <img src='./assets/img/space/animals/cat.jpg' class='instructions-image'>","","instructions","","","","","","","","","","","","","",""
"learning-instructions","7","84612","0.0-3.0-1.0-0.3","spark_pilot_2","7131","3","9","Male","","","","","","","984.8999999999651","<p> In each round, you will search for treasure in a different place. In the real game, there will be two rounds. </p>
            <p> You will begin with a separate, practice round where you will search for treasure in outer space. </p>
            <img src='./assets/img/space/0.jpg' class='instructions-image'>","","instructions","","","","","","","","","","","","","",""
"learning-instructions","8","97458","0.0-3.0-1.0-0.4","spark_pilot_2","7131","3","9","Male","","","","","","","1391.5","<p> On every turn, you will see a picture of the place that you are in, but the specific image may be different each time. </p>
            <p> For example, both of these images mean you are in outer space. </p>
            <img src='./assets/img/instructions/outerspace.jpg' class='instructions-image'>","","instructions","","","","","","","","","","","","","",""
"learning-instructions","9","106476","0.0-3.0-1.0-0.5","spark_pilot_2","7131","3","9","Male","","","","","","","1168.7000000000698","<p> You need to decide which direction to travel in. </p>
            <p> You can choose between going <b>up or down</b> by using the arrow keys. </p>
            <img src='./assets/img/instructions/updown.jpg' class='instructions-image'>","","instructions","","","","","","","","","","","","","",""
"learning-instructions","10","116251","0.0-3.0-1.0-0.6","spark_pilot_2","7131","3","9","Male","","","","","","","933.8999999999069","<p> You will have <b>2 seconds</b> to make your choice. </p>
            <p> If you do not make a choice within 2 seconds, you will not find an animal or earn treasure. </p>
            <img src='./assets/img/instructions/2seconds.jpg' class='instructions-image'>","","instructions","","","","","","","","","","","","","",""
"learning-instructions","11","124171","0.0-3.0-1.0-0.7","spark_pilot_2","7131","3","9","Male","","","","","","","863.2999999999302","<p> Let’s try practicing that now! </p>
            <p> When you see a picture of the place you are in, press the <b>up</b> key to travel up. </p>
            <img src='./assets/img/instructions/pressUp.jpg' class='instructions-image'>","","instructions","","","","","","","","","","","","","",""
"revaluation","12","128213","0.0-3.0-2.0-0.0","spark_pilot_2","7131","3","9","Male","","false","","","","","[1036.6999999999534]","./assets/img/space/0.jpg","[""ArrowUp""]","first stage practice","space","0","null","null","ArrowUp","false","","","","","","","",""
"html-keyboard-response","13","128724","0.0-3.0-2.0-1.0","spark_pilot_2","7131","3","9","Male","","","","","","","null","<div style=""font-size:60px;"">+</div>","null","fixation","","","","","","","","","","","","","",""
"revaluation","14","132745","0.0-3.0-2.0-0.1","spark_pilot_2","7131","3","9","Male","","false","","","","","[1608.0999999999767]","./assets/img/space/1.jpg","[""ArrowUp""]","first stage practice","space","0","null","null","ArrowUp","false","","","","","","","",""
"html-keyboard-response","15","133254","0.0-3.0-2.0-1.1","spark_pilot_2","7131","3","9","Male","","","","","","","null","<div style=""font-size:60px;"">+</div>","null","fixation","","","","","","","","","","","","","",""
"revaluation","16","137282","0.0-3.0-2.0-0.2","spark_pilot_2","7131","3","9","Male","","false","","","","","[1869.4000000000233]","./assets/img/space/2.jpg","[""ArrowUp""]","first stage practice","space","0","null","null","ArrowUp","false","","","","","","","",""
"html-keyboard-response","17","137784","0.0-3.0-2.0-1.2","spark_pilot_2","7131","3","9","Male","","","","","","","null","<div style=""font-size:60px;"">+</div>","null","fixation","","","","","","","","","","","","","",""
"learning-instructions","18","143723","0.0-3.0-3.0-0.0","spark_pilot_2","7131","3","9","Male","","","","","","","1207","<p> Great job! Now try pressing the <b>down</b> key to travel down. </p>
            <img src='./assets/img/instructions/pressDown.jpg' class='instructions-image'>","","instructions","","","","","","","","","","","","","",""
"revaluation","19","147735","0.0-3.0-4.0-0.0","spark_pilot_2","7131","3","9","Male","","false","","","","","[481.80000000004657]","./assets/img/space/3.jpg","[""ArrowDown""]","first stage practice","space","0","null","null","ArrowDown","false","","","","","","","",""
"html-keyboard-response","20","148244","0.0-3.0-4.0-1.0","spark_pilot_2","7131","3","9","Male","","","","","","","null","<div style=""font-size:60px;"">+</div>","null","fixation","","","","","","","","","","","","","",""
"revaluation","21","152256","0.0-3.0-4.0-0.1","spark_pilot_2","7131","3","9","Male","","false","","","","","[1210.3999999999069]","./assets/img/space/4.jpg","[""ArrowDown""]","first stage practice","space","0","null","null","ArrowDown","false","","","","","","","",""
"html-keyboard-response","22","152757","0.0-3.0-4.0-1.1","spark_pilot_2","7131","3","9","Male","","","","","","","null","<div style=""font-size:60px;"">+</div>","null","fixation","","","","","","","","","","","","","",""
"revaluation","23","156768","0.0-3.0-4.0-0.2","spark_pilot_2","7131","3","9","Male","","false","","","","","[487.80000000004657]","./assets/img/space/5.jpg","[""ArrowDown""]","first stage practice","space","0","null","null","ArrowDown","false","","","","","","","",""
"html-keyboard-response","24","157269","0.0-3.0-4.0-1.2","spark_pilot_2","7131","3","9","Male","","","","","","","null","<div style=""font-size:60px;"">+</div>","null","fixation","","","","","","","","","","","","","",""
"learning-instructions","25","167868","0.0-3.0-5.0-0.0","spark_pilot_2","7131","3","9","Male","","","","","","","750.8000000000466","<p> The animals don’t move, so the animal in the upper part of a place will stay in the upper part of a place, and the animal in the lower part of a place will stay in the lower part of a place. </p>","","instructions","","","","","","","","","","","","","",""
"learning-instructions","26","177683","0.0-3.0-5.0-0.1","spark_pilot_2","7131","3","9","Male","","","","","","","656.5","<p> Each animal has two treasure chests for you to choose from. </p>
            <p> The amount of treasure in each chest can range from <b> 0 to 40 pieces.</b></p>","","instructions","","","","","","","","","","","","","",""
"learning-instructions","27","189572","0.0-3.0-5.0-0.2","spark_pilot_2","7131","3","9","Male","","","","","","","694.7999999999302","<p> You should decide which chest to search for treasure by using the <b>left</b> and <b>right</b> arrow keys. </p>
            <p><b> Pay attention to which animal is on the screen, as the animals have different treasure chests. </b></p>
            <img src='./assets/img/instructions/leftright.jpg' class='instructions-image'>","","instructions","","","","","","","","","","","","","",""
"learning-instructions","28","196499","0.0-3.0-5.0-0.3","spark_pilot_2","7131","3","9","Male","","","","","","","541.9000000000233","<p> Let’s try practicing that now. </p>
            <p> When you see an animal, choose which chest to search for treasure. </p>
            <img src='./assets/img/instructions/chooseChest.jpg' class='instructions-image'>","","instructions","","","","","","","","","","","","","",""
"revaluation","29","200520","0.0-3.0-6.0-0.0","spark_pilot_2","7131","3","9","Male","","false","","","","","[881.4000000000233]","./assets/img/space/animals/cat.jpg","[""ArrowRight""]","second stage practice","space","36","{""ArrowUp,ArrowLeft"":3,""ArrowUp,ArrowRight"":36,""ArrowDown,ArrowLeft"":15,""ArrowDown,ArrowRight"":23}","true","ArrowUp,ArrowRight","","","","","","","","",""
"html-keyboard-response","30","201027","0.0-3.0-6.0-1.0","spark_pilot_2","7131","3","9","Male","","","","","","","null","<div style=""font-size:60px;"">+</div>","null","fixation","","","","","","","","","","","","","",""
"revaluation","31","205049","0.0-3.0-6.0-0.1","spark_pilot_2","7131","3","9","Male","","false","","","","","[460.5]","./assets/img/space/animals/cat.jpg","[""ArrowLeft""]","second stage practice","space","3","{""ArrowUp,ArrowLeft"":3,""ArrowUp,ArrowRight"":36,""ArrowDown,ArrowLeft"":15,""ArrowDown,ArrowRight"":23}","false","ArrowUp,ArrowLeft","","","","","","","","",""
"html-keyboard-response","32","205560","0.0-3.0-6.0-1.1","spark_pilot_2","7131","3","9","Male","","","","","","","null","<div style=""font-size:60px;"">+</div>","null","fixation","","","","","","","","","","","","","",""
"revaluation","33","209584","0.0-3.0-6.0-0.2","spark_pilot_2","7131","3","9","Male","","false","","","","","[333.79999999993015]","./assets/img/space/animals/rabbit.jpg","[""ArrowRight""]","second stage practice","space","23","{""ArrowUp,ArrowLeft"":3,""ArrowUp,ArrowRight"":36,""ArrowDown,ArrowLeft"":15,""ArrowDown,ArrowRight"":23}","true","ArrowDown,ArrowRight","","","","","","","","",""
"html-keyboard-response","34","210089","0.0-3.0-6.0-1.2","spark_pilot_2","7131","3","9","Male","","","","","","","null","<div style=""font-size:60px;"">+</div>","null","fixation","","","","","","","","","","","","","",""
"revaluation","35","214112","0.0-3.0-6.0-0.3","spark_pilot_2","7131","3","9","Male","","false","","","","","[563.9000000000233]","./assets/img/space/animals/rabbit.jpg","[""ArrowLeft""]","second stage practice","space","15","{""ArrowUp,ArrowLeft"":3,""ArrowUp,ArrowRight"":36,""ArrowDown,ArrowLeft"":15,""ArrowDown,ArrowRight"":23}","false","ArrowDown,ArrowLeft","","","","","","","","",""
"html-keyboard-response","36","214621","0.0-3.0-6.0-1.3","spark_pilot_2","7131","3","9","Male","","","","","","","null","<div style=""font-size:60px;"">+</div>","null","fixation","","","","","","","","","","","","","",""
"learning-instructions","37","232051","0.0-3.0-7.0-0.0","spark_pilot_2","7131","3","9","Male","","","","","","","614.5999999999767","<p> Great job. Now let’s try putting it together. </p>
            <p> On each turn, you will first see a picture to remind you of the place you are in, and you need to choose whether to go up or down. </p>
            <p> Then you will see an animal and choose which of its chests to search for treasure. </p>","","instructions","","","","","","","","","","","","","",""
"learning-instructions","38","241187","0.0-3.0-7.0-0.1","spark_pilot_2","7131","3","9","Male","","","","","","","870.5","<p> When you choose whether to go up or down, try to go to the animal with the chest with the most treasure. </p>
            <p> Try practicing that now! </p>","","instructions","","","","","","","","","","","","","",""
"revaluation","39","247224","0.0-3.0-8.0-0.0","spark_pilot_2","7131","3","9","Male","","false","","","","","[987.5,750.2999999999302]","./assets/img/space/6.jpg","[""ArrowUp"",""ArrowLeft""]","full practice","space","3","{""ArrowUp,ArrowLeft"":3,""ArrowUp,ArrowRight"":36,""ArrowDown,ArrowLeft"":15,""ArrowDown,ArrowRight"":23}","false","ArrowUp,ArrowLeft","false","","","","","","","",""
"html-keyboard-response","40","247741","0.0-3.0-8.0-1.0","spark_pilot_2","7131","3","9","Male","","","","","","","null","<div style=""font-size:60px;"">+</div>","null","fixation","","","","","","","","","","","","","",""
"revaluation","41","253770","0.0-3.0-8.0-0.1","spark_pilot_2","7131","3","9","Male","","false","","","","","[912,561]","./assets/img/space/7.jpg","[""ArrowDown"",""ArrowRight""]","full practice","space","23","{""ArrowUp,ArrowLeft"":3,""ArrowUp,ArrowRight"":36,""ArrowDown,ArrowLeft"":15,""ArrowDown,ArrowRight"":23}","false","ArrowDown,ArrowRight","false","","","","","","","",""
"html-keyboard-response","42","254287","0.0-3.0-8.0-1.1","spark_pilot_2","7131","3","9","Male","","","","","","","null","<div style=""font-size:60px;"">+</div>","null","fixation","","","","","","","","","","","","","",""
"revaluation","43","260300","0.0-3.0-8.0-0.2","spark_pilot_2","7131","3","9","Male","","false","","","","","[821.9000000000233,348]","./assets/img/space/8.jpg","[""ArrowUp"",""ArrowRight""]","full practice","space","36","{""ArrowUp,ArrowLeft"":3,""ArrowUp,ArrowRight"":36,""ArrowDown,ArrowLeft"":15,""ArrowDown,ArrowRight"":23}","true","ArrowUp,ArrowRight","false","","","","","","","",""
"html-keyboard-response","44","260809","0.0-3.0-8.0-1.2","spark_pilot_2","7131","3","9","Male","","","","","","","null","<div style=""font-size:60px;"">+</div>","null","fixation","","","","","","","","","","","","","",""
"revaluation","45","266851","0.0-3.0-8.0-0.3","spark_pilot_2","7131","3","9","Male","","false","","","","","[324.19999999995343,432.0999999999767]","./assets/img/space/9.jpg","[""ArrowUp"",""ArrowRight""]","full practice","space","36","{""ArrowUp,ArrowLeft"":3,""ArrowUp,ArrowRight"":36,""ArrowDown,ArrowLeft"":15,""ArrowDown,ArrowRight"":23}","true","ArrowUp,ArrowRight","false","","","","","","","",""
"html-keyboard-response","46","267357","0.0-3.0-8.0-1.3","spark_pilot_2","7131","3","9","Male","","","","","","","null","<div style=""font-size:60px;"">+</div>","null","fixation","","","","","","","","","","","","","",""
"revaluation","47","273366","0.0-3.0-8.0-0.4","spark_pilot_2","7131","3","9","Male","","false","","","","","[353.0999999999767,358.69999999995343]","./assets/img/space/10.jpg","[""ArrowUp"",""ArrowRight""]","full practice","space","36","{""ArrowUp,ArrowLeft"":3,""ArrowUp,ArrowRight"":36,""ArrowDown,ArrowLeft"":15,""ArrowDown,ArrowRight"":23}","true","ArrowUp,ArrowRight","false","","","","","","","",""
"html-keyboard-response","48","273869","0.0-3.0-8.0-1.4","spark_pilot_2","7131","3","9","Male","","","","","","","null","<div style=""font-size:60px;"">+</div>","null","fixation","","","","","","","","","","","","","",""
"learning-instructions","49","286493","0.0-3.0-9.0-0.0","spark_pilot_2","7131","3","9","Male","","","","","","","2285.4000000000233","<p> One last thing: sometimes, you will see a robber. The robber can be anywhere in the picture. </p>
            <p> If you do not stop them, you will lose treasure. </p>
            <img src='./assets/img/instructions/robber.jpg' class='instructions-image'>","","instructions","","","","","","","","","","","","","",""
"learning-instructions","50","294195","0.0-3.0-9.0-0.1","spark_pilot_2","7131","3","9","Male","","","","","","","508.4000000000233","<p> If you see the robber, you should <b>press the space bar</b> rather than using the arrow keys. </p>
            <p> Try practicing that now! </p>","","instructions","","","","","","","","","","","","","",""
"revaluation","51","298219","0.0-3.0-10.0-0.0","spark_pilot_2","7131","3","9","Male","","false","","","","","[907.0999999999767]","./assets/img/space/catch/0.jpg","[""spaceBar""]","catch practice","space","0","{""ArrowUp,ArrowLeft"":3,""ArrowUp,ArrowRight"":36,""ArrowDown,ArrowLeft"":15,""ArrowDown,ArrowRight"":23}","true","spaceBar","true","","","","","","","",""
"html-keyboard-response","52","298730","0.0-3.0-10.0-1.0","spark_pilot_2","7131","3","9","Male","","","","","","","null","<div style=""font-size:60px;"">+</div>","null","fixation","","","","","","","","","","","","","",""
"revaluation","53","302740","0.0-3.0-10.0-0.1","spark_pilot_2","7131","3","9","Male","","false","","","","","[571.6999999999534]","./assets/img/space/catch/1.jpg","[""spaceBar""]","catch practice","space","0","{""ArrowUp,ArrowLeft"":3,""ArrowUp,ArrowRight"":36,""ArrowDown,ArrowLeft"":15,""ArrowDown,ArrowRight"":23}","true","spaceBar","true","","","","","","","",""
"html-keyboard-response","54","303257","0.0-3.0-10.0-1.1","spark_pilot_2","7131","3","9","Male","","","","","","","null","<div style=""font-size:60px;"">+</div>","null","fixation","","","","","","","","","","","","","",""
"revaluation","55","307283","0.0-3.0-10.0-0.2","spark_pilot_2","7131","3","9","Male","","false","","","","","[643.5999999999767]","./assets/img/space/catch/2.jpg","[""spaceBar""]","catch practice","space","0","{""ArrowUp,ArrowLeft"":3,""ArrowUp,ArrowRight"":36,""ArrowDown,ArrowLeft"":15,""ArrowDown,ArrowRight"":23}","true","spaceBar","true","","","","","","","",""
"html-keyboard-response","56","307791","0.0-3.0-10.0-1.2","spark_pilot_2","7131","3","9","Male","","","","","","","null","<div style=""font-size:60px;"">+</div>","null","fixation","","","","","","","","","","","","","",""
"learning-instructions","57","322403","0.0-3.0-11.0-0.0","spark_pilot_2","7131","3","9","Male","","","","","","","856.5","<p> After you explore a place to find treasure, it will be time to play a different game. </p>
            <p> During this game, red dots will appear on the screen and fall down slowly. </p>
            <p><b> You must click on them before they reach the bottom. </b></p>
            <img src='./assets/img/instructions/dotGame.jpg' class='instructions-image'>","","instructions","","","","","","","","","","","","","",""
"learning-instructions","58","328859","0.0-3.0-11.0-0.1","spark_pilot_2","7131","3","9","Male","","","","","","","762.5999999999767","<p> For every dot you click, you will earn additional treasure. </p>
            <p> Let’s try practicing that now. </p>","","instructions","","","","","","","","","","","","","",""
"revaluation","59","343878","0.0-3.0-12.0-0.0","spark_pilot_2","7131","3","9","Male","","","","","","","[79]","","","rest practice","","10","","","","","0","15000","","","","","",""
"learning-instructions","60","349643","0.0-3.0-13.0-0.0-0.0","spark_pilot_2","7131","3","9","Male","","","","","","","506.5","<p> Now, you will practice a shortened version of the game to get a sense of how it all fits together. </p>","","instructions","","","","","","","","","","","","","",""
"learning-instructions","61","353642","0.0-3.0-13.0-0.0-0.1","spark_pilot_2","7131","3","9","Male","","","","","","","816.5","<p>This time you are searching for treasure in outer space.</p>","","instructions","","","","","","","","","","","","","",""
"learning-instructions","62","368867","0.0-3.0-13.0-1.0-0.0","spark_pilot_2","7131","3","9","Male","","","","","","","450.19999999995343","<p> Remember, when you see a picture of the place, use the up and down keys to <b>find an animal</b>.</p>
            <p> When you encounter an animal, you should use the left and right keys to <b>select a treasure chest</b>.</p>
            <p> Don't forget to look out for the robber! </p>","","instructions","","","","","","","","","","","","","",""
"revaluation","63","372887","0.0-3.0-13.0-2.0-0.0","spark_pilot_2","7131","3","9","Male","","true","","","","","[]","./assets/img/space/11.jpg","[]","practice block","space","-5","{""ArrowUp,ArrowLeft"":3,""ArrowUp,ArrowRight"":36,""ArrowDown,ArrowLeft"":15,""ArrowDown,ArrowRight"":23}","false","","false","","","","","","","",""
"html-keyboard-response","64","373391","0.0-3.0-13.0-2.0-1.0","spark_pilot_2","7131","3","9","Male","","","","","","","null","<div style=""font-size:60px;"">+</div>","null","fixation","","","","","","","","","","","","","",""
"revaluation","65","379423","0.0-3.0-13.0-2.0-0.1","spark_pilot_2","7131","3","9","Male","","false","","","","","[958.1999999999534,760.5999999999767]","./assets/img/space/12.jpg","[""ArrowUp"",""ArrowRight""]","practice block","space","36","{""ArrowUp,ArrowLeft"":3,""ArrowUp,ArrowRight"":36,""ArrowDown,ArrowLeft"":15,""ArrowDown,ArrowRight"":23}","true","ArrowUp,ArrowRight","false","","","","","","","",""
"html-keyboard-response","66","379938","0.0-3.0-13.0-2.0-1.1","spark_pilot_2","7131","3","9","Male","","","","","","","null","<div style=""font-size:60px;"">+</div>","null","fixation","","","","","","","","","","","","","",""
"revaluation","67","385966","0.0-3.0-13.0-2.0-0.2","spark_pilot_2","7131","3","9","Male","","false","","","","","[803.5,318.30000000004657]","./assets/img/space/13.jpg","[""ArrowUp"",""ArrowRight""]","practice block","space","36","{""ArrowUp,ArrowLeft"":3,""ArrowUp,ArrowRight"":36,""ArrowDown,ArrowLeft"":15,""ArrowDown,ArrowRight"":23}","true","ArrowUp,ArrowRight","false","","","","","","","",""
"html-keyboard-response","68","386473","0.0-3.0-13.0-2.0-1.2","spark_pilot_2","7131","3","9","Male","","","","","","","null","<div style=""font-size:60px;"">+</div>","null","fixation","","","","","","","","","","","","","",""
"revaluation","69","392523","0.0-3.0-13.0-2.0-0.3","spark_pilot_2","7131","3","9","Male","","false","","","","","[860.3999999999069,359.4000000000233]","./assets/img/space/14.jpg","[""ArrowUp"",""ArrowRight""]","practice block","space","36","{""ArrowUp,ArrowLeft"":3,""ArrowUp,ArrowRight"":36,""ArrowDown,ArrowLeft"":15,""ArrowDown,ArrowRight"":23}","true","ArrowUp,ArrowRight","false","","","","","","","",""
"html-keyboard-response","70","393040","0.0-3.0-13.0-2.0-1.3","spark_pilot_2","7131","3","9","Male","","","","","","","null","<div style=""font-size:60px;"">+</div>","null","fixation","","","","","","","","","","","","","",""
"revaluation","71","399077","0.0-3.0-13.0-2.0-0.4","spark_pilot_2","7131","3","9","Male","","false","","","","","[925.5999999999767,380.4000000000233]","./assets/img/space/11.jpg","[""ArrowUp"",""ArrowRight""]","practice block","space","36","{""ArrowUp,ArrowLeft"":3,""ArrowUp,ArrowRight"":36,""ArrowDown,ArrowLeft"":15,""ArrowDown,ArrowRight"":23}","true","ArrowUp,ArrowRight","false","","","","","","","",""
"html-keyboard-response","72","399579","0.0-3.0-13.0-2.0-1.4","spark_pilot_2","7131","3","9","Male","","","","","","","null","<div style=""font-size:60px;"">+</div>","null","fixation","","","","","","","","","","","","","",""
"revaluation","73","405588","0.0-3.0-13.0-2.0-0.5","spark_pilot_2","7131","3","9","Male","","false","","","","","[858.1000000000931,456.89999999990687]","./assets/img/space/12.jpg","[""ArrowUp"",""ArrowRight""]","practice block","space","36","{""ArrowUp,ArrowLeft"":3,""ArrowUp,ArrowRight"":36,""ArrowDown,ArrowLeft"":15,""ArrowDown,ArrowRight"":23}","true","ArrowUp,ArrowRight","false","","","","","","","",""
"html-keyboard-response","74","406104","0.0-3.0-13.0-2.0-1.5","spark_pilot_2","7131","3","9","Male","","","","","","","null","<div style=""font-size:60px;"">+</div>","null","fixation","","","","","","","","","","","","","",""
"revaluation","75","412116","0.0-3.0-13.0-2.0-0.6","spark_pilot_2","7131","3","9","Male","","false","","","","","[797.5,480.0999999999767]","./assets/img/space/13.jpg","[""ArrowUp"",""ArrowRight""]","practice block","space","36","{""ArrowUp,ArrowLeft"":3,""ArrowUp,ArrowRight"":36,""ArrowDown,ArrowLeft"":15,""ArrowDown,ArrowRight"":23}","true","ArrowUp,ArrowRight","false","","","","","","","",""
"html-keyboard-response","76","412619","0.0-3.0-13.0-2.0-1.6","spark_pilot_2","7131","3","9","Male","","","","","","","null","<div style=""font-size:60px;"">+</div>","null","fixation","","","","","","","","","","","","","",""
"revaluation","77","418626","0.0-3.0-13.0-2.0-0.7","spark_pilot_2","7131","3","9","Male","","false","","","","","[795.1000000000931,465.79999999993015]","./assets/img/space/14.jpg","[""ArrowUp"",""ArrowRight""]","practice block","space","36","{""ArrowUp,ArrowLeft"":3,""ArrowUp,ArrowRight"":36,""ArrowDown,ArrowLeft"":15,""ArrowDown,ArrowRight"":23}","true","ArrowUp,ArrowRight","false","","","","","","","",""
"html-keyboard-response","78","419129","0.0-3.0-13.0-2.0-1.7","spark_pilot_2","7131","3","9","Male","","","","","","","null","<div style=""font-size:60px;"">+</div>","null","fixation","","","","","","","","","","","","","",""
"revaluation","79","423136","0.0-3.0-13.0-2.0-0.8","spark_pilot_2","7131","3","9","Male","","false","","","","","[771.6999999999534]","./assets/img/space/catch/3.jpg","[""spaceBar""]","practice block","space","0","{""ArrowUp,ArrowLeft"":3,""ArrowUp,ArrowRight"":36,""ArrowDown,ArrowLeft"":15,""ArrowDown,ArrowRight"":23}","true","spaceBar","true","","","","","","","",""
"html-keyboard-response","80","423638","0.0-3.0-13.0-2.0-1.8","spark_pilot_2","7131","3","9","Male","","","","","","","null","<div style=""font-size:60px;"">+</div>","null","fixation","","","","","","","","","","","","","",""
"learning-instructions","81","437642","0.0-3.0-13.0-3.0-0.0","spark_pilot_2","7131","3","9","Male","","","","","","","1067.5999999999767","<p> Now, you will travel with a friend who will choose whether you go up or down first. </p>
            <p> On these turns, you will just see the animal that they found. You will still get to choose which chest to search for treasure.</p>","","instructions","","","","","","","","","","","","","",""
"revaluation","82","441662","0.0-3.0-13.0-4.0-0.0","spark_pilot_2","7131","3","9","Male","","false","","","","","[1386.5999999999767]","./assets/img/space/animals/rabbit.jpg","[""ArrowRight""]","practice block","space","23","{""ArrowUp,ArrowLeft"":3,""ArrowUp,ArrowRight"":36,""ArrowDown,ArrowLeft"":15,""ArrowDown,ArrowRight"":23}","true","ArrowDown,ArrowRight","","","","","","","","",""
"html-keyboard-response","83","442167","0.0-3.0-13.0-4.0-1.0","spark_pilot_2","7131","3","9","Male","","","","","","","null","<div style=""font-size:60px;"">+</div>","null","fixation","","","","","","","","","","","","","",""
"revaluation","84","446181","0.0-3.0-13.0-4.0-0.1","spark_pilot_2","7131","3","9","Male","","false","","","","","[519]","./assets/img/space/animals/cat.jpg","[""ArrowRight""]","practice block","space","36","{""ArrowUp,ArrowLeft"":3,""ArrowUp,ArrowRight"":36,""ArrowDown,ArrowLeft"":15,""ArrowDown,ArrowRight"":23}","true","ArrowUp,ArrowRight","","","","","","","","",""
"html-keyboard-response","85","446691","0.0-3.0-13.0-4.0-1.1","spark_pilot_2","7131","3","9","Male","","","","","","","null","<div style=""font-size:60px;"">+</div>","null","fixation","","","","","","","","","","","","","",""
"revaluation","86","450721","0.0-3.0-13.0-4.0-0.2","spark_pilot_2","7131","3","9","Male","","false","","","","","[544.9000000000233]","./assets/img/space/animals/rabbit.jpg","[""ArrowRight""]","practice block","space","23","{""ArrowUp,ArrowLeft"":3,""ArrowUp,ArrowRight"":36,""ArrowDown,ArrowLeft"":15,""ArrowDown,ArrowRight"":23}","true","ArrowDown,ArrowRight","","","","","","","","",""
"html-keyboard-response","87","451224","0.0-3.0-13.0-4.0-1.2","spark_pilot_2","7131","3","9","Male","","","","","","","null","<div style=""font-size:60px;"">+</div>","null","fixation","","","","","","","","","","","","","",""
"revaluation","88","455244","0.0-3.0-13.0-4.0-0.3","spark_pilot_2","7131","3","9","Male","","false","","","","","[453.4000000000233]","./assets/img/space/animals/cat.jpg","[""ArrowRight""]","practice block","space","36","{""ArrowUp,ArrowLeft"":3,""ArrowUp,ArrowRight"":36,""ArrowDown,ArrowLeft"":15,""ArrowDown,ArrowRight"":23}","true","ArrowUp,ArrowRight","","","","","","","","",""
"html-keyboard-response","89","455756","0.0-3.0-13.0-4.0-1.3","spark_pilot_2","7131","3","9","Male","","","","","","","null","<div style=""font-size:60px;"">+</div>","null","fixation","","","","","","","","","","","","","",""
"learning-instructions","90","464666","0.0-3.0-13.0-5.0-0.0","spark_pilot_2","7131","3","9","Male","","","","","","","1511.1999999999534","<p> Time to play the dot game! </p>
            <p> For 15 seconds, click the red dots on the following screen as they appear. </p>","","instructions","","","","","","","","","","","","","",""
"revaluation","91","479670","0.0-3.0-13.0-6.0-0.0","spark_pilot_2","7131","3","9","Male","","","","","","","[92]","","","rest practice","","10","","","","","0","15000","","","","","",""
"learning-instructions","92","487152","0.0-3.0-13.0-7.0-0.0","spark_pilot_2","7131","3","9","Male","","","","","","","1318.5999999999767","<p> You have almost finished this part of the game! </p>
            <p> We are going to ask you to make a few more choices. </p>","","instructions","","","","","","","","","","","","","",""
"learning-instructions","93","502675","0.0-3.0-13.0-7.0-0.1","spark_pilot_2","7131","3","9","Male","","","","","","","1519.7000000000698","<p> First, you need to decide whether to go up or down. When you see each picture, use the arrow keys to make your choice. </p>
            <p><b>You will not see which animal you found, but try to get to the one that will give you the most treasure.</b></p>","","instructions","","","","","","","","","","","","","",""
"revaluation","94","503922","0.0-3.0-13.0-8.0","spark_pilot_2","7131","3","9","Male","","false","","","","","[1242.3000000000466]","./assets/img/space/15.jpg","[""ArrowUp""]","practice block","space","0","{""ArrowUp,ArrowLeft"":3,""ArrowUp,ArrowRight"":36,""ArrowDown,ArrowLeft"":15,""ArrowDown,ArrowRight"":23}","true","ArrowUp","false","","","","","","","",""
"html-keyboard-response","95","504440","0.0-3.0-13.0-9.0","spark_pilot_2","7131","3","9","Male","","","","","","","null","<div style=""font-size:60px;"">+</div>","null","fixation","","","","","","","","","","","","","",""
"learning-instructions","96","516723","0.0-3.0-13.0-10.0-0.0","spark_pilot_2","7131","3","9","Male","","","","","","","897.5999999999767","<p> Now you will see the animals again and can search their chests for treasure. </p>
            <p> This time, you will not see how much treasure you earned, but you will earn more bonus money for making better choices. </p>","","instructions","","","","","","","","","","","","","",""
"revaluation","97","517282","0.0-3.0-13.0-11.0-0.0","spark_pilot_2","7131","3","9","Male","","false","","","","","[554.3000000000466]","./assets/img/space/animals/cat.jpg","[""ArrowRight""]","practice block","space","0","{""ArrowUp,ArrowLeft"":3,""ArrowUp,ArrowRight"":36,""ArrowDown,ArrowLeft"":15,""ArrowDown,ArrowRight"":23}","true","ArrowUp,ArrowRight","","","","","","","","",""
"html-keyboard-response","98","517789","0.0-3.0-13.0-11.0-1.0","spark_pilot_2","7131","3","9","Male","","","","","","","null","<div style=""font-size:60px;"">+</div>","null","fixation","","","","","","","","","","","","","",""
"revaluation","99","518986","0.0-3.0-13.0-11.0-0.1","spark_pilot_2","7131","3","9","Male","","false","","","","","[1192.4000000000233]","./assets/img/space/animals/rabbit.jpg","[""ArrowRight""]","practice block","space","0","{""ArrowUp,ArrowLeft"":3,""ArrowUp,ArrowRight"":36,""ArrowDown,ArrowLeft"":15,""ArrowDown,ArrowRight"":23}","true","ArrowDown,ArrowRight","","","","","","","","",""
"html-keyboard-response","100","519496","0.0-3.0-13.0-11.0-1.1","spark_pilot_2","7131","3","9","Male","","","","","","","null","<div style=""font-size:60px;"">+</div>","null","fixation","","","","","","","","","","","","","",""
"learning-instructions","101","524923","0.0-3.0-14.0-0.0","spark_pilot_2","7131","3","9","Male","","","","","","","847.0999999999767","<p> Before you start, we're going to ask you a few questions about how the game works. </p>","","instructions","","","","","","","","","","","","","",""
"comp-q","102","531364","0.0-3.0-15.0-0.0-0.0","spark_pilot_2","7131","3","9","Male","","","","","","","834.9000000000233","<p> <b> True or False? </b> </p>
            <p> There can be 50 pieces of treasure in a given animal's chest. </p>","1","comp_question","","","","true","","","","","","","","","",""
"comp-q","103","539683","0.0-3.0-15.0-0.0-1.0","spark_pilot_2","7131","3","9","Male","","","","","","","1647.6999999999534","<p> <b> That's right! </b> The amount of treasure in each chest can range from 0 to 40 pieces. </p>","0","comp_answer","","","","","","","","","","","","","",""
"comp-q","104","547612","0.0-3.0-15.0-0.1-0.1","spark_pilot_2","7131","3","9","Male","","","","","","","785.2999999999302","<p> <b> True or False? </b> </p><p> In this game, all animals have the same amount of treasure in their left and right chests. </p>","1","comp_question","","","","true","","","","","","","","","",""
"comp-q","105","554220","0.0-3.0-15.0-0.1-1.1","spark_pilot_2","7131","3","9","Male","","","","","","","1353.7000000000698","<p> <b> That's right! </b> Animals have different amounts of treasure in their treasure chests. </p>","0","comp_answer","","","","","","","","","","","","","",""
"comp-q","106","560947","0.0-3.0-15.0-0.2-0.2","spark_pilot_2","7131","3","9","Male","","","","","","","851","<p> <b> True or False? </b> </p><p> The same animal will always be there if you go up in the same place. </p>","0","comp_question","","","","true","","","","","","","","","",""
"comp-q","107","568683","0.0-3.0-15.0-0.2-1.2","spark_pilot_2","7131","3","9","Male","","","","","","","1257.4000000000233","<p> <b> That's right! </b> One animal lives in the upper part and one lives in the lower part of every place. </p>","0","comp_answer","","","","","","","","","","","","","",""
"comp-q","108","575115","0.0-3.0-15.0-0.3-0.3","spark_pilot_2","7131","3","9","Male","","","","","","","879.9000000000233","<p> <b> True or False? </b> </p><p> If you see a different picture, it means you are in a new place. </p>","0","comp_question","","","","false","","","","","","","","","",""
"comp-q","109","587387","0.0-3.0-15.0-0.3-1.3","spark_pilot_2","7131","3","9","Male","","","","","","","1151.2999999999302","<p> <b>Incorrect.</b> Lots of different images may show the same place. For example,  you may see three different images that all remind you that you are in outer space. </p>","0","comp_answer","","","","","","","","","","","","","",""
"comp-q","110","593395","0.0-3.0-15.0-0.4-0.4","spark_pilot_2","7131","3","9","Male","","","","","","","499.80000000004657","<p> <b> True or False? </b> </p><p> If you see a different picture, it means you are in a new place. </p>","1","comp_question","","","","true","","","","","","","","","",""
"comp-q","111","606867","0.0-3.0-15.0-0.4-1.4","spark_pilot_2","7131","3","9","Male","","","","","","","2211.6999999999534","<p> <b> That's right! </b> Lots of different images may show the same place. For example,  you may see three different images that all remind you that you are in outer space. </p>","0","comp_answer","","","","","","","","","","","","","",""
"learning-instructions","112","617771","0.0-3.0-16.0-0.0","spark_pilot_2","7131","3","9","Male","","","","","","","995.7999999998137","<p> Good job. Remember to do your best because the amount of treasure you earn will be converted into bonus money. </p>
            <p> It’s time to start the real game! </p>","","instructions","","","","","","","","","","","","","",""
"learning-instructions","113","621355","0.0-4.0-0.0-0.0","spark_pilot_2","7131","3","9","Male","","","","","","","719.1999999999534","<p> This time you are searching for treasure in the <b>ocean</b>.</p>","","instructions","","","","","","","","","","","","","",""
"learning-instructions","114","640123","0.0-4.0-0.0-0.1","spark_pilot_2","7131","3","9","Male","","","","","","","1427.4000000001397","<p><b>New</b> animals with <b>new</b> treasure chests live here. You need to explore to discover where the animal with the best treasure chest is.</p>
                    <p> Like before, once you figure out which animal has the chest with the most treasure, you should try to get to that animal and select that chest! </p>","","instructions","","","","","","","","","","","","","",""
"learning-instructions","115","655683","0.0-4.0-1.0-0.0","spark_pilot_2","7131","3","9","Male","","","","","","","827.6000000000931","<p> Remember, when you see a picture of the place, use the up and down keys to <b>find an animal</b>.</p>
            <p> When you encounter an animal, you should use the left and right keys to <b>select a treasure chest</b>.</p>
            <p> Don't forget to look out for the robber! </p>","","instructions","","","","","","","","","","","","","",""
"revaluation","116","661720","0.0-4.0-2.0-0.0","spark_pilot_2","7131","3","9","Male","","false","","","","","[722.3000000000466,556.3000000000466]","./assets/img/ocean/memory/41.jpg","[""ArrowUp"",""ArrowRight""]","value training","ocean","10","{""ArrowUp,ArrowLeft"":23,""ArrowUp,ArrowRight"":10,""ArrowDown,ArrowLeft"":8,""ArrowDown,ArrowRight"":30}","false","ArrowUp,ArrowRight","false","","","original","1","0","","",""
"html-keyboard-response","117","662237","0.0-4.0-2.0-1.0","spark_pilot_2","7131","3","9","Male","","","","","","","null","<div style=""font-size:60px;"">+</div>","null","fixation","","","","","","","","","","","1","","",""
"revaluation","118","668267","0.0-4.0-2.0-0.1","spark_pilot_2","7131","3","9","Male","","false","","","","","[863.8999999999069,619.9000000001397]","./assets/img/ocean/memory/38.jpg","[""ArrowUp"",""ArrowLeft""]","value training","ocean","23","{""ArrowUp,ArrowLeft"":23,""ArrowUp,ArrowRight"":10,""ArrowDown,ArrowLeft"":8,""ArrowDown,ArrowRight"":30}","false","ArrowUp,ArrowLeft","false","","","original","1","2","","",""
"html-keyboard-response","119","668770","0.0-4.0-2.0-1.1","spark_pilot_2","7131","3","9","Male","","","","","","","null","<div style=""font-size:60px;"">+</div>","null","fixation","","","","","","","","","","","3","","",""
"revaluation","120","674797","0.0-4.0-2.0-0.2","spark_pilot_2","7131","3","9","Male","","false","","","","","[482.39999999990687,419.60000000009313]","./assets/img/ocean/memory/21.jpg","[""ArrowDown"",""ArrowRight""]","value training","ocean","30","{""ArrowUp,ArrowLeft"":23,""ArrowUp,ArrowRight"":10,""ArrowDown,ArrowLeft"":8,""ArrowDown,ArrowRight"":30}","true","ArrowDown,ArrowRight","false","","","original","1","4","","",""
"html-keyboard-response","121","675306","0.0-4.0-2.0-1.2","spark_pilot_2","7131","3","9","Male","","","","","","","null","<div style=""font-size:60px;"">+</div>","null","fixation","","","","","","","","","","","5","","",""
"revaluation","122","679329","0.0-4.0-2.0-0.3","spark_pilot_2","7131","3","9","Male","","false","","","","","[987.1000000000931]","./assets/img/ocean/catch/1.jpg","[""spaceBar""]","value training","ocean","0","{""ArrowUp,ArrowLeft"":23,""ArrowUp,ArrowRight"":10,""ArrowDown,ArrowLeft"":8,""ArrowDown,ArrowRight"":30}","true","spaceBar","true","","","original","1","6","","",""
"html-keyboard-response","123","679836","0.0-4.0-2.0-1.3","spark_pilot_2","7131","3","9","Male","","","","","","","null","<div style=""font-size:60px;"">+</div>","null","fixation","","","","","","","","","","","7","","",""
"revaluation","124","685852","0.0-4.0-2.0-0.4","spark_pilot_2","7131","3","9","Male","","false","","","","","[569.8000000000466,508.19999999995343]","./assets/img/ocean/memory/27.jpg","[""ArrowDown"",""ArrowLeft""]","value training","ocean","8","{""ArrowUp,ArrowLeft"":23,""ArrowUp,ArrowRight"":10,""ArrowDown,ArrowLeft"":8,""ArrowDown,ArrowRight"":30}","false","ArrowDown,ArrowLeft","false","","","original","1","8","","",""
"html-keyboard-response","125","686354","0.0-4.0-2.0-1.4","spark_pilot_2","7131","3","9","Male","","","","","","","null","<div style=""font-size:60px;"">+</div>","null","fixation","","","","","","","","","","","9","","",""
"revaluation","126","692392","0.0-4.0-2.0-0.5","spark_pilot_2","7131","3","9","Male","","false","","","","","[842.3999999999069,698.3999999999069]","./assets/img/ocean/memory/9.jpg","[""ArrowDown"",""ArrowRight""]","value training","ocean","30","{""ArrowUp,ArrowLeft"":23,""ArrowUp,ArrowRight"":10,""ArrowDown,ArrowLeft"":8,""ArrowDown,ArrowRight"":30}","true","ArrowDown,ArrowRight","false","","","original","1","10","","",""
"html-keyboard-response","127","692894","0.0-4.0-2.0-1.5","spark_pilot_2","7131","3","9","Male","","","","","","","null","<div style=""font-size:60px;"">+</div>","null","fixation","","","","","","","","","","","11","","",""
"revaluation","128","698902","0.0-4.0-2.0-0.6","spark_pilot_2","7131","3","9","Male","","false","","","","","[767.5,574]","./assets/img/ocean/memory/10.jpg","[""ArrowDown"",""ArrowRight""]","value training","ocean","30","{""ArrowUp,ArrowLeft"":23,""ArrowUp,ArrowRight"":10,""ArrowDown,ArrowLeft"":8,""ArrowDown,ArrowRight"":30}","true","ArrowDown,ArrowRight","false","","","original","1","12","","",""
"html-keyboard-response","129","699404","0.0-4.0-2.0-1.6","spark_pilot_2","7131","3","9","Male","","","","","","","null","<div style=""font-size:60px;"">+</div>","null","fixation","","","","","","","","","","","13","","",""
"revaluation","130","703418","0.0-4.0-2.0-0.7","spark_pilot_2","7131","3","9","Male","","false","","","","","[769]","./assets/img/ocean/catch/5.jpg","[""spaceBar""]","value training","ocean","0","{""ArrowUp,ArrowLeft"":23,""ArrowUp,ArrowRight"":10,""ArrowDown,ArrowLeft"":8,""ArrowDown,ArrowRight"":30}","true","spaceBar","true","","","original","1","14","","",""
"html-keyboard-response","131","703919","0.0-4.0-2.0-1.7","spark_pilot_2","7131","3","9","Male","","","","","","","null","<div style=""font-size:60px;"">+</div>","null","fixation","","","","","","","","","","","15","","",""
"revaluation","132","709928","0.0-4.0-2.0-0.8","spark_pilot_2","7131","3","9","Male","","false","","","","","[1430,516.6999999999534]","./assets/img/ocean/memory/13.jpg","[""ArrowDown"",""ArrowRight""]","value training","ocean","30","{""ArrowUp,ArrowLeft"":23,""ArrowUp,ArrowRight"":10,""ArrowDown,ArrowLeft"":8,""ArrowDown,ArrowRight"":30}","true","ArrowDown,ArrowRight","false","","","original","1","16","","",""
"html-keyboard-response","133","710430","0.0-4.0-2.0-1.8","spark_pilot_2","7131","3","9","Male","","","","","","","null","<div style=""font-size:60px;"">+</div>","null","fixation","","","","","","","","","","","17","","",""
"revaluation","134","716444","0.0-4.0-2.0-0.9","spark_pilot_2","7131","3","9","Male","","false","","","","","[855.0999999998603,320.60000000009313]","./assets/img/ocean/memory/36.jpg","[""ArrowDown"",""ArrowRight""]","value training","ocean","30","{""ArrowUp,ArrowLeft"":23,""ArrowUp,ArrowRight"":10,""ArrowDown,ArrowLeft"":8,""ArrowDown,ArrowRight"":30}","true","ArrowDown,ArrowRight","false","","","original","1","18","","",""
"html-keyboard-response","135","716946","0.0-4.0-2.0-1.9","spark_pilot_2","7131","3","9","Male","","","","","","","null","<div style=""font-size:60px;"">+</div>","null","fixation","","","","","","","","","","","19","","",""
"revaluation","136","722956","0.0-4.0-2.0-0.10","spark_pilot_2","7131","3","9","Male","","false","","","","","[644.0999999998603,503.10000000009313]","./assets/img/ocean/memory/21.jpg","[""ArrowDown"",""ArrowRight""]","value training","ocean","30","{""ArrowUp,ArrowLeft"":23,""ArrowUp,ArrowRight"":10,""ArrowDown,ArrowLeft"":8,""ArrowDown,ArrowRight"":30}","true","ArrowDown,ArrowRight","false","","","original","1","20","","",""
"html-keyboard-response","137","723458","0.0-4.0-2.0-1.10","spark_pilot_2","7131","3","9","Male","","","","","","","null","<div style=""font-size:60px;"">+</div>","null","fixation","","","","","","","","","","","21","","",""
"revaluation","138","729466","0.0-4.0-2.0-0.11","spark_pilot_2","7131","3","9","Male","","false","","","","","[674.9000000001397,425.5999999998603]","./assets/img/ocean/memory/13.jpg","[""ArrowDown"",""ArrowRight""]","value training","ocean","30","{""ArrowUp,ArrowLeft"":23,""ArrowUp,ArrowRight"":10,""ArrowDown,ArrowLeft"":8,""ArrowDown,ArrowRight"":30}","true","ArrowDown,ArrowRight","false","","","original","1","22","","",""
"html-keyboard-response","139","729968","0.0-4.0-2.0-1.11","spark_pilot_2","7131","3","9","Male","","","","","","","null","<div style=""font-size:60px;"">+</div>","null","fixation","","","","","","","","","","","23","","",""
"revaluation","140","735981","0.0-4.0-2.0-0.12","spark_pilot_2","7131","3","9","Male","","false","","","","","[766,380.60000000009313]","./assets/img/ocean/memory/9.jpg","[""ArrowDown"",""ArrowRight""]","value training","ocean","30","{""ArrowUp,ArrowLeft"":23,""ArrowUp,ArrowRight"":10,""ArrowDown,ArrowLeft"":8,""ArrowDown,ArrowRight"":30}","true","ArrowDown,ArrowRight","false","","","original","1","24","","",""
"html-keyboard-response","141","736483","0.0-4.0-2.0-1.12","spark_pilot_2","7131","3","9","Male","","","","","","","null","<div style=""font-size:60px;"">+</div>","null","fixation","","","","","","","","","","","25","","",""
"revaluation","142","742491","0.0-4.0-2.0-0.13","spark_pilot_2","7131","3","9","Male","","false","","","","","[913.9000000001397,481]","./assets/img/ocean/memory/14.jpg","[""ArrowDown"",""ArrowRight""]","value training","ocean","30","{""ArrowUp,ArrowLeft"":23,""ArrowUp,ArrowRight"":10,""ArrowDown,ArrowLeft"":8,""ArrowDown,ArrowRight"":30}","true","ArrowDown,ArrowRight","false","","","original","1","26","","",""
"html-keyboard-response","143","742994","0.0-4.0-2.0-1.13","spark_pilot_2","7131","3","9","Male","","","","","","","null","<div style=""font-size:60px;"">+</div>","null","fixation","","","","","","","","","","","27","","",""
"revaluation","144","749014","0.0-4.0-2.0-0.14","spark_pilot_2","7131","3","9","Male","","false","","","","","[1092.4000000001397,331.0999999998603]","./assets/img/ocean/memory/31.jpg","[""ArrowDown"",""ArrowRight""]","value training","ocean","30","{""ArrowUp,ArrowLeft"":23,""ArrowUp,ArrowRight"":10,""ArrowDown,ArrowLeft"":8,""ArrowDown,ArrowRight"":30}","true","ArrowDown,ArrowRight","false","","","original","1","28","","",""
"html-keyboard-response","145","749518","0.0-4.0-2.0-1.14","spark_pilot_2","7131","3","9","Male","","","","","","","null","<div style=""font-size:60px;"">+</div>","null","fixation","","","","","","","","","","","29","","",""
"revaluation","146","755525","0.0-4.0-2.0-0.15","spark_pilot_2","7131","3","9","Male","","false","","","","","[896,894.2999999998137]","./assets/img/ocean/memory/2.jpg","[""ArrowDown"",""ArrowRight""]","value training","ocean","30","{""ArrowUp,ArrowLeft"":23,""ArrowUp,ArrowRight"":10,""ArrowDown,ArrowLeft"":8,""ArrowDown,ArrowRight"":30}","true","ArrowDown,ArrowRight","false","","","original","1","30","","",""
"html-keyboard-response","147","756042","0.0-4.0-2.0-1.15","spark_pilot_2","7131","3","9","Male","","","","","","","null","<div style=""font-size:60px;"">+</div>","null","fixation","","","","","","","","","","","31","","",""
"revaluation","148","762053","0.0-4.0-2.0-0.16","spark_pilot_2","7131","3","9","Male","","false","","","","","[772.4000000001397,215.89999999990687]","./assets/img/ocean/memory/10.jpg","[""ArrowDown"",""ArrowRight""]","value training","ocean","30","{""ArrowUp,ArrowLeft"":23,""ArrowUp,ArrowRight"":10,""ArrowDown,ArrowLeft"":8,""ArrowDown,ArrowRight"":30}","true","ArrowDown,ArrowRight","false","","","original","1","32","","",""
"html-keyboard-response","149","762555","0.0-4.0-2.0-1.16","spark_pilot_2","7131","3","9","Male","","","","","","","null","<div style=""font-size:60px;"">+</div>","null","fixation","","","","","","","","","","","33","","",""
"revaluation","150","768574","0.0-4.0-2.0-0.17","spark_pilot_2","7131","3","9","Male","","false","","","","","[658,289.30000000004657]","./assets/img/ocean/memory/28.jpg","[""ArrowDown"",""ArrowRight""]","value training","ocean","30","{""ArrowUp,ArrowLeft"":23,""ArrowUp,ArrowRight"":10,""ArrowDown,ArrowLeft"":8,""ArrowDown,ArrowRight"":30}","true","ArrowDown,ArrowRight","false","","","original","1","34","","",""
"html-keyboard-response","151","769076","0.0-4.0-2.0-1.17","spark_pilot_2","7131","3","9","Male","","","","","","","null","<div style=""font-size:60px;"">+</div>","null","fixation","","","","","","","","","","","35","","",""
"revaluation","152","773082","0.0-4.0-2.0-0.18","spark_pilot_2","7131","3","9","Male","","false","","","","","[642.6000000000931]","./assets/img/ocean/catch/3.jpg","[""spaceBar""]","value training","ocean","0","{""ArrowUp,ArrowLeft"":23,""ArrowUp,ArrowRight"":10,""ArrowDown,ArrowLeft"":8,""ArrowDown,ArrowRight"":30}","true","spaceBar","true","","","original","1","36","","",""
"html-keyboard-response","153","773583","0.0-4.0-2.0-1.18","spark_pilot_2","7131","3","9","Male","","","","","","","null","<div style=""font-size:60px;"">+</div>","null","fixation","","","","","","","","","","","37","","",""
"revaluation","154","779590","0.0-4.0-2.0-0.19","spark_pilot_2","7131","3","9","Male","","false","","","","","[1006.1999999999534,557.6999999999534]","./assets/img/ocean/memory/4.jpg","[""ArrowDown"",""ArrowRight""]","value training","ocean","30","{""ArrowUp,ArrowLeft"":23,""ArrowUp,ArrowRight"":10,""ArrowDown,ArrowLeft"":8,""ArrowDown,ArrowRight"":30}","true","ArrowDown,ArrowRight","false","","","original","1","38","","",""
"html-keyboard-response","155","780093","0.0-4.0-2.0-1.19","spark_pilot_2","7131","3","9","Male","","","","","","","null","<div style=""font-size:60px;"">+</div>","null","fixation","","","","","","","","","","","39","","",""
"revaluation","156","786113","0.0-4.0-2.0-0.20","spark_pilot_2","7131","3","9","Male","","false","","","","","[712.5,504.39999999990687]","./assets/img/ocean/memory/35.jpg","[""ArrowDown"",""ArrowRight""]","value training","ocean","30","{""ArrowUp,ArrowLeft"":23,""ArrowUp,ArrowRight"":10,""ArrowDown,ArrowLeft"":8,""ArrowDown,ArrowRight"":30}","true","ArrowDown,ArrowRight","false","","","original","1","40","","",""
"html-keyboard-response","157","786626","0.0-4.0-2.0-1.20","spark_pilot_2","7131","3","9","Male","","","","","","","null","<div style=""font-size:60px;"">+</div>","null","fixation","","","","","","","","","","","41","","",""
"revaluation","158","792634","0.0-4.0-2.0-0.21","spark_pilot_2","7131","3","9","Male","","false","","","","","[619.6999999999534,402.30000000004657]","./assets/img/ocean/memory/4.jpg","[""ArrowDown"",""ArrowRight""]","value training","ocean","30","{""ArrowUp,ArrowLeft"":23,""ArrowUp,ArrowRight"":10,""ArrowDown,ArrowLeft"":8,""ArrowDown,ArrowRight"":30}","true","ArrowDown,ArrowRight","false","","","original","1","42","","",""
"html-keyboard-response","159","793145","0.0-4.0-2.0-1.21","spark_pilot_2","7131","3","9","Male","","","","","","","null","<div style=""font-size:60px;"">+</div>","null","fixation","","","","","","","","","","","43","","",""
"revaluation","160","799154","0.0-4.0-2.0-0.22","spark_pilot_2","7131","3","9","Male","","false","","","","","[557.3000000000466,323.19999999995343]","./assets/img/ocean/memory/31.jpg","[""ArrowDown"",""ArrowRight""]","value training","ocean","30","{""ArrowUp,ArrowLeft"":23,""ArrowUp,ArrowRight"":10,""ArrowDown,ArrowLeft"":8,""ArrowDown,ArrowRight"":30}","true","ArrowDown,ArrowRight","false","","","original","1","44","","",""
"html-keyboard-response","161","799656","0.0-4.0-2.0-1.22","spark_pilot_2","7131","3","9","Male","","","","","","","null","<div style=""font-size:60px;"">+</div>","null","fixation","","","","","","","","","","","45","","",""
"revaluation","162","805663","0.0-4.0-2.0-0.23","spark_pilot_2","7131","3","9","Male","","false","","","","","[741.8000000000466,556.3999999999069]","./assets/img/ocean/memory/0.jpg","[""ArrowDown"",""ArrowRight""]","value training","ocean","30","{""ArrowUp,ArrowLeft"":23,""ArrowUp,ArrowRight"":10,""ArrowDown,ArrowLeft"":8,""ArrowDown,ArrowRight"":30}","true","ArrowDown,ArrowRight","false","","","original","1","46","","",""
"html-keyboard-response","163","806166","0.0-4.0-2.0-1.23","spark_pilot_2","7131","3","9","Male","","","","","","","null","<div style=""font-size:60px;"">+</div>","null","fixation","","","","","","","","","","","47","","",""
"revaluation","164","810183","0.0-4.0-2.0-0.24","spark_pilot_2","7131","3","9","Male","","false","","","","","[448.80000000004657]","./assets/img/ocean/catch/6.jpg","[""ArrowDown""]","value training","ocean","-10","{""ArrowUp,ArrowLeft"":23,""ArrowUp,ArrowRight"":10,""ArrowDown,ArrowLeft"":8,""ArrowDown,ArrowRight"":30}","false","ArrowDown","true","","","original","1","48","","",""
"html-keyboard-response","165","810685","0.0-4.0-2.0-1.24","spark_pilot_2","7131","3","9","Male","","","","","","","null","<div style=""font-size:60px;"">+</div>","null","fixation","","","","","","","","","","","49","","",""
"revaluation","166","816694","0.0-4.0-2.0-0.25","spark_pilot_2","7131","3","9","Male","","false","","","","","[441.10000000009313,823.9000000001397]","./assets/img/ocean/memory/39.jpg","[""ArrowDown"",""ArrowRight""]","value training","ocean","30","{""ArrowUp,ArrowLeft"":23,""ArrowUp,ArrowRight"":10,""ArrowDown,ArrowLeft"":8,""ArrowDown,ArrowRight"":30}","true","ArrowDown,ArrowRight","false","","","original","1","50","","",""
"html-keyboard-response","167","817196","0.0-4.0-2.0-1.25","spark_pilot_2","7131","3","9","Male","","","","","","","null","<div style=""font-size:60px;"">+</div>","null","fixation","","","","","","","","","","","51","","",""
"revaluation","168","821203","0.0-4.0-2.0-0.26","spark_pilot_2","7131","3","9","Male","","false","","","","","[618.0999999998603]","./assets/img/ocean/catch/2.jpg","[""spaceBar""]","value training","ocean","0","{""ArrowUp,ArrowLeft"":23,""ArrowUp,ArrowRight"":10,""ArrowDown,ArrowLeft"":8,""ArrowDown,ArrowRight"":30}","true","spaceBar","true","","","original","1","52","","",""
"html-keyboard-response","169","821705","0.0-4.0-2.0-1.26","spark_pilot_2","7131","3","9","Male","","","","","","","null","<div style=""font-size:60px;"">+</div>","null","fixation","","","","","","","","","","","53","","",""
"revaluation","170","825711","0.0-4.0-2.0-0.27","spark_pilot_2","7131","3","9","Male","","false","","","","","[613]","./assets/img/ocean/catch/0.jpg","[""spaceBar""]","value training","ocean","0","{""ArrowUp,ArrowLeft"":23,""ArrowUp,ArrowRight"":10,""ArrowDown,ArrowLeft"":8,""ArrowDown,ArrowRight"":30}","true","spaceBar","true","","","original","1","54","","",""
"html-keyboard-response","171","826212","0.0-4.0-2.0-1.27","spark_pilot_2","7131","3","9","Male","","","","","","","null","<div style=""font-size:60px;"">+</div>","null","fixation","","","","","","","","","","","55","","",""
"revaluation","172","832233","0.0-4.0-2.0-0.28","spark_pilot_2","7131","3","9","Male","","false","","","","","[529.1999999999534,531.1999999999534]","./assets/img/ocean/memory/19.jpg","[""ArrowDown"",""ArrowRight""]","value training","ocean","30","{""ArrowUp,ArrowLeft"":23,""ArrowUp,ArrowRight"":10,""ArrowDown,ArrowLeft"":8,""ArrowDown,ArrowRight"":30}","true","ArrowDown,ArrowRight","false","","","original","1","56","","",""
"html-keyboard-response","173","832736","0.0-4.0-2.0-1.28","spark_pilot_2","7131","3","9","Male","","","","","","","null","<div style=""font-size:60px;"">+</div>","null","fixation","","","","","","","","","","","57","","",""
"revaluation","174","838744","0.0-4.0-2.0-0.29","spark_pilot_2","7131","3","9","Male","","false","","","","","[1125.6999999999534,693.1000000000931]","./assets/img/ocean/memory/14.jpg","[""ArrowDown"",""ArrowRight""]","value training","ocean","30","{""ArrowUp,ArrowLeft"":23,""ArrowUp,ArrowRight"":10,""ArrowDown,ArrowLeft"":8,""ArrowDown,ArrowRight"":30}","true","ArrowDown,ArrowRight","false","","","original","1","58","","",""
"html-keyboard-response","175","839259","0.0-4.0-2.0-1.29","spark_pilot_2","7131","3","9","Male","","","","","","","null","<div style=""font-size:60px;"">+</div>","null","fixation","","","","","","","","","","","59","","",""
"revaluation","176","845288","0.0-4.0-2.0-0.30","spark_pilot_2","7131","3","9","Male","","false","","","","","[587,337.19999999995343]","./assets/img/ocean/memory/35.jpg","[""ArrowDown"",""ArrowRight""]","value training","ocean","30","{""ArrowUp,ArrowLeft"":23,""ArrowUp,ArrowRight"":10,""ArrowDown,ArrowLeft"":8,""ArrowDown,ArrowRight"":30}","true","ArrowDown,ArrowRight","false","","","original","1","60","","",""
"html-keyboard-response","177","845791","0.0-4.0-2.0-1.30","spark_pilot_2","7131","3","9","Male","","","","","","","null","<div style=""font-size:60px;"">+</div>","null","fixation","","","","","","","","","","","61","","",""
"revaluation","178","851800","0.0-4.0-2.0-0.31","spark_pilot_2","7131","3","9","Male","","false","","","","","[630.8000000000466,398.39999999990687]","./assets/img/ocean/memory/36.jpg","[""ArrowDown"",""ArrowRight""]","value training","ocean","30","{""ArrowUp,ArrowLeft"":23,""ArrowUp,ArrowRight"":10,""ArrowDown,ArrowLeft"":8,""ArrowDown,ArrowRight"":30}","true","ArrowDown,ArrowRight","false","","","original","1","62","","",""
"html-keyboard-response","179","852302","0.0-4.0-2.0-1.31","spark_pilot_2","7131","3","9","Male","","","","","","","null","<div style=""font-size:60px;"">+</div>","null","fixation","","","","","","","","","","","63","","",""
"revaluation","180","858310","0.0-4.0-2.0-0.32","spark_pilot_2","7131","3","9","Male","","false","","","","","[617.1999999999534,518.7999999998137]","./assets/img/ocean/memory/41.jpg","[""ArrowDown"",""ArrowRight""]","value training","ocean","30","{""ArrowUp,ArrowLeft"":23,""ArrowUp,ArrowRight"":10,""ArrowDown,ArrowLeft"":8,""ArrowDown,ArrowRight"":30}","true","ArrowDown,ArrowRight","false","","","original","1","64","","",""
"html-keyboard-response","181","858811","0.0-4.0-2.0-1.32","spark_pilot_2","7131","3","9","Male","","","","","","","null","<div style=""font-size:60px;"">+</div>","null","fixation","","","","","","","","","","","65","","",""
"revaluation","182","864820","0.0-4.0-2.0-0.33","spark_pilot_2","7131","3","9","Male","","false","","","","","[586,703.8000000000466]","./assets/img/ocean/memory/3.jpg","[""ArrowDown"",""ArrowRight""]","value training","ocean","30","{""ArrowUp,ArrowLeft"":23,""ArrowUp,ArrowRight"":10,""ArrowDown,ArrowLeft"":8,""ArrowDown,ArrowRight"":30}","true","ArrowDown,ArrowRight","false","","","original","1","66","","",""
"html-keyboard-response","183","865327","0.0-4.0-2.0-1.33","spark_pilot_2","7131","3","9","Male","","","","","","","null","<div style=""font-size:60px;"">+</div>","null","fixation","","","","","","","","","","","67","","",""
"revaluation","184","869336","0.0-4.0-2.0-0.34","spark_pilot_2","7131","3","9","Male","","false","","","","","[462.29999999981374]","./assets/img/ocean/catch/4.jpg","[""spaceBar""]","value training","ocean","0","{""ArrowUp,ArrowLeft"":23,""ArrowUp,ArrowRight"":10,""ArrowDown,ArrowLeft"":8,""ArrowDown,ArrowRight"":30}","true","spaceBar","true","","","original","1","68","","",""
"html-keyboard-response","185","869838","0.0-4.0-2.0-1.34","spark_pilot_2","7131","3","9","Male","","","","","","","null","<div style=""font-size:60px;"">+</div>","null","fixation","","","","","","","","","","","69","","",""
"revaluation","186","875846","0.0-4.0-2.0-0.35","spark_pilot_2","7131","3","9","Male","","false","","","","","[591.6999999999534,354.4000000001397]","./assets/img/ocean/memory/2.jpg","[""ArrowDown"",""ArrowRight""]","value training","ocean","30","{""ArrowUp,ArrowLeft"":23,""ArrowUp,ArrowRight"":10,""ArrowDown,ArrowLeft"":8,""ArrowDown,ArrowRight"":30}","true","ArrowDown,ArrowRight","false","","","original","1","70","","",""
"html-keyboard-response","187","876348","0.0-4.0-2.0-1.35","spark_pilot_2","7131","3","9","Male","","","","","","","null","<div style=""font-size:60px;"">+</div>","null","fixation","","","","","","","","","","","71","","",""
"revaluation","188","882361","0.0-4.0-2.0-0.36","spark_pilot_2","7131","3","9","Male","","false","","","","","[434.19999999995343,246]","./assets/img/ocean/memory/28.jpg","[""ArrowDown"",""ArrowRight""]","value training","ocean","30","{""ArrowUp,ArrowLeft"":23,""ArrowUp,ArrowRight"":10,""ArrowDown,ArrowLeft"":8,""ArrowDown,ArrowRight"":30}","true","ArrowDown,ArrowRight","false","","","original","1","72","","",""
"html-keyboard-response","189","882863","0.0-4.0-2.0-1.36","spark_pilot_2","7131","3","9","Male","","","","","","","null","<div style=""font-size:60px;"">+</div>","null","fixation","","","","","","","","","","","73","","",""
"revaluation","190","888870","0.0-4.0-2.0-0.37","spark_pilot_2","7131","3","9","Male","","false","","","","","[486.5,221.80000000004657]","./assets/img/ocean/memory/0.jpg","[""ArrowDown"",""ArrowRight""]","value training","ocean","30","{""ArrowUp,ArrowLeft"":23,""ArrowUp,ArrowRight"":10,""ArrowDown,ArrowLeft"":8,""ArrowDown,ArrowRight"":30}","true","ArrowDown,ArrowRight","false","","","original","1","74","","",""
"html-keyboard-response","191","889372","0.0-4.0-2.0-1.37","spark_pilot_2","7131","3","9","Male","","","","","","","null","<div style=""font-size:60px;"">+</div>","null","fixation","","","","","","","","","","","75","","",""
"revaluation","192","895379","0.0-4.0-2.0-0.38","spark_pilot_2","7131","3","9","Male","","false","","","","","[601.1999999999534,89.0999999998603]","./assets/img/ocean/memory/23.jpg","[""ArrowDown"",""ArrowRight""]","value training","ocean","30","{""ArrowUp,ArrowLeft"":23,""ArrowUp,ArrowRight"":10,""ArrowDown,ArrowLeft"":8,""ArrowDown,ArrowRight"":30}","true","ArrowDown,ArrowRight","false","","","original","1","76","","",""
"html-keyboard-response","193","895881","0.0-4.0-2.0-1.38","spark_pilot_2","7131","3","9","Male","","","","","","","null","<div style=""font-size:60px;"">+</div>","null","fixation","","","","","","","","","","","77","","",""
"revaluation","194","901889","0.0-4.0-2.0-0.39","spark_pilot_2","7131","3","9","Male","","false","","","","","[629.3000000000466,780.1999999999534]","./assets/img/ocean/memory/39.jpg","[""ArrowDown"",""ArrowRight""]","value training","ocean","30","{""ArrowUp,ArrowLeft"":23,""ArrowUp,ArrowRight"":10,""ArrowDown,ArrowLeft"":8,""ArrowDown,ArrowRight"":30}","true","ArrowDown,ArrowRight","false","","","original","1","78","","",""
"html-keyboard-response","195","902391","0.0-4.0-2.0-1.39","spark_pilot_2","7131","3","9","Male","","","","","","","null","<div style=""font-size:60px;"">+</div>","null","fixation","","","","","","","","","","","79","","",""
"revaluation","196","908400","0.0-4.0-2.0-0.40","spark_pilot_2","7131","3","9","Male","","false","","","","","[470.60000000009313,35.89999999990687]","./assets/img/ocean/memory/8.jpg","[""ArrowDown"",""ArrowRight""]","value training","ocean","30","{""ArrowUp,ArrowLeft"":23,""ArrowUp,ArrowRight"":10,""ArrowDown,ArrowLeft"":8,""ArrowDown,ArrowRight"":30}","true","ArrowDown,ArrowRight","false","","","original","1","80","","",""
"html-keyboard-response","197","908902","0.0-4.0-2.0-1.40","spark_pilot_2","7131","3","9","Male","","","","","","","null","<div style=""font-size:60px;"">+</div>","null","fixation","","","","","","","","","","","81","","",""
"revaluation","198","914910","0.0-4.0-2.0-0.41","spark_pilot_2","7131","3","9","Male","","false","","","","","[512.3000000000466,14.399999999906868]","./assets/img/ocean/memory/19.jpg","[""ArrowDown"",""ArrowRight""]","value training","ocean","30","{""ArrowUp,ArrowLeft"":23,""ArrowUp,ArrowRight"":10,""ArrowDown,ArrowLeft"":8,""ArrowDown,ArrowRight"":30}","true","ArrowDown,ArrowRight","false","","","original","1","82","","",""
"html-keyboard-response","199","915412","0.0-4.0-2.0-1.41","spark_pilot_2","7131","3","9","Male","","","","","","","null","<div style=""font-size:60px;"">+</div>","null","fixation","","","","","","","","","","","83","","",""
"revaluation","200","921420","0.0-4.0-2.0-0.42","spark_pilot_2","7131","3","9","Male","","false","","","","","[545.4000000001397,368.5999999998603]","./assets/img/ocean/memory/27.jpg","[""ArrowDown"",""ArrowRight""]","value training","ocean","30","{""ArrowUp,ArrowLeft"":23,""ArrowUp,ArrowRight"":10,""ArrowDown,ArrowLeft"":8,""ArrowDown,ArrowRight"":30}","true","ArrowDown,ArrowRight","false","","","original","1","84","","",""
"html-keyboard-response","201","921922","0.0-4.0-2.0-1.42","spark_pilot_2","7131","3","9","Male","","","","","","","null","<div style=""font-size:60px;"">+</div>","null","fixation","","","","","","","","","","","85","","",""
"revaluation","202","927930","0.0-4.0-2.0-0.43","spark_pilot_2","7131","3","9","Male","","false","","","","","[516.3999999999069,17]","./assets/img/ocean/memory/23.jpg","[""ArrowDown"",""ArrowRight""]","value training","ocean","30","{""ArrowUp,ArrowLeft"":23,""ArrowUp,ArrowRight"":10,""ArrowDown,ArrowLeft"":8,""ArrowDown,ArrowRight"":30}","true","ArrowDown,ArrowRight","false","","","original","1","86","","",""
"html-keyboard-response","203","928432","0.0-4.0-2.0-1.43","spark_pilot_2","7131","3","9","Male","","","","","","","null","<div style=""font-size:60px;"">+</div>","null","fixation","","","","","","","","","","","87","","",""
"revaluation","204","934454","0.0-4.0-2.0-0.44","spark_pilot_2","7131","3","9","Male","","false","","","","","[429,13.300000000046566]","./assets/img/ocean/memory/3.jpg","[""ArrowDown"",""ArrowRight""]","value training","ocean","30","{""ArrowUp,ArrowLeft"":23,""ArrowUp,ArrowRight"":10,""ArrowDown,ArrowLeft"":8,""ArrowDown,ArrowRight"":30}","true","ArrowDown,ArrowRight","false","","","original","1","88","","",""
"html-keyboard-response","205","934966","0.0-4.0-2.0-1.44","spark_pilot_2","7131","3","9","Male","","","","","","","null","<div style=""font-size:60px;"">+</div>","null","fixation","","","","","","","","","","","89","","",""
"revaluation","206","940984","0.0-4.0-2.0-0.45","spark_pilot_2","7131","3","9","Male","","false","","","","","[383.80000000004657,20.899999999906868]","./assets/img/ocean/memory/38.jpg","[""ArrowDown"",""ArrowRight""]","value training","ocean","30","{""ArrowUp,ArrowLeft"":23,""ArrowUp,ArrowRight"":10,""ArrowDown,ArrowLeft"":8,""ArrowDown,ArrowRight"":30}","true","ArrowDown,ArrowRight","false","","","original","1","90","","",""
"html-keyboard-response","207","941486","0.0-4.0-2.0-1.45","spark_pilot_2","7131","3","9","Male","","","","","","","null","<div style=""font-size:60px;"">+</div>","null","fixation","","","","","","","","","","","91","","",""
"revaluation","208","947500","0.0-4.0-2.0-0.46","spark_pilot_2","7131","3","9","Male","","false","","","","","[377.5999999998603,44.800000000046566]","./assets/img/ocean/memory/8.jpg","[""ArrowDown"",""ArrowRight""]","value training","ocean","30","{""ArrowUp,ArrowLeft"":23,""ArrowUp,ArrowRight"":10,""ArrowDown,ArrowLeft"":8,""ArrowDown,ArrowRight"":30}","true","ArrowDown,ArrowRight","false","","","original","1","92","","",""
"html-keyboard-response","209","948003","0.0-4.0-2.0-1.46","spark_pilot_2","7131","3","9","Male","","","","","","","null","<div style=""font-size:60px;"">+</div>","null","fixation","","","","","","","","","","","93","","",""
"revaluation","210","954015","0.0-4.0-2.0-0.47","spark_pilot_2","7131","3","9","Male","","false","","","","","[466.5,163.19999999995343]","./assets/img/ocean/memory/37.jpg","[""ArrowDown"",""ArrowRight""]","value training","ocean","30","{""ArrowUp,ArrowLeft"":23,""ArrowUp,ArrowRight"":10,""ArrowDown,ArrowLeft"":8,""ArrowDown,ArrowRight"":30}","true","ArrowDown,ArrowRight","false","","","original","1","94","","",""
"html-keyboard-response","211","954517","0.0-4.0-2.0-1.47","spark_pilot_2","7131","3","9","Male","","","","","","","null","<div style=""font-size:60px;"">+</div>","null","fixation","","","","","","","","","","","95","","",""
"revaluation","212","958527","0.0-4.0-2.0-0.48","spark_pilot_2","7131","3","9","Male","","false","","","","","[1240.2999999998137]","./assets/img/ocean/catch/7.jpg","[""spaceBar""]","value training","ocean","0","{""ArrowUp,ArrowLeft"":23,""ArrowUp,ArrowRight"":10,""ArrowDown,ArrowLeft"":8,""ArrowDown,ArrowRight"":30}","true","spaceBar","true","","","original","1","96","","",""
"html-keyboard-response","213","959030","0.0-4.0-2.0-1.48","spark_pilot_2","7131","3","9","Male","","","","","","","null","<div style=""font-size:60px;"">+</div>","null","fixation","","","","","","","","","","","97","","",""
"revaluation","214","965052","0.0-4.0-2.0-0.49","spark_pilot_2","7131","3","9","Male","","false","","","","","[1288.1000000000931,972.8000000000466]","./assets/img/ocean/memory/37.jpg","[""ArrowDown"",""ArrowRight""]","value training","ocean","30","{""ArrowUp,ArrowLeft"":23,""ArrowUp,ArrowRight"":10,""ArrowDown,ArrowLeft"":8,""ArrowDown,ArrowRight"":30}","true","ArrowDown,ArrowRight","false","","","original","1","98","","",""
"html-keyboard-response","215","965555","0.0-4.0-2.0-1.49","spark_pilot_2","7131","3","9","Male","","","","","","","null","<div style=""font-size:60px;"">+</div>","null","fixation","","","","","","","","","","","99","","",""
"learning-instructions","216","982075","0.0-4.0-3.0-0.0","spark_pilot_2","7131","3","9","Male","","","","","","","3612.1999999999534","<p> Now, you will travel with a friend who will choose whether you go up or down first. </p>
            <p> On these turns, you will just see the animal that they found. You will still get to choose which chest to search for treasure.</p>","","instructions","","","","","","","","","","","","","",""
"revaluation","217","986103","0.0-4.0-4.0-0.0","spark_pilot_2","7131","3","9","Male","","false","","","","","[794.5]","./assets/img/ocean/animals/octopus.jpg","[""ArrowRight""]","revaluation","ocean","30","{""ArrowUp,ArrowLeft"":23,""ArrowUp,ArrowRight"":10,""ArrowDown,ArrowLeft"":8,""ArrowDown,ArrowRight"":30}","true","ArrowDown,ArrowRight","","","","original","1","0","","",""
"html-keyboard-response","218","986622","0.0-4.0-4.0-1.0","spark_pilot_2","7131","3","9","Male","","","","","","","null","<div style=""font-size:60px;"">+</div>","null","fixation","","","","","","","","","","","1","","",""
"revaluation","219","990649","0.0-4.0-4.0-0.1","spark_pilot_2","7131","3","9","Male","","false","","","","","[454.80000000004657]","./assets/img/ocean/animals/seahorse.jpg","[""ArrowRight""]","revaluation","ocean","10","{""ArrowUp,ArrowLeft"":23,""ArrowUp,ArrowRight"":10,""ArrowDown,ArrowLeft"":8,""ArrowDown,ArrowRight"":30}","false","ArrowUp,ArrowRight","","","","original","1","2","","",""
"html-keyboard-response","220","991155","0.0-4.0-4.0-1.1","spark_pilot_2","7131","3","9","Male","","","","","","","null","<div style=""font-size:60px;"">+</div>","null","fixation","","","","","","","","","","","3","","",""
"revaluation","221","995167","0.0-4.0-4.0-0.2","spark_pilot_2","7131","3","9","Male","","false","","","","","[407.39999999990687]","./assets/img/ocean/animals/seahorse.jpg","[""ArrowRight""]","revaluation","ocean","10","{""ArrowUp,ArrowLeft"":23,""ArrowUp,ArrowRight"":10,""ArrowDown,ArrowLeft"":8,""ArrowDown,ArrowRight"":30}","false","ArrowUp,ArrowRight","","","","original","1","4","","",""
"html-keyboard-response","222","995670","0.0-4.0-4.0-1.2","spark_pilot_2","7131","3","9","Male","","","","","","","null","<div style=""font-size:60px;"">+</div>","null","fixation","","","","","","","","","","","5","","",""
"revaluation","223","999682","0.0-4.0-4.0-0.3","spark_pilot_2","7131","3","9","Male","","false","","","","","[614.3999999999069]","./assets/img/ocean/animals/octopus.jpg","[""ArrowRight""]","revaluation","ocean","30","{""ArrowUp,ArrowLeft"":23,""ArrowUp,ArrowRight"":10,""ArrowDown,ArrowLeft"":8,""ArrowDown,ArrowRight"":30}","true","ArrowDown,ArrowRight","","","","original","1","6","","",""
"html-keyboard-response","224","1000200","0.0-4.0-4.0-1.3","spark_pilot_2","7131","3","9","Male","","","","","","","null","<div style=""font-size:60px;"">+</div>","null","fixation","","","","","","","","","","","7","","",""
"revaluation","225","1004223","0.0-4.0-4.0-0.4","spark_pilot_2","7131","3","9","Male","","false","","","","","[421.0999999998603]","./assets/img/ocean/animals/seahorse.jpg","[""ArrowLeft""]","revaluation","ocean","23","{""ArrowUp,ArrowLeft"":23,""ArrowUp,ArrowRight"":10,""ArrowDown,ArrowLeft"":8,""ArrowDown,ArrowRight"":30}","true","ArrowUp,ArrowLeft","","","","original","1","8","","",""
"html-keyboard-response","226","1004726","0.0-4.0-4.0-1.4","spark_pilot_2","7131","3","9","Male","","","","","","","null","<div style=""font-size:60px;"">+</div>","null","fixation","","","","","","","","","","","9","","",""
"revaluation","227","1008745","0.0-4.0-4.0-0.5","spark_pilot_2","7131","3","9","Male","","false","","","","","[631.8999999999069]","./assets/img/ocean/animals/seahorse.jpg","[""ArrowLeft""]","revaluation","ocean","23","{""ArrowUp,ArrowLeft"":23,""ArrowUp,ArrowRight"":10,""ArrowDown,ArrowLeft"":8,""ArrowDown,ArrowRight"":30}","true","ArrowUp,ArrowLeft","","","","original","1","10","","",""
"html-keyboard-response","228","1009246","0.0-4.0-4.0-1.5","spark_pilot_2","7131","3","9","Male","","","","","","","null","<div style=""font-size:60px;"">+</div>","null","fixation","","","","","","","","","","","11","","",""
"revaluation","229","1013254","0.0-4.0-4.0-0.6","spark_pilot_2","7131","3","9","Male","","false","","","","","[574.6999999999534]","./assets/img/ocean/animals/seahorse.jpg","[""ArrowLeft""]","revaluation","ocean","23","{""ArrowUp,ArrowLeft"":23,""ArrowUp,ArrowRight"":10,""ArrowDown,ArrowLeft"":8,""ArrowDown,ArrowRight"":30}","true","ArrowUp,ArrowLeft","","","","original","1","12","","",""
"html-keyboard-response","230","1013757","0.0-4.0-4.0-1.6","spark_pilot_2","7131","3","9","Male","","","","","","","null","<div style=""font-size:60px;"">+</div>","null","fixation","","","","","","","","","","","13","","",""
"revaluation","231","1017764","0.0-4.0-4.0-0.7","spark_pilot_2","7131","3","9","Male","","false","","","","","[648.3999999999069]","./assets/img/ocean/animals/seahorse.jpg","[""ArrowLeft""]","revaluation","ocean","23","{""ArrowUp,ArrowLeft"":23,""ArrowUp,ArrowRight"":10,""ArrowDown,ArrowLeft"":8,""ArrowDown,ArrowRight"":30}","true","ArrowUp,ArrowLeft","","","","original","1","14","","",""
"html-keyboard-response","232","1018266","0.0-4.0-4.0-1.7","spark_pilot_2","7131","3","9","Male","","","","","","","null","<div style=""font-size:60px;"">+</div>","null","fixation","","","","","","","","","","","15","","",""
"revaluation","233","1022274","0.0-4.0-4.0-0.8","spark_pilot_2","7131","3","9","Male","","false","","","","","[435.5]","./assets/img/ocean/animals/seahorse.jpg","[""ArrowLeft""]","revaluation","ocean","23","{""ArrowUp,ArrowLeft"":23,""ArrowUp,ArrowRight"":10,""ArrowDown,ArrowLeft"":8,""ArrowDown,ArrowRight"":30}","true","ArrowUp,ArrowLeft","","","","original","1","16","","",""
"html-keyboard-response","234","1022776","0.0-4.0-4.0-1.8","spark_pilot_2","7131","3","9","Male","","","","","","","null","<div style=""font-size:60px;"">+</div>","null","fixation","","","","","","","","","","","17","","",""
"revaluation","235","1026784","0.0-4.0-4.0-0.9","spark_pilot_2","7131","3","9","Male","","false","","","","","[404.9000000001397]","./assets/img/ocean/animals/octopus.jpg","[""ArrowRight""]","revaluation","ocean","30","{""ArrowUp,ArrowLeft"":23,""ArrowUp,ArrowRight"":10,""ArrowDown,ArrowLeft"":8,""ArrowDown,ArrowRight"":30}","true","ArrowDown,ArrowRight","","","","original","1","18","","",""
"html-keyboard-response","236","1027286","0.0-4.0-4.0-1.9","spark_pilot_2","7131","3","9","Male","","","","","","","null","<div style=""font-size:60px;"">+</div>","null","fixation","","","","","","","","","","","19","","",""
"revaluation","237","1031293","0.0-4.0-4.0-0.10","spark_pilot_2","7131","3","9","Male","","false","","","","","[558.8999999999069]","./assets/img/ocean/animals/octopus.jpg","[""ArrowLeft""]","revaluation","ocean","8","{""ArrowUp,ArrowLeft"":23,""ArrowUp,ArrowRight"":10,""ArrowDown,ArrowLeft"":8,""ArrowDown,ArrowRight"":30}","false","ArrowDown,ArrowLeft","","","","original","1","20","","",""
"html-keyboard-response","238","1031796","0.0-4.0-4.0-1.10","spark_pilot_2","7131","3","9","Male","","","","","","","null","<div style=""font-size:60px;"">+</div>","null","fixation","","","","","","","","","","","21","","",""
"revaluation","239","1035802","0.0-4.0-4.0-0.11","spark_pilot_2","7131","3","9","Male","","false","","","","","[402.19999999995343]","./assets/img/ocean/animals/seahorse.jpg","[""ArrowLeft""]","revaluation","ocean","23","{""ArrowUp,ArrowLeft"":23,""ArrowUp,ArrowRight"":10,""ArrowDown,ArrowLeft"":8,""ArrowDown,ArrowRight"":30}","true","ArrowUp,ArrowLeft","","","","original","1","22","","",""
"html-keyboard-response","240","1036304","0.0-4.0-4.0-1.11","spark_pilot_2","7131","3","9","Male","","","","","","","null","<div style=""font-size:60px;"">+</div>","null","fixation","","","","","","","","","","","23","","",""
"revaluation","241","1040310","0.0-4.0-4.0-0.12","spark_pilot_2","7131","3","9","Male","","false","","","","","[621.0999999998603]","./assets/img/ocean/animals/octopus.jpg","[""ArrowRight""]","revaluation","ocean","30","{""ArrowUp,ArrowLeft"":23,""ArrowUp,ArrowRight"":10,""ArrowDown,ArrowLeft"":8,""ArrowDown,ArrowRight"":30}","true","ArrowDown,ArrowRight","","","","original","1","24","","",""
"html-keyboard-response","242","1040812","0.0-4.0-4.0-1.12","spark_pilot_2","7131","3","9","Male","","","","","","","null","<div style=""font-size:60px;"">+</div>","null","fixation","","","","","","","","","","","25","","",""
"revaluation","243","1044818","0.0-4.0-4.0-0.13","spark_pilot_2","7131","3","9","Male","","false","","","","","[593]","./assets/img/ocean/animals/octopus.jpg","[""ArrowRight""]","revaluation","ocean","30","{""ArrowUp,ArrowLeft"":23,""ArrowUp,ArrowRight"":10,""ArrowDown,ArrowLeft"":8,""ArrowDown,ArrowRight"":30}","true","ArrowDown,ArrowRight","","","","original","1","26","","",""
"html-keyboard-response","244","1045320","0.0-4.0-4.0-1.13","spark_pilot_2","7131","3","9","Male","","","","","","","null","<div style=""font-size:60px;"">+</div>","null","fixation","","","","","","","","","","","27","","",""
"revaluation","245","1049326","0.0-4.0-4.0-0.14","spark_pilot_2","7131","3","9","Male","","false","","","","","[677.6999999999534]","./assets/img/ocean/animals/octopus.jpg","[""ArrowRight""]","revaluation","ocean","30","{""ArrowUp,ArrowLeft"":23,""ArrowUp,ArrowRight"":10,""ArrowDown,ArrowLeft"":8,""ArrowDown,ArrowRight"":30}","true","ArrowDown,ArrowRight","","","","original","1","28","","",""
"html-keyboard-response","246","1049829","0.0-4.0-4.0-1.14","spark_pilot_2","7131","3","9","Male","","","","","","","null","<div style=""font-size:60px;"">+</div>","null","fixation","","","","","","","","","","","29","","",""
"revaluation","247","1053835","0.0-4.0-4.0-0.15","spark_pilot_2","7131","3","9","Male","","false","","","","","[680.5]","./assets/img/ocean/animals/seahorse.jpg","[""ArrowLeft""]","revaluation","ocean","23","{""ArrowUp,ArrowLeft"":23,""ArrowUp,ArrowRight"":10,""ArrowDown,ArrowLeft"":8,""ArrowDown,ArrowRight"":30}","true","ArrowUp,ArrowLeft","","","","original","1","30","","",""
"html-keyboard-response","248","1054337","0.0-4.0-4.0-1.15","spark_pilot_2","7131","3","9","Male","","","","","","","null","<div style=""font-size:60px;"">+</div>","null","fixation","","","","","","","","","","","31","","",""
"revaluation","249","1058345","0.0-4.0-4.0-0.16","spark_pilot_2","7131","3","9","Male","","false","","","","","[356.39999999990687]","./assets/img/ocean/animals/octopus.jpg","[""ArrowRight""]","revaluation","ocean","30","{""ArrowUp,ArrowLeft"":23,""ArrowUp,ArrowRight"":10,""ArrowDown,ArrowLeft"":8,""ArrowDown,ArrowRight"":30}","true","ArrowDown,ArrowRight","","","","original","1","32","","",""
"html-keyboard-response","250","1058847","0.0-4.0-4.0-1.16","spark_pilot_2","7131","3","9","Male","","","","","","","null","<div style=""font-size:60px;"">+</div>","null","fixation","","","","","","","","","","","33","","",""
"revaluation","251","1062853","0.0-4.0-4.0-0.17","spark_pilot_2","7131","3","9","Male","","false","","","","","[573.9000000003725]","./assets/img/ocean/animals/octopus.jpg","[""ArrowRight""]","revaluation","ocean","30","{""ArrowUp,ArrowLeft"":23,""ArrowUp,ArrowRight"":10,""ArrowDown,ArrowLeft"":8,""ArrowDown,ArrowRight"":30}","true","ArrowDown,ArrowRight","","","","original","1","34","","",""
"html-keyboard-response","252","1063354","0.0-4.0-4.0-1.17","spark_pilot_2","7131","3","9","Male","","","","","","","null","<div style=""font-size:60px;"">+</div>","null","fixation","","","","","","","","","","","35","","",""
"learning-instructions","253","1075284","0.0-4.0-5.0-0.0","spark_pilot_2","7131","3","9","Male","","","","","","","469.3000000002794","<p> Time to play the dot game! </p>
            <p> For one minute, click the red dots on the following screen as they appear. </p>
            <p><b> Don't look away, as you will earn bonus for clicking dots</b>. </p>","","instructions","","","","","","","","","","","","","",""
"revaluation","254","1135289","0.0-4.0-6.0-0.0","spark_pilot_2","7131","3","9","Male","","","","","","","[85,77,77,93,88,141]","","","rest","","60","","","","","0","60000","","","","","",""
"learning-instructions","255","1142371","0.0-4.0-7.0-0.0","spark_pilot_2","7131","3","9","Male","","","","","","","929.2999999998137","<p> You have almost finished this part of the game! </p>
            <p> We are going to ask you to make a few more choices. </p>","","instructions","","","","","","","","","","","","","",""
"learning-instructions","256","1157315","0.0-4.0-7.0-0.1","spark_pilot_2","7131","3","9","Male","","","","","","","973.7999999998137","<p> First, you need to decide whether to go up or down. When you see each picture, use the arrow keys to make your choice. </p>
            <p><b>You will not see which animal you found, but try to get to the one that will give you the most treasure.</b></p>","","instructions","","","","","","","","","","","","","",""
"revaluation","257","1158393","0.0-4.0-8.0-0.0","spark_pilot_2","7131","3","9","Male","","false","","","","","[1072.8999999999069]","./assets/img/ocean/test/3.jpg","[""ArrowDown""]","first stage test","ocean","0","{""ArrowUp,ArrowLeft"":23,""ArrowUp,ArrowRight"":10,""ArrowDown,ArrowLeft"":8,""ArrowDown,ArrowRight"":30}","true","ArrowDown","false","","","original","1","","","",""
"html-keyboard-response","258","1158902","0.0-4.0-8.0-1.0","spark_pilot_2","7131","3","9","Male","","","","","","","null","<div style=""font-size:60px;"">+</div>","null","fixation","","","","","","","","","","","","","",""
"revaluation","259","1159786","0.0-4.0-8.0-0.1","spark_pilot_2","7131","3","9","Male","","false","","","","","[877.8999999999069]","./assets/img/ocean/test/2.jpg","[""ArrowDown""]","first stage test","ocean","0","{""ArrowUp,ArrowLeft"":23,""ArrowUp,ArrowRight"":10,""ArrowDown,ArrowLeft"":8,""ArrowDown,ArrowRight"":30}","true","ArrowDown","false","","","original","1","","","",""
"html-keyboard-response","260","1160302","0.0-4.0-8.0-1.1","spark_pilot_2","7131","3","9","Male","","","","","","","null","<div style=""font-size:60px;"">+</div>","null","fixation","","","","","","","","","","","","","",""
"revaluation","261","1160881","0.0-4.0-8.0-0.2","spark_pilot_2","7131","3","9","Male","","false","","","","","[574.8999999999069]","./assets/img/ocean/test/1.jpg","[""ArrowDown""]","first stage test","ocean","0","{""ArrowUp,ArrowLeft"":23,""ArrowUp,ArrowRight"":10,""ArrowDown,ArrowLeft"":8,""ArrowDown,ArrowRight"":30}","true","ArrowDown","false","","","original","1","","","",""
"html-keyboard-response","262","1161391","0.0-4.0-8.0-1.2","spark_pilot_2","7131","3","9","Male","","","","","","","null","<div style=""font-size:60px;"">+</div>","null","fixation","","","","","","","","","","","","","",""
"revaluation","263","1161737","0.0-4.0-8.0-0.3","spark_pilot_2","7131","3","9","Male","","false","","","","","[341.10000000009313]","./assets/img/ocean/test/0.jpg","[""ArrowDown""]","first stage test","ocean","0","{""ArrowUp,ArrowLeft"":23,""ArrowUp,ArrowRight"":10,""ArrowDown,ArrowLeft"":8,""ArrowDown,ArrowRight"":30}","true","ArrowDown","false","","","original","1","","","",""
"html-keyboard-response","264","1162239","0.0-4.0-8.0-1.3","spark_pilot_2","7131","3","9","Male","","","","","","","null","<div style=""font-size:60px;"">+</div>","null","fixation","","","","","","","","","","","","","",""
"learning-instructions","265","1174227","0.0-4.0-9.0-0.0","spark_pilot_2","7131","3","9","Male","","","","","","","645.3999999999069","<p> Now you will see the animals again and can search their chests for treasure. </p>
            <p> This time, you will not see how much treasure you earned, but you will earn more bonus money for making better choices. </p>","","instructions","","","","","","","","","","","","","",""
"revaluation","266","1175482","0.0-4.0-10.0-0.0","spark_pilot_2","7131","3","9","Male","","false","","","","","[1251.0999999996275]","./assets/img/ocean/animals/seahorse.jpg","[""ArrowLeft""]","second stage test","ocean","0","{""ArrowUp,ArrowLeft"":23,""ArrowUp,ArrowRight"":10,""ArrowDown,ArrowLeft"":8,""ArrowDown,ArrowRight"":30}","true","ArrowUp,ArrowLeft","","","","original","1","","","",""
"html-keyboard-response","267","1175987","0.0-4.0-10.0-1.0","spark_pilot_2","7131","3","9","Male","","","","","","","null","<div style=""font-size:60px;"">+</div>","null","fixation","","","","","","","","","","","","","",""
"revaluation","268","1176498","0.0-4.0-10.0-0.1","spark_pilot_2","7131","3","9","Male","","false","","","","","[506.79999999981374]","./assets/img/ocean/animals/seahorse.jpg","[""ArrowLeft""]","second stage test","ocean","0","{""ArrowUp,ArrowLeft"":23,""ArrowUp,ArrowRight"":10,""ArrowDown,ArrowLeft"":8,""ArrowDown,ArrowRight"":30}","true","ArrowUp,ArrowLeft","","","","original","1","","","",""
"html-keyboard-response","269","1177003","0.0-4.0-10.0-1.1","spark_pilot_2","7131","3","9","Male","","","","","","","null","<div style=""font-size:60px;"">+</div>","null","fixation","","","","","","","","","","","","","",""
"revaluation","270","1177506","0.0-4.0-10.0-0.2","spark_pilot_2","7131","3","9","Male","","false","","","","","[498.60000000009313]","./assets/img/ocean/animals/seahorse.jpg","[""ArrowLeft""]","second stage test","ocean","0","{""ArrowUp,ArrowLeft"":23,""ArrowUp,ArrowRight"":10,""ArrowDown,ArrowLeft"":8,""ArrowDown,ArrowRight"":30}","true","ArrowUp,ArrowLeft","","","","original","1","","","",""
"html-keyboard-response","271","1178019","0.0-4.0-10.0-1.2","spark_pilot_2","7131","3","9","Male","","","","","","","null","<div style=""font-size:60px;"">+</div>","null","fixation","","","","","","","","","","","","","",""
"revaluation","272","1178499","0.0-4.0-10.0-0.3","spark_pilot_2","7131","3","9","Male","","false","","","","","[475.20000000018626]","./assets/img/ocean/animals/seahorse.jpg","[""ArrowLeft""]","second stage test","ocean","0","{""ArrowUp,ArrowLeft"":23,""ArrowUp,ArrowRight"":10,""ArrowDown,ArrowLeft"":8,""ArrowDown,ArrowRight"":30}","true","ArrowUp,ArrowLeft","","","","original","1","","","",""
"html-keyboard-response","273","1179007","0.0-4.0-10.0-1.3","spark_pilot_2","7131","3","9","Male","","","","","","","null","<div style=""font-size:60px;"">+</div>","null","fixation","","","","","","","","","","","","","",""
"revaluation","274","1179522","0.0-4.0-10.0-0.4","spark_pilot_2","7131","3","9","Male","","false","","","","","[510.39999999990687]","./assets/img/ocean/animals/octopus.jpg","[""ArrowRight""]","second stage test","ocean","0","{""ArrowUp,ArrowLeft"":23,""ArrowUp,ArrowRight"":10,""ArrowDown,ArrowLeft"":8,""ArrowDown,ArrowRight"":30}","true","ArrowDown,ArrowRight","","","","original","1","","","",""
"html-keyboard-response","275","1180026","0.0-4.0-10.0-1.4","spark_pilot_2","7131","3","9","Male","","","","","","","null","<div style=""font-size:60px;"">+</div>","null","fixation","","","","","","","","","","","","","",""
"revaluation","276","1180442","0.0-4.0-10.0-0.5","spark_pilot_2","7131","3","9","Male","","false","","","","","[411.5]","./assets/img/ocean/animals/octopus.jpg","[""ArrowRight""]","second stage test","ocean","0","{""ArrowUp,ArrowLeft"":23,""ArrowUp,ArrowRight"":10,""ArrowDown,ArrowLeft"":8,""ArrowDown,ArrowRight"":30}","true","ArrowDown,ArrowRight","","","","original","1","","","",""
"html-keyboard-response","277","1180957","0.0-4.0-10.0-1.5","spark_pilot_2","7131","3","9","Male","","","","","","","null","<div style=""font-size:60px;"">+</div>","null","fixation","","","","","","","","","","","","","",""
"revaluation","278","1181354","0.0-4.0-10.0-0.6","spark_pilot_2","7131","3","9","Male","","false","","","","","[394.89999999990687]","./assets/img/ocean/animals/octopus.jpg","[""ArrowRight""]","second stage test","ocean","0","{""ArrowUp,ArrowLeft"":23,""ArrowUp,ArrowRight"":10,""ArrowDown,ArrowLeft"":8,""ArrowDown,ArrowRight"":30}","true","ArrowDown,ArrowRight","","","","original","1","","","",""
"html-keyboard-response","279","1181859","0.0-4.0-10.0-1.6","spark_pilot_2","7131","3","9","Male","","","","","","","null","<div style=""font-size:60px;"">+</div>","null","fixation","","","","","","","","","","","","","",""
"revaluation","280","1182258","0.0-4.0-10.0-0.7","spark_pilot_2","7131","3","9","Male","","false","","","","","[395]","./assets/img/ocean/animals/octopus.jpg","[""ArrowRight""]","second stage test","ocean","0","{""ArrowUp,ArrowLeft"":23,""ArrowUp,ArrowRight"":10,""ArrowDown,ArrowLeft"":8,""ArrowDown,ArrowRight"":30}","true","ArrowDown,ArrowRight","","","","original","1","","","",""
"html-keyboard-response","281","1182771","0.0-4.0-10.0-1.7","spark_pilot_2","7131","3","9","Male","","","","","","","null","<div style=""font-size:60px;"">+</div>","null","fixation","","","","","","","","","","","","","",""
"learning-instructions","282","1187339","0.0-4.0-0.1-0.2","spark_pilot_2","7131","3","9","Male","","","","","","","1777.2999999998137","<p> This time you are searching for treasure in the <b>canyon</b>.</p>","","instructions","","","","","","","","","","","","","",""
"learning-instructions","283","1205603","0.0-4.0-0.1-0.3","spark_pilot_2","7131","3","9","Male","","","","","","","1001.3999999999069","<p><b>New</b> animals with <b>new</b> treasure chests live here. You need to explore to discover where the animal with the best treasure chest is.</p>
                    <p> Like before, once you figure out which animal has the chest with the most treasure, you should try to get to that animal and select that chest! </p>","","instructions","","","","","","","","","","","","","",""
"learning-instructions","284","1221899","0.0-4.0-1.1-0.1","spark_pilot_2","7131","3","9","Male","","","","","","","1567.1000000000931","<p> Remember, when you see a picture of the place, use the up and down keys to <b>find an animal</b>.</p>
            <p> When you encounter an animal, you should use the left and right keys to <b>select a treasure chest</b>.</p>
            <p> Don't forget to look out for the robber! </p>","","instructions","","","","","","","","","","","","","",""
"revaluation","285","1227945","0.0-4.0-2.1-0.50","spark_pilot_2","7131","3","9","Male","","false","","","","","[986.2999999998137,686.1000000000931]","./assets/img/canyon/memory/28.jpg","[""ArrowDown"",""ArrowRight""]","value training","canyon","17","{""ArrowUp,ArrowLeft"":26,""ArrowUp,ArrowRight"":10,""ArrowDown,ArrowLeft"":5,""ArrowDown,ArrowRight"":17}","false","ArrowDown,ArrowRight","false","","","revaluation","2","0","","",""
"html-keyboard-response","286","1228462","0.0-4.0-2.1-1.50","spark_pilot_2","7131","3","9","Male","","","","","","","null","<div style=""font-size:60px;"">+</div>","null","fixation","","","","","","","","","","","1","","",""
"revaluation","287","1234477","0.0-4.0-2.1-0.51","spark_pilot_2","7131","3","9","Male","","false","","","","","[688.5,294.1999999997206]","./assets/img/canyon/memory/39.jpg","[""ArrowDown"",""ArrowLeft""]","value training","canyon","5","{""ArrowUp,ArrowLeft"":26,""ArrowUp,ArrowRight"":10,""ArrowDown,ArrowLeft"":5,""ArrowDown,ArrowRight"":17}","false","ArrowDown,ArrowLeft","false","","","revaluation","2","2","","",""
"html-keyboard-response","288","1234992","0.0-4.0-2.1-1.51","spark_pilot_2","7131","3","9","Male","","","","","","","null","<div style=""font-size:60px;"">+</div>","null","fixation","","","","","","","","","","","3","","",""
"revaluation","289","1241013","0.0-4.0-2.1-0.52","spark_pilot_2","7131","3","9","Male","","false","","","","","[581.6999999997206,1019.1000000000931]","./assets/img/canyon/memory/0.jpg","[""ArrowUp"",""ArrowRight""]","value training","canyon","10","{""ArrowUp,ArrowLeft"":26,""ArrowUp,ArrowRight"":10,""ArrowDown,ArrowLeft"":5,""ArrowDown,ArrowRight"":17}","false","ArrowUp,ArrowRight","false","","","revaluation","2","4","","",""
"html-keyboard-response","290","1241524","0.0-4.0-2.1-1.52","spark_pilot_2","7131","3","9","Male","","","","","","","null","<div style=""font-size:60px;"">+</div>","null","fixation","","","","","","","","","","","5","","",""
"revaluation","291","1247563","0.0-4.0-2.1-0.53","spark_pilot_2","7131","3","9","Male","","false","","","","","[498.1999999997206,302.8000000002794]","./assets/img/canyon/memory/39.jpg","[""ArrowUp"",""ArrowLeft""]","value training","canyon","26","{""ArrowUp,ArrowLeft"":26,""ArrowUp,ArrowRight"":10,""ArrowDown,ArrowLeft"":5,""ArrowDown,ArrowRight"":17}","true","ArrowUp,ArrowLeft","false","","","revaluation","2","6","","",""
"html-keyboard-response","292","1248070","0.0-4.0-2.1-1.53","spark_pilot_2","7131","3","9","Male","","","","","","","null","<div style=""font-size:60px;"">+</div>","null","fixation","","","","","","","","","","","7","","",""
"revaluation","293","1254081","0.0-4.0-2.1-0.54","spark_pilot_2","7131","3","9","Male","","false","","","","","[431.5,345.89999999990687]","./assets/img/canyon/memory/8.jpg","[""ArrowUp"",""ArrowLeft""]","value training","canyon","26","{""ArrowUp,ArrowLeft"":26,""ArrowUp,ArrowRight"":10,""ArrowDown,ArrowLeft"":5,""ArrowDown,ArrowRight"":17}","true","ArrowUp,ArrowLeft","false","","","revaluation","2","8","","",""
"html-keyboard-response","294","1254584","0.0-4.0-2.1-1.54","spark_pilot_2","7131","3","9","Male","","","","","","","null","<div style=""font-size:60px;"">+</div>","null","fixation","","","","","","","","","","","9","","",""
"revaluation","295","1260591","0.0-4.0-2.1-0.55","spark_pilot_2","7131","3","9","Male","","false","","","","","[430.1999999997206,244.6999999997206]","./assets/img/canyon/memory/38.jpg","[""ArrowUp"",""ArrowLeft""]","value training","canyon","26","{""ArrowUp,ArrowLeft"":26,""ArrowUp,ArrowRight"":10,""ArrowDown,ArrowLeft"":5,""ArrowDown,ArrowRight"":17}","true","ArrowUp,ArrowLeft","false","","","revaluation","2","10","","",""
"html-keyboard-response","296","1261093","0.0-4.0-2.1-1.55","spark_pilot_2","7131","3","9","Male","","","","","","","null","<div style=""font-size:60px;"">+</div>","null","fixation","","","","","","","","","","","11","","",""
"revaluation","297","1267101","0.0-4.0-2.1-0.56","spark_pilot_2","7131","3","9","Male","","false","","","","","[648,439.39999999990687]","./assets/img/canyon/memory/9.jpg","[""ArrowUp"",""ArrowLeft""]","value training","canyon","26","{""ArrowUp,ArrowLeft"":26,""ArrowUp,ArrowRight"":10,""ArrowDown,ArrowLeft"":5,""ArrowDown,ArrowRight"":17}","true","ArrowUp,ArrowLeft","false","","","revaluation","2","12","","",""
"html-keyboard-response","298","1267604","0.0-4.0-2.1-1.56","spark_pilot_2","7131","3","9","Male","","","","","","","null","<div style=""font-size:60px;"">+</div>","null","fixation","","","","","","","","","","","13","","",""
"revaluation","299","1271611","0.0-4.0-2.1-0.57","spark_pilot_2","7131","3","9","Male","","false","","","","","[530.5]","./assets/img/canyon/catch/7.jpg","[""spaceBar""]","value training","canyon","0","{""ArrowUp,ArrowLeft"":26,""ArrowUp,ArrowRight"":10,""ArrowDown,ArrowLeft"":5,""ArrowDown,ArrowRight"":17}","true","spaceBar","true","","","revaluation","2","14","","",""
"html-keyboard-response","300","1272114","0.0-4.0-2.1-1.57","spark_pilot_2","7131","3","9","Male","","","","","","","null","<div style=""font-size:60px;"">+</div>","null","fixation","","","","","","","","","","","15","","",""
"revaluation","301","1278122","0.0-4.0-2.1-0.58","spark_pilot_2","7131","3","9","Male","","false","","","","","[803.7000000001863,418.29999999981374]","./assets/img/canyon/memory/27.jpg","[""ArrowUp"",""ArrowLeft""]","value training","canyon","26","{""ArrowUp,ArrowLeft"":26,""ArrowUp,ArrowRight"":10,""ArrowDown,ArrowLeft"":5,""ArrowDown,ArrowRight"":17}","true","ArrowUp,ArrowLeft","false","","","revaluation","2","16","","",""
"html-keyboard-response","302","1278624","0.0-4.0-2.1-1.58","spark_pilot_2","7131","3","9","Male","","","","","","","null","<div style=""font-size:60px;"">+</div>","null","fixation","","","","","","","","","","","17","","",""
"revaluation","303","1282630","0.0-4.0-2.1-0.59","spark_pilot_2","7131","3","9","Male","","false","","","","","[685.7999999998137]","./assets/img/canyon/catch/4.jpg","[""spaceBar""]","value training","canyon","0","{""ArrowUp,ArrowLeft"":26,""ArrowUp,ArrowRight"":10,""ArrowDown,ArrowLeft"":5,""ArrowDown,ArrowRight"":17}","true","spaceBar","true","","","revaluation","2","18","","",""
"html-keyboard-response","304","1283132","0.0-4.0-2.1-1.59","spark_pilot_2","7131","3","9","Male","","","","","","","null","<div style=""font-size:60px;"">+</div>","null","fixation","","","","","","","","","","","19","","",""
"revaluation","305","1287138","0.0-4.0-2.1-0.60","spark_pilot_2","7131","3","9","Male","","false","","","","","[1209.2999999998137]","./assets/img/canyon/catch/2.jpg","[""spaceBar""]","value training","canyon","0","{""ArrowUp,ArrowLeft"":26,""ArrowUp,ArrowRight"":10,""ArrowDown,ArrowLeft"":5,""ArrowDown,ArrowRight"":17}","true","spaceBar","true","","","revaluation","2","20","","",""
"html-keyboard-response","306","1287647","0.0-4.0-2.1-1.60","spark_pilot_2","7131","3","9","Male","","","","","","","null","<div style=""font-size:60px;"">+</div>","null","fixation","","","","","","","","","","","21","","",""
"revaluation","307","1291655","0.0-4.0-2.1-0.61","spark_pilot_2","7131","3","9","Male","","false","","","","","[606.5999999996275]","./assets/img/canyon/catch/0.jpg","[""spaceBar""]","value training","canyon","0","{""ArrowUp,ArrowLeft"":26,""ArrowUp,ArrowRight"":10,""ArrowDown,ArrowLeft"":5,""ArrowDown,ArrowRight"":17}","true","spaceBar","true","","","revaluation","2","22","","",""
"html-keyboard-response","308","1292156","0.0-4.0-2.1-1.61","spark_pilot_2","7131","3","9","Male","","","","","","","null","<div style=""font-size:60px;"">+</div>","null","fixation","","","","","","","","","","","23","","",""
