"trial_type","trial_index","time_elapsed","internal_node_id","task_version","subject_id","assigned_condition","age","gender","success","timeout","failed_images","failed_audio","failed_video","browser_interaction","rt","stimulus","response","task_part","environment","score","rewardMap","correct","fullState","isCatch","numberMissed","duration","condition","order","trial_num","key_press","ground_truth","bonus"
"pavlovia","0","1697","0.0-0.0","spark_pilot_2","7479","3","21","Male","","","","","","","","","","","","","","","","","","","","","","","",""
"preload","1","19610","0.0-1.0","spark_pilot_2","7479","3","21","Male","true","false","[]","[]","[]","[{""event"":""fullscreenenter"",""trial"":2,""time"":26306}]","","","","","","","","","","","","","","","","","",""
"fullscreen","2","27269","0.0-2.0","spark_pilot_2","7479","3","21","Male","true","","","","","","","","","","","","","","","","","","","","","","",""
"audio-button-response","3","28784","0.0-3.0-0.0-0.0","spark_pilot_2","7479","3","21","Male","","","","","","","661","./assets/audio/audiotest/turtle.mp3","2","audio_test","","","","","","","","","","","","","",""
"learning-instructions","4","39456","0.0-3.0-1.0-0.0","spark_pilot_2","7479","3","21","Male","","","","","","","3649.89999999851","<p> Welcome! Please remember to stay in fullscreen mode and don't click away from the experiment. </p>","","instructions","","","","","","","","","","","","","",""
"learning-instructions","5","51460","0.0-3.0-1.0-0.1","spark_pilot_2","7479","3","21","Male","","","","","","","3564.0999999940395","<p> Today you will be playing a game to earn treasure. </p>
            <p> At the end of the experiment, you will earn a bonus based on how much treasure you find. </p>
            <img src='./assets/img/instructions/treasure.jpg' class='instructions-image'>","","instructions","","","","","","","","","","","","","",""
"learning-instructions","6","61966","0.0-3.0-1.0-0.2","spark_pilot_2","7479","3","21","Male","","","","","","","2219.2000000029802","<p> Animals have hidden treasure in treasure chests. </p>
            <p> You need to first find an animal and then choose which of their treasure chests to search. </p>
            <img src='./assets/img/space/animals/cat.jpg' class='instructions-image'>","","instructions","","","","","","","","","","","","","",""
"learning-instructions","7","102314","0.0-3.0-1.0-0.3","spark_pilot_2","7479","3","21","Male","","","","","","","27168.30000000447","<p> In each round, you will search for treasure in a different place. In the real game, there will be two rounds. </p>
            <p> You will begin with a separate, practice round where you will search for treasure in outer space. </p>
            <img src='./assets/img/space/0.jpg' class='instructions-image'>","","instructions","","","","","","","","","","","","","",""
"learning-instructions","8","117078","0.0-3.0-1.0-0.4","spark_pilot_2","7479","3","21","Male","","","","","","","3312.10000000149","<p> On every turn, you will see a picture of the place that you are in, but the specific image may be different each time. </p>
            <p> For example, both of these images mean you are in outer space. </p>
            <img src='./assets/img/instructions/outerspace.jpg' class='instructions-image'>","","instructions","","","","","","","","","","","","","",""
"learning-instructions","9","126600","0.0-3.0-1.0-0.5","spark_pilot_2","7479","3","21","Male","","","","","","","1672","<p> You need to decide which direction to travel in. </p>
            <p> You can choose between going <b>up or down</b> by using the arrow keys. </p>
            <img src='./assets/img/instructions/updown.jpg' class='instructions-image'>","","instructions","","","","","","","","","","","","","",""
"learning-instructions","10","234591","0.0-3.0-1.0-0.6","spark_pilot_2","7479","3","21","Male","","","","","","","99144.39999999851","<p> You will have <b>2 seconds</b> to make your choice. </p>
            <p> If you do not make a choice within 2 seconds, you will not find an animal or earn treasure. </p>
            <img src='./assets/img/instructions/2seconds.jpg' class='instructions-image'>","","instructions","","","","","","","","","","","","","",""
"learning-instructions","11","245042","0.0-3.0-1.0-0.7","spark_pilot_2","7479","3","21","Male","","","","","","","2484.7000000029802","<p> Let’s try practicing that now! </p>
            <p> When you see a picture of the place you are in, press the <b>up</b> key to travel up. </p>
            <img src='./assets/img/instructions/pressUp.jpg' class='instructions-image'>","","instructions","","","","","","","","","","","","","",""
"revaluation","12","249067","0.0-3.0-2.0-0.0","spark_pilot_2","7479","3","21","Male","","false","","","","","[1580.2999999970198]","./assets/img/space/0.jpg","[""ArrowUp""]","first stage practice","space","0","null","null","ArrowUp","false","","","","","","","",""
"html-keyboard-response","13","249586","0.0-3.0-2.0-1.0","spark_pilot_2","7479","3","21","Male","","","","","","","null","<div style=""font-size:60px;"">+</div>","null","fixation","","","","","","","","","","","","","",""
"revaluation","14","253601","0.0-3.0-2.0-0.1","spark_pilot_2","7479","3","21","Male","","false","","","","","[1349.6000000014901]","./assets/img/space/1.jpg","[""ArrowUp""]","first stage practice","space","0","null","null","ArrowUp","false","","","","","","","",""
"html-keyboard-response","15","254116","0.0-3.0-2.0-1.1","spark_pilot_2","7479","3","21","Male","","","","","","","null","<div style=""font-size:60px;"">+</div>","null","fixation","","","","","","","","","","","","","",""
"revaluation","16","258143","0.0-3.0-2.0-0.2","spark_pilot_2","7479","3","21","Male","","false","","","","","[847]","./assets/img/space/2.jpg","[""ArrowUp""]","first stage practice","space","0","null","null","ArrowUp","false","","","","","","","",""
"html-keyboard-response","17","258647","0.0-3.0-2.0-1.2","spark_pilot_2","7479","3","21","Male","","","","","","","null","<div style=""font-size:60px;"">+</div>","null","fixation","","","","","","","","","","","","","",""
"learning-instructions","18","264786","0.0-3.0-3.0-0.0","spark_pilot_2","7479","3","21","Male","","","","","","","1419.3000000044703","<p> Great job! Now try pressing the <b>down</b> key to travel down. </p>
            <img src='./assets/img/instructions/pressDown.jpg' class='instructions-image'>","","instructions","","","","","","","","","","","","","",""
"revaluation","19","268806","0.0-3.0-4.0-0.0","spark_pilot_2","7479","3","21","Male","","false","","","","","[608.6000000014901]","./assets/img/space/3.jpg","[""ArrowDown""]","first stage practice","space","0","null","null","ArrowDown","false","","","","","","","",""
"html-keyboard-response","20","269309","0.0-3.0-4.0-1.0","spark_pilot_2","7479","3","21","Male","","","","","","","null","<div style=""font-size:60px;"">+</div>","null","fixation","","","","","","","","","","","","","",""
"revaluation","21","273335","0.0-3.0-4.0-0.1","spark_pilot_2","7479","3","21","Male","","false","","","","","[294]","./assets/img/space/4.jpg","[""ArrowDown""]","first stage practice","space","0","null","null","ArrowDown","false","","","","","","","",""
"html-keyboard-response","22","273847","0.0-3.0-4.0-1.1","spark_pilot_2","7479","3","21","Male","","","","","","","null","<div style=""font-size:60px;"">+</div>","null","fixation","","","","","","","","","","","","","",""
"revaluation","23","277859","0.0-3.0-4.0-0.2","spark_pilot_2","7479","3","21","Male","","false","","","","","[340.6000000014901]","./assets/img/space/5.jpg","[""ArrowDown""]","first stage practice","space","0","null","null","ArrowDown","false","","","","","","","",""
"html-keyboard-response","24","278371","0.0-3.0-4.0-1.2","spark_pilot_2","7479","3","21","Male","","","","","","","null","<div style=""font-size:60px;"">+</div>","null","fixation","","","","","","","","","","","","","",""
"learning-instructions","25","289312","0.0-3.0-5.0-0.0","spark_pilot_2","7479","3","21","Male","","","","","","","1045.8999999985099","<p> The animals don’t move, so the animal in the upper part of a place will stay in the upper part of a place, and the animal in the lower part of a place will stay in the lower part of a place. </p>","","instructions","","","","","","","","","","","","","",""
"learning-instructions","26","300165","0.0-3.0-5.0-0.1","spark_pilot_2","7479","3","21","Male","","","","","","","1687.5","<p> Each animal has two treasure chests for you to choose from. </p>
            <p> The amount of treasure in each chest can range from <b> 0 to 40 pieces.</b></p>","","instructions","","","","","","","","","","","","","",""
"learning-instructions","27","312797","0.0-3.0-5.0-0.2","spark_pilot_2","7479","3","21","Male","","","","","","","1359.2999999970198","<p> You should decide which chest to search for treasure by using the <b>left</b> and <b>right</b> arrow keys. </p>
            <p><b> Pay attention to which animal is on the screen, as the animals have different treasure chests. </b></p>
            <img src='./assets/img/instructions/leftright.jpg' class='instructions-image'>","","instructions","","","","","","","","","","","","","",""
"learning-instructions","28","320194","0.0-3.0-5.0-0.3","spark_pilot_2","7479","3","21","Male","","","","","","","1006.7999999970198","<p> Let’s try practicing that now. </p>
            <p> When you see an animal, choose which chest to search for treasure. </p>
            <img src='./assets/img/instructions/chooseChest.jpg' class='instructions-image'>","","instructions","","","","","","","","","","","","","",""
"revaluation","29","324223","0.0-3.0-6.0-0.0","spark_pilot_2","7479","3","21","Male","","false","","","","","[848.6000000014901]","./assets/img/space/animals/cat.jpg","[""ArrowRight""]","second stage practice","space","36","{""ArrowUp,ArrowLeft"":3,""ArrowUp,ArrowRight"":36,""ArrowDown,ArrowLeft"":15,""ArrowDown,ArrowRight"":23}","true","ArrowUp,ArrowRight","","","","","","","","",""
"html-keyboard-response","30","324729","0.0-3.0-6.0-1.0","spark_pilot_2","7479","3","21","Male","","","","","","","null","<div style=""font-size:60px;"">+</div>","null","fixation","","","","","","","","","","","","","",""
"revaluation","31","328756","0.0-3.0-6.0-0.1","spark_pilot_2","7479","3","21","Male","","false","","","","","[1343.1000000014901]","./assets/img/space/animals/rabbit.jpg","[""ArrowRight""]","second stage practice","space","23","{""ArrowUp,ArrowLeft"":3,""ArrowUp,ArrowRight"":36,""ArrowDown,ArrowLeft"":15,""ArrowDown,ArrowRight"":23}","true","ArrowDown,ArrowRight","","","","","","","","",""
"html-keyboard-response","32","329266","0.0-3.0-6.0-1.1","spark_pilot_2","7479","3","21","Male","","","","","","","null","<div style=""font-size:60px;"">+</div>","null","fixation","","","","","","","","","","","","","",""
"revaluation","33","333285","0.0-3.0-6.0-0.2","spark_pilot_2","7479","3","21","Male","","false","","","","","[719.3000000044703]","./assets/img/space/animals/rabbit.jpg","[""ArrowLeft""]","second stage practice","space","15","{""ArrowUp,ArrowLeft"":3,""ArrowUp,ArrowRight"":36,""ArrowDown,ArrowLeft"":15,""ArrowDown,ArrowRight"":23}","false","ArrowDown,ArrowLeft","","","","","","","","",""
"html-keyboard-response","34","333802","0.0-3.0-6.0-1.2","spark_pilot_2","7479","3","21","Male","","","","","","","null","<div style=""font-size:60px;"">+</div>","null","fixation","","","","","","","","","","","","","",""
"revaluation","35","337829","0.0-3.0-6.0-0.3","spark_pilot_2","7479","3","21","Male","","false","","","","","[750.6999999955297]","./assets/img/space/animals/cat.jpg","[""ArrowLeft""]","second stage practice","space","3","{""ArrowUp,ArrowLeft"":3,""ArrowUp,ArrowRight"":36,""ArrowDown,ArrowLeft"":15,""ArrowDown,ArrowRight"":23}","false","ArrowUp,ArrowLeft","","","","","","","","",""
"html-keyboard-response","36","338344","0.0-3.0-6.0-1.3","spark_pilot_2","7479","3","21","Male","","","","","","","null","<div style=""font-size:60px;"">+</div>","null","fixation","","","","","","","","","","","","","",""
"learning-instructions","37","356496","0.0-3.0-7.0-0.0","spark_pilot_2","7479","3","21","Male","","","","","","","1300","<p> Great job. Now let’s try putting it together. </p>
            <p> On each turn, you will first see a picture to remind you of the place you are in, and you need to choose whether to go up or down. </p>
            <p> Then you will see an animal and choose which of its chests to search for treasure. </p>","","instructions","","","","","","","","","","","","","",""
"learning-instructions","38","366202","0.0-3.0-7.0-0.1","spark_pilot_2","7479","3","21","Male","","","","","","","1416.3999999985099","<p> When you choose whether to go up or down, try to go to the animal with the chest with the most treasure. </p>
            <p> Try practicing that now! </p>","","instructions","","","","","","","","","","","","","",""
"revaluation","39","372226","0.0-3.0-8.0-0.0","spark_pilot_2","7479","3","21","Male","","false","","","","","[753.4000000059605,721]","./assets/img/space/6.jpg","[""ArrowUp"",""ArrowLeft""]","full practice","space","3","{""ArrowUp,ArrowLeft"":3,""ArrowUp,ArrowRight"":36,""ArrowDown,ArrowLeft"":15,""ArrowDown,ArrowRight"":23}","false","ArrowUp,ArrowLeft","false","","","","","","","",""
"html-keyboard-response","40","372729","0.0-3.0-8.0-1.0","spark_pilot_2","7479","3","21","Male","","","","","","","null","<div style=""font-size:60px;"">+</div>","null","fixation","","","","","","","","","","","","","",""
"revaluation","41","378760","0.0-3.0-8.0-0.1","spark_pilot_2","7479","3","21","Male","","false","","","","","[472.19999999552965,655.1000000014901]","./assets/img/space/7.jpg","[""ArrowUp"",""ArrowRight""]","full practice","space","36","{""ArrowUp,ArrowLeft"":3,""ArrowUp,ArrowRight"":36,""ArrowDown,ArrowLeft"":15,""ArrowDown,ArrowRight"":23}","true","ArrowUp,ArrowRight","false","","","","","","","",""
"html-keyboard-response","42","379268","0.0-3.0-8.0-1.1","spark_pilot_2","7479","3","21","Male","","","","","","","null","<div style=""font-size:60px;"">+</div>","null","fixation","","","","","","","","","","","","","",""
"revaluation","43","385306","0.0-3.0-8.0-0.2","spark_pilot_2","7479","3","21","Male","","false","","","","","[448.20000000298023,547.1000000014901]","./assets/img/space/8.jpg","[""ArrowDown"",""ArrowLeft""]","full practice","space","15","{""ArrowUp,ArrowLeft"":3,""ArrowUp,ArrowRight"":36,""ArrowDown,ArrowLeft"":15,""ArrowDown,ArrowRight"":23}","false","ArrowDown,ArrowLeft","false","","","","","","","",""
"html-keyboard-response","44","385819","0.0-3.0-8.0-1.2","spark_pilot_2","7479","3","21","Male","","","","","","","null","<div style=""font-size:60px;"">+</div>","null","fixation","","","","","","","","","","","","","",""
"revaluation","45","391849","0.0-3.0-8.0-0.3","spark_pilot_2","7479","3","21","Male","","false","","","","","[1014.7000000029802,501.5]","./assets/img/space/9.jpg","[""ArrowDown"",""ArrowRight""]","full practice","space","23","{""ArrowUp,ArrowLeft"":3,""ArrowUp,ArrowRight"":36,""ArrowDown,ArrowLeft"":15,""ArrowDown,ArrowRight"":23}","false","ArrowDown,ArrowRight","false","","","","","","","",""
"html-keyboard-response","46","392351","0.0-3.0-8.0-1.3","spark_pilot_2","7479","3","21","Male","","","","","","","null","<div style=""font-size:60px;"">+</div>","null","fixation","","","","","","","","","","","","","",""
"revaluation","47","398370","0.0-3.0-8.0-0.4","spark_pilot_2","7479","3","21","Male","","false","","","","","[299.19999999552965,298.69999999552965]","./assets/img/space/10.jpg","[""ArrowUp"",""ArrowRight""]","full practice","space","36","{""ArrowUp,ArrowLeft"":3,""ArrowUp,ArrowRight"":36,""ArrowDown,ArrowLeft"":15,""ArrowDown,ArrowRight"":23}","true","ArrowUp,ArrowRight","false","","","","","","","",""
"html-keyboard-response","48","398872","0.0-3.0-8.0-1.4","spark_pilot_2","7479","3","21","Male","","","","","","","null","<div style=""font-size:60px;"">+</div>","null","fixation","","","","","","","","","","","","","",""
"learning-instructions","49","410591","0.0-3.0-9.0-0.0","spark_pilot_2","7479","3","21","Male","","","","","","","1203.3000000044703","<p> One last thing: sometimes, you will see a robber. The robber can be anywhere in the picture. </p>
            <p> If you do not stop them, you will lose treasure. </p>
            <img src='./assets/img/instructions/robber.jpg' class='instructions-image'>","","instructions","","","","","","","","","","","","","",""
"learning-instructions","50","418269","0.0-3.0-9.0-0.1","spark_pilot_2","7479","3","21","Male","","","","","","","480.80000000447035","<p> If you see the robber, you should <b>press the space bar</b> rather than using the arrow keys. </p>
            <p> Try practicing that now! </p>","","instructions","","","","","","","","","","","","","",""
"revaluation","51","422285","0.0-3.0-10.0-0.0","spark_pilot_2","7479","3","21","Male","","false","","","","","[859.6000000014901]","./assets/img/space/catch/0.jpg","[""spaceBar""]","catch practice","space","0","{""ArrowUp,ArrowLeft"":3,""ArrowUp,ArrowRight"":36,""ArrowDown,ArrowLeft"":15,""ArrowDown,ArrowRight"":23}","true","spaceBar","true","","","","","","","",""
"html-keyboard-response","52","422800","0.0-3.0-10.0-1.0","spark_pilot_2","7479","3","21","Male","","","","","","","null","<div style=""font-size:60px;"">+</div>","null","fixation","","","","","","","","","","","","","",""
"revaluation","53","426826","0.0-3.0-10.0-0.1","spark_pilot_2","7479","3","21","Male","","false","","","","","[570.1999999955297]","./assets/img/space/catch/1.jpg","[""spaceBar""]","catch practice","space","0","{""ArrowUp,ArrowLeft"":3,""ArrowUp,ArrowRight"":36,""ArrowDown,ArrowLeft"":15,""ArrowDown,ArrowRight"":23}","true","spaceBar","true","","","","","","","",""
"html-keyboard-response","54","427338","0.0-3.0-10.0-1.1","spark_pilot_2","7479","3","21","Male","","","","","","","null","<div style=""font-size:60px;"">+</div>","null","fixation","","","","","","","","","","","","","",""
"revaluation","55","431350","0.0-3.0-10.0-0.2","spark_pilot_2","7479","3","21","Male","","false","","","","","[397.09999999403954]","./assets/img/space/catch/2.jpg","[""spaceBar""]","catch practice","space","0","{""ArrowUp,ArrowLeft"":3,""ArrowUp,ArrowRight"":36,""ArrowDown,ArrowLeft"":15,""ArrowDown,ArrowRight"":23}","true","spaceBar","true","","","","","","","",""
"html-keyboard-response","56","431854","0.0-3.0-10.0-1.2","spark_pilot_2","7479","3","21","Male","","","","","","","null","<div style=""font-size:60px;"">+</div>","null","fixation","","","","","","","","","","","","","",""
"learning-instructions","57","447793","0.0-3.0-11.0-0.0","spark_pilot_2","7479","3","21","Male","","","","","","","2314.5","<p> After you explore a place to find treasure, it will be time to play a different game. </p>
            <p> During this game, red dots will appear on the screen and fall down slowly. </p>
            <p><b> You must click on them before they reach the bottom. </b></p>
            <img src='./assets/img/instructions/dotGame.jpg' class='instructions-image'>","","instructions","","","","","","","","","","","","","",""
"learning-instructions","58","454409","0.0-3.0-11.0-0.1","spark_pilot_2","7479","3","21","Male","","","","","","","911.8999999985099","<p> For every dot you click, you will earn additional treasure. </p>
            <p> Let’s try practicing that now. </p>","","instructions","","","","","","","","","","","","","",""
"revaluation","59","469424","0.0-3.0-12.0-0.0","spark_pilot_2","7479","3","21","Male","","","","","","","[129,92]","","","rest practice","","20","","","","","0","15000","","","","","",""
"learning-instructions","60","477380","0.0-3.0-13.0-0.0-0.0","spark_pilot_2","7479","3","21","Male","","","","","","","2662.39999999851","<p> Now, you will practice a shortened version of the game to get a sense of how it all fits together. </p>","","instructions","","","","","","","","","","","","","",""
"learning-instructions","61","488463","0.0-3.0-13.0-0.0-0.1","spark_pilot_2","7479","3","21","Male","","","","","","","7875.20000000298","<p>This time you are searching for treasure in outer space.</p>","","instructions","","","","","","","","","","","","","",""
"learning-instructions","62","561451","0.0-3.0-13.0-1.0-0.0","spark_pilot_2","7479","3","21","Male","","","","","","","58192.10000000149","<p> Remember, when you see a picture of the place, use the up and down keys to <b>find an animal</b>.</p>
            <p> When you encounter an animal, you should use the left and right keys to <b>select a treasure chest</b>.</p>
            <p> Don't forget to look out for the robber! </p>","","instructions","","","","","","","","","","","","","",""
"revaluation","63","567459","0.0-3.0-13.0-2.0-0.0","spark_pilot_2","7479","3","21","Male","","false","","","","","[1233.1000000014901,783.6999999955297]","./assets/img/space/11.jpg","[""ArrowUp"",""ArrowRight""]","practice block","space","36","{""ArrowUp,ArrowLeft"":3,""ArrowUp,ArrowRight"":36,""ArrowDown,ArrowLeft"":15,""ArrowDown,ArrowRight"":23}","true","ArrowUp,ArrowRight","false","","","","","","","",""
"html-keyboard-response","64","567961","0.0-3.0-13.0-2.0-1.0","spark_pilot_2","7479","3","21","Male","","","","","","","null","<div style=""font-size:60px;"">+</div>","null","fixation","","","","","","","","","","","","","",""
"revaluation","65","573970","0.0-3.0-13.0-2.0-0.1","spark_pilot_2","7479","3","21","Male","","false","","","","","[399.20000000298023,798.3000000044703]","./assets/img/space/12.jpg","[""ArrowDown"",""ArrowRight""]","practice block","space","23","{""ArrowUp,ArrowLeft"":3,""ArrowUp,ArrowRight"":36,""ArrowDown,ArrowLeft"":15,""ArrowDown,ArrowRight"":23}","false","ArrowDown,ArrowRight","false","","","","","","","",""
"html-keyboard-response","66","574472","0.0-3.0-13.0-2.0-1.1","spark_pilot_2","7479","3","21","Male","","","","","","","null","<div style=""font-size:60px;"">+</div>","null","fixation","","","","","","","","","","","","","",""
"revaluation","67","580479","0.0-3.0-13.0-2.0-0.2","spark_pilot_2","7479","3","21","Male","","false","","","","","[1092.7000000029802,464.3999999985099]","./assets/img/space/13.jpg","[""ArrowUp"",""ArrowLeft""]","practice block","space","3","{""ArrowUp,ArrowLeft"":3,""ArrowUp,ArrowRight"":36,""ArrowDown,ArrowLeft"":15,""ArrowDown,ArrowRight"":23}","false","ArrowUp,ArrowLeft","false","","","","","","","",""
"html-keyboard-response","68","580980","0.0-3.0-13.0-2.0-1.2","spark_pilot_2","7479","3","21","Male","","","","","","","null","<div style=""font-size:60px;"">+</div>","null","fixation","","","","","","","","","","","","","",""
"revaluation","69","586989","0.0-3.0-13.0-2.0-0.3","spark_pilot_2","7479","3","21","Male","","false","","","","","[409.79999999701977,409.8999999985099]","./assets/img/space/14.jpg","[""ArrowUp"",""ArrowRight""]","practice block","space","36","{""ArrowUp,ArrowLeft"":3,""ArrowUp,ArrowRight"":36,""ArrowDown,ArrowLeft"":15,""ArrowDown,ArrowRight"":23}","true","ArrowUp,ArrowRight","false","","","","","","","",""
"html-keyboard-response","70","587491","0.0-3.0-13.0-2.0-1.3","spark_pilot_2","7479","3","21","Male","","","","","","","null","<div style=""font-size:60px;"">+</div>","null","fixation","","","","","","","","","","","","","",""
"revaluation","71","593499","0.0-3.0-13.0-2.0-0.4","spark_pilot_2","7479","3","21","Male","","false","","","","","[425.29999999701977,404.8999999985099]","./assets/img/space/11.jpg","[""ArrowUp"",""ArrowRight""]","practice block","space","36","{""ArrowUp,ArrowLeft"":3,""ArrowUp,ArrowRight"":36,""ArrowDown,ArrowLeft"":15,""ArrowDown,ArrowRight"":23}","true","ArrowUp,ArrowRight","false","","","","","","","",""
"html-keyboard-response","72","594001","0.0-3.0-13.0-2.0-1.4","spark_pilot_2","7479","3","21","Male","","","","","","","null","<div style=""font-size:60px;"">+</div>","null","fixation","","","","","","","","","","","","","",""
"revaluation","73","598008","0.0-3.0-13.0-2.0-0.5","spark_pilot_2","7479","3","21","Male","","true","","","","","[]","./assets/img/space/12.jpg","[]","practice block","space","-5","{""ArrowUp,ArrowLeft"":3,""ArrowUp,ArrowRight"":36,""ArrowDown,ArrowLeft"":15,""ArrowDown,ArrowRight"":23}","false","","false","","","","","","","",""
"html-keyboard-response","74","598510","0.0-3.0-13.0-2.0-1.5","spark_pilot_2","7479","3","21","Male","","","","","","","null","<div style=""font-size:60px;"">+</div>","null","fixation","","","","","","","","","","","","","",""
"revaluation","75","604518","0.0-3.0-13.0-2.0-0.6","spark_pilot_2","7479","3","21","Male","","false","","","","","[315.79999999701977,341.6000000014901]","./assets/img/space/13.jpg","[""ArrowUp"",""ArrowRight""]","practice block","space","36","{""ArrowUp,ArrowLeft"":3,""ArrowUp,ArrowRight"":36,""ArrowDown,ArrowLeft"":15,""ArrowDown,ArrowRight"":23}","true","ArrowUp,ArrowRight","false","","","","","","","",""
"html-keyboard-response","76","605020","0.0-3.0-13.0-2.0-1.6","spark_pilot_2","7479","3","21","Male","","","","","","","null","<div style=""font-size:60px;"">+</div>","null","fixation","","","","","","","","","","","","","",""
"revaluation","77","611031","0.0-3.0-13.0-2.0-0.7","spark_pilot_2","7479","3","21","Male","","false","","","","","[431,850.7999999970198]","./assets/img/space/14.jpg","[""ArrowUp"",""ArrowRight""]","practice block","space","36","{""ArrowUp,ArrowLeft"":3,""ArrowUp,ArrowRight"":36,""ArrowDown,ArrowLeft"":15,""ArrowDown,ArrowRight"":23}","true","ArrowUp,ArrowRight","false","","","","","","","",""
"html-keyboard-response","78","611533","0.0-3.0-13.0-2.0-1.7","spark_pilot_2","7479","3","21","Male","","","","","","","null","<div style=""font-size:60px;"">+</div>","null","fixation","","","","","","","","","","","","","",""
"revaluation","79","615539","0.0-3.0-13.0-2.0-0.8","spark_pilot_2","7479","3","21","Male","","false","","","","","[311.59999999403954]","./assets/img/space/catch/3.jpg","[""ArrowUp""]","practice block","space","-10","{""ArrowUp,ArrowLeft"":3,""ArrowUp,ArrowRight"":36,""ArrowDown,ArrowLeft"":15,""ArrowDown,ArrowRight"":23}","false","ArrowUp","true","","","","","","","",""
"html-keyboard-response","80","616041","0.0-3.0-13.0-2.0-1.8","spark_pilot_2","7479","3","21","Male","","","","","","","null","<div style=""font-size:60px;"">+</div>","null","fixation","","","","","","","","","","","","","",""
"learning-instructions","81","632792","0.0-3.0-13.0-3.0-0.0","spark_pilot_2","7479","3","21","Male","","","","","","","2656.5","<p> Now, you will travel with a friend who will choose whether you go up or down first. </p>
            <p> On these turns, you will just see the animal that they found. You will still get to choose which chest to search for treasure.</p>","","instructions","","","","","","","","","","","","","",""
"revaluation","82","636812","0.0-3.0-13.0-4.0-0.0","spark_pilot_2","7479","3","21","Male","","false","","","","","[1026.8999999985099]","./assets/img/space/animals/rabbit.jpg","[""ArrowRight""]","practice block","space","23","{""ArrowUp,ArrowLeft"":3,""ArrowUp,ArrowRight"":36,""ArrowDown,ArrowLeft"":15,""ArrowDown,ArrowRight"":23}","true","ArrowDown,ArrowRight","","","","","","","","",""
"html-keyboard-response","83","637328","0.0-3.0-13.0-4.0-1.0","spark_pilot_2","7479","3","21","Male","","","","","","","null","<div style=""font-size:60px;"">+</div>","null","fixation","","","","","","","","","","","","","",""
"revaluation","84","641345","0.0-3.0-13.0-4.0-0.1","spark_pilot_2","7479","3","21","Male","","false","","","","","[556.8000000044703]","./assets/img/space/animals/cat.jpg","[""ArrowRight""]","practice block","space","36","{""ArrowUp,ArrowLeft"":3,""ArrowUp,ArrowRight"":36,""ArrowDown,ArrowLeft"":15,""ArrowDown,ArrowRight"":23}","true","ArrowUp,ArrowRight","","","","","","","","",""
"html-keyboard-response","85","641861","0.0-3.0-13.0-4.0-1.1","spark_pilot_2","7479","3","21","Male","","","","","","","null","<div style=""font-size:60px;"">+</div>","null","fixation","","","","","","","","","","","","","",""
"revaluation","86","645885","0.0-3.0-13.0-4.0-0.2","spark_pilot_2","7479","3","21","Male","","false","","","","","[290.70000000298023]","./assets/img/space/animals/cat.jpg","[""ArrowRight""]","practice block","space","36","{""ArrowUp,ArrowLeft"":3,""ArrowUp,ArrowRight"":36,""ArrowDown,ArrowLeft"":15,""ArrowDown,ArrowRight"":23}","true","ArrowUp,ArrowRight","","","","","","","","",""
"html-keyboard-response","87","646390","0.0-3.0-13.0-4.0-1.2","spark_pilot_2","7479","3","21","Male","","","","","","","null","<div style=""font-size:60px;"">+</div>","null","fixation","","","","","","","","","","","","","",""
"revaluation","88","650415","0.0-3.0-13.0-4.0-0.3","spark_pilot_2","7479","3","21","Male","","false","","","","","[405]","./assets/img/space/animals/rabbit.jpg","[""ArrowRight""]","practice block","space","23","{""ArrowUp,ArrowLeft"":3,""ArrowUp,ArrowRight"":36,""ArrowDown,ArrowLeft"":15,""ArrowDown,ArrowRight"":23}","true","ArrowDown,ArrowRight","","","","","","","","",""
"html-keyboard-response","89","650931","0.0-3.0-13.0-4.0-1.3","spark_pilot_2","7479","3","21","Male","","","","","","","null","<div style=""font-size:60px;"">+</div>","null","fixation","","","","","","","","","","","","","",""
"learning-instructions","90","659957","0.0-3.0-13.0-5.0-0.0","spark_pilot_2","7479","3","21","Male","","","","","","","1620.8000000044703","<p> Time to play the dot game! </p>
            <p> For 15 seconds, click the red dots on the following screen as they appear. </p>","","instructions","","","","","","","","","","","","","",""
"revaluation","91","674959","0.0-3.0-13.0-6.0-0.0","spark_pilot_2","7479","3","21","Male","","","","","","","[101]","","","rest practice","","10","","","","","0","15000","","","","","",""
"learning-instructions","92","685714","0.0-3.0-13.0-7.0-0.0","spark_pilot_2","7479","3","21","Male","","","","","","","4608.19999999553","<p> You have almost finished this part of the game! </p>
            <p> We are going to ask you to make a few more choices. </p>","","instructions","","","","","","","","","","","","","",""
"learning-instructions","93","701875","0.0-3.0-13.0-7.0-0.1","spark_pilot_2","7479","3","21","Male","","","","","","","2127.89999999851","<p> First, you need to decide whether to go up or down. When you see each picture, use the arrow keys to make your choice. </p>
            <p><b>You will not see which animal you found, but try to get to the one that will give you the most treasure.</b></p>","","instructions","","","","","","","","","","","","","",""
"revaluation","94","702788","0.0-3.0-13.0-8.0","spark_pilot_2","7479","3","21","Male","","false","","","","","[906.3999999985099]","./assets/img/space/15.jpg","[""ArrowDown""]","practice block","space","0","{""ArrowUp,ArrowLeft"":3,""ArrowUp,ArrowRight"":36,""ArrowDown,ArrowLeft"":15,""ArrowDown,ArrowRight"":23}","false","ArrowDown","false","","","","","","","",""
"html-keyboard-response","95","703297","0.0-3.0-13.0-9.0","spark_pilot_2","7479","3","21","Male","","","","","","","null","<div style=""font-size:60px;"">+</div>","null","fixation","","","","","","","","","","","","","",""
"learning-instructions","96","717545","0.0-3.0-13.0-10.0-0.0","spark_pilot_2","7479","3","21","Male","","","","","","","2837.7999999970198","<p> Now you will see the animals again and can search their chests for treasure. </p>
            <p> This time, you will not see how much treasure you earned, but you will earn more bonus money for making better choices. </p>","","instructions","","","","","","","","","","","","","",""
"revaluation","97","718677","0.0-3.0-13.0-11.0-0.0","spark_pilot_2","7479","3","21","Male","","false","","","","","[1128.3999999985099]","./assets/img/space/animals/cat.jpg","[""ArrowRight""]","practice block","space","0","{""ArrowUp,ArrowLeft"":3,""ArrowUp,ArrowRight"":36,""ArrowDown,ArrowLeft"":15,""ArrowDown,ArrowRight"":23}","true","ArrowUp,ArrowRight","","","","","","","","",""
"html-keyboard-response","98","719187","0.0-3.0-13.0-11.0-1.0","spark_pilot_2","7479","3","21","Male","","","","","","","null","<div style=""font-size:60px;"">+</div>","null","fixation","","","","","","","","","","","","","",""
"revaluation","99","720178","0.0-3.0-13.0-11.0-0.1","spark_pilot_2","7479","3","21","Male","","false","","","","","[984.7999999970198]","./assets/img/space/animals/rabbit.jpg","[""ArrowRight""]","practice block","space","0","{""ArrowUp,ArrowLeft"":3,""ArrowUp,ArrowRight"":36,""ArrowDown,ArrowLeft"":15,""ArrowDown,ArrowRight"":23}","true","ArrowDown,ArrowRight","","","","","","","","",""
"html-keyboard-response","100","720688","0.0-3.0-13.0-11.0-1.1","spark_pilot_2","7479","3","21","Male","","","","","","","null","<div style=""font-size:60px;"">+</div>","null","fixation","","","","","","","","","","","","","",""
"learning-instructions","101","726823","0.0-3.0-14.0-0.0","spark_pilot_2","7479","3","21","Male","","","","","","","1536.9000000059605","<p> Before you start, we're going to ask you a few questions about how the game works. </p>","","instructions","","","","","","","","","","","","","",""
"comp-q","102","733729","0.0-3.0-15.0-0.0-0.0","spark_pilot_2","7479","3","21","Male","","","","","","","1285.3999999985099","<p> <b> True or False? </b> </p>
            <p> There can be 50 pieces of treasure in a given animal's chest. </p>","0","comp_question","","","","false","","","","","","","","","",""
"comp-q","103","741681","0.0-3.0-15.0-0.0-1.0","spark_pilot_2","7479","3","21","Male","","","","","","","1415.1000000014901","<p> <b>Incorrect.</b> The amount of treasure in each chest can range from 0 to 40 pieces. </p>","0","comp_answer","","","","","","","","","","","","","",""
"comp-q","104","748249","0.0-3.0-15.0-0.1-0.1","spark_pilot_2","7479","3","21","Male","","","","","","","1002.6000000014901","<p> <b> True or False? </b> </p>
            <p> There can be 50 pieces of treasure in a given animal's chest. </p>","1","comp_question","","","","true","","","","","","","","","",""
"comp-q","105","757122","0.0-3.0-15.0-0.1-1.1","spark_pilot_2","7479","3","21","Male","","","","","","","2185.3000000044703","<p> <b> That's right! </b> The amount of treasure in each chest can range from 0 to 40 pieces. </p>","0","comp_answer","","","","","","","","","","","","","",""
"comp-q","106","765487","0.0-3.0-15.0-0.2-0.2","spark_pilot_2","7479","3","21","Male","","","","","","","1230","<p> <b> True or False? </b> </p><p> In this game, all animals have the same amount of treasure in their left and right chests. </p>","1","comp_question","","","","true","","","","","","","","","",""
"comp-q","107","772011","0.0-3.0-15.0-0.2-1.2","spark_pilot_2","7479","3","21","Male","","","","","","","1274.2000000029802","<p> <b> That's right! </b> Animals have different amounts of treasure in their treasure chests. </p>","0","comp_answer","","","","","","","","","","","","","",""
"comp-q","108","779969","0.0-3.0-15.0-0.3-0.3","spark_pilot_2","7479","3","21","Male","","","","","","","2089","<p> <b> True or False? </b> </p><p> The same animal will always be there if you go up in the same place. </p>","1","comp_question","","","","false","","","","","","","","","",""
"comp-q","109","788397","0.0-3.0-15.0-0.3-1.3","spark_pilot_2","7479","3","21","Male","","","","","","","2100","<p> <b>Incorrect.</b> One animal lives in the upper part and one lives in the lower part of every place. </p>","0","comp_answer","","","","","","","","","","","","","",""
"comp-q","110","795004","0.0-3.0-15.0-0.4-0.4","spark_pilot_2","7479","3","21","Male","","","","","","","776.8999999985099","<p> <b> True or False? </b> </p><p> The same animal will always be there if you go up in the same place. </p>","0","comp_question","","","","true","","","","","","","","","",""
"comp-q","111","803311","0.0-3.0-15.0-0.4-1.4","spark_pilot_2","7479","3","21","Male","","","","","","","1834.2000000029802","<p> <b> That's right! </b> One animal lives in the upper part and one lives in the lower part of every place. </p>","0","comp_answer","","","","","","","","","","","","","",""
"comp-q","112","810245","0.0-3.0-15.0-0.5-0.5","spark_pilot_2","7479","3","21","Male","","","","","","","1377.1999999955297","<p> <b> True or False? </b> </p><p> If you see a different picture, it means you are in a new place. </p>","0","comp_question","","","","false","","","","","","","","","",""
"comp-q","113","822569","0.0-3.0-15.0-0.5-1.5","spark_pilot_2","7479","3","21","Male","","","","","","","1192.2999999970198","<p> <b>Incorrect.</b> Lots of different images may show the same place. For example,  you may see three different images that all remind you that you are in outer space. </p>","0","comp_answer","","","","","","","","","","","","","",""
"comp-q","114","828950","0.0-3.0-15.0-0.6-0.6","spark_pilot_2","7479","3","21","Male","","","","","","","882.2999999970198","<p> <b> True or False? </b> </p><p> If you see a different picture, it means you are in a new place. </p>","1","comp_question","","","","true","","","","","","","","","",""
"comp-q","115","842199","0.0-3.0-15.0-0.6-1.6","spark_pilot_2","7479","3","21","Male","","","","","","","2000.8000000044703","<p> <b> That's right! </b> Lots of different images may show the same place. For example,  you may see three different images that all remind you that you are in outer space. </p>","0","comp_answer","","","","","","","","","","","","","",""
"learning-instructions","116","853257","0.0-3.0-16.0-0.0","spark_pilot_2","7479","3","21","Male","","","","","","","1190.2000000029802","<p> Good job. Remember to do your best because the amount of treasure you earn will be converted into bonus money. </p>
            <p> It’s time to start the real game! </p>","","instructions","","","","","","","","","","","","","",""
"learning-instructions","117","857292","0.0-4.0-0.0-0.0","spark_pilot_2","7479","3","21","Male","","","","","","","1315.1999999955297","<p> This time you are searching for treasure in the <b>ocean</b>.</p>","","instructions","","","","","","","","","","","","","",""
"learning-instructions","118","876244","0.0-4.0-0.0-0.1","spark_pilot_2","7479","3","21","Male","","","","","","","1627.1000000014901","<p><b>New</b> animals with <b>new</b> treasure chests live here. You need to explore to discover where the animal with the best treasure chest is.</p>
                    <p> Like before, once you figure out which animal has the chest with the most treasure, you should try to get to that animal and select that chest! </p>","","instructions","","","","","","","","","","","","","",""
"learning-instructions","119","893638","0.0-4.0-1.0-0.0","spark_pilot_2","7479","3","21","Male","","","","","","","2661.2000000029802","<p> Remember, when you see a picture of the place, use the up and down keys to <b>find an animal</b>.</p>
            <p> When you encounter an animal, you should use the left and right keys to <b>select a treasure chest</b>.</p>
            <p> Don't forget to look out for the robber! </p>","","instructions","","","","","","","","","","","","","",""
"revaluation","120","897667","0.0-4.0-2.0-0.0","spark_pilot_2","7479","3","21","Male","","false","","","","","[1204.3000000044703]","./assets/img/ocean/catch/3.jpg","[""spaceBar""]","value training","ocean","0","{""ArrowUp,ArrowLeft"":23,""ArrowUp,ArrowRight"":10,""ArrowDown,ArrowLeft"":8,""ArrowDown,ArrowRight"":30}","true","spaceBar","true","","","original","1","0","","",""
"html-keyboard-response","121","898181","0.0-4.0-2.0-1.0","spark_pilot_2","7479","3","21","Male","","","","","","","null","<div style=""font-size:60px;"">+</div>","null","fixation","","","","","","","","","","","1","","",""
"revaluation","122","902192","0.0-4.0-2.0-0.1","spark_pilot_2","7479","3","21","Male","","false","","","","","[593.2999999970198]","./assets/img/ocean/catch/2.jpg","[""spaceBar""]","value training","ocean","0","{""ArrowUp,ArrowLeft"":23,""ArrowUp,ArrowRight"":10,""ArrowDown,ArrowLeft"":8,""ArrowDown,ArrowRight"":30}","true","spaceBar","true","","","original","1","2","","",""
"html-keyboard-response","123","902708","0.0-4.0-2.0-1.1","spark_pilot_2","7479","3","21","Male","","","","","","","null","<div style=""font-size:60px;"">+</div>","null","fixation","","","","","","","","","","","3","","",""
"revaluation","124","908742","0.0-4.0-2.0-0.2","spark_pilot_2","7479","3","21","Male","","false","","","","","[496.19999999552965,781.2000000029802]","./assets/img/ocean/memory/14.jpg","[""ArrowUp"",""ArrowLeft""]","value training","ocean","23","{""ArrowUp,ArrowLeft"":23,""ArrowUp,ArrowRight"":10,""ArrowDown,ArrowLeft"":8,""ArrowDown,ArrowRight"":30}","false","ArrowUp,ArrowLeft","false","","","original","1","4","","",""
"html-keyboard-response","125","909245","0.0-4.0-2.0-1.2","spark_pilot_2","7479","3","21","Male","","","","","","","null","<div style=""font-size:60px;"">+</div>","null","fixation","","","","","","","","","","","5","","",""
"revaluation","126","915279","0.0-4.0-2.0-0.3","spark_pilot_2","7479","3","21","Male","","false","","","","","[837.1000000014901,412.19999999552965]","./assets/img/ocean/memory/21.jpg","[""ArrowUp"",""ArrowRight""]","value training","ocean","10","{""ArrowUp,ArrowLeft"":23,""ArrowUp,ArrowRight"":10,""ArrowDown,ArrowLeft"":8,""ArrowDown,ArrowRight"":30}","false","ArrowUp,ArrowRight","false","","","original","1","6","","",""
"html-keyboard-response","127","915782","0.0-4.0-2.0-1.3","spark_pilot_2","7479","3","21","Male","","","","","","","null","<div style=""font-size:60px;"">+</div>","null","fixation","","","","","","","","","","","7","","",""
"revaluation","128","919802","0.0-4.0-2.0-0.4","spark_pilot_2","7479","3","21","Male","","false","","","","","[463.8999999985099]","./assets/img/ocean/catch/6.jpg","[""ArrowDown""]","value training","ocean","-10","{""ArrowUp,ArrowLeft"":23,""ArrowUp,ArrowRight"":10,""ArrowDown,ArrowLeft"":8,""ArrowDown,ArrowRight"":30}","false","ArrowDown","true","","","original","1","8","","",""
"html-keyboard-response","129","920317","0.0-4.0-2.0-1.4","spark_pilot_2","7479","3","21","Male","","","","","","","null","<div style=""font-size:60px;"">+</div>","null","fixation","","","","","","","","","","","9","","",""
"revaluation","130","926324","0.0-4.0-2.0-0.5","spark_pilot_2","7479","3","21","Male","","false","","","","","[570.2000000029802,616.7000000029802]","./assets/img/ocean/memory/22.jpg","[""ArrowDown"",""ArrowRight""]","value training","ocean","30","{""ArrowUp,ArrowLeft"":23,""ArrowUp,ArrowRight"":10,""ArrowDown,ArrowLeft"":8,""ArrowDown,ArrowRight"":30}","true","ArrowDown,ArrowRight","false","","","original","1","10","","",""
"html-keyboard-response","131","926837","0.0-4.0-2.0-1.5","spark_pilot_2","7479","3","21","Male","","","","","","","null","<div style=""font-size:60px;"">+</div>","null","fixation","","","","","","","","","","","11","","",""
"revaluation","132","930844","0.0-4.0-2.0-0.6","spark_pilot_2","7479","3","21","Male","","false","","","","","[727.3999999985099]","./assets/img/ocean/catch/7.jpg","[""spaceBar""]","value training","ocean","0","{""ArrowUp,ArrowLeft"":23,""ArrowUp,ArrowRight"":10,""ArrowDown,ArrowLeft"":8,""ArrowDown,ArrowRight"":30}","true","spaceBar","true","","","original","1","12","","",""
"html-keyboard-response","133","931346","0.0-4.0-2.0-1.6","spark_pilot_2","7479","3","21","Male","","","","","","","null","<div style=""font-size:60px;"">+</div>","null","fixation","","","","","","","","","","","13","","",""
"revaluation","134","937352","0.0-4.0-2.0-0.7","spark_pilot_2","7479","3","21","Male","","false","","","","","[508.29999999701977,399.1000000014901]","./assets/img/ocean/memory/22.jpg","[""ArrowDown"",""ArrowLeft""]","value training","ocean","8","{""ArrowUp,ArrowLeft"":23,""ArrowUp,ArrowRight"":10,""ArrowDown,ArrowLeft"":8,""ArrowDown,ArrowRight"":30}","false","ArrowDown,ArrowLeft","false","","","original","1","14","","",""
"html-keyboard-response","135","937854","0.0-4.0-2.0-1.7","spark_pilot_2","7479","3","21","Male","","","","","","","null","<div style=""font-size:60px;"">+</div>","null","fixation","","","","","","","","","","","15","","",""
"revaluation","136","943862","0.0-4.0-2.0-0.8","spark_pilot_2","7479","3","21","Male","","false","","","","","[1277.6999999955297,547]","./assets/img/ocean/memory/29.jpg","[""ArrowDown"",""ArrowRight""]","value training","ocean","30","{""ArrowUp,ArrowLeft"":23,""ArrowUp,ArrowRight"":10,""ArrowDown,ArrowLeft"":8,""ArrowDown,ArrowRight"":30}","true","ArrowDown,ArrowRight","false","","","original","1","16","","",""
"html-keyboard-response","137","944364","0.0-4.0-2.0-1.8","spark_pilot_2","7479","3","21","Male","","","","","","","null","<div style=""font-size:60px;"">+</div>","null","fixation","","","","","","","","","","","17","","",""
"revaluation","138","948371","0.0-4.0-2.0-0.9","spark_pilot_2","7479","3","21","Male","","false","","","","","[650.2000000029802]","./assets/img/ocean/catch/5.jpg","[""spaceBar""]","value training","ocean","0","{""ArrowUp,ArrowLeft"":23,""ArrowUp,ArrowRight"":10,""ArrowDown,ArrowLeft"":8,""ArrowDown,ArrowRight"":30}","true","spaceBar","true","","","original","1","18","","",""
"html-keyboard-response","139","948873","0.0-4.0-2.0-1.9","spark_pilot_2","7479","3","21","Male","","","","","","","null","<div style=""font-size:60px;"">+</div>","null","fixation","","","","","","","","","","","19","","",""
"revaluation","140","954882","0.0-4.0-2.0-0.10","spark_pilot_2","7479","3","21","Male","","false","","","","","[347.1000000014901,299.5]","./assets/img/ocean/memory/3.jpg","[""ArrowDown"",""ArrowRight""]","value training","ocean","30","{""ArrowUp,ArrowLeft"":23,""ArrowUp,ArrowRight"":10,""ArrowDown,ArrowLeft"":8,""ArrowDown,ArrowRight"":30}","true","ArrowDown,ArrowRight","false","","","original","1","20","","",""
"html-keyboard-response","141","955384","0.0-4.0-2.0-1.10","spark_pilot_2","7479","3","21","Male","","","","","","","null","<div style=""font-size:60px;"">+</div>","null","fixation","","","","","","","","","","","21","","",""
"revaluation","142","961393","0.0-4.0-2.0-0.11","spark_pilot_2","7479","3","21","Male","","false","","","","","[775.5,514.6000000014901]","./assets/img/ocean/memory/41.jpg","[""ArrowDown"",""ArrowRight""]","value training","ocean","30","{""ArrowUp,ArrowLeft"":23,""ArrowUp,ArrowRight"":10,""ArrowDown,ArrowLeft"":8,""ArrowDown,ArrowRight"":30}","true","ArrowDown,ArrowRight","false","","","original","1","22","","",""
"html-keyboard-response","143","961894","0.0-4.0-2.0-1.11","spark_pilot_2","7479","3","21","Male","","","","","","","null","<div style=""font-size:60px;"">+</div>","null","fixation","","","","","","","","","","","23","","",""
"revaluation","144","967902","0.0-4.0-2.0-0.12","spark_pilot_2","7479","3","21","Male","","false","","","","","[380.3999999985099,311.5]","./assets/img/ocean/memory/32.jpg","[""ArrowDown"",""ArrowRight""]","value training","ocean","30","{""ArrowUp,ArrowLeft"":23,""ArrowUp,ArrowRight"":10,""ArrowDown,ArrowLeft"":8,""ArrowDown,ArrowRight"":30}","true","ArrowDown,ArrowRight","false","","","original","1","24","","",""
"html-keyboard-response","145","968410","0.0-4.0-2.0-1.12","spark_pilot_2","7479","3","21","Male","","","","","","","null","<div style=""font-size:60px;"">+</div>","null","fixation","","","","","","","","","","","25","","",""
"revaluation","146","974419","0.0-4.0-2.0-0.13","spark_pilot_2","7479","3","21","Male","","false","","","","","[353.30000000447035,275.79999999701977]","./assets/img/ocean/memory/41.jpg","[""ArrowDown"",""ArrowRight""]","value training","ocean","30","{""ArrowUp,ArrowLeft"":23,""ArrowUp,ArrowRight"":10,""ArrowDown,ArrowLeft"":8,""ArrowDown,ArrowRight"":30}","true","ArrowDown,ArrowRight","false","","","original","1","26","","",""
"html-keyboard-response","147","974921","0.0-4.0-2.0-1.13","spark_pilot_2","7479","3","21","Male","","","","","","","null","<div style=""font-size:60px;"">+</div>","null","fixation","","","","","","","","","","","27","","",""
"revaluation","148","980930","0.0-4.0-2.0-0.14","spark_pilot_2","7479","3","21","Male","","false","","","","","[456.70000000298023,280.5]","./assets/img/ocean/memory/40.jpg","[""ArrowDown"",""ArrowRight""]","value training","ocean","30","{""ArrowUp,ArrowLeft"":23,""ArrowUp,ArrowRight"":10,""ArrowDown,ArrowLeft"":8,""ArrowDown,ArrowRight"":30}","true","ArrowDown,ArrowRight","false","","","original","1","28","","",""
"html-keyboard-response","149","981431","0.0-4.0-2.0-1.14","spark_pilot_2","7479","3","21","Male","","","","","","","null","<div style=""font-size:60px;"">+</div>","null","fixation","","","","","","","","","","","29","","",""
"revaluation","150","987440","0.0-4.0-2.0-0.15","spark_pilot_2","7479","3","21","Male","","false","","","","","[384.1000000014901,300]","./assets/img/ocean/memory/8.jpg","[""ArrowDown"",""ArrowRight""]","value training","ocean","30","{""ArrowUp,ArrowLeft"":23,""ArrowUp,ArrowRight"":10,""ArrowDown,ArrowLeft"":8,""ArrowDown,ArrowRight"":30}","true","ArrowDown,ArrowRight","false","","","original","1","30","","",""
"html-keyboard-response","151","987942","0.0-4.0-2.0-1.15","spark_pilot_2","7479","3","21","Male","","","","","","","null","<div style=""font-size:60px;"">+</div>","null","fixation","","","","","","","","","","","31","","",""
"revaluation","152","993948","0.0-4.0-2.0-0.16","spark_pilot_2","7479","3","21","Male","","false","","","","","[454,342]","./assets/img/ocean/memory/11.jpg","[""ArrowDown"",""ArrowRight""]","value training","ocean","30","{""ArrowUp,ArrowLeft"":23,""ArrowUp,ArrowRight"":10,""ArrowDown,ArrowLeft"":8,""ArrowDown,ArrowRight"":30}","true","ArrowDown,ArrowRight","false","","","original","1","32","","",""
"html-keyboard-response","153","994451","0.0-4.0-2.0-1.16","spark_pilot_2","7479","3","21","Male","","","","","","","null","<div style=""font-size:60px;"">+</div>","null","fixation","","","","","","","","","","","33","","",""
"revaluation","154","1000460","0.0-4.0-2.0-0.17","spark_pilot_2","7479","3","21","Male","","false","","","","","[515.1000000014901,320]","./assets/img/ocean/memory/33.jpg","[""ArrowDown"",""ArrowRight""]","value training","ocean","30","{""ArrowUp,ArrowLeft"":23,""ArrowUp,ArrowRight"":10,""ArrowDown,ArrowLeft"":8,""ArrowDown,ArrowRight"":30}","true","ArrowDown,ArrowRight","false","","","original","1","34","","",""
"html-keyboard-response","155","1000962","0.0-4.0-2.0-1.17","spark_pilot_2","7479","3","21","Male","","","","","","","null","<div style=""font-size:60px;"">+</div>","null","fixation","","","","","","","","","","","35","","",""
"revaluation","156","1006970","0.0-4.0-2.0-0.18","spark_pilot_2","7479","3","21","Male","","false","","","","","[508.79999999701977,280.20000000298023]","./assets/img/ocean/memory/39.jpg","[""ArrowDown"",""ArrowRight""]","value training","ocean","30","{""ArrowUp,ArrowLeft"":23,""ArrowUp,ArrowRight"":10,""ArrowDown,ArrowLeft"":8,""ArrowDown,ArrowRight"":30}","true","ArrowDown,ArrowRight","false","","","original","1","36","","",""
"html-keyboard-response","157","1007472","0.0-4.0-2.0-1.18","spark_pilot_2","7479","3","21","Male","","","","","","","null","<div style=""font-size:60px;"">+</div>","null","fixation","","","","","","","","","","","37","","",""
"revaluation","158","1013481","0.0-4.0-2.0-0.19","spark_pilot_2","7479","3","21","Male","","false","","","","","[580,288]","./assets/img/ocean/memory/39.jpg","[""ArrowDown"",""ArrowRight""]","value training","ocean","30","{""ArrowUp,ArrowLeft"":23,""ArrowUp,ArrowRight"":10,""ArrowDown,ArrowLeft"":8,""ArrowDown,ArrowRight"":30}","true","ArrowDown,ArrowRight","false","","","original","1","38","","",""
"html-keyboard-response","159","1013982","0.0-4.0-2.0-1.19","spark_pilot_2","7479","3","21","Male","","","","","","","null","<div style=""font-size:60px;"">+</div>","null","fixation","","","","","","","","","","","39","","",""
"revaluation","160","1019991","0.0-4.0-2.0-0.20","spark_pilot_2","7479","3","21","Male","","false","","","","","[361.29999999701977,404.20000000298023]","./assets/img/ocean/memory/1.jpg","[""ArrowDown"",""ArrowRight""]","value training","ocean","30","{""ArrowUp,ArrowLeft"":23,""ArrowUp,ArrowRight"":10,""ArrowDown,ArrowLeft"":8,""ArrowDown,ArrowRight"":30}","true","ArrowDown,ArrowRight","false","","","original","1","40","","",""
"html-keyboard-response","161","1020493","0.0-4.0-2.0-1.20","spark_pilot_2","7479","3","21","Male","","","","","","","null","<div style=""font-size:60px;"">+</div>","null","fixation","","","","","","","","","","","41","","",""
"revaluation","162","1026501","0.0-4.0-2.0-0.21","spark_pilot_2","7479","3","21","Male","","false","","","","","[797.8999999985099,370.3999999985099]","./assets/img/ocean/memory/29.jpg","[""ArrowDown"",""ArrowRight""]","value training","ocean","30","{""ArrowUp,ArrowLeft"":23,""ArrowUp,ArrowRight"":10,""ArrowDown,ArrowLeft"":8,""ArrowDown,ArrowRight"":30}","true","ArrowDown,ArrowRight","false","","","original","1","42","","",""
"html-keyboard-response","163","1027003","0.0-4.0-2.0-1.21","spark_pilot_2","7479","3","21","Male","","","","","","","null","<div style=""font-size:60px;"">+</div>","null","fixation","","","","","","","","","","","43","","",""
"revaluation","164","1033011","0.0-4.0-2.0-0.22","spark_pilot_2","7479","3","21","Male","","false","","","","","[682.2999999970198,428.20000000298023]","./assets/img/ocean/memory/3.jpg","[""ArrowDown"",""ArrowRight""]","value training","ocean","30","{""ArrowUp,ArrowLeft"":23,""ArrowUp,ArrowRight"":10,""ArrowDown,ArrowLeft"":8,""ArrowDown,ArrowRight"":30}","true","ArrowDown,ArrowRight","false","","","original","1","44","","",""
"html-keyboard-response","165","1033513","0.0-4.0-2.0-1.22","spark_pilot_2","7479","3","21","Male","","","","","","","null","<div style=""font-size:60px;"">+</div>","null","fixation","","","","","","","","","","","45","","",""
"revaluation","166","1039522","0.0-4.0-2.0-0.23","spark_pilot_2","7479","3","21","Male","","false","","","","","[549.1999999955297,372.40000000596046]","./assets/img/ocean/memory/26.jpg","[""ArrowDown"",""ArrowRight""]","value training","ocean","30","{""ArrowUp,ArrowLeft"":23,""ArrowUp,ArrowRight"":10,""ArrowDown,ArrowLeft"":8,""ArrowDown,ArrowRight"":30}","true","ArrowDown,ArrowRight","false","","","original","1","46","","",""
"html-keyboard-response","167","1040024","0.0-4.0-2.0-1.23","spark_pilot_2","7479","3","21","Male","","","","","","","null","<div style=""font-size:60px;"">+</div>","null","fixation","","","","","","","","","","","47","","",""
"revaluation","168","1046032","0.0-4.0-2.0-0.24","spark_pilot_2","7479","3","21","Male","","false","","","","","[479.29999999701977,396.30000000447035]","./assets/img/ocean/memory/40.jpg","[""ArrowDown"",""ArrowRight""]","value training","ocean","30","{""ArrowUp,ArrowLeft"":23,""ArrowUp,ArrowRight"":10,""ArrowDown,ArrowLeft"":8,""ArrowDown,ArrowRight"":30}","true","ArrowDown,ArrowRight","false","","","original","1","48","","",""
"html-keyboard-response","169","1046534","0.0-4.0-2.0-1.24","spark_pilot_2","7479","3","21","Male","","","","","","","null","<div style=""font-size:60px;"">+</div>","null","fixation","","","","","","","","","","","49","","",""
"revaluation","170","1052542","0.0-4.0-2.0-0.25","spark_pilot_2","7479","3","21","Male","","false","","","","","[628.5,348.8999999985099]","./assets/img/ocean/memory/9.jpg","[""ArrowDown"",""ArrowRight""]","value training","ocean","30","{""ArrowUp,ArrowLeft"":23,""ArrowUp,ArrowRight"":10,""ArrowDown,ArrowLeft"":8,""ArrowDown,ArrowRight"":30}","true","ArrowDown,ArrowRight","false","","","original","1","50","","",""
"html-keyboard-response","171","1053044","0.0-4.0-2.0-1.25","spark_pilot_2","7479","3","21","Male","","","","","","","null","<div style=""font-size:60px;"">+</div>","null","fixation","","","","","","","","","","","51","","",""
"revaluation","172","1059052","0.0-4.0-2.0-0.26","spark_pilot_2","7479","3","21","Male","","false","","","","","[399.80000000447035,279.5]","./assets/img/ocean/memory/0.jpg","[""ArrowDown"",""ArrowRight""]","value training","ocean","30","{""ArrowUp,ArrowLeft"":23,""ArrowUp,ArrowRight"":10,""ArrowDown,ArrowLeft"":8,""ArrowDown,ArrowRight"":30}","true","ArrowDown,ArrowRight","false","","","original","1","52","","",""
"html-keyboard-response","173","1059554","0.0-4.0-2.0-1.26","spark_pilot_2","7479","3","21","Male","","","","","","","null","<div style=""font-size:60px;"">+</div>","null","fixation","","","","","","","","","","","53","","",""
"revaluation","174","1065563","0.0-4.0-2.0-0.27","spark_pilot_2","7479","3","21","Male","","false","","","","","[462.5,318]","./assets/img/ocean/memory/26.jpg","[""ArrowDown"",""ArrowRight""]","value training","ocean","30","{""ArrowUp,ArrowLeft"":23,""ArrowUp,ArrowRight"":10,""ArrowDown,ArrowLeft"":8,""ArrowDown,ArrowRight"":30}","true","ArrowDown,ArrowRight","false","","","original","1","54","","",""
"html-keyboard-response","175","1066065","0.0-4.0-2.0-1.27","spark_pilot_2","7479","3","21","Male","","","","","","","null","<div style=""font-size:60px;"">+</div>","null","fixation","","","","","","","","","","","55","","",""
"revaluation","176","1072073","0.0-4.0-2.0-0.28","spark_pilot_2","7479","3","21","Male","","false","","","","","[609.2999999970198,488.3999999985099]","./assets/img/ocean/memory/19.jpg","[""ArrowDown"",""ArrowRight""]","value training","ocean","30","{""ArrowUp,ArrowLeft"":23,""ArrowUp,ArrowRight"":10,""ArrowDown,ArrowLeft"":8,""ArrowDown,ArrowRight"":30}","true","ArrowDown,ArrowRight","false","","","original","1","56","","",""
"html-keyboard-response","177","1072575","0.0-4.0-2.0-1.28","spark_pilot_2","7479","3","21","Male","","","","","","","null","<div style=""font-size:60px;"">+</div>","null","fixation","","","","","","","","","","","57","","",""
"revaluation","178","1076581","0.0-4.0-2.0-0.29","spark_pilot_2","7479","3","21","Male","","false","","","","","[524.2000000029802]","./assets/img/ocean/catch/1.jpg","[""spaceBar""]","value training","ocean","0","{""ArrowUp,ArrowLeft"":23,""ArrowUp,ArrowRight"":10,""ArrowDown,ArrowLeft"":8,""ArrowDown,ArrowRight"":30}","true","spaceBar","true","","","original","1","58","","",""
"html-keyboard-response","179","1077083","0.0-4.0-2.0-1.29","spark_pilot_2","7479","3","21","Male","","","","","","","null","<div style=""font-size:60px;"">+</div>","null","fixation","","","","","","","","","","","59","","",""
"revaluation","180","1081091","0.0-4.0-2.0-0.30","spark_pilot_2","7479","3","21","Male","","false","","","","","[461.59999999403954]","./assets/img/ocean/catch/0.jpg","[""spaceBar""]","value training","ocean","0","{""ArrowUp,ArrowLeft"":23,""ArrowUp,ArrowRight"":10,""ArrowDown,ArrowLeft"":8,""ArrowDown,ArrowRight"":30}","true","spaceBar","true","","","original","1","60","","",""
"html-keyboard-response","181","1081593","0.0-4.0-2.0-1.30","spark_pilot_2","7479","3","21","Male","","","","","","","null","<div style=""font-size:60px;"">+</div>","null","fixation","","","","","","","","","","","61","","",""
"revaluation","182","1087599","0.0-4.0-2.0-0.31","spark_pilot_2","7479","3","21","Male","","false","","","","","[515.2999999970198,346.8999999985099]","./assets/img/ocean/memory/8.jpg","[""ArrowDown"",""ArrowRight""]","value training","ocean","30","{""ArrowUp,ArrowLeft"":23,""ArrowUp,ArrowRight"":10,""ArrowDown,ArrowLeft"":8,""ArrowDown,ArrowRight"":30}","true","ArrowDown,ArrowRight","false","","","original","1","62","","",""
"html-keyboard-response","183","1088101","0.0-4.0-2.0-1.31","spark_pilot_2","7479","3","21","Male","","","","","","","null","<div style=""font-size:60px;"">+</div>","null","fixation","","","","","","","","","","","63","","",""
"revaluation","184","1094110","0.0-4.0-2.0-0.32","spark_pilot_2","7479","3","21","Male","","false","","","","","[554,463.90000000596046]","./assets/img/ocean/memory/19.jpg","[""ArrowDown"",""ArrowRight""]","value training","ocean","30","{""ArrowUp,ArrowLeft"":23,""ArrowUp,ArrowRight"":10,""ArrowDown,ArrowLeft"":8,""ArrowDown,ArrowRight"":30}","true","ArrowDown,ArrowRight","false","","","original","1","64","","",""
"html-keyboard-response","185","1094612","0.0-4.0-2.0-1.32","spark_pilot_2","7479","3","21","Male","","","","","","","null","<div style=""font-size:60px;"">+</div>","null","fixation","","","","","","","","","","","65","","",""
"revaluation","186","1100621","0.0-4.0-2.0-0.33","spark_pilot_2","7479","3","21","Male","","false","","","","","[847.8999999985099,490.79999999701977]","./assets/img/ocean/memory/0.jpg","[""ArrowDown"",""ArrowRight""]","value training","ocean","30","{""ArrowUp,ArrowLeft"":23,""ArrowUp,ArrowRight"":10,""ArrowDown,ArrowLeft"":8,""ArrowDown,ArrowRight"":30}","true","ArrowDown,ArrowRight","false","","","original","1","66","","",""
"html-keyboard-response","187","1101122","0.0-4.0-2.0-1.33","spark_pilot_2","7479","3","21","Male","","","","","","","null","<div style=""font-size:60px;"">+</div>","null","fixation","","","","","","","","","","","67","","",""
"revaluation","188","1107131","0.0-4.0-2.0-0.34","spark_pilot_2","7479","3","21","Male","","false","","","","","[700.2000000029802,370.1000000014901]","./assets/img/ocean/memory/27.jpg","[""ArrowDown"",""ArrowRight""]","value training","ocean","30","{""ArrowUp,ArrowLeft"":23,""ArrowUp,ArrowRight"":10,""ArrowDown,ArrowLeft"":8,""ArrowDown,ArrowRight"":30}","true","ArrowDown,ArrowRight","false","","","original","1","68","","",""
"html-keyboard-response","189","1107633","0.0-4.0-2.0-1.34","spark_pilot_2","7479","3","21","Male","","","","","","","null","<div style=""font-size:60px;"">+</div>","null","fixation","","","","","","","","","","","69","","",""
"revaluation","190","1113640","0.0-4.0-2.0-0.35","spark_pilot_2","7479","3","21","Male","","false","","","","","[574,411.5]","./assets/img/ocean/memory/13.jpg","[""ArrowDown"",""ArrowRight""]","value training","ocean","30","{""ArrowUp,ArrowLeft"":23,""ArrowUp,ArrowRight"":10,""ArrowDown,ArrowLeft"":8,""ArrowDown,ArrowRight"":30}","true","ArrowDown,ArrowRight","false","","","original","1","70","","",""
"html-keyboard-response","191","1114142","0.0-4.0-2.0-1.35","spark_pilot_2","7479","3","21","Male","","","","","","","null","<div style=""font-size:60px;"">+</div>","null","fixation","","","","","","","","","","","71","","",""
"revaluation","192","1120150","0.0-4.0-2.0-0.36","spark_pilot_2","7479","3","21","Male","","false","","","","","[778.6000000014901,422.5]","./assets/img/ocean/memory/13.jpg","[""ArrowDown"",""ArrowRight""]","value training","ocean","30","{""ArrowUp,ArrowLeft"":23,""ArrowUp,ArrowRight"":10,""ArrowDown,ArrowLeft"":8,""ArrowDown,ArrowRight"":30}","true","ArrowDown,ArrowRight","false","","","original","1","72","","",""
"html-keyboard-response","193","1120651","0.0-4.0-2.0-1.36","spark_pilot_2","7479","3","21","Male","","","","","","","null","<div style=""font-size:60px;"">+</div>","null","fixation","","","","","","","","","","","73","","",""
"revaluation","194","1126661","0.0-4.0-2.0-0.37","spark_pilot_2","7479","3","21","Male","","false","","","","","[500.8999999985099,279.5]","./assets/img/ocean/memory/1.jpg","[""ArrowDown"",""ArrowRight""]","value training","ocean","30","{""ArrowUp,ArrowLeft"":23,""ArrowUp,ArrowRight"":10,""ArrowDown,ArrowLeft"":8,""ArrowDown,ArrowRight"":30}","true","ArrowDown,ArrowRight","false","","","original","1","74","","",""
"html-keyboard-response","195","1127163","0.0-4.0-2.0-1.37","spark_pilot_2","7479","3","21","Male","","","","","","","null","<div style=""font-size:60px;"">+</div>","null","fixation","","","","","","","","","","","75","","",""
"revaluation","196","1133172","0.0-4.0-2.0-0.38","spark_pilot_2","7479","3","21","Male","","false","","","","","[696.2999999970198,281.29999999701977]","./assets/img/ocean/memory/14.jpg","[""ArrowDown"",""ArrowRight""]","value training","ocean","30","{""ArrowUp,ArrowLeft"":23,""ArrowUp,ArrowRight"":10,""ArrowDown,ArrowLeft"":8,""ArrowDown,ArrowRight"":30}","true","ArrowDown,ArrowRight","false","","","original","1","76","","",""
"html-keyboard-response","197","1133674","0.0-4.0-2.0-1.38","spark_pilot_2","7479","3","21","Male","","","","","","","null","<div style=""font-size:60px;"">+</div>","null","fixation","","","","","","","","","","","77","","",""
"revaluation","198","1137683","0.0-4.0-2.0-0.39","spark_pilot_2","7479","3","21","Male","","false","","","","","[620.8999999985099]","./assets/img/ocean/catch/4.jpg","[""spaceBar""]","value training","ocean","0","{""ArrowUp,ArrowLeft"":23,""ArrowUp,ArrowRight"":10,""ArrowDown,ArrowLeft"":8,""ArrowDown,ArrowRight"":30}","true","spaceBar","true","","","original","1","78","","",""
"html-keyboard-response","199","1138184","0.0-4.0-2.0-1.39","spark_pilot_2","7479","3","21","Male","","","","","","","null","<div style=""font-size:60px;"">+</div>","null","fixation","","","","","","","","","","","79","","",""
"revaluation","200","1144192","0.0-4.0-2.0-0.40","spark_pilot_2","7479","3","21","Male","","false","","","","","[527.6999999955297,295.79999999701977]","./assets/img/ocean/memory/11.jpg","[""ArrowDown"",""ArrowRight""]","value training","ocean","30","{""ArrowUp,ArrowLeft"":23,""ArrowUp,ArrowRight"":10,""ArrowDown,ArrowLeft"":8,""ArrowDown,ArrowRight"":30}","true","ArrowDown,ArrowRight","false","","","original","1","80","","",""
"html-keyboard-response","201","1144695","0.0-4.0-2.0-1.40","spark_pilot_2","7479","3","21","Male","","","","","","","null","<div style=""font-size:60px;"">+</div>","null","fixation","","","","","","","","","","","81","","",""
"revaluation","202","1150704","0.0-4.0-2.0-0.41","spark_pilot_2","7479","3","21","Male","","false","","","","","[488.6000000014901,418.20000000298023]","./assets/img/ocean/memory/33.jpg","[""ArrowDown"",""ArrowRight""]","value training","ocean","30","{""ArrowUp,ArrowLeft"":23,""ArrowUp,ArrowRight"":10,""ArrowDown,ArrowLeft"":8,""ArrowDown,ArrowRight"":30}","true","ArrowDown,ArrowRight","false","","","original","1","82","","",""
"html-keyboard-response","203","1151206","0.0-4.0-2.0-1.41","spark_pilot_2","7479","3","21","Male","","","","","","","null","<div style=""font-size:60px;"">+</div>","null","fixation","","","","","","","","","","","83","","",""
"revaluation","204","1157217","0.0-4.0-2.0-0.42","spark_pilot_2","7479","3","21","Male","","false","","","","","[775.7999999970198,408.8999999985099]","./assets/img/ocean/memory/17.jpg","[""ArrowDown"",""ArrowRight""]","value training","ocean","30","{""ArrowUp,ArrowLeft"":23,""ArrowUp,ArrowRight"":10,""ArrowDown,ArrowLeft"":8,""ArrowDown,ArrowRight"":30}","true","ArrowDown,ArrowRight","false","","","original","1","84","","",""
"html-keyboard-response","205","1157719","0.0-4.0-2.0-1.42","spark_pilot_2","7479","3","21","Male","","","","","","","null","<div style=""font-size:60px;"">+</div>","null","fixation","","","","","","","","","","","85","","",""
"revaluation","206","1163727","0.0-4.0-2.0-0.43","spark_pilot_2","7479","3","21","Male","","false","","","","","[452.3999999985099,423.3999999985099]","./assets/img/ocean/memory/31.jpg","[""ArrowDown"",""ArrowRight""]","value training","ocean","30","{""ArrowUp,ArrowLeft"":23,""ArrowUp,ArrowRight"":10,""ArrowDown,ArrowLeft"":8,""ArrowDown,ArrowRight"":30}","true","ArrowDown,ArrowRight","false","","","original","1","86","","",""
"html-keyboard-response","207","1164229","0.0-4.0-2.0-1.43","spark_pilot_2","7479","3","21","Male","","","","","","","null","<div style=""font-size:60px;"">+</div>","null","fixation","","","","","","","","","","","87","","",""
"revaluation","208","1170236","0.0-4.0-2.0-0.44","spark_pilot_2","7479","3","21","Male","","false","","","","","[521.7000000029802,465.59999999403954]","./assets/img/ocean/memory/32.jpg","[""ArrowDown"",""ArrowRight""]","value training","ocean","30","{""ArrowUp,ArrowLeft"":23,""ArrowUp,ArrowRight"":10,""ArrowDown,ArrowLeft"":8,""ArrowDown,ArrowRight"":30}","true","ArrowDown,ArrowRight","false","","","original","1","88","","",""
"html-keyboard-response","209","1170739","0.0-4.0-2.0-1.44","spark_pilot_2","7479","3","21","Male","","","","","","","null","<div style=""font-size:60px;"">+</div>","null","fixation","","","","","","","","","","","89","","",""
"revaluation","210","1176749","0.0-4.0-2.0-0.45","spark_pilot_2","7479","3","21","Male","","false","","","","","[480.3999999985099,504.1000000014901]","./assets/img/ocean/memory/17.jpg","[""ArrowDown"",""ArrowRight""]","value training","ocean","30","{""ArrowUp,ArrowLeft"":23,""ArrowUp,ArrowRight"":10,""ArrowDown,ArrowLeft"":8,""ArrowDown,ArrowRight"":30}","true","ArrowDown,ArrowRight","false","","","original","1","90","","",""
"html-keyboard-response","211","1177251","0.0-4.0-2.0-1.45","spark_pilot_2","7479","3","21","Male","","","","","","","null","<div style=""font-size:60px;"">+</div>","null","fixation","","","","","","","","","","","91","","",""
"revaluation","212","1183260","0.0-4.0-2.0-0.46","spark_pilot_2","7479","3","21","Male","","false","","","","","[529.7000000029802,1012.5]","./assets/img/ocean/memory/27.jpg","[""ArrowDown"",""ArrowRight""]","value training","ocean","30","{""ArrowUp,ArrowLeft"":23,""ArrowUp,ArrowRight"":10,""ArrowDown,ArrowLeft"":8,""ArrowDown,ArrowRight"":30}","true","ArrowDown,ArrowRight","false","","","original","1","92","","",""
"html-keyboard-response","213","1183762","0.0-4.0-2.0-1.46","spark_pilot_2","7479","3","21","Male","","","","","","","null","<div style=""font-size:60px;"">+</div>","null","fixation","","","","","","","","","","","93","","",""
"revaluation","214","1189772","0.0-4.0-2.0-0.47","spark_pilot_2","7479","3","21","Male","","false","","","","","[820.6000000014901,870.3999999985099]","./assets/img/ocean/memory/21.jpg","[""ArrowDown"",""ArrowRight""]","value training","ocean","30","{""ArrowUp,ArrowLeft"":23,""ArrowUp,ArrowRight"":10,""ArrowDown,ArrowLeft"":8,""ArrowDown,ArrowRight"":30}","true","ArrowDown,ArrowRight","false","","","original","1","94","","",""
"html-keyboard-response","215","1190273","0.0-4.0-2.0-1.47","spark_pilot_2","7479","3","21","Male","","","","","","","null","<div style=""font-size:60px;"">+</div>","null","fixation","","","","","","","","","","","95","","",""
"revaluation","216","1196283","0.0-4.0-2.0-0.48","spark_pilot_2","7479","3","21","Male","","false","","","","","[589.7999999970198,632.3000000044703]","./assets/img/ocean/memory/31.jpg","[""ArrowDown"",""ArrowRight""]","value training","ocean","30","{""ArrowUp,ArrowLeft"":23,""ArrowUp,ArrowRight"":10,""ArrowDown,ArrowLeft"":8,""ArrowDown,ArrowRight"":30}","true","ArrowDown,ArrowRight","false","","","original","1","96","","",""
"html-keyboard-response","217","1196785","0.0-4.0-2.0-1.48","spark_pilot_2","7479","3","21","Male","","","","","","","null","<div style=""font-size:60px;"">+</div>","null","fixation","","","","","","","","","","","97","","",""
"revaluation","218","1202794","0.0-4.0-2.0-0.49","spark_pilot_2","7479","3","21","Male","","false","","","","","[475.1000000014901,469.29999999701977]","./assets/img/ocean/memory/9.jpg","[""ArrowDown"",""ArrowRight""]","value training","ocean","30","{""ArrowUp,ArrowLeft"":23,""ArrowUp,ArrowRight"":10,""ArrowDown,ArrowLeft"":8,""ArrowDown,ArrowRight"":30}","true","ArrowDown,ArrowRight","false","","","original","1","98","","",""
"html-keyboard-response","219","1203296","0.0-4.0-2.0-1.49","spark_pilot_2","7479","3","21","Male","","","","","","","null","<div style=""font-size:60px;"">+</div>","null","fixation","","","","","","","","","","","99","","",""
"learning-instructions","220","1218367","0.0-4.0-3.0-0.0","spark_pilot_2","7479","3","21","Male","","","","","","","1290.8999999985099","<p> Now, you will travel with a friend who will choose whether you go up or down first. </p>
            <p> On these turns, you will just see the animal that they found. You will still get to choose which chest to search for treasure.</p>","","instructions","","","","","","","","","","","","","",""
"revaluation","221","1222392","0.0-4.0-4.0-0.0","spark_pilot_2","7479","3","21","Male","","false","","","","","[656.6000000014901]","./assets/img/ocean/animals/octopus.jpg","[""ArrowLeft""]","revaluation","ocean","23","{""ArrowUp,ArrowLeft"":23,""ArrowUp,ArrowRight"":10,""ArrowDown,ArrowLeft"":8,""ArrowDown,ArrowRight"":30}","true","ArrowUp,ArrowLeft","","","","original","1","0","","",""
"html-keyboard-response","222","1222912","0.0-4.0-4.0-1.0","spark_pilot_2","7479","3","21","Male","","","","","","","null","<div style=""font-size:60px;"">+</div>","null","fixation","","","","","","","","","","","1","","",""
"revaluation","223","1226926","0.0-4.0-4.0-0.1","spark_pilot_2","7479","3","21","Male","","false","","","","","[458.29999999701977]","./assets/img/ocean/animals/seahorse.jpg","[""ArrowRight""]","revaluation","ocean","30","{""ArrowUp,ArrowLeft"":23,""ArrowUp,ArrowRight"":10,""ArrowDown,ArrowLeft"":8,""ArrowDown,ArrowRight"":30}","true","ArrowDown,ArrowRight","","","","original","1","2","","",""
"html-keyboard-response","224","1227429","0.0-4.0-4.0-1.1","spark_pilot_2","7479","3","21","Male","","","","","","","null","<div style=""font-size:60px;"">+</div>","null","fixation","","","","","","","","","","","3","","",""
"revaluation","225","1231446","0.0-4.0-4.0-0.2","spark_pilot_2","7479","3","21","Male","","false","","","","","[507.19999999552965]","./assets/img/ocean/animals/seahorse.jpg","[""ArrowRight""]","revaluation","ocean","30","{""ArrowUp,ArrowLeft"":23,""ArrowUp,ArrowRight"":10,""ArrowDown,ArrowLeft"":8,""ArrowDown,ArrowRight"":30}","true","ArrowDown,ArrowRight","","","","original","1","4","","",""
"html-keyboard-response","226","1231961","0.0-4.0-4.0-1.2","spark_pilot_2","7479","3","21","Male","","","","","","","null","<div style=""font-size:60px;"">+</div>","null","fixation","","","","","","","","","","","5","","",""
"revaluation","227","1235986","0.0-4.0-4.0-0.3","spark_pilot_2","7479","3","21","Male","","false","","","","","[441.6000000014901]","./assets/img/ocean/animals/octopus.jpg","[""ArrowLeft""]","revaluation","ocean","23","{""ArrowUp,ArrowLeft"":23,""ArrowUp,ArrowRight"":10,""ArrowDown,ArrowLeft"":8,""ArrowDown,ArrowRight"":30}","true","ArrowUp,ArrowLeft","","","","original","1","6","","",""
"html-keyboard-response","228","1236501","0.0-4.0-4.0-1.3","spark_pilot_2","7479","3","21","Male","","","","","","","null","<div style=""font-size:60px;"">+</div>","null","fixation","","","","","","","","","","","7","","",""
"revaluation","229","1240521","0.0-4.0-4.0-0.4","spark_pilot_2","7479","3","21","Male","","false","","","","","[537.7000000029802]","./assets/img/ocean/animals/octopus.jpg","[""ArrowRight""]","revaluation","ocean","10","{""ArrowUp,ArrowLeft"":23,""ArrowUp,ArrowRight"":10,""ArrowDown,ArrowLeft"":8,""ArrowDown,ArrowRight"":30}","false","ArrowUp,ArrowRight","","","","original","1","8","","",""
"html-keyboard-response","230","1241035","0.0-4.0-4.0-1.4","spark_pilot_2","7479","3","21","Male","","","","","","","null","<div style=""font-size:60px;"">+</div>","null","fixation","","","","","","","","","","","9","","",""
"revaluation","231","1245064","0.0-4.0-4.0-0.5","spark_pilot_2","7479","3","21","Male","","false","","","","","[501]","./assets/img/ocean/animals/seahorse.jpg","[""ArrowRight""]","revaluation","ocean","30","{""ArrowUp,ArrowLeft"":23,""ArrowUp,ArrowRight"":10,""ArrowDown,ArrowLeft"":8,""ArrowDown,ArrowRight"":30}","true","ArrowDown,ArrowRight","","","","original","1","10","","",""
"html-keyboard-response","232","1245580","0.0-4.0-4.0-1.5","spark_pilot_2","7479","3","21","Male","","","","","","","null","<div style=""font-size:60px;"">+</div>","null","fixation","","","","","","","","","","","11","","",""
"revaluation","233","1249588","0.0-4.0-4.0-0.6","spark_pilot_2","7479","3","21","Male","","false","","","","","[339.8999999985099]","./assets/img/ocean/animals/octopus.jpg","[""ArrowLeft""]","revaluation","ocean","23","{""ArrowUp,ArrowLeft"":23,""ArrowUp,ArrowRight"":10,""ArrowDown,ArrowLeft"":8,""ArrowDown,ArrowRight"":30}","true","ArrowUp,ArrowLeft","","","","original","1","12","","",""
"html-keyboard-response","234","1250089","0.0-4.0-4.0-1.6","spark_pilot_2","7479","3","21","Male","","","","","","","null","<div style=""font-size:60px;"">+</div>","null","fixation","","","","","","","","","","","13","","",""
"revaluation","235","1254098","0.0-4.0-4.0-0.7","spark_pilot_2","7479","3","21","Male","","false","","","","","[483.29999999701977]","./assets/img/ocean/animals/octopus.jpg","[""ArrowLeft""]","revaluation","ocean","23","{""ArrowUp,ArrowLeft"":23,""ArrowUp,ArrowRight"":10,""ArrowDown,ArrowLeft"":8,""ArrowDown,ArrowRight"":30}","true","ArrowUp,ArrowLeft","","","","original","1","14","","",""
"html-keyboard-response","236","1254600","0.0-4.0-4.0-1.7","spark_pilot_2","7479","3","21","Male","","","","","","","null","<div style=""font-size:60px;"">+</div>","null","fixation","","","","","","","","","","","15","","",""
"revaluation","237","1258606","0.0-4.0-4.0-0.8","spark_pilot_2","7479","3","21","Male","","false","","","","","[666.1999999955297]","./assets/img/ocean/animals/seahorse.jpg","[""ArrowRight""]","revaluation","ocean","30","{""ArrowUp,ArrowLeft"":23,""ArrowUp,ArrowRight"":10,""ArrowDown,ArrowLeft"":8,""ArrowDown,ArrowRight"":30}","true","ArrowDown,ArrowRight","","","","original","1","16","","",""
"html-keyboard-response","238","1259109","0.0-4.0-4.0-1.8","spark_pilot_2","7479","3","21","Male","","","","","","","null","<div style=""font-size:60px;"">+</div>","null","fixation","","","","","","","","","","","17","","",""
"revaluation","239","1263117","0.0-4.0-4.0-0.9","spark_pilot_2","7479","3","21","Male","","false","","","","","[456]","./assets/img/ocean/animals/seahorse.jpg","[""ArrowLeft""]","revaluation","ocean","8","{""ArrowUp,ArrowLeft"":23,""ArrowUp,ArrowRight"":10,""ArrowDown,ArrowLeft"":8,""ArrowDown,ArrowRight"":30}","false","ArrowDown,ArrowLeft","","","","original","1","18","","",""
"html-keyboard-response","240","1263619","0.0-4.0-4.0-1.9","spark_pilot_2","7479","3","21","Male","","","","","","","null","<div style=""font-size:60px;"">+</div>","null","fixation","","","","","","","","","","","19","","",""
"revaluation","241","1267625","0.0-4.0-4.0-0.10","spark_pilot_2","7479","3","21","Male","","false","","","","","[473.69999999552965]","./assets/img/ocean/animals/seahorse.jpg","[""ArrowRight""]","revaluation","ocean","30","{""ArrowUp,ArrowLeft"":23,""ArrowUp,ArrowRight"":10,""ArrowDown,ArrowLeft"":8,""ArrowDown,ArrowRight"":30}","true","ArrowDown,ArrowRight","","","","original","1","20","","",""
"html-keyboard-response","242","1268127","0.0-4.0-4.0-1.10","spark_pilot_2","7479","3","21","Male","","","","","","","null","<div style=""font-size:60px;"">+</div>","null","fixation","","","","","","","","","","","21","","",""
"revaluation","243","1272135","0.0-4.0-4.0-0.11","spark_pilot_2","7479","3","21","Male","","false","","","","","[448.20000000298023]","./assets/img/ocean/animals/octopus.jpg","[""ArrowLeft""]","revaluation","ocean","23","{""ArrowUp,ArrowLeft"":23,""ArrowUp,ArrowRight"":10,""ArrowDown,ArrowLeft"":8,""ArrowDown,ArrowRight"":30}","true","ArrowUp,ArrowLeft","","","","original","1","22","","",""
"html-keyboard-response","244","1272636","0.0-4.0-4.0-1.11","spark_pilot_2","7479","3","21","Male","","","","","","","null","<div style=""font-size:60px;"">+</div>","null","fixation","","","","","","","","","","","23","","",""
"revaluation","245","1276645","0.0-4.0-4.0-0.12","spark_pilot_2","7479","3","21","Male","","false","","","","","[571.4000000059605]","./assets/img/ocean/animals/seahorse.jpg","[""ArrowRight""]","revaluation","ocean","30","{""ArrowUp,ArrowLeft"":23,""ArrowUp,ArrowRight"":10,""ArrowDown,ArrowLeft"":8,""ArrowDown,ArrowRight"":30}","true","ArrowDown,ArrowRight","","","","original","1","24","","",""
"html-keyboard-response","246","1277147","0.0-4.0-4.0-1.12","spark_pilot_2","7479","3","21","Male","","","","","","","null","<div style=""font-size:60px;"">+</div>","null","fixation","","","","","","","","","","","25","","",""
"revaluation","247","1281155","0.0-4.0-4.0-0.13","spark_pilot_2","7479","3","21","Male","","false","","","","","[522.8999999985099]","./assets/img/ocean/animals/octopus.jpg","[""ArrowLeft""]","revaluation","ocean","23","{""ArrowUp,ArrowLeft"":23,""ArrowUp,ArrowRight"":10,""ArrowDown,ArrowLeft"":8,""ArrowDown,ArrowRight"":30}","true","ArrowUp,ArrowLeft","","","","original","1","26","","",""
"html-keyboard-response","248","1281657","0.0-4.0-4.0-1.13","spark_pilot_2","7479","3","21","Male","","","","","","","null","<div style=""font-size:60px;"">+</div>","null","fixation","","","","","","","","","","","27","","",""
"revaluation","249","1285668","0.0-4.0-4.0-0.14","spark_pilot_2","7479","3","21","Male","","false","","","","","[671.6000000014901]","./assets/img/ocean/animals/seahorse.jpg","[""ArrowRight""]","revaluation","ocean","30","{""ArrowUp,ArrowLeft"":23,""ArrowUp,ArrowRight"":10,""ArrowDown,ArrowLeft"":8,""ArrowDown,ArrowRight"":30}","true","ArrowDown,ArrowRight","","","","original","1","28","","",""
"html-keyboard-response","250","1286169","0.0-4.0-4.0-1.14","spark_pilot_2","7479","3","21","Male","","","","","","","null","<div style=""font-size:60px;"">+</div>","null","fixation","","","","","","","","","","","29","","",""
"revaluation","251","1290178","0.0-4.0-4.0-0.15","spark_pilot_2","7479","3","21","Male","","false","","","","","[598.3000000044703]","./assets/img/ocean/animals/octopus.jpg","[""ArrowLeft""]","revaluation","ocean","23","{""ArrowUp,ArrowLeft"":23,""ArrowUp,ArrowRight"":10,""ArrowDown,ArrowLeft"":8,""ArrowDown,ArrowRight"":30}","true","ArrowUp,ArrowLeft","","","","original","1","30","","",""
"html-keyboard-response","252","1290680","0.0-4.0-4.0-1.15","spark_pilot_2","7479","3","21","Male","","","","","","","null","<div style=""font-size:60px;"">+</div>","null","fixation","","","","","","","","","","","31","","",""
"revaluation","253","1294688","0.0-4.0-4.0-0.16","spark_pilot_2","7479","3","21","Male","","false","","","","","[865.6000000014901]","./assets/img/ocean/animals/octopus.jpg","[""ArrowLeft""]","revaluation","ocean","23","{""ArrowUp,ArrowLeft"":23,""ArrowUp,ArrowRight"":10,""ArrowDown,ArrowLeft"":8,""ArrowDown,ArrowRight"":30}","true","ArrowUp,ArrowLeft","","","","original","1","32","","",""
"html-keyboard-response","254","1295190","0.0-4.0-4.0-1.16","spark_pilot_2","7479","3","21","Male","","","","","","","null","<div style=""font-size:60px;"">+</div>","null","fixation","","","","","","","","","","","33","","",""
"revaluation","255","1299198","0.0-4.0-4.0-0.17","spark_pilot_2","7479","3","21","Male","","false","","","","","[1132.8999999985099]","./assets/img/ocean/animals/seahorse.jpg","[""ArrowRight""]","revaluation","ocean","30","{""ArrowUp,ArrowLeft"":23,""ArrowUp,ArrowRight"":10,""ArrowDown,ArrowLeft"":8,""ArrowDown,ArrowRight"":30}","true","ArrowDown,ArrowRight","","","","original","1","34","","",""
"html-keyboard-response","256","1299700","0.0-4.0-4.0-1.17","spark_pilot_2","7479","3","21","Male","","","","","","","null","<div style=""font-size:60px;"">+</div>","null","fixation","","","","","","","","","","","35","","",""
"learning-instructions","257","1313125","0.0-4.0-5.0-0.0","spark_pilot_2","7479","3","21","Male","","","","","","","1034.7999999970198","<p> Time to play the dot game! </p>
            <p> For one minute, click the red dots on the following screen as they appear. </p>
            <p><b> Don't look away, as you will earn bonus for clicking dots</b>. </p>","","instructions","","","","","","","","","","","","","",""
"revaluation","258","1373128","0.0-4.0-6.0-0.0","spark_pilot_2","7479","3","21","Male","","","","","","","[64,166,45,67,69,67]","","","rest","","60","","","","","0","60000","","","","","",""
"learning-instructions","259","1381622","0.0-4.0-7.0-0.0","spark_pilot_2","7479","3","21","Male","","","","","","","1382.4000000059605","<p> You have almost finished this part of the game! </p>
            <p> We are going to ask you to make a few more choices. </p>","","instructions","","","","","","","","","","","","","",""
"learning-instructions","260","1396653","0.0-4.0-7.0-0.1","spark_pilot_2","7479","3","21","Male","","","","","","","1052.8000000044703","<p> First, you need to decide whether to go up or down. When you see each picture, use the arrow keys to make your choice. </p>
            <p><b>You will not see which animal you found, but try to get to the one that will give you the most treasure.</b></p>","","instructions","","","","","","","","","","","","","",""
"revaluation","261","1397473","0.0-4.0-8.0-0.0","spark_pilot_2","7479","3","21","Male","","false","","","","","[814.5999999940395]","./assets/img/ocean/test/0.jpg","[""ArrowUp""]","first stage test","ocean","0","{""ArrowUp,ArrowLeft"":23,""ArrowUp,ArrowRight"":10,""ArrowDown,ArrowLeft"":8,""ArrowDown,ArrowRight"":30}","false","ArrowUp","false","","","original","1","","","",""
"html-keyboard-response","262","1397981","0.0-4.0-8.0-1.0","spark_pilot_2","7479","3","21","Male","","","","","","","null","<div style=""font-size:60px;"">+</div>","null","fixation","","","","","","","","","","","","","",""
"revaluation","263","1399725","0.0-4.0-8.0-0.1","spark_pilot_2","7479","3","21","Male","","false","","","","","[1738.2999999970198]","./assets/img/ocean/test/1.jpg","[""ArrowDown""]","first stage test","ocean","0","{""ArrowUp,ArrowLeft"":23,""ArrowUp,ArrowRight"":10,""ArrowDown,ArrowLeft"":8,""ArrowDown,ArrowRight"":30}","true","ArrowDown","false","","","original","1","","","",""
"html-keyboard-response","264","1400230","0.0-4.0-8.0-1.1","spark_pilot_2","7479","3","21","Male","","","","","","","null","<div style=""font-size:60px;"">+</div>","null","fixation","","","","","","","","","","","","","",""
"revaluation","265","1401212","0.0-4.0-8.0-0.2","spark_pilot_2","7479","3","21","Male","","false","","","","","[977.2000000029802]","./assets/img/ocean/test/3.jpg","[""ArrowUp""]","first stage test","ocean","0","{""ArrowUp,ArrowLeft"":23,""ArrowUp,ArrowRight"":10,""ArrowDown,ArrowLeft"":8,""ArrowDown,ArrowRight"":30}","false","ArrowUp","false","","","original","1","","","",""
"html-keyboard-response","266","1401727","0.0-4.0-8.0-1.2","spark_pilot_2","7479","3","21","Male","","","","","","","null","<div style=""font-size:60px;"">+</div>","null","fixation","","","","","","","","","","","","","",""
"revaluation","267","1402464","0.0-4.0-8.0-0.3","spark_pilot_2","7479","3","21","Male","","false","","","","","[729]","./assets/img/ocean/test/2.jpg","[""ArrowUp""]","first stage test","ocean","0","{""ArrowUp,ArrowLeft"":23,""ArrowUp,ArrowRight"":10,""ArrowDown,ArrowLeft"":8,""ArrowDown,ArrowRight"":30}","false","ArrowUp","false","","","original","1","","","",""
"html-keyboard-response","268","1402971","0.0-4.0-8.0-1.3","spark_pilot_2","7479","3","21","Male","","","","","","","null","<div style=""font-size:60px;"">+</div>","null","fixation","","","","","","","","","","","","","",""
"learning-instructions","269","1415642","0.0-4.0-9.0-0.0","spark_pilot_2","7479","3","21","Male","","","","","","","1321.5","<p> Now you will see the animals again and can search their chests for treasure. </p>
            <p> This time, you will not see how much treasure you earned, but you will earn more bonus money for making better choices. </p>","","instructions","","","","","","","","","","","","","",""
"revaluation","270","1416536","0.0-4.0-10.0-0.0","spark_pilot_2","7479","3","21","Male","","false","","","","","[890.3999999985099]","./assets/img/ocean/animals/octopus.jpg","[""ArrowLeft""]","second stage test","ocean","0","{""ArrowUp,ArrowLeft"":23,""ArrowUp,ArrowRight"":10,""ArrowDown,ArrowLeft"":8,""ArrowDown,ArrowRight"":30}","true","ArrowUp,ArrowLeft","","","","original","1","","","",""
"html-keyboard-response","271","1417047","0.0-4.0-10.0-1.0","spark_pilot_2","7479","3","21","Male","","","","","","","null","<div style=""font-size:60px;"">+</div>","null","fixation","","","","","","","","","","","","","",""
"revaluation","272","1417594","0.0-4.0-10.0-0.1","spark_pilot_2","7479","3","21","Male","","false","","","","","[541]","./assets/img/ocean/animals/octopus.jpg","[""ArrowLeft""]","second stage test","ocean","0","{""ArrowUp,ArrowLeft"":23,""ArrowUp,ArrowRight"":10,""ArrowDown,ArrowLeft"":8,""ArrowDown,ArrowRight"":30}","true","ArrowUp,ArrowLeft","","","","original","1","","","",""
"html-keyboard-response","273","1418101","0.0-4.0-10.0-1.1","spark_pilot_2","7479","3","21","Male","","","","","","","null","<div style=""font-size:60px;"">+</div>","null","fixation","","","","","","","","","","","","","",""
"revaluation","274","1418498","0.0-4.0-10.0-0.2","spark_pilot_2","7479","3","21","Male","","false","","","","","[392.69999999552965]","./assets/img/ocean/animals/octopus.jpg","[""ArrowLeft""]","second stage test","ocean","0","{""ArrowUp,ArrowLeft"":23,""ArrowUp,ArrowRight"":10,""ArrowDown,ArrowLeft"":8,""ArrowDown,ArrowRight"":30}","true","ArrowUp,ArrowLeft","","","","original","1","","","",""
"html-keyboard-response","275","1419013","0.0-4.0-10.0-1.2","spark_pilot_2","7479","3","21","Male","","","","","","","null","<div style=""font-size:60px;"">+</div>","null","fixation","","","","","","","","","","","","","",""
"revaluation","276","1419373","0.0-4.0-10.0-0.3","spark_pilot_2","7479","3","21","Male","","false","","","","","[354.20000000298023]","./assets/img/ocean/animals/octopus.jpg","[""ArrowLeft""]","second stage test","ocean","0","{""ArrowUp,ArrowLeft"":23,""ArrowUp,ArrowRight"":10,""ArrowDown,ArrowLeft"":8,""ArrowDown,ArrowRight"":30}","true","ArrowUp,ArrowLeft","","","","original","1","","","",""
"html-keyboard-response","277","1419876","0.0-4.0-10.0-1.3","spark_pilot_2","7479","3","21","Male","","","","","","","null","<div style=""font-size:60px;"">+</div>","null","fixation","","","","","","","","","","","","","",""
"revaluation","278","1420345","0.0-4.0-10.0-0.4","spark_pilot_2","7479","3","21","Male","","false","","","","","[464]","./assets/img/ocean/animals/seahorse.jpg","[""ArrowRight""]","second stage test","ocean","0","{""ArrowUp,ArrowLeft"":23,""ArrowUp,ArrowRight"":10,""ArrowDown,ArrowLeft"":8,""ArrowDown,ArrowRight"":30}","true","ArrowDown,ArrowRight","","","","original","1","","","",""
"html-keyboard-response","279","1420859","0.0-4.0-10.0-1.4","spark_pilot_2","7479","3","21","Male","","","","","","","null","<div style=""font-size:60px;"">+</div>","null","fixation","","","","","","","","","","","","","",""
"revaluation","280","1421169","0.0-4.0-10.0-0.5","spark_pilot_2","7479","3","21","Male","","false","","","","","[304.30000000447035]","./assets/img/ocean/animals/seahorse.jpg","[""ArrowRight""]","second stage test","ocean","0","{""ArrowUp,ArrowLeft"":23,""ArrowUp,ArrowRight"":10,""ArrowDown,ArrowLeft"":8,""ArrowDown,ArrowRight"":30}","true","ArrowDown,ArrowRight","","","","original","1","","","",""
"html-keyboard-response","281","1421676","0.0-4.0-10.0-1.5","spark_pilot_2","7479","3","21","Male","","","","","","","null","<div style=""font-size:60px;"">+</div>","null","fixation","","","","","","","","","","","","","",""
"revaluation","282","1422024","0.0-4.0-10.0-0.6","spark_pilot_2","7479","3","21","Male","","false","","","","","[341.8999999985099]","./assets/img/ocean/animals/seahorse.jpg","[""ArrowRight""]","second stage test","ocean","0","{""ArrowUp,ArrowLeft"":23,""ArrowUp,ArrowRight"":10,""ArrowDown,ArrowLeft"":8,""ArrowDown,ArrowRight"":30}","true","ArrowDown,ArrowRight","","","","original","1","","","",""
"html-keyboard-response","283","1422535","0.0-4.0-10.0-1.6","spark_pilot_2","7479","3","21","Male","","","","","","","null","<div style=""font-size:60px;"">+</div>","null","fixation","","","","","","","","","","","","","",""
"revaluation","284","1422876","0.0-4.0-10.0-0.7","spark_pilot_2","7479","3","21","Male","","false","","","","","[336]","./assets/img/ocean/animals/seahorse.jpg","[""ArrowRight""]","second stage test","ocean","0","{""ArrowUp,ArrowLeft"":23,""ArrowUp,ArrowRight"":10,""ArrowDown,ArrowLeft"":8,""ArrowDown,ArrowRight"":30}","true","ArrowDown,ArrowRight","","","","original","1","","","",""
"html-keyboard-response","285","1423383","0.0-4.0-10.0-1.7","spark_pilot_2","7479","3","21","Male","","","","","","","null","<div style=""font-size:60px;"">+</div>","null","fixation","","","","","","","","","","","","","",""
"learning-instructions","286","1427499","0.0-4.0-0.1-0.2","spark_pilot_2","7479","3","21","Male","","","","","","","1329.1000000014901","<p> This time you are searching for treasure in the <b>canyon</b>.</p>","","instructions","","","","","","","","","","","","","",""
"learning-instructions","287","1446215","0.0-4.0-0.1-0.3","spark_pilot_2","7479","3","21","Male","","","","","","","1454.3999999985099","<p><b>New</b> animals with <b>new</b> treasure chests live here. You need to explore to discover where the animal with the best treasure chest is.</p>
                    <p> Like before, once you figure out which animal has the chest with the most treasure, you should try to get to that animal and select that chest! </p>","","instructions","","","","","","","","","","","","","",""
"learning-instructions","288","1461703","0.0-4.0-1.1-0.1","spark_pilot_2","7479","3","21","Male","","","","","","","761.2999999970198","<p> Remember, when you see a picture of the place, use the up and down keys to <b>find an animal</b>.</p>
            <p> When you encounter an animal, you should use the left and right keys to <b>select a treasure chest</b>.</p>
            <p> Don't forget to look out for the robber! </p>","","instructions","","","","","","","","","","","","","",""
"revaluation","289","1467739","0.0-4.0-2.1-0.50","spark_pilot_2","7479","3","21","Male","","false","","","","","[901.8999999985099,613.7999999970198]","./assets/img/canyon/memory/13.jpg","[""ArrowDown"",""ArrowRight""]","value training","canyon","17","{""ArrowUp,ArrowLeft"":26,""ArrowUp,ArrowRight"":10,""ArrowDown,ArrowLeft"":5,""ArrowDown,ArrowRight"":17}","false","ArrowDown,ArrowRight","false","","","revaluation","2","0","","",""
"html-keyboard-response","290","1468254","0.0-4.0-2.1-1.50","spark_pilot_2","7479","3","21","Male","","","","","","","null","<div style=""font-size:60px;"">+</div>","null","fixation","","","","","","","","","","","1","","",""
"revaluation","291","1474296","0.0-4.0-2.1-0.51","spark_pilot_2","7479","3","21","Male","","false","","","","","[380.59999999403954,337.59999999403954]","./assets/img/canyon/memory/3.jpg","[""ArrowDown"",""ArrowLeft""]","value training","canyon","5","{""ArrowUp,ArrowLeft"":26,""ArrowUp,ArrowRight"":10,""ArrowDown,ArrowLeft"":5,""ArrowDown,ArrowRight"":17}","false","ArrowDown,ArrowLeft","false","","","revaluation","2","2","","",""
"html-keyboard-response","292","1474799","0.0-4.0-2.1-1.51","spark_pilot_2","7479","3","21","Male","","","","","","","null","<div style=""font-size:60px;"">+</div>","null","fixation","","","","","","","","","","","3","","",""
"revaluation","293","1480834","0.0-4.0-2.1-0.52","spark_pilot_2","7479","3","21","Male","","false","","","","","[545.7000000029802,380.59999999403954]","./assets/img/canyon/memory/32.jpg","[""ArrowUp"",""ArrowRight""]","value training","canyon","10","{""ArrowUp,ArrowLeft"":26,""ArrowUp,ArrowRight"":10,""ArrowDown,ArrowLeft"":5,""ArrowDown,ArrowRight"":17}","false","ArrowUp,ArrowRight","false","","","revaluation","2","4","","",""
"html-keyboard-response","294","1481336","0.0-4.0-2.1-1.52","spark_pilot_2","7479","3","21","Male","","","","","","","null","<div style=""font-size:60px;"">+</div>","null","fixation","","","","","","","","","","","5","","",""
"revaluation","295","1487374","0.0-4.0-2.1-0.53","spark_pilot_2","7479","3","21","Male","","false","","","","","[316.8999999985099,317.30000000447035]","./assets/img/canyon/memory/40.jpg","[""ArrowUp"",""ArrowLeft""]","value training","canyon","26","{""ArrowUp,ArrowLeft"":26,""ArrowUp,ArrowRight"":10,""ArrowDown,ArrowLeft"":5,""ArrowDown,ArrowRight"":17}","true","ArrowUp,ArrowLeft","false","","","revaluation","2","6","","",""
"html-keyboard-response","296","1487881","0.0-4.0-2.1-1.53","spark_pilot_2","7479","3","21","Male","","","","","","","null","<div style=""font-size:60px;"">+</div>","null","fixation","","","","","","","","","","","7","","",""
"revaluation","297","1493901","0.0-4.0-2.1-0.54","spark_pilot_2","7479","3","21","Male","","false","","","","","[455.20000000298023,294.19999999552965]","./assets/img/canyon/memory/9.jpg","[""ArrowDown"",""ArrowRight""]","value training","canyon","17","{""ArrowUp,ArrowLeft"":26,""ArrowUp,ArrowRight"":10,""ArrowDown,ArrowLeft"":5,""ArrowDown,ArrowRight"":17}","false","ArrowDown,ArrowRight","false","","","revaluation","2","8","","",""
"html-keyboard-response","298","1494402","0.0-4.0-2.1-1.54","spark_pilot_2","7479","3","21","Male","","","","","","","null","<div style=""font-size:60px;"">+</div>","null","fixation","","","","","","","","","","","9","","",""
"revaluation","299","1500410","0.0-4.0-2.1-0.55","spark_pilot_2","7479","3","21","Male","","false","","","","","[411.1000000014901,407.20000000298023]","./assets/img/canyon/memory/39.jpg","[""ArrowUp"",""ArrowLeft""]","value training","canyon","26","{""ArrowUp,ArrowLeft"":26,""ArrowUp,ArrowRight"":10,""ArrowDown,ArrowLeft"":5,""ArrowDown,ArrowRight"":17}","true","ArrowUp,ArrowLeft","false","","","revaluation","2","10","","",""
"html-keyboard-response","300","1500912","0.0-4.0-2.1-1.55","spark_pilot_2","7479","3","21","Male","","","","","","","null","<div style=""font-size:60px;"">+</div>","null","fixation","","","","","","","","","","","11","","",""
"revaluation","301","1506920","0.0-4.0-2.1-0.56","spark_pilot_2","7479","3","21","Male","","false","","","","","[301.3999999985099,455.3999999985099]","./assets/img/canyon/memory/31.jpg","[""ArrowUp"",""ArrowLeft""]","value training","canyon","26","{""ArrowUp,ArrowLeft"":26,""ArrowUp,ArrowRight"":10,""ArrowDown,ArrowLeft"":5,""ArrowDown,ArrowRight"":17}","true","ArrowUp,ArrowLeft","false","","","revaluation","2","12","","",""
"html-keyboard-response","302","1507422","0.0-4.0-2.1-1.56","spark_pilot_2","7479","3","21","Male","","","","","","","null","<div style=""font-size:60px;"">+</div>","null","fixation","","","","","","","","","","","13","","",""
"revaluation","303","1513431","0.0-4.0-2.1-0.57","spark_pilot_2","7479","3","21","Male","","false","","","","","[442.8999999985099,313.70000000298023]","./assets/img/canyon/memory/41.jpg","[""ArrowUp"",""ArrowLeft""]","value training","canyon","26","{""ArrowUp,ArrowLeft"":26,""ArrowUp,ArrowRight"":10,""ArrowDown,ArrowLeft"":5,""ArrowDown,ArrowRight"":17}","true","ArrowUp,ArrowLeft","false","","","revaluation","2","14","","",""
"html-keyboard-response","304","1513933","0.0-4.0-2.1-1.57","spark_pilot_2","7479","3","21","Male","","","","","","","null","<div style=""font-size:60px;"">+</div>","null","fixation","","","","","","","","","","","15","","",""
"revaluation","305","1517940","0.0-4.0-2.1-0.58","spark_pilot_2","7479","3","21","Male","","false","","","","","[405.79999999701977]","./assets/img/canyon/catch/2.jpg","[""ArrowUp""]","value training","canyon","-10","{""ArrowUp,ArrowLeft"":26,""ArrowUp,ArrowRight"":10,""ArrowDown,ArrowLeft"":5,""ArrowDown,ArrowRight"":17}","false","ArrowUp","true","","","revaluation","2","16","","",""
"html-keyboard-response","306","1518442","0.0-4.0-2.1-1.58","spark_pilot_2","7479","3","21","Male","","","","","","","null","<div style=""font-size:60px;"">+</div>","null","fixation","","","","","","","","","","","17","","",""
"revaluation","307","1524450","0.0-4.0-2.1-0.59","spark_pilot_2","7479","3","21","Male","","false","","","","","[519.6999999955297,349.5]","./assets/img/canyon/memory/11.jpg","[""ArrowUp"",""ArrowLeft""]","value training","canyon","26","{""ArrowUp,ArrowLeft"":26,""ArrowUp,ArrowRight"":10,""ArrowDown,ArrowLeft"":5,""ArrowDown,ArrowRight"":17}","true","ArrowUp,ArrowLeft","false","","","revaluation","2","18","","",""
