"trial_type","trial_index","time_elapsed","internal_node_id","task_version","subject_id","assigned_condition","age","gender","success","timeout","failed_images","failed_audio","failed_video","browser_interaction","rt","stimulus","response","task_part","environment","score","rewardMap","correct","fullState","isCatch","numberMissed","duration","condition","order","trial_num","key_press","ground_truth","bonus"
"pavlovia","0","1163","0.0-0.0","spark_pilot_2","7384","3","15","Female","","","","","","","","","","","","","","","","","","","","","","","",""
"preload","1","18897","0.0-1.0","spark_pilot_2","7384","3","15","Female","true","false","[]","[]","[]","[{""event"":""fullscreenenter"",""trial"":2,""time"":21693}]","","","","","","","","","","","","","","","","","",""
"fullscreen","2","22675","0.0-2.0","spark_pilot_2","7384","3","15","Female","true","","","","","","","","","","","","","","","","","","","","","","",""
"audio-button-response","3","25427","0.0-3.0-0.0-0.0","spark_pilot_2","7384","3","15","Female","","","","","","","2741","./assets/audio/audiotest/turtle.mp3","2","audio_test","","","","","","","","","","","","","",""
"learning-instructions","4","34854","0.0-3.0-1.0-0.0","spark_pilot_2","7384","3","15","Female","","","","","","","2431.7000000476837","<p> Welcome! Please remember to stay in fullscreen mode and don't click away from the experiment. </p>","","instructions","","","","","","","","","","","","","",""
"learning-instructions","5","45174","0.0-3.0-1.0-0.1","spark_pilot_2","7384","3","15","Female","","","","","","","1909.5","<p> Today you will be playing a game to earn treasure. </p>
            <p> At the end of the experiment, you will earn a bonus based on how much treasure you find. </p>
            <img src='./assets/img/instructions/treasure.jpg' class='instructions-image'>","","instructions","","","","","","","","","","","","","",""
"learning-instructions","6","55143","0.0-3.0-1.0-0.2","spark_pilot_2","7384","3","15","Female","","","","","","","1710.4000000953674","<p> Animals have hidden treasure in treasure chests. </p>
            <p> You need to first find an animal and then choose which of their treasure chests to search. </p>
            <img src='./assets/img/space/animals/cat.jpg' class='instructions-image'>","","instructions","","","","","","","","","","","","","",""
"learning-instructions","7","68643","0.0-3.0-1.0-0.3","spark_pilot_2","7384","3","15","Female","","","","","","","336.89999985694885","<p> In each round, you will search for treasure in a different place. In the real game, there will be two rounds. </p>
            <p> You will begin with a separate, practice round where you will search for treasure in outer space. </p>
            <img src='./assets/img/space/0.jpg' class='instructions-image'>","","instructions","","","","","","","","","","","","","",""
"learning-instructions","8","80704","0.0-3.0-1.0-0.4","spark_pilot_2","7384","3","15","Female","","","","","","","639","<p> On every turn, you will see a picture of the place that you are in, but the specific image may be different each time. </p>
            <p> For example, both of these images mean you are in outer space. </p>
            <img src='./assets/img/instructions/outerspace.jpg' class='instructions-image'>","","instructions","","","","","","","","","","","","","",""
"learning-instructions","9","89395","0.0-3.0-1.0-0.5","spark_pilot_2","7384","3","15","Female","","","","","","","869.6999998092651","<p> You need to decide which direction to travel in. </p>
            <p> You can choose between going <b>up or down</b> by using the arrow keys. </p>
            <img src='./assets/img/instructions/updown.jpg' class='instructions-image'>","","instructions","","","","","","","","","","","","","",""
"learning-instructions","10","98842","0.0-3.0-1.0-0.6","spark_pilot_2","7384","3","15","Female","","","","","","","626.9000000953674","<p> You will have <b>2 seconds</b> to make your choice. </p>
            <p> If you do not make a choice within 2 seconds, you will not find an animal or earn treasure. </p>
            <img src='./assets/img/instructions/2seconds.jpg' class='instructions-image'>","","instructions","","","","","","","","","","","","","",""
"learning-instructions","11","106977","0.0-3.0-1.0-0.7","spark_pilot_2","7384","3","15","Female","","","","","","","1100.7000000476837","<p> Let’s try practicing that now! </p>
            <p> When you see a picture of the place you are in, press the <b>up</b> key to travel up. </p>
            <img src='./assets/img/instructions/pressUp.jpg' class='instructions-image'>","","instructions","","","","","","","","","","","","","",""
"revaluation","12","111024","0.0-3.0-2.0-0.0","spark_pilot_2","7384","3","15","Female","","false","","","","","[1144.7000000476837]","./assets/img/space/0.jpg","[""ArrowUp""]","first stage practice","space","0","null","null","ArrowUp","false","","","","","","","",""
"html-keyboard-response","13","111530","0.0-3.0-2.0-1.0","spark_pilot_2","7384","3","15","Female","","","","","","","null","<div style=""font-size:60px;"">+</div>","null","fixation","","","","","","","","","","","","","",""
"revaluation","14","115540","0.0-3.0-2.0-0.1","spark_pilot_2","7384","3","15","Female","","false","","","","","[895.9000000953674]","./assets/img/space/1.jpg","[""ArrowUp""]","first stage practice","space","0","null","null","ArrowUp","false","","","","","","","",""
"html-keyboard-response","15","116043","0.0-3.0-2.0-1.1","spark_pilot_2","7384","3","15","Female","","","","","","","null","<div style=""font-size:60px;"">+</div>","null","fixation","","","","","","","","","","","","","",""
"revaluation","16","120065","0.0-3.0-2.0-0.2","spark_pilot_2","7384","3","15","Female","","false","","","","","[1752.2000000476837]","./assets/img/space/2.jpg","[""ArrowUp""]","first stage practice","space","0","null","null","ArrowUp","false","","","","","","","",""
"html-keyboard-response","17","120579","0.0-3.0-2.0-1.2","spark_pilot_2","7384","3","15","Female","","","","","","","null","<div style=""font-size:60px;"">+</div>","null","fixation","","","","","","","","","","","","","",""
"learning-instructions","18","125726","0.0-3.0-3.0-0.0","spark_pilot_2","7384","3","15","Female","","","","","","","439.89999985694885","<p> Great job! Now try pressing the <b>down</b> key to travel down. </p>
            <img src='./assets/img/instructions/pressDown.jpg' class='instructions-image'>","","instructions","","","","","","","","","","","","","",""
"revaluation","19","129760","0.0-3.0-4.0-0.0","spark_pilot_2","7384","3","15","Female","","false","","","","","[607.6999998092651]","./assets/img/space/3.jpg","[""ArrowDown""]","first stage practice","space","0","null","null","ArrowDown","false","","","","","","","",""
"html-keyboard-response","20","130268","0.0-3.0-4.0-1.0","spark_pilot_2","7384","3","15","Female","","","","","","","null","<div style=""font-size:60px;"">+</div>","null","fixation","","","","","","","","","","","","","",""
"revaluation","21","134299","0.0-3.0-4.0-0.1","spark_pilot_2","7384","3","15","Female","","false","","","","","[581.7000000476837]","./assets/img/space/4.jpg","[""ArrowDown""]","first stage practice","space","0","null","null","ArrowDown","false","","","","","","","",""
"html-keyboard-response","22","134812","0.0-3.0-4.0-1.1","spark_pilot_2","7384","3","15","Female","","","","","","","null","<div style=""font-size:60px;"">+</div>","null","fixation","","","","","","","","","","","","","",""
"revaluation","23","138828","0.0-3.0-4.0-0.2","spark_pilot_2","7384","3","15","Female","","false","","","","","[413.2000000476837]","./assets/img/space/5.jpg","[""ArrowDown""]","first stage practice","space","0","null","null","ArrowDown","false","","","","","","","",""
"html-keyboard-response","24","139346","0.0-3.0-4.0-1.2","spark_pilot_2","7384","3","15","Female","","","","","","","null","<div style=""font-size:60px;"">+</div>","null","fixation","","","","","","","","","","","","","",""
"learning-instructions","25","150697","0.0-3.0-5.0-0.0","spark_pilot_2","7384","3","15","Female","","","","","","","1498.9000000953674","<p> The animals don’t move, so the animal in the upper part of a place will stay in the upper part of a place, and the animal in the lower part of a place will stay in the lower part of a place. </p>","","instructions","","","","","","","","","","","","","",""
"learning-instructions","26","160898","0.0-3.0-5.0-0.1","spark_pilot_2","7384","3","15","Female","","","","","","","1070.0999999046326","<p> Each animal has two treasure chests for you to choose from. </p>
            <p> The amount of treasure in each chest can range from <b> 0 to 40 pieces.</b></p>","","instructions","","","","","","","","","","","","","",""
"learning-instructions","27","172846","0.0-3.0-5.0-0.2","spark_pilot_2","7384","3","15","Female","","","","","","","726.7999999523163","<p> You should decide which chest to search for treasure by using the <b>left</b> and <b>right</b> arrow keys. </p>
            <p><b> Pay attention to which animal is on the screen, as the animals have different treasure chests. </b></p>
            <img src='./assets/img/instructions/leftright.jpg' class='instructions-image'>","","instructions","","","","","","","","","","","","","",""
"learning-instructions","28","179930","0.0-3.0-5.0-0.3","spark_pilot_2","7384","3","15","Female","","","","","","","711.1000001430511","<p> Let’s try practicing that now. </p>
            <p> When you see an animal, choose which chest to search for treasure. </p>
            <img src='./assets/img/instructions/chooseChest.jpg' class='instructions-image'>","","instructions","","","","","","","","","","","","","",""
"revaluation","29","183948","0.0-3.0-6.0-0.0","spark_pilot_2","7384","3","15","Female","","false","","","","","[1493.6999998092651]","./assets/img/space/animals/cat.jpg","[""ArrowLeft""]","second stage practice","space","3","{""ArrowUp,ArrowLeft"":3,""ArrowUp,ArrowRight"":36,""ArrowDown,ArrowLeft"":15,""ArrowDown,ArrowRight"":23}","false","ArrowUp,ArrowLeft","","","","","","","","",""
"html-keyboard-response","30","184452","0.0-3.0-6.0-1.0","spark_pilot_2","7384","3","15","Female","","","","","","","null","<div style=""font-size:60px;"">+</div>","null","fixation","","","","","","","","","","","","","",""
"revaluation","31","188469","0.0-3.0-6.0-0.1","spark_pilot_2","7384","3","15","Female","","false","","","","","[577.0999999046326]","./assets/img/space/animals/rabbit.jpg","[""ArrowRight""]","second stage practice","space","23","{""ArrowUp,ArrowLeft"":3,""ArrowUp,ArrowRight"":36,""ArrowDown,ArrowLeft"":15,""ArrowDown,ArrowRight"":23}","true","ArrowDown,ArrowRight","","","","","","","","",""
"html-keyboard-response","32","188974","0.0-3.0-6.0-1.1","spark_pilot_2","7384","3","15","Female","","","","","","","null","<div style=""font-size:60px;"">+</div>","null","fixation","","","","","","","","","","","","","",""
"revaluation","33","193001","0.0-3.0-6.0-0.2","spark_pilot_2","7384","3","15","Female","","false","","","","","[482]","./assets/img/space/animals/cat.jpg","[""ArrowRight""]","second stage practice","space","36","{""ArrowUp,ArrowLeft"":3,""ArrowUp,ArrowRight"":36,""ArrowDown,ArrowLeft"":15,""ArrowDown,ArrowRight"":23}","true","ArrowUp,ArrowRight","","","","","","","","",""
"html-keyboard-response","34","193511","0.0-3.0-6.0-1.2","spark_pilot_2","7384","3","15","Female","","","","","","","null","<div style=""font-size:60px;"">+</div>","null","fixation","","","","","","","","","","","","","",""
"revaluation","35","197537","0.0-3.0-6.0-0.3","spark_pilot_2","7384","3","15","Female","","false","","","","","[333.2999999523163]","./assets/img/space/animals/rabbit.jpg","[""ArrowRight""]","second stage practice","space","23","{""ArrowUp,ArrowLeft"":3,""ArrowUp,ArrowRight"":36,""ArrowDown,ArrowLeft"":15,""ArrowDown,ArrowRight"":23}","true","ArrowDown,ArrowRight","","","","","","","","",""
"html-keyboard-response","36","198040","0.0-3.0-6.0-1.3","spark_pilot_2","7384","3","15","Female","","","","","","","null","<div style=""font-size:60px;"">+</div>","null","fixation","","","","","","","","","","","","","",""
"learning-instructions","37","216525","0.0-3.0-7.0-0.0","spark_pilot_2","7384","3","15","Female","","","","","","","1658.7999999523163","<p> Great job. Now let’s try putting it together. </p>
            <p> On each turn, you will first see a picture to remind you of the place you are in, and you need to choose whether to go up or down. </p>
            <p> Then you will see an animal and choose which of its chests to search for treasure. </p>","","instructions","","","","","","","","","","","","","",""
"learning-instructions","38","225285","0.0-3.0-7.0-0.1","spark_pilot_2","7384","3","15","Female","","","","","","","488.89999985694885","<p> When you choose whether to go up or down, try to go to the animal with the chest with the most treasure. </p>
            <p> Try practicing that now! </p>","","instructions","","","","","","","","","","","","","",""
"revaluation","39","231316","0.0-3.0-8.0-0.0","spark_pilot_2","7384","3","15","Female","","false","","","","","[965.9000000953674,1013.4000000953674]","./assets/img/space/6.jpg","[""ArrowUp"",""ArrowRight""]","full practice","space","36","{""ArrowUp,ArrowLeft"":3,""ArrowUp,ArrowRight"":36,""ArrowDown,ArrowLeft"":15,""ArrowDown,ArrowRight"":23}","true","ArrowUp,ArrowRight","false","","","","","","","",""
"html-keyboard-response","40","231824","0.0-3.0-8.0-1.0","spark_pilot_2","7384","3","15","Female","","","","","","","null","<div style=""font-size:60px;"">+</div>","null","fixation","","","","","","","","","","","","","",""
"revaluation","41","237863","0.0-3.0-8.0-0.1","spark_pilot_2","7384","3","15","Female","","false","","","","","[1141.2999999523163,646.3999998569489]","./assets/img/space/7.jpg","[""ArrowUp"",""ArrowRight""]","full practice","space","36","{""ArrowUp,ArrowLeft"":3,""ArrowUp,ArrowRight"":36,""ArrowDown,ArrowLeft"":15,""ArrowDown,ArrowRight"":23}","true","ArrowUp,ArrowRight","false","","","","","","","",""
"html-keyboard-response","42","238370","0.0-3.0-8.0-1.1","spark_pilot_2","7384","3","15","Female","","","","","","","null","<div style=""font-size:60px;"">+</div>","null","fixation","","","","","","","","","","","","","",""
"revaluation","43","244412","0.0-3.0-8.0-0.2","spark_pilot_2","7384","3","15","Female","","false","","","","","[1635.7000000476837,568.8999998569489]","./assets/img/space/8.jpg","[""ArrowDown"",""ArrowRight""]","full practice","space","23","{""ArrowUp,ArrowLeft"":3,""ArrowUp,ArrowRight"":36,""ArrowDown,ArrowLeft"":15,""ArrowDown,ArrowRight"":23}","false","ArrowDown,ArrowRight","false","","","","","","","",""
"html-keyboard-response","44","244922","0.0-3.0-8.0-1.2","spark_pilot_2","7384","3","15","Female","","","","","","","null","<div style=""font-size:60px;"">+</div>","null","fixation","","","","","","","","","","","","","",""
"revaluation","45","250952","0.0-3.0-8.0-0.3","spark_pilot_2","7384","3","15","Female","","false","","","","","[776.0999999046326,593.0999999046326]","./assets/img/space/9.jpg","[""ArrowDown"",""ArrowLeft""]","full practice","space","15","{""ArrowUp,ArrowLeft"":3,""ArrowUp,ArrowRight"":36,""ArrowDown,ArrowLeft"":15,""ArrowDown,ArrowRight"":23}","false","ArrowDown,ArrowLeft","false","","","","","","","",""
"html-keyboard-response","46","251462","0.0-3.0-8.0-1.3","spark_pilot_2","7384","3","15","Female","","","","","","","null","<div style=""font-size:60px;"">+</div>","null","fixation","","","","","","","","","","","","","",""
"revaluation","47","257495","0.0-3.0-8.0-0.4","spark_pilot_2","7384","3","15","Female","","false","","","","","[292.09999990463257,500.2000000476837]","./assets/img/space/10.jpg","[""ArrowUp"",""ArrowLeft""]","full practice","space","3","{""ArrowUp,ArrowLeft"":3,""ArrowUp,ArrowRight"":36,""ArrowDown,ArrowLeft"":15,""ArrowDown,ArrowRight"":23}","false","ArrowUp,ArrowLeft","false","","","","","","","",""
"html-keyboard-response","48","257996","0.0-3.0-8.0-1.4","spark_pilot_2","7384","3","15","Female","","","","","","","null","<div style=""font-size:60px;"">+</div>","null","fixation","","","","","","","","","","","","","",""
"learning-instructions","49","269331","0.0-3.0-9.0-0.0","spark_pilot_2","7384","3","15","Female","","","","","","","1032.4000000953674","<p> One last thing: sometimes, you will see a robber. The robber can be anywhere in the picture. </p>
            <p> If you do not stop them, you will lose treasure. </p>
            <img src='./assets/img/instructions/robber.jpg' class='instructions-image'>","","instructions","","","","","","","","","","","","","",""
"learning-instructions","50","277137","0.0-3.0-9.0-0.1","spark_pilot_2","7384","3","15","Female","","","","","","","638.8999998569489","<p> If you see the robber, you should <b>press the space bar</b> rather than using the arrow keys. </p>
            <p> Try practicing that now! </p>","","instructions","","","","","","","","","","","","","",""
"revaluation","51","281161","0.0-3.0-10.0-0.0","spark_pilot_2","7384","3","15","Female","","false","","","","","[1074.8000001907349]","./assets/img/space/catch/0.jpg","[""spaceBar""]","catch practice","space","0","{""ArrowUp,ArrowLeft"":3,""ArrowUp,ArrowRight"":36,""ArrowDown,ArrowLeft"":15,""ArrowDown,ArrowRight"":23}","true","spaceBar","true","","","","","","","",""
"html-keyboard-response","52","281664","0.0-3.0-10.0-1.0","spark_pilot_2","7384","3","15","Female","","","","","","","null","<div style=""font-size:60px;"">+</div>","null","fixation","","","","","","","","","","","","","",""
"revaluation","53","285688","0.0-3.0-10.0-0.1","spark_pilot_2","7384","3","15","Female","","false","","","","","[722.8999998569489]","./assets/img/space/catch/1.jpg","[""spaceBar""]","catch practice","space","0","{""ArrowUp,ArrowLeft"":3,""ArrowUp,ArrowRight"":36,""ArrowDown,ArrowLeft"":15,""ArrowDown,ArrowRight"":23}","true","spaceBar","true","","","","","","","",""
"html-keyboard-response","54","286204","0.0-3.0-10.0-1.1","spark_pilot_2","7384","3","15","Female","","","","","","","null","<div style=""font-size:60px;"">+</div>","null","fixation","","","","","","","","","","","","","",""
"revaluation","55","290229","0.0-3.0-10.0-0.2","spark_pilot_2","7384","3","15","Female","","false","","","","","[656.0999999046326]","./assets/img/space/catch/2.jpg","[""spaceBar""]","catch practice","space","0","{""ArrowUp,ArrowLeft"":3,""ArrowUp,ArrowRight"":36,""ArrowDown,ArrowLeft"":15,""ArrowDown,ArrowRight"":23}","true","spaceBar","true","","","","","","","",""
"html-keyboard-response","56","290741","0.0-3.0-10.0-1.2","spark_pilot_2","7384","3","15","Female","","","","","","","null","<div style=""font-size:60px;"">+</div>","null","fixation","","","","","","","","","","","","","",""
"learning-instructions","57","305587","0.0-3.0-11.0-0.0","spark_pilot_2","7384","3","15","Female","","","","","","","1219.9000000953674","<p> After you explore a place to find treasure, it will be time to play a different game. </p>
            <p> During this game, red dots will appear on the screen and fall down slowly. </p>
            <p><b> You must click on them before they reach the bottom. </b></p>
            <img src='./assets/img/instructions/dotGame.jpg' class='instructions-image'>","","instructions","","","","","","","","","","","","","",""
"learning-instructions","58","311857","0.0-3.0-11.0-0.1","spark_pilot_2","7384","3","15","Female","","","","","","","570.9000000953674","<p> For every dot you click, you will earn additional treasure. </p>
            <p> Let’s try practicing that now. </p>","","instructions","","","","","","","","","","","","","",""
"revaluation","59","326872","0.0-3.0-12.0-0.0","spark_pilot_2","7384","3","15","Female","","","","","","","[101]","","","rest practice","","10","","","","","0","15000","","","","","",""
"learning-instructions","60","333986","0.0-3.0-13.0-0.0-0.0","spark_pilot_2","7384","3","15","Female","","","","","","","1839","<p> Now, you will practice a shortened version of the game to get a sense of how it all fits together. </p>","","instructions","","","","","","","","","","","","","",""
"learning-instructions","61","337785","0.0-3.0-13.0-0.0-0.1","spark_pilot_2","7384","3","15","Female","","","","","","","578.5999999046326","<p>This time you are searching for treasure in outer space.</p>","","instructions","","","","","","","","","","","","","",""
"learning-instructions","62","353685","0.0-3.0-13.0-1.0-0.0","spark_pilot_2","7384","3","15","Female","","","","","","","1117.5","<p> Remember, when you see a picture of the place, use the up and down keys to <b>find an animal</b>.</p>
            <p> When you encounter an animal, you should use the left and right keys to <b>select a treasure chest</b>.</p>
            <p> Don't forget to look out for the robber! </p>","","instructions","","","","","","","","","","","","","",""
"revaluation","63","359718","0.0-3.0-13.0-2.0-0.0","spark_pilot_2","7384","3","15","Female","","false","","","","","[1245.2000000476837,523.7999999523163]","./assets/img/space/11.jpg","[""ArrowUp"",""ArrowRight""]","practice block","space","36","{""ArrowUp,ArrowLeft"":3,""ArrowUp,ArrowRight"":36,""ArrowDown,ArrowLeft"":15,""ArrowDown,ArrowRight"":23}","true","ArrowUp,ArrowRight","false","","","","","","","",""
"html-keyboard-response","64","360227","0.0-3.0-13.0-2.0-1.0","spark_pilot_2","7384","3","15","Female","","","","","","","null","<div style=""font-size:60px;"">+</div>","null","fixation","","","","","","","","","","","","","",""
"revaluation","65","366266","0.0-3.0-13.0-2.0-0.1","spark_pilot_2","7384","3","15","Female","","false","","","","","[389.7999999523163,724.5]","./assets/img/space/12.jpg","[""ArrowUp"",""ArrowLeft""]","practice block","space","3","{""ArrowUp,ArrowLeft"":3,""ArrowUp,ArrowRight"":36,""ArrowDown,ArrowLeft"":15,""ArrowDown,ArrowRight"":23}","false","ArrowUp,ArrowLeft","false","","","","","","","",""
"html-keyboard-response","66","366774","0.0-3.0-13.0-2.0-1.1","spark_pilot_2","7384","3","15","Female","","","","","","","null","<div style=""font-size:60px;"">+</div>","null","fixation","","","","","","","","","","","","","",""
"revaluation","67","372799","0.0-3.0-13.0-2.0-0.2","spark_pilot_2","7384","3","15","Female","","false","","","","","[316.60000014305115,408.90000009536743]","./assets/img/space/13.jpg","[""ArrowUp"",""ArrowRight""]","practice block","space","36","{""ArrowUp,ArrowLeft"":3,""ArrowUp,ArrowRight"":36,""ArrowDown,ArrowLeft"":15,""ArrowDown,ArrowRight"":23}","true","ArrowUp,ArrowRight","false","","","","","","","",""
"html-keyboard-response","68","373313","0.0-3.0-13.0-2.0-1.2","spark_pilot_2","7384","3","15","Female","","","","","","","null","<div style=""font-size:60px;"">+</div>","null","fixation","","","","","","","","","","","","","",""
"revaluation","69","379347","0.0-3.0-13.0-2.0-0.3","spark_pilot_2","7384","3","15","Female","","false","","","","","[927,409.89999985694885]","./assets/img/space/14.jpg","[""ArrowUp"",""ArrowRight""]","practice block","space","36","{""ArrowUp,ArrowLeft"":3,""ArrowUp,ArrowRight"":36,""ArrowDown,ArrowLeft"":15,""ArrowDown,ArrowRight"":23}","true","ArrowUp,ArrowRight","false","","","","","","","",""
"html-keyboard-response","70","379863","0.0-3.0-13.0-2.0-1.3","spark_pilot_2","7384","3","15","Female","","","","","","","null","<div style=""font-size:60px;"">+</div>","null","fixation","","","","","","","","","","","","","",""
"revaluation","71","385891","0.0-3.0-13.0-2.0-0.4","spark_pilot_2","7384","3","15","Female","","false","","","","","[1484.5,499.90000009536743]","./assets/img/space/11.jpg","[""ArrowUp"",""ArrowRight""]","practice block","space","36","{""ArrowUp,ArrowLeft"":3,""ArrowUp,ArrowRight"":36,""ArrowDown,ArrowLeft"":15,""ArrowDown,ArrowRight"":23}","true","ArrowUp,ArrowRight","false","","","","","","","",""
"html-keyboard-response","72","386401","0.0-3.0-13.0-2.0-1.4","spark_pilot_2","7384","3","15","Female","","","","","","","null","<div style=""font-size:60px;"">+</div>","null","fixation","","","","","","","","","","","","","",""
"revaluation","73","392426","0.0-3.0-13.0-2.0-0.5","spark_pilot_2","7384","3","15","Female","","false","","","","","[563,351.09999990463257]","./assets/img/space/12.jpg","[""ArrowUp"",""ArrowRight""]","practice block","space","36","{""ArrowUp,ArrowLeft"":3,""ArrowUp,ArrowRight"":36,""ArrowDown,ArrowLeft"":15,""ArrowDown,ArrowRight"":23}","true","ArrowUp,ArrowRight","false","","","","","","","",""
"html-keyboard-response","74","392936","0.0-3.0-13.0-2.0-1.5","spark_pilot_2","7384","3","15","Female","","","","","","","null","<div style=""font-size:60px;"">+</div>","null","fixation","","","","","","","","","","","","","",""
"revaluation","75","398955","0.0-3.0-13.0-2.0-0.6","spark_pilot_2","7384","3","15","Female","","false","","","","","[1038.2000000476837,317.60000014305115]","./assets/img/space/13.jpg","[""ArrowUp"",""ArrowRight""]","practice block","space","36","{""ArrowUp,ArrowLeft"":3,""ArrowUp,ArrowRight"":36,""ArrowDown,ArrowLeft"":15,""ArrowDown,ArrowRight"":23}","true","ArrowUp,ArrowRight","false","","","","","","","",""
"html-keyboard-response","76","399463","0.0-3.0-13.0-2.0-1.6","spark_pilot_2","7384","3","15","Female","","","","","","","null","<div style=""font-size:60px;"">+</div>","null","fixation","","","","","","","","","","","","","",""
"revaluation","77","405488","0.0-3.0-13.0-2.0-0.7","spark_pilot_2","7384","3","15","Female","","false","","","","","[1774.4000000953674,585.0999999046326]","./assets/img/space/14.jpg","[""ArrowUp"",""ArrowRight""]","practice block","space","36","{""ArrowUp,ArrowLeft"":3,""ArrowUp,ArrowRight"":36,""ArrowDown,ArrowLeft"":15,""ArrowDown,ArrowRight"":23}","true","ArrowUp,ArrowRight","false","","","","","","","",""
"html-keyboard-response","78","405991","0.0-3.0-13.0-2.0-1.7","spark_pilot_2","7384","3","15","Female","","","","","","","null","<div style=""font-size:60px;"">+</div>","null","fixation","","","","","","","","","","","","","",""
"revaluation","79","410001","0.0-3.0-13.0-2.0-0.8","spark_pilot_2","7384","3","15","Female","","false","","","","","[1564.5999999046326]","./assets/img/space/catch/3.jpg","[""spaceBar""]","practice block","space","0","{""ArrowUp,ArrowLeft"":3,""ArrowUp,ArrowRight"":36,""ArrowDown,ArrowLeft"":15,""ArrowDown,ArrowRight"":23}","true","spaceBar","true","","","","","","","",""
"html-keyboard-response","80","410516","0.0-3.0-13.0-2.0-1.8","spark_pilot_2","7384","3","15","Female","","","","","","","null","<div style=""font-size:60px;"">+</div>","null","fixation","","","","","","","","","","","","","",""
"learning-instructions","81","425015","0.0-3.0-13.0-3.0-0.0","spark_pilot_2","7384","3","15","Female","","","","","","","804.5999999046326","<p> Now, you will travel with a friend who will choose whether you go up or down first. </p>
            <p> On these turns, you will just see the animal that they found. You will still get to choose which chest to search for treasure.</p>","","instructions","","","","","","","","","","","","","",""
"revaluation","82","429027","0.0-3.0-13.0-4.0-0.0","spark_pilot_2","7384","3","15","Female","","true","","","","","[]","./assets/img/space/animals/cat.jpg","[]","practice block","space","-5","{""ArrowUp,ArrowLeft"":3,""ArrowUp,ArrowRight"":36,""ArrowDown,ArrowLeft"":15,""ArrowDown,ArrowRight"":23}","false","ArrowUp","","","","","","","","",""
"html-keyboard-response","83","429533","0.0-3.0-13.0-4.0-1.0","spark_pilot_2","7384","3","15","Female","","","","","","","null","<div style=""font-size:60px;"">+</div>","null","fixation","","","","","","","","","","","","","",""
"revaluation","84","433550","0.0-3.0-13.0-4.0-0.1","spark_pilot_2","7384","3","15","Female","","false","","","","","[582]","./assets/img/space/animals/rabbit.jpg","[""ArrowRight""]","practice block","space","23","{""ArrowUp,ArrowLeft"":3,""ArrowUp,ArrowRight"":36,""ArrowDown,ArrowLeft"":15,""ArrowDown,ArrowRight"":23}","true","ArrowDown,ArrowRight","","","","","","","","",""
"html-keyboard-response","85","434064","0.0-3.0-13.0-4.0-1.1","spark_pilot_2","7384","3","15","Female","","","","","","","null","<div style=""font-size:60px;"">+</div>","null","fixation","","","","","","","","","","","","","",""
"revaluation","86","438085","0.0-3.0-13.0-4.0-0.2","spark_pilot_2","7384","3","15","Female","","false","","","","","[320.10000014305115]","./assets/img/space/animals/rabbit.jpg","[""ArrowRight""]","practice block","space","23","{""ArrowUp,ArrowLeft"":3,""ArrowUp,ArrowRight"":36,""ArrowDown,ArrowLeft"":15,""ArrowDown,ArrowRight"":23}","true","ArrowDown,ArrowRight","","","","","","","","",""
"html-keyboard-response","87","438594","0.0-3.0-13.0-4.0-1.2","spark_pilot_2","7384","3","15","Female","","","","","","","null","<div style=""font-size:60px;"">+</div>","null","fixation","","","","","","","","","","","","","",""
"revaluation","88","442607","0.0-3.0-13.0-4.0-0.3","spark_pilot_2","7384","3","15","Female","","false","","","","","[634.5]","./assets/img/space/animals/cat.jpg","[""ArrowLeft""]","practice block","space","3","{""ArrowUp,ArrowLeft"":3,""ArrowUp,ArrowRight"":36,""ArrowDown,ArrowLeft"":15,""ArrowDown,ArrowRight"":23}","false","ArrowUp,ArrowLeft","","","","","","","","",""
"html-keyboard-response","89","443111","0.0-3.0-13.0-4.0-1.3","spark_pilot_2","7384","3","15","Female","","","","","","","null","<div style=""font-size:60px;"">+</div>","null","fixation","","","","","","","","","","","","","",""
"learning-instructions","90","451290","0.0-3.0-13.0-5.0-0.0","spark_pilot_2","7384","3","15","Female","","","","","","","789.8999998569489","<p> Time to play the dot game! </p>
            <p> For 15 seconds, click the red dots on the following screen as they appear. </p>","","instructions","","","","","","","","","","","","","",""
"revaluation","91","466293","0.0-3.0-13.0-6.0-0.0","spark_pilot_2","7384","3","15","Female","","","","","","","[141]","","","rest practice","","10","","","","","0","15000","","","","","",""
"learning-instructions","92","474488","0.0-3.0-13.0-7.0-0.0","spark_pilot_2","7384","3","15","Female","","","","","","","2057.7000000476837","<p> You have almost finished this part of the game! </p>
            <p> We are going to ask you to make a few more choices. </p>","","instructions","","","","","","","","","","","","","",""
"learning-instructions","93","494331","0.0-3.0-13.0-7.0-0.1","spark_pilot_2","7384","3","15","Female","","","","","","","5811","<p> First, you need to decide whether to go up or down. When you see each picture, use the arrow keys to make your choice. </p>
            <p><b>You will not see which animal you found, but try to get to the one that will give you the most treasure.</b></p>","","instructions","","","","","","","","","","","","","",""
"revaluation","94","495282","0.0-3.0-13.0-8.0","spark_pilot_2","7384","3","15","Female","","false","","","","","[946.5]","./assets/img/space/15.jpg","[""ArrowUp""]","practice block","space","0","{""ArrowUp,ArrowLeft"":3,""ArrowUp,ArrowRight"":36,""ArrowDown,ArrowLeft"":15,""ArrowDown,ArrowRight"":23}","true","ArrowUp","false","","","","","","","",""
"html-keyboard-response","95","495788","0.0-3.0-13.0-9.0","spark_pilot_2","7384","3","15","Female","","","","","","","null","<div style=""font-size:60px;"">+</div>","null","fixation","","","","","","","","","","","","","",""
"learning-instructions","96","507502","0.0-3.0-13.0-10.0-0.0","spark_pilot_2","7384","3","15","Female","","","","","","","313.59999990463257","<p> Now you will see the animals again and can search their chests for treasure. </p>
            <p> This time, you will not see how much treasure you earned, but you will earn more bonus money for making better choices. </p>","","instructions","","","","","","","","","","","","","",""
"revaluation","97","508425","0.0-3.0-13.0-11.0-0.0","spark_pilot_2","7384","3","15","Female","","false","","","","","[921.4000000953674]","./assets/img/space/animals/cat.jpg","[""ArrowRight""]","practice block","space","0","{""ArrowUp,ArrowLeft"":3,""ArrowUp,ArrowRight"":36,""ArrowDown,ArrowLeft"":15,""ArrowDown,ArrowRight"":23}","true","ArrowUp,ArrowRight","","","","","","","","",""
"html-keyboard-response","98","508941","0.0-3.0-13.0-11.0-1.0","spark_pilot_2","7384","3","15","Female","","","","","","","null","<div style=""font-size:60px;"">+</div>","null","fixation","","","","","","","","","","","","","",""
"revaluation","99","509875","0.0-3.0-13.0-11.0-0.1","spark_pilot_2","7384","3","15","Female","","false","","","","","[929.5]","./assets/img/space/animals/rabbit.jpg","[""ArrowLeft""]","practice block","space","0","{""ArrowUp,ArrowLeft"":3,""ArrowUp,ArrowRight"":36,""ArrowDown,ArrowLeft"":15,""ArrowDown,ArrowRight"":23}","false","ArrowDown,ArrowLeft","","","","","","","","",""
"html-keyboard-response","100","510380","0.0-3.0-13.0-11.0-1.1","spark_pilot_2","7384","3","15","Female","","","","","","","null","<div style=""font-size:60px;"">+</div>","null","fixation","","","","","","","","","","","","","",""
"learning-instructions","101","515923","0.0-3.0-14.0-0.0","spark_pilot_2","7384","3","15","Female","","","","","","","952.5999999046326","<p> Before you start, we're going to ask you a few questions about how the game works. </p>","","instructions","","","","","","","","","","","","","",""
"comp-q","102","523081","0.0-3.0-15.0-0.0-0.0","spark_pilot_2","7384","3","15","Female","","","","","","","1568.3999998569489","<p> <b> True or False? </b> </p>
            <p> There can be 50 pieces of treasure in a given animal's chest. </p>","1","comp_question","","","","true","","","","","","","","","",""
"comp-q","103","531206","0.0-3.0-15.0-0.0-1.0","spark_pilot_2","7384","3","15","Female","","","","","","","1455.7000000476837","<p> <b> That's right! </b> The amount of treasure in each chest can range from 0 to 40 pieces. </p>","0","comp_answer","","","","","","","","","","","","","",""
"comp-q","104","540294","0.0-3.0-15.0-0.1-0.1","spark_pilot_2","7384","3","15","Female","","","","","","","1954.2999999523163","<p> <b> True or False? </b> </p><p> In this game, all animals have the same amount of treasure in their left and right chests. </p>","1","comp_question","","","","true","","","","","","","","","",""
"comp-q","105","546372","0.0-3.0-15.0-0.1-1.1","spark_pilot_2","7384","3","15","Female","","","","","","","812.2999999523163","<p> <b> That's right! </b> Animals have different amounts of treasure in their treasure chests. </p>","0","comp_answer","","","","","","","","","","","","","",""
"comp-q","106","554693","0.0-3.0-15.0-0.2-0.2","spark_pilot_2","7384","3","15","Female","","","","","","","2432.600000143051","<p> <b> True or False? </b> </p><p> The same animal will always be there if you go up in the same place. </p>","0","comp_question","","","","true","","","","","","","","","",""
"comp-q","107","563474","0.0-3.0-15.0-0.2-1.2","spark_pilot_2","7384","3","15","Female","","","","","","","2323.800000190735","<p> <b> That's right! </b> One animal lives in the upper part and one lives in the lower part of every place. </p>","0","comp_answer","","","","","","","","","","","","","",""
"comp-q","108","571706","0.0-3.0-15.0-0.3-0.3","spark_pilot_2","7384","3","15","Female","","","","","","","2675","<p> <b> True or False? </b> </p><p> If you see a different picture, it means you are in a new place. </p>","1","comp_question","","","","true","","","","","","","","","",""
"comp-q","109","585564","0.0-3.0-15.0-0.3-1.3","spark_pilot_2","7384","3","15","Female","","","","","","","2564.399999856949","<p> <b> That's right! </b> Lots of different images may show the same place. For example,  you may see three different images that all remind you that you are in outer space. </p>","0","comp_answer","","","","","","","","","","","","","",""
"learning-instructions","110","613420","0.0-3.0-16.0-0.0","spark_pilot_2","7384","3","15","Female","","","","","","","17989.800000190735","<p> Good job. Remember to do your best because the amount of treasure you earn will be converted into bonus money. </p>
            <p> It’s time to start the real game! </p>","","instructions","","","","","","","","","","","","","",""
"learning-instructions","111","617561","0.0-4.0-0.0-0.0","spark_pilot_2","7384","3","15","Female","","","","","","","1412.5","<p> This time you are searching for treasure in the <b>ocean</b>.</p>","","instructions","","","","","","","","","","","","","",""
"learning-instructions","112","637547","0.0-4.0-0.0-0.1","spark_pilot_2","7384","3","15","Female","","","","","","","2668.4000000953674","<p><b>New</b> animals with <b>new</b> treasure chests live here. You need to explore to discover where the animal with the best treasure chest is.</p>
                    <p> Like before, once you figure out which animal has the chest with the most treasure, you should try to get to that animal and select that chest! </p>","","instructions","","","","","","","","","","","","","",""
"learning-instructions","113","655588","0.0-4.0-1.0-0.0","spark_pilot_2","7384","3","15","Female","","","","","","","3310.2000000476837","<p> Remember, when you see a picture of the place, use the up and down keys to <b>find an animal</b>.</p>
            <p> When you encounter an animal, you should use the left and right keys to <b>select a treasure chest</b>.</p>
            <p> Don't forget to look out for the robber! </p>","","instructions","","","","","","","","","","","","","",""
"revaluation","114","659604","0.0-4.0-2.0-0.0","spark_pilot_2","7384","3","15","Female","","false","","","","","[986.3000001907349]","./assets/img/ocean/catch/2.jpg","[""ArrowUp""]","value training","ocean","-10","{""ArrowUp,ArrowLeft"":23,""ArrowUp,ArrowRight"":10,""ArrowDown,ArrowLeft"":8,""ArrowDown,ArrowRight"":30}","false","ArrowUp","true","","","original","1","0","","",""
"html-keyboard-response","115","660113","0.0-4.0-2.0-1.0","spark_pilot_2","7384","3","15","Female","","","","","","","null","<div style=""font-size:60px;"">+</div>","null","fixation","","","","","","","","","","","1","","",""
"revaluation","116","666137","0.0-4.0-2.0-0.1","spark_pilot_2","7384","3","15","Female","","false","","","","","[784.9000000953674,302.5]","./assets/img/ocean/memory/17.jpg","[""ArrowUp"",""ArrowRight""]","value training","ocean","10","{""ArrowUp,ArrowLeft"":23,""ArrowUp,ArrowRight"":10,""ArrowDown,ArrowLeft"":8,""ArrowDown,ArrowRight"":30}","false","ArrowUp,ArrowRight","false","","","original","1","2","","",""
"html-keyboard-response","117","666645","0.0-4.0-2.0-1.1","spark_pilot_2","7384","3","15","Female","","","","","","","null","<div style=""font-size:60px;"">+</div>","null","fixation","","","","","","","","","","","3","","",""
"revaluation","118","672675","0.0-4.0-2.0-0.2","spark_pilot_2","7384","3","15","Female","","false","","","","","[565.5999999046326,261.59999990463257]","./assets/img/ocean/memory/7.jpg","[""ArrowUp"",""ArrowLeft""]","value training","ocean","23","{""ArrowUp,ArrowLeft"":23,""ArrowUp,ArrowRight"":10,""ArrowDown,ArrowLeft"":8,""ArrowDown,ArrowRight"":30}","false","ArrowUp,ArrowLeft","false","","","original","1","4","","",""
"html-keyboard-response","119","673186","0.0-4.0-2.0-1.2","spark_pilot_2","7384","3","15","Female","","","","","","","null","<div style=""font-size:60px;"">+</div>","null","fixation","","","","","","","","","","","5","","",""
"revaluation","120","679206","0.0-4.0-2.0-0.3","spark_pilot_2","7384","3","15","Female","","false","","","","","[606.4000000953674,366.2000000476837]","./assets/img/ocean/memory/36.jpg","[""ArrowDown"",""ArrowRight""]","value training","ocean","30","{""ArrowUp,ArrowLeft"":23,""ArrowUp,ArrowRight"":10,""ArrowDown,ArrowLeft"":8,""ArrowDown,ArrowRight"":30}","true","ArrowDown,ArrowRight","false","","","original","1","6","","",""
"html-keyboard-response","121","679718","0.0-4.0-2.0-1.3","spark_pilot_2","7384","3","15","Female","","","","","","","null","<div style=""font-size:60px;"">+</div>","null","fixation","","","","","","","","","","","7","","",""
"revaluation","122","683744","0.0-4.0-2.0-0.4","spark_pilot_2","7384","3","15","Female","","false","","","","","[741.8000001907349]","./assets/img/ocean/catch/1.jpg","[""spaceBar""]","value training","ocean","0","{""ArrowUp,ArrowLeft"":23,""ArrowUp,ArrowRight"":10,""ArrowDown,ArrowLeft"":8,""ArrowDown,ArrowRight"":30}","true","spaceBar","true","","","original","1","8","","",""
"html-keyboard-response","123","684253","0.0-4.0-2.0-1.4","spark_pilot_2","7384","3","15","Female","","","","","","","null","<div style=""font-size:60px;"">+</div>","null","fixation","","","","","","","","","","","9","","",""
"revaluation","124","690269","0.0-4.0-2.0-0.5","spark_pilot_2","7384","3","15","Female","","false","","","","","[462.59999990463257,254.10000014305115]","./assets/img/ocean/memory/22.jpg","[""ArrowDown"",""ArrowLeft""]","value training","ocean","8","{""ArrowUp,ArrowLeft"":23,""ArrowUp,ArrowRight"":10,""ArrowDown,ArrowLeft"":8,""ArrowDown,ArrowRight"":30}","false","ArrowDown,ArrowLeft","false","","","original","1","10","","",""
"html-keyboard-response","125","690779","0.0-4.0-2.0-1.5","spark_pilot_2","7384","3","15","Female","","","","","","","null","<div style=""font-size:60px;"">+</div>","null","fixation","","","","","","","","","","","11","","",""
"revaluation","126","696798","0.0-4.0-2.0-0.6","spark_pilot_2","7384","3","15","Female","","false","","","","","[654.2999999523163,227.80000019073486]","./assets/img/ocean/memory/28.jpg","[""ArrowDown"",""ArrowRight""]","value training","ocean","30","{""ArrowUp,ArrowLeft"":23,""ArrowUp,ArrowRight"":10,""ArrowDown,ArrowLeft"":8,""ArrowDown,ArrowRight"":30}","true","ArrowDown,ArrowRight","false","","","original","1","12","","",""
"html-keyboard-response","127","697303","0.0-4.0-2.0-1.6","spark_pilot_2","7384","3","15","Female","","","","","","","null","<div style=""font-size:60px;"">+</div>","null","fixation","","","","","","","","","","","13","","",""
"revaluation","128","703323","0.0-4.0-2.0-0.7","spark_pilot_2","7384","3","15","Female","","false","","","","","[683.2000000476837,472.7999999523163]","./assets/img/ocean/memory/36.jpg","[""ArrowDown"",""ArrowRight""]","value training","ocean","30","{""ArrowUp,ArrowLeft"":23,""ArrowUp,ArrowRight"":10,""ArrowDown,ArrowLeft"":8,""ArrowDown,ArrowRight"":30}","true","ArrowDown,ArrowRight","false","","","original","1","14","","",""
"html-keyboard-response","129","703827","0.0-4.0-2.0-1.7","spark_pilot_2","7384","3","15","Female","","","","","","","null","<div style=""font-size:60px;"">+</div>","null","fixation","","","","","","","","","","","15","","",""
"revaluation","130","709848","0.0-4.0-2.0-0.8","spark_pilot_2","7384","3","15","Female","","false","","","","","[533.1999998092651,109.20000004768372]","./assets/img/ocean/memory/1.jpg","[""ArrowDown"",""ArrowRight""]","value training","ocean","30","{""ArrowUp,ArrowLeft"":23,""ArrowUp,ArrowRight"":10,""ArrowDown,ArrowLeft"":8,""ArrowDown,ArrowRight"":30}","true","ArrowDown,ArrowRight","false","","","original","1","16","","",""
"html-keyboard-response","131","710352","0.0-4.0-2.0-1.8","spark_pilot_2","7384","3","15","Female","","","","","","","null","<div style=""font-size:60px;"">+</div>","null","fixation","","","","","","","","","","","17","","",""
"revaluation","132","716370","0.0-4.0-2.0-0.9","spark_pilot_2","7384","3","15","Female","","false","","","","","[981.2000000476837,222.79999995231628]","./assets/img/ocean/memory/11.jpg","[""ArrowDown"",""ArrowRight""]","value training","ocean","30","{""ArrowUp,ArrowLeft"":23,""ArrowUp,ArrowRight"":10,""ArrowDown,ArrowLeft"":8,""ArrowDown,ArrowRight"":30}","true","ArrowDown,ArrowRight","false","","","original","1","18","","",""
"html-keyboard-response","133","716884","0.0-4.0-2.0-1.9","spark_pilot_2","7384","3","15","Female","","","","","","","null","<div style=""font-size:60px;"">+</div>","null","fixation","","","","","","","","","","","19","","",""
"revaluation","134","722894","0.0-4.0-2.0-0.10","spark_pilot_2","7384","3","15","Female","","false","","","","","[470.5,298]","./assets/img/ocean/memory/29.jpg","[""ArrowDown"",""ArrowRight""]","value training","ocean","30","{""ArrowUp,ArrowLeft"":23,""ArrowUp,ArrowRight"":10,""ArrowDown,ArrowLeft"":8,""ArrowDown,ArrowRight"":30}","true","ArrowDown,ArrowRight","false","","","original","1","20","","",""
"html-keyboard-response","135","723403","0.0-4.0-2.0-1.10","spark_pilot_2","7384","3","15","Female","","","","","","","null","<div style=""font-size:60px;"">+</div>","null","fixation","","","","","","","","","","","21","","",""
"revaluation","136","729435","0.0-4.0-2.0-0.11","spark_pilot_2","7384","3","15","Female","","false","","","","","[601.3999998569489,262.09999990463257]","./assets/img/ocean/memory/4.jpg","[""ArrowDown"",""ArrowRight""]","value training","ocean","30","{""ArrowUp,ArrowLeft"":23,""ArrowUp,ArrowRight"":10,""ArrowDown,ArrowLeft"":8,""ArrowDown,ArrowRight"":30}","true","ArrowDown,ArrowRight","false","","","original","1","22","","",""
"html-keyboard-response","137","729937","0.0-4.0-2.0-1.11","spark_pilot_2","7384","3","15","Female","","","","","","","null","<div style=""font-size:60px;"">+</div>","null","fixation","","","","","","","","","","","23","","",""
"revaluation","138","733952","0.0-4.0-2.0-0.12","spark_pilot_2","7384","3","15","Female","","false","","","","","[830.9000000953674]","./assets/img/ocean/catch/4.jpg","[""spaceBar""]","value training","ocean","0","{""ArrowUp,ArrowLeft"":23,""ArrowUp,ArrowRight"":10,""ArrowDown,ArrowLeft"":8,""ArrowDown,ArrowRight"":30}","true","spaceBar","true","","","original","1","24","","",""
"html-keyboard-response","139","734457","0.0-4.0-2.0-1.12","spark_pilot_2","7384","3","15","Female","","","","","","","null","<div style=""font-size:60px;"">+</div>","null","fixation","","","","","","","","","","","25","","",""
"revaluation","140","738480","0.0-4.0-2.0-0.13","spark_pilot_2","7384","3","15","Female","","false","","","","","[686.0999999046326]","./assets/img/ocean/catch/0.jpg","[""spaceBar""]","value training","ocean","0","{""ArrowUp,ArrowLeft"":23,""ArrowUp,ArrowRight"":10,""ArrowDown,ArrowLeft"":8,""ArrowDown,ArrowRight"":30}","true","spaceBar","true","","","original","1","26","","",""
"html-keyboard-response","141","738989","0.0-4.0-2.0-1.13","spark_pilot_2","7384","3","15","Female","","","","","","","null","<div style=""font-size:60px;"">+</div>","null","fixation","","","","","","","","","","","27","","",""
"revaluation","142","745000","0.0-4.0-2.0-0.14","spark_pilot_2","7384","3","15","Female","","false","","","","","[530.6999998092651,298.60000014305115]","./assets/img/ocean/memory/28.jpg","[""ArrowDown"",""ArrowRight""]","value training","ocean","30","{""ArrowUp,ArrowLeft"":23,""ArrowUp,ArrowRight"":10,""ArrowDown,ArrowLeft"":8,""ArrowDown,ArrowRight"":30}","true","ArrowDown,ArrowRight","false","","","original","1","28","","",""
"html-keyboard-response","143","745509","0.0-4.0-2.0-1.14","spark_pilot_2","7384","3","15","Female","","","","","","","null","<div style=""font-size:60px;"">+</div>","null","fixation","","","","","","","","","","","29","","",""
"revaluation","144","751520","0.0-4.0-2.0-0.15","spark_pilot_2","7384","3","15","Female","","false","","","","","[899.5,185.20000004768372]","./assets/img/ocean/memory/11.jpg","[""ArrowDown"",""ArrowRight""]","value training","ocean","30","{""ArrowUp,ArrowLeft"":23,""ArrowUp,ArrowRight"":10,""ArrowDown,ArrowLeft"":8,""ArrowDown,ArrowRight"":30}","true","ArrowDown,ArrowRight","false","","","original","1","30","","",""
"html-keyboard-response","145","752025","0.0-4.0-2.0-1.15","spark_pilot_2","7384","3","15","Female","","","","","","","null","<div style=""font-size:60px;"">+</div>","null","fixation","","","","","","","","","","","31","","",""
"revaluation","146","756038","0.0-4.0-2.0-0.16","spark_pilot_2","7384","3","15","Female","","false","","","","","[786.7999999523163]","./assets/img/ocean/catch/6.jpg","[""spaceBar""]","value training","ocean","0","{""ArrowUp,ArrowLeft"":23,""ArrowUp,ArrowRight"":10,""ArrowDown,ArrowLeft"":8,""ArrowDown,ArrowRight"":30}","true","spaceBar","true","","","original","1","32","","",""
"html-keyboard-response","147","756544","0.0-4.0-2.0-1.16","spark_pilot_2","7384","3","15","Female","","","","","","","null","<div style=""font-size:60px;"">+</div>","null","fixation","","","","","","","","","","","33","","",""
"revaluation","148","762578","0.0-4.0-2.0-0.17","spark_pilot_2","7384","3","15","Female","","false","","","","","[932.5,271.09999990463257]","./assets/img/ocean/memory/27.jpg","[""ArrowDown"",""ArrowRight""]","value training","ocean","30","{""ArrowUp,ArrowLeft"":23,""ArrowUp,ArrowRight"":10,""ArrowDown,ArrowLeft"":8,""ArrowDown,ArrowRight"":30}","true","ArrowDown,ArrowRight","false","","","original","1","34","","",""
"html-keyboard-response","149","763083","0.0-4.0-2.0-1.17","spark_pilot_2","7384","3","15","Female","","","","","","","null","<div style=""font-size:60px;"">+</div>","null","fixation","","","","","","","","","","","35","","",""
"revaluation","150","769105","0.0-4.0-2.0-0.18","spark_pilot_2","7384","3","15","Female","","false","","","","","[540,266]","./assets/img/ocean/memory/4.jpg","[""ArrowDown"",""ArrowRight""]","value training","ocean","30","{""ArrowUp,ArrowLeft"":23,""ArrowUp,ArrowRight"":10,""ArrowDown,ArrowLeft"":8,""ArrowDown,ArrowRight"":30}","true","ArrowDown,ArrowRight","false","","","original","1","36","","",""
"html-keyboard-response","151","769612","0.0-4.0-2.0-1.18","spark_pilot_2","7384","3","15","Female","","","","","","","null","<div style=""font-size:60px;"">+</div>","null","fixation","","","","","","","","","","","37","","",""
"revaluation","152","775633","0.0-4.0-2.0-0.19","spark_pilot_2","7384","3","15","Female","","false","","","","","[630.2999999523163,297.7999999523163]","./assets/img/ocean/memory/13.jpg","[""ArrowDown"",""ArrowRight""]","value training","ocean","30","{""ArrowUp,ArrowLeft"":23,""ArrowUp,ArrowRight"":10,""ArrowDown,ArrowLeft"":8,""ArrowDown,ArrowRight"":30}","true","ArrowDown,ArrowRight","false","","","original","1","38","","",""
"html-keyboard-response","153","776141","0.0-4.0-2.0-1.19","spark_pilot_2","7384","3","15","Female","","","","","","","null","<div style=""font-size:60px;"">+</div>","null","fixation","","","","","","","","","","","39","","",""
"revaluation","154","782158","0.0-4.0-2.0-0.20","spark_pilot_2","7384","3","15","Female","","false","","","","","[506.7000000476837,317.2999999523163]","./assets/img/ocean/memory/39.jpg","[""ArrowDown"",""ArrowRight""]","value training","ocean","30","{""ArrowUp,ArrowLeft"":23,""ArrowUp,ArrowRight"":10,""ArrowDown,ArrowLeft"":8,""ArrowDown,ArrowRight"":30}","true","ArrowDown,ArrowRight","false","","","original","1","40","","",""
"html-keyboard-response","155","782661","0.0-4.0-2.0-1.20","spark_pilot_2","7384","3","15","Female","","","","","","","null","<div style=""font-size:60px;"">+</div>","null","fixation","","","","","","","","","","","41","","",""
"revaluation","156","786669","0.0-4.0-2.0-0.21","spark_pilot_2","7384","3","15","Female","","false","","","","","[517.7000000476837]","./assets/img/ocean/catch/3.jpg","[""spaceBar""]","value training","ocean","0","{""ArrowUp,ArrowLeft"":23,""ArrowUp,ArrowRight"":10,""ArrowDown,ArrowLeft"":8,""ArrowDown,ArrowRight"":30}","true","spaceBar","true","","","original","1","42","","",""
"html-keyboard-response","157","787171","0.0-4.0-2.0-1.21","spark_pilot_2","7384","3","15","Female","","","","","","","null","<div style=""font-size:60px;"">+</div>","null","fixation","","","","","","","","","","","43","","",""
"revaluation","158","793200","0.0-4.0-2.0-0.22","spark_pilot_2","7384","3","15","Female","","false","","","","","[1420.1999998092651,349.10000014305115]","./assets/img/ocean/memory/31.jpg","[""ArrowDown"",""ArrowRight""]","value training","ocean","30","{""ArrowUp,ArrowLeft"":23,""ArrowUp,ArrowRight"":10,""ArrowDown,ArrowLeft"":8,""ArrowDown,ArrowRight"":30}","true","ArrowDown,ArrowRight","false","","","original","1","44","","",""
"html-keyboard-response","159","793708","0.0-4.0-2.0-1.22","spark_pilot_2","7384","3","15","Female","","","","","","","null","<div style=""font-size:60px;"">+</div>","null","fixation","","","","","","","","","","","45","","",""
"revaluation","160","799733","0.0-4.0-2.0-0.23","spark_pilot_2","7384","3","15","Female","","false","","","","","[927.8000001907349,279.2000000476837]","./assets/img/ocean/memory/8.jpg","[""ArrowDown"",""ArrowRight""]","value training","ocean","30","{""ArrowUp,ArrowLeft"":23,""ArrowUp,ArrowRight"":10,""ArrowDown,ArrowLeft"":8,""ArrowDown,ArrowRight"":30}","true","ArrowDown,ArrowRight","false","","","original","1","46","","",""
"html-keyboard-response","161","800250","0.0-4.0-2.0-1.23","spark_pilot_2","7384","3","15","Female","","","","","","","null","<div style=""font-size:60px;"">+</div>","null","fixation","","","","","","","","","","","47","","",""
"revaluation","162","806273","0.0-4.0-2.0-0.24","spark_pilot_2","7384","3","15","Female","","false","","","","","[997.0999999046326,362.5]","./assets/img/ocean/memory/3.jpg","[""ArrowDown"",""ArrowRight""]","value training","ocean","30","{""ArrowUp,ArrowLeft"":23,""ArrowUp,ArrowRight"":10,""ArrowDown,ArrowLeft"":8,""ArrowDown,ArrowRight"":30}","true","ArrowDown,ArrowRight","false","","","original","1","48","","",""
"html-keyboard-response","163","806778","0.0-4.0-2.0-1.24","spark_pilot_2","7384","3","15","Female","","","","","","","null","<div style=""font-size:60px;"">+</div>","null","fixation","","","","","","","","","","","49","","",""
"revaluation","164","812796","0.0-4.0-2.0-0.25","spark_pilot_2","7384","3","15","Female","","false","","","","","[459,330.10000014305115]","./assets/img/ocean/memory/3.jpg","[""ArrowDown"",""ArrowRight""]","value training","ocean","30","{""ArrowUp,ArrowLeft"":23,""ArrowUp,ArrowRight"":10,""ArrowDown,ArrowLeft"":8,""ArrowDown,ArrowRight"":30}","true","ArrowDown,ArrowRight","false","","","original","1","50","","",""
"html-keyboard-response","165","813300","0.0-4.0-2.0-1.25","spark_pilot_2","7384","3","15","Female","","","","","","","null","<div style=""font-size:60px;"">+</div>","null","fixation","","","","","","","","","","","51","","",""
"revaluation","166","819317","0.0-4.0-2.0-0.26","spark_pilot_2","7384","3","15","Female","","false","","","","","[553.2999999523163,340.59999990463257]","./assets/img/ocean/memory/8.jpg","[""ArrowDown"",""ArrowRight""]","value training","ocean","30","{""ArrowUp,ArrowLeft"":23,""ArrowUp,ArrowRight"":10,""ArrowDown,ArrowLeft"":8,""ArrowDown,ArrowRight"":30}","true","ArrowDown,ArrowRight","false","","","original","1","52","","",""
"html-keyboard-response","167","819821","0.0-4.0-2.0-1.26","spark_pilot_2","7384","3","15","Female","","","","","","","null","<div style=""font-size:60px;"">+</div>","null","fixation","","","","","","","","","","","53","","",""
"revaluation","168","825839","0.0-4.0-2.0-0.27","spark_pilot_2","7384","3","15","Female","","false","","","","","[395.59999990463257,309.09999990463257]","./assets/img/ocean/memory/13.jpg","[""ArrowDown"",""ArrowRight""]","value training","ocean","30","{""ArrowUp,ArrowLeft"":23,""ArrowUp,ArrowRight"":10,""ArrowDown,ArrowLeft"":8,""ArrowDown,ArrowRight"":30}","true","ArrowDown,ArrowRight","false","","","original","1","54","","",""
"html-keyboard-response","169","826347","0.0-4.0-2.0-1.27","spark_pilot_2","7384","3","15","Female","","","","","","","null","<div style=""font-size:60px;"">+</div>","null","fixation","","","","","","","","","","","55","","",""
"revaluation","170","832360","0.0-4.0-2.0-0.28","spark_pilot_2","7384","3","15","Female","","false","","","","","[396.40000009536743,307.7999999523163]","./assets/img/ocean/memory/25.jpg","[""ArrowDown"",""ArrowRight""]","value training","ocean","30","{""ArrowUp,ArrowLeft"":23,""ArrowUp,ArrowRight"":10,""ArrowDown,ArrowLeft"":8,""ArrowDown,ArrowRight"":30}","true","ArrowDown,ArrowRight","false","","","original","1","56","","",""
"html-keyboard-response","171","832866","0.0-4.0-2.0-1.28","spark_pilot_2","7384","3","15","Female","","","","","","","null","<div style=""font-size:60px;"">+</div>","null","fixation","","","","","","","","","","","57","","",""
"revaluation","172","838892","0.0-4.0-2.0-0.29","spark_pilot_2","7384","3","15","Female","","false","","","","","[461.09999990463257,302.2000000476837]","./assets/img/ocean/memory/29.jpg","[""ArrowDown"",""ArrowRight""]","value training","ocean","30","{""ArrowUp,ArrowLeft"":23,""ArrowUp,ArrowRight"":10,""ArrowDown,ArrowLeft"":8,""ArrowDown,ArrowRight"":30}","true","ArrowDown,ArrowRight","false","","","original","1","58","","",""
"html-keyboard-response","173","839401","0.0-4.0-2.0-1.29","spark_pilot_2","7384","3","15","Female","","","","","","","null","<div style=""font-size:60px;"">+</div>","null","fixation","","","","","","","","","","","59","","",""
"revaluation","174","845427","0.0-4.0-2.0-0.30","spark_pilot_2","7384","3","15","Female","","false","","","","","[284.7999999523163,367.09999990463257]","./assets/img/ocean/memory/17.jpg","[""ArrowDown"",""ArrowRight""]","value training","ocean","30","{""ArrowUp,ArrowLeft"":23,""ArrowUp,ArrowRight"":10,""ArrowDown,ArrowLeft"":8,""ArrowDown,ArrowRight"":30}","true","ArrowDown,ArrowRight","false","","","original","1","60","","",""
"html-keyboard-response","175","845930","0.0-4.0-2.0-1.30","spark_pilot_2","7384","3","15","Female","","","","","","","null","<div style=""font-size:60px;"">+</div>","null","fixation","","","","","","","","","","","61","","",""
"revaluation","176","851941","0.0-4.0-2.0-0.31","spark_pilot_2","7384","3","15","Female","","false","","","","","[381.80000019073486,351.89999985694885]","./assets/img/ocean/memory/39.jpg","[""ArrowDown"",""ArrowRight""]","value training","ocean","30","{""ArrowUp,ArrowLeft"":23,""ArrowUp,ArrowRight"":10,""ArrowDown,ArrowLeft"":8,""ArrowDown,ArrowRight"":30}","true","ArrowDown,ArrowRight","false","","","original","1","62","","",""
"html-keyboard-response","177","852446","0.0-4.0-2.0-1.31","spark_pilot_2","7384","3","15","Female","","","","","","","null","<div style=""font-size:60px;"">+</div>","null","fixation","","","","","","","","","","","63","","",""
"revaluation","178","858462","0.0-4.0-2.0-0.32","spark_pilot_2","7384","3","15","Female","","false","","","","","[382.2000000476837,258.90000009536743]","./assets/img/ocean/memory/9.jpg","[""ArrowDown"",""ArrowRight""]","value training","ocean","30","{""ArrowUp,ArrowLeft"":23,""ArrowUp,ArrowRight"":10,""ArrowDown,ArrowLeft"":8,""ArrowDown,ArrowRight"":30}","true","ArrowDown,ArrowRight","false","","","original","1","64","","",""
"html-keyboard-response","179","858971","0.0-4.0-2.0-1.32","spark_pilot_2","7384","3","15","Female","","","","","","","null","<div style=""font-size:60px;"">+</div>","null","fixation","","","","","","","","","","","65","","",""
"revaluation","180","862982","0.0-4.0-2.0-0.33","spark_pilot_2","7384","3","15","Female","","false","","","","","[719.8999998569489]","./assets/img/ocean/catch/7.jpg","[""spaceBar""]","value training","ocean","0","{""ArrowUp,ArrowLeft"":23,""ArrowUp,ArrowRight"":10,""ArrowDown,ArrowLeft"":8,""ArrowDown,ArrowRight"":30}","true","spaceBar","true","","","original","1","66","","",""
"html-keyboard-response","181","863487","0.0-4.0-2.0-1.33","spark_pilot_2","7384","3","15","Female","","","","","","","null","<div style=""font-size:60px;"">+</div>","null","fixation","","","","","","","","","","","67","","",""
"revaluation","182","869508","0.0-4.0-2.0-0.34","spark_pilot_2","7384","3","15","Female","","false","","","","","[489.40000009536743,234]","./assets/img/ocean/memory/16.jpg","[""ArrowDown"",""ArrowRight""]","value training","ocean","30","{""ArrowUp,ArrowLeft"":23,""ArrowUp,ArrowRight"":10,""ArrowDown,ArrowLeft"":8,""ArrowDown,ArrowRight"":30}","true","ArrowDown,ArrowRight","false","","","original","1","68","","",""
"html-keyboard-response","183","870015","0.0-4.0-2.0-1.34","spark_pilot_2","7384","3","15","Female","","","","","","","null","<div style=""font-size:60px;"">+</div>","null","fixation","","","","","","","","","","","69","","",""
"revaluation","184","876026","0.0-4.0-2.0-0.35","spark_pilot_2","7384","3","15","Female","","false","","","","","[789.2000000476837,226.20000004768372]","./assets/img/ocean/memory/31.jpg","[""ArrowDown"",""ArrowRight""]","value training","ocean","30","{""ArrowUp,ArrowLeft"":23,""ArrowUp,ArrowRight"":10,""ArrowDown,ArrowLeft"":8,""ArrowDown,ArrowRight"":30}","true","ArrowDown,ArrowRight","false","","","original","1","70","","",""
"html-keyboard-response","185","876529","0.0-4.0-2.0-1.35","spark_pilot_2","7384","3","15","Female","","","","","","","null","<div style=""font-size:60px;"">+</div>","null","fixation","","","","","","","","","","","71","","",""
"revaluation","186","882551","0.0-4.0-2.0-0.36","spark_pilot_2","7384","3","15","Female","","false","","","","","[485.60000014305115,442.2000000476837]","./assets/img/ocean/memory/27.jpg","[""ArrowDown"",""ArrowRight""]","value training","ocean","30","{""ArrowUp,ArrowLeft"":23,""ArrowUp,ArrowRight"":10,""ArrowDown,ArrowLeft"":8,""ArrowDown,ArrowRight"":30}","true","ArrowDown,ArrowRight","false","","","original","1","72","","",""
"html-keyboard-response","187","883056","0.0-4.0-2.0-1.36","spark_pilot_2","7384","3","15","Female","","","","","","","null","<div style=""font-size:60px;"">+</div>","null","fixation","","","","","","","","","","","73","","",""
"revaluation","188","889077","0.0-4.0-2.0-0.37","spark_pilot_2","7384","3","15","Female","","false","","","","","[755.6999998092651,397.2999999523163]","./assets/img/ocean/memory/9.jpg","[""ArrowDown"",""ArrowRight""]","value training","ocean","30","{""ArrowUp,ArrowLeft"":23,""ArrowUp,ArrowRight"":10,""ArrowDown,ArrowLeft"":8,""ArrowDown,ArrowRight"":30}","true","ArrowDown,ArrowRight","false","","","original","1","74","","",""
"html-keyboard-response","189","889580","0.0-4.0-2.0-1.37","spark_pilot_2","7384","3","15","Female","","","","","","","null","<div style=""font-size:60px;"">+</div>","null","fixation","","","","","","","","","","","75","","",""
"revaluation","190","895595","0.0-4.0-2.0-0.38","spark_pilot_2","7384","3","15","Female","","false","","","","","[1190.9000000953674,435.2000000476837]","./assets/img/ocean/memory/14.jpg","[""ArrowDown"",""ArrowRight""]","value training","ocean","30","{""ArrowUp,ArrowLeft"":23,""ArrowUp,ArrowRight"":10,""ArrowDown,ArrowLeft"":8,""ArrowDown,ArrowRight"":30}","true","ArrowDown,ArrowRight","false","","","original","1","76","","",""
"html-keyboard-response","191","896096","0.0-4.0-2.0-1.38","spark_pilot_2","7384","3","15","Female","","","","","","","null","<div style=""font-size:60px;"">+</div>","null","fixation","","","","","","","","","","","77","","",""
"revaluation","192","902123","0.0-4.0-2.0-0.39","spark_pilot_2","7384","3","15","Female","","false","","","","","[427,283.80000019073486]","./assets/img/ocean/memory/0.jpg","[""ArrowDown"",""ArrowRight""]","value training","ocean","30","{""ArrowUp,ArrowLeft"":23,""ArrowUp,ArrowRight"":10,""ArrowDown,ArrowLeft"":8,""ArrowDown,ArrowRight"":30}","true","ArrowDown,ArrowRight","false","","","original","1","78","","",""
"html-keyboard-response","193","902625","0.0-4.0-2.0-1.39","spark_pilot_2","7384","3","15","Female","","","","","","","null","<div style=""font-size:60px;"">+</div>","null","fixation","","","","","","","","","","","79","","",""
"revaluation","194","908647","0.0-4.0-2.0-0.40","spark_pilot_2","7384","3","15","Female","","false","","","","","[462.09999990463257,319.7000000476837]","./assets/img/ocean/memory/7.jpg","[""ArrowDown"",""ArrowRight""]","value training","ocean","30","{""ArrowUp,ArrowLeft"":23,""ArrowUp,ArrowRight"":10,""ArrowDown,ArrowLeft"":8,""ArrowDown,ArrowRight"":30}","true","ArrowDown,ArrowRight","false","","","original","1","80","","",""
"html-keyboard-response","195","909149","0.0-4.0-2.0-1.40","spark_pilot_2","7384","3","15","Female","","","","","","","null","<div style=""font-size:60px;"">+</div>","null","fixation","","","","","","","","","","","81","","",""
"revaluation","196","915172","0.0-4.0-2.0-0.41","spark_pilot_2","7384","3","15","Female","","false","","","","","[710.2999999523163,375.7000000476837]","./assets/img/ocean/memory/14.jpg","[""ArrowDown"",""ArrowRight""]","value training","ocean","30","{""ArrowUp,ArrowLeft"":23,""ArrowUp,ArrowRight"":10,""ArrowDown,ArrowLeft"":8,""ArrowDown,ArrowRight"":30}","true","ArrowDown,ArrowRight","false","","","original","1","82","","",""
"html-keyboard-response","197","915686","0.0-4.0-2.0-1.41","spark_pilot_2","7384","3","15","Female","","","","","","","null","<div style=""font-size:60px;"">+</div>","null","fixation","","","","","","","","","","","83","","",""
"revaluation","198","919697","0.0-4.0-2.0-0.42","spark_pilot_2","7384","3","15","Female","","false","","","","","[429.59999990463257]","./assets/img/ocean/catch/5.jpg","[""ArrowDown""]","value training","ocean","-10","{""ArrowUp,ArrowLeft"":23,""ArrowUp,ArrowRight"":10,""ArrowDown,ArrowLeft"":8,""ArrowDown,ArrowRight"":30}","false","ArrowDown","true","","","original","1","84","","",""
"html-keyboard-response","199","920213","0.0-4.0-2.0-1.42","spark_pilot_2","7384","3","15","Female","","","","","","","null","<div style=""font-size:60px;"">+</div>","null","fixation","","","","","","","","","","","85","","",""
"revaluation","200","926225","0.0-4.0-2.0-0.43","spark_pilot_2","7384","3","15","Female","","false","","","","","[1840.1999998092651,485.90000009536743]","./assets/img/ocean/memory/25.jpg","[""ArrowDown"",""ArrowRight""]","value training","ocean","30","{""ArrowUp,ArrowLeft"":23,""ArrowUp,ArrowRight"":10,""ArrowDown,ArrowLeft"":8,""ArrowDown,ArrowRight"":30}","true","ArrowDown,ArrowRight","false","","","original","1","86","","",""
"html-keyboard-response","201","926736","0.0-4.0-2.0-1.43","spark_pilot_2","7384","3","15","Female","","","","","","","null","<div style=""font-size:60px;"">+</div>","null","fixation","","","","","","","","","","","87","","",""
"revaluation","202","932768","0.0-4.0-2.0-0.44","spark_pilot_2","7384","3","15","Female","","false","","","","","[578.7000000476837,358.39999985694885]","./assets/img/ocean/memory/0.jpg","[""ArrowDown"",""ArrowRight""]","value training","ocean","30","{""ArrowUp,ArrowLeft"":23,""ArrowUp,ArrowRight"":10,""ArrowDown,ArrowLeft"":8,""ArrowDown,ArrowRight"":30}","true","ArrowDown,ArrowRight","false","","","original","1","88","","",""
"html-keyboard-response","203","933276","0.0-4.0-2.0-1.44","spark_pilot_2","7384","3","15","Female","","","","","","","null","<div style=""font-size:60px;"">+</div>","null","fixation","","","","","","","","","","","89","","",""
"revaluation","204","939285","0.0-4.0-2.0-0.45","spark_pilot_2","7384","3","15","Female","","false","","","","","[439.09999990463257,314.5]","./assets/img/ocean/memory/16.jpg","[""ArrowDown"",""ArrowRight""]","value training","ocean","30","{""ArrowUp,ArrowLeft"":23,""ArrowUp,ArrowRight"":10,""ArrowDown,ArrowLeft"":8,""ArrowDown,ArrowRight"":30}","true","ArrowDown,ArrowRight","false","","","original","1","90","","",""
"html-keyboard-response","205","939787","0.0-4.0-2.0-1.45","spark_pilot_2","7384","3","15","Female","","","","","","","null","<div style=""font-size:60px;"">+</div>","null","fixation","","","","","","","","","","","91","","",""
"revaluation","206","945806","0.0-4.0-2.0-0.46","spark_pilot_2","7384","3","15","Female","","false","","","","","[356.80000019073486,303.2000000476837]","./assets/img/ocean/memory/1.jpg","[""ArrowDown"",""ArrowRight""]","value training","ocean","30","{""ArrowUp,ArrowLeft"":23,""ArrowUp,ArrowRight"":10,""ArrowDown,ArrowLeft"":8,""ArrowDown,ArrowRight"":30}","true","ArrowDown,ArrowRight","false","","","original","1","92","","",""
"html-keyboard-response","207","946316","0.0-4.0-2.0-1.46","spark_pilot_2","7384","3","15","Female","","","","","","","null","<div style=""font-size:60px;"">+</div>","null","fixation","","","","","","","","","","","93","","",""
"revaluation","208","952330","0.0-4.0-2.0-0.47","spark_pilot_2","7384","3","15","Female","","false","","","","","[454,392.10000014305115]","./assets/img/ocean/memory/2.jpg","[""ArrowDown"",""ArrowRight""]","value training","ocean","30","{""ArrowUp,ArrowLeft"":23,""ArrowUp,ArrowRight"":10,""ArrowDown,ArrowLeft"":8,""ArrowDown,ArrowRight"":30}","true","ArrowDown,ArrowRight","false","","","original","1","94","","",""
"html-keyboard-response","209","952836","0.0-4.0-2.0-1.47","spark_pilot_2","7384","3","15","Female","","","","","","","null","<div style=""font-size:60px;"">+</div>","null","fixation","","","","","","","","","","","95","","",""
"revaluation","210","958858","0.0-4.0-2.0-0.48","spark_pilot_2","7384","3","15","Female","","false","","","","","[534.7000000476837,481.30000019073486]","./assets/img/ocean/memory/2.jpg","[""ArrowDown"",""ArrowRight""]","value training","ocean","30","{""ArrowUp,ArrowLeft"":23,""ArrowUp,ArrowRight"":10,""ArrowDown,ArrowLeft"":8,""ArrowDown,ArrowRight"":30}","true","ArrowDown,ArrowRight","false","","","original","1","96","","",""
"html-keyboard-response","211","959362","0.0-4.0-2.0-1.48","spark_pilot_2","7384","3","15","Female","","","","","","","null","<div style=""font-size:60px;"">+</div>","null","fixation","","","","","","","","","","","97","","",""
"revaluation","212","965381","0.0-4.0-2.0-0.49","spark_pilot_2","7384","3","15","Female","","false","","","","","[604.1000001430511,372.39999985694885]","./assets/img/ocean/memory/22.jpg","[""ArrowDown"",""ArrowRight""]","value training","ocean","30","{""ArrowUp,ArrowLeft"":23,""ArrowUp,ArrowRight"":10,""ArrowDown,ArrowLeft"":8,""ArrowDown,ArrowRight"":30}","true","ArrowDown,ArrowRight","false","","","original","1","98","","",""
"html-keyboard-response","213","965888","0.0-4.0-2.0-1.49","spark_pilot_2","7384","3","15","Female","","","","","","","null","<div style=""font-size:60px;"">+</div>","null","fixation","","","","","","","","","","","99","","",""
"learning-instructions","214","995837","0.0-4.0-3.0-0.0","spark_pilot_2","7384","3","15","Female","","","","","","","16327.599999904633","<p> Now, you will travel with a friend who will choose whether you go up or down first. </p>
            <p> On these turns, you will just see the animal that they found. You will still get to choose which chest to search for treasure.</p>","","instructions","","","","","","","","","","","","","",""
"revaluation","215","999855","0.0-4.0-4.0-0.0","spark_pilot_2","7384","3","15","Female","","false","","","","","[1347.5999999046326]","./assets/img/ocean/animals/octopus.jpg","[""ArrowRight""]","revaluation","ocean","10","{""ArrowUp,ArrowLeft"":23,""ArrowUp,ArrowRight"":10,""ArrowDown,ArrowLeft"":8,""ArrowDown,ArrowRight"":30}","false","ArrowUp,ArrowRight","","","","original","1","0","","",""
"html-keyboard-response","216","1000367","0.0-4.0-4.0-1.0","spark_pilot_2","7384","3","15","Female","","","","","","","null","<div style=""font-size:60px;"">+</div>","null","fixation","","","","","","","","","","","1","","",""
"revaluation","217","1004393","0.0-4.0-4.0-0.1","spark_pilot_2","7384","3","15","Female","","false","","","","","[575.5999999046326]","./assets/img/ocean/animals/seahorse.jpg","[""ArrowRight""]","revaluation","ocean","30","{""ArrowUp,ArrowLeft"":23,""ArrowUp,ArrowRight"":10,""ArrowDown,ArrowLeft"":8,""ArrowDown,ArrowRight"":30}","true","ArrowDown,ArrowRight","","","","original","1","2","","",""
"html-keyboard-response","218","1004902","0.0-4.0-4.0-1.1","spark_pilot_2","7384","3","15","Female","","","","","","","null","<div style=""font-size:60px;"">+</div>","null","fixation","","","","","","","","","","","3","","",""
"revaluation","219","1008925","0.0-4.0-4.0-0.2","spark_pilot_2","7384","3","15","Female","","false","","","","","[474.7000000476837]","./assets/img/ocean/animals/seahorse.jpg","[""ArrowRight""]","revaluation","ocean","30","{""ArrowUp,ArrowLeft"":23,""ArrowUp,ArrowRight"":10,""ArrowDown,ArrowLeft"":8,""ArrowDown,ArrowRight"":30}","true","ArrowDown,ArrowRight","","","","original","1","4","","",""
"html-keyboard-response","220","1009442","0.0-4.0-4.0-1.2","spark_pilot_2","7384","3","15","Female","","","","","","","null","<div style=""font-size:60px;"">+</div>","null","fixation","","","","","","","","","","","5","","",""
"revaluation","221","1013456","0.0-4.0-4.0-0.3","spark_pilot_2","7384","3","15","Female","","false","","","","","[424]","./assets/img/ocean/animals/octopus.jpg","[""ArrowLeft""]","revaluation","ocean","23","{""ArrowUp,ArrowLeft"":23,""ArrowUp,ArrowRight"":10,""ArrowDown,ArrowLeft"":8,""ArrowDown,ArrowRight"":30}","true","ArrowUp,ArrowLeft","","","","original","1","6","","",""
"html-keyboard-response","222","1013968","0.0-4.0-4.0-1.3","spark_pilot_2","7384","3","15","Female","","","","","","","null","<div style=""font-size:60px;"">+</div>","null","fixation","","","","","","","","","","","7","","",""
"revaluation","223","1017982","0.0-4.0-4.0-0.4","spark_pilot_2","7384","3","15","Female","","false","","","","","[460.09999990463257]","./assets/img/ocean/animals/octopus.jpg","[""ArrowLeft""]","revaluation","ocean","23","{""ArrowUp,ArrowLeft"":23,""ArrowUp,ArrowRight"":10,""ArrowDown,ArrowLeft"":8,""ArrowDown,ArrowRight"":30}","true","ArrowUp,ArrowLeft","","","","original","1","8","","",""
"html-keyboard-response","224","1018489","0.0-4.0-4.0-1.4","spark_pilot_2","7384","3","15","Female","","","","","","","null","<div style=""font-size:60px;"">+</div>","null","fixation","","","","","","","","","","","9","","",""
"revaluation","225","1022504","0.0-4.0-4.0-0.5","spark_pilot_2","7384","3","15","Female","","false","","","","","[575.8999998569489]","./assets/img/ocean/animals/octopus.jpg","[""ArrowLeft""]","revaluation","ocean","23","{""ArrowUp,ArrowLeft"":23,""ArrowUp,ArrowRight"":10,""ArrowDown,ArrowLeft"":8,""ArrowDown,ArrowRight"":30}","true","ArrowUp,ArrowLeft","","","","original","1","10","","",""
"html-keyboard-response","226","1023006","0.0-4.0-4.0-1.5","spark_pilot_2","7384","3","15","Female","","","","","","","null","<div style=""font-size:60px;"">+</div>","null","fixation","","","","","","","","","","","11","","",""
"revaluation","227","1027019","0.0-4.0-4.0-0.6","spark_pilot_2","7384","3","15","Female","","false","","","","","[371.2999999523163]","./assets/img/ocean/animals/octopus.jpg","[""ArrowLeft""]","revaluation","ocean","23","{""ArrowUp,ArrowLeft"":23,""ArrowUp,ArrowRight"":10,""ArrowDown,ArrowLeft"":8,""ArrowDown,ArrowRight"":30}","true","ArrowUp,ArrowLeft","","","","original","1","12","","",""
"html-keyboard-response","228","1027526","0.0-4.0-4.0-1.6","spark_pilot_2","7384","3","15","Female","","","","","","","null","<div style=""font-size:60px;"">+</div>","null","fixation","","","","","","","","","","","13","","",""
"revaluation","229","1031547","0.0-4.0-4.0-0.7","spark_pilot_2","7384","3","15","Female","","false","","","","","[501.40000009536743]","./assets/img/ocean/animals/seahorse.jpg","[""ArrowRight""]","revaluation","ocean","30","{""ArrowUp,ArrowLeft"":23,""ArrowUp,ArrowRight"":10,""ArrowDown,ArrowLeft"":8,""ArrowDown,ArrowRight"":30}","true","ArrowDown,ArrowRight","","","","original","1","14","","",""
"html-keyboard-response","230","1032051","0.0-4.0-4.0-1.7","spark_pilot_2","7384","3","15","Female","","","","","","","null","<div style=""font-size:60px;"">+</div>","null","fixation","","","","","","","","","","","15","","",""
"revaluation","231","1036060","0.0-4.0-4.0-0.8","spark_pilot_2","7384","3","15","Female","","false","","","","","[399.7000000476837]","./assets/img/ocean/animals/seahorse.jpg","[""ArrowRight""]","revaluation","ocean","30","{""ArrowUp,ArrowLeft"":23,""ArrowUp,ArrowRight"":10,""ArrowDown,ArrowLeft"":8,""ArrowDown,ArrowRight"":30}","true","ArrowDown,ArrowRight","","","","original","1","16","","",""
"html-keyboard-response","232","1036569","0.0-4.0-4.0-1.8","spark_pilot_2","7384","3","15","Female","","","","","","","null","<div style=""font-size:60px;"">+</div>","null","fixation","","","","","","","","","","","17","","",""
"revaluation","233","1040581","0.0-4.0-4.0-0.9","spark_pilot_2","7384","3","15","Female","","false","","","","","[567.8999998569489]","./assets/img/ocean/animals/seahorse.jpg","[""ArrowRight""]","revaluation","ocean","30","{""ArrowUp,ArrowLeft"":23,""ArrowUp,ArrowRight"":10,""ArrowDown,ArrowLeft"":8,""ArrowDown,ArrowRight"":30}","true","ArrowDown,ArrowRight","","","","original","1","18","","",""
"html-keyboard-response","234","1041088","0.0-4.0-4.0-1.9","spark_pilot_2","7384","3","15","Female","","","","","","","null","<div style=""font-size:60px;"">+</div>","null","fixation","","","","","","","","","","","19","","",""
"revaluation","235","1045109","0.0-4.0-4.0-0.10","spark_pilot_2","7384","3","15","Female","","false","","","","","[608.8000001907349]","./assets/img/ocean/animals/octopus.jpg","[""ArrowLeft""]","revaluation","ocean","23","{""ArrowUp,ArrowLeft"":23,""ArrowUp,ArrowRight"":10,""ArrowDown,ArrowLeft"":8,""ArrowDown,ArrowRight"":30}","true","ArrowUp,ArrowLeft","","","","original","1","20","","",""
"html-keyboard-response","236","1045617","0.0-4.0-4.0-1.10","spark_pilot_2","7384","3","15","Female","","","","","","","null","<div style=""font-size:60px;"">+</div>","null","fixation","","","","","","","","","","","21","","",""
"revaluation","237","1049640","0.0-4.0-4.0-0.11","spark_pilot_2","7384","3","15","Female","","false","","","","","[520.8999998569489]","./assets/img/ocean/animals/octopus.jpg","[""ArrowLeft""]","revaluation","ocean","23","{""ArrowUp,ArrowLeft"":23,""ArrowUp,ArrowRight"":10,""ArrowDown,ArrowLeft"":8,""ArrowDown,ArrowRight"":30}","true","ArrowUp,ArrowLeft","","","","original","1","22","","",""
"html-keyboard-response","238","1050147","0.0-4.0-4.0-1.11","spark_pilot_2","7384","3","15","Female","","","","","","","null","<div style=""font-size:60px;"">+</div>","null","fixation","","","","","","","","","","","23","","",""
"revaluation","239","1054167","0.0-4.0-4.0-0.12","spark_pilot_2","7384","3","15","Female","","false","","","","","[578.1000001430511]","./assets/img/ocean/animals/seahorse.jpg","[""ArrowRight""]","revaluation","ocean","30","{""ArrowUp,ArrowLeft"":23,""ArrowUp,ArrowRight"":10,""ArrowDown,ArrowLeft"":8,""ArrowDown,ArrowRight"":30}","true","ArrowDown,ArrowRight","","","","original","1","24","","",""
"html-keyboard-response","240","1054674","0.0-4.0-4.0-1.12","spark_pilot_2","7384","3","15","Female","","","","","","","null","<div style=""font-size:60px;"">+</div>","null","fixation","","","","","","","","","","","25","","",""
"revaluation","241","1058685","0.0-4.0-4.0-0.13","spark_pilot_2","7384","3","15","Female","","false","","","","","[448.5]","./assets/img/ocean/animals/seahorse.jpg","[""ArrowRight""]","revaluation","ocean","30","{""ArrowUp,ArrowLeft"":23,""ArrowUp,ArrowRight"":10,""ArrowDown,ArrowLeft"":8,""ArrowDown,ArrowRight"":30}","true","ArrowDown,ArrowRight","","","","original","1","26","","",""
"html-keyboard-response","242","1059192","0.0-4.0-4.0-1.13","spark_pilot_2","7384","3","15","Female","","","","","","","null","<div style=""font-size:60px;"">+</div>","null","fixation","","","","","","","","","","","27","","",""
"revaluation","243","1063211","0.0-4.0-4.0-0.14","spark_pilot_2","7384","3","15","Female","","false","","","","","[976.1000001430511]","./assets/img/ocean/animals/seahorse.jpg","[""ArrowRight""]","revaluation","ocean","30","{""ArrowUp,ArrowLeft"":23,""ArrowUp,ArrowRight"":10,""ArrowDown,ArrowLeft"":8,""ArrowDown,ArrowRight"":30}","true","ArrowDown,ArrowRight","","","","original","1","28","","",""
"html-keyboard-response","244","1063716","0.0-4.0-4.0-1.14","spark_pilot_2","7384","3","15","Female","","","","","","","null","<div style=""font-size:60px;"">+</div>","null","fixation","","","","","","","","","","","29","","",""
"revaluation","245","1067727","0.0-4.0-4.0-0.15","spark_pilot_2","7384","3","15","Female","","false","","","","","[573.4000000953674]","./assets/img/ocean/animals/octopus.jpg","[""ArrowLeft""]","revaluation","ocean","23","{""ArrowUp,ArrowLeft"":23,""ArrowUp,ArrowRight"":10,""ArrowDown,ArrowLeft"":8,""ArrowDown,ArrowRight"":30}","true","ArrowUp,ArrowLeft","","","","original","1","30","","",""
"html-keyboard-response","246","1068236","0.0-4.0-4.0-1.15","spark_pilot_2","7384","3","15","Female","","","","","","","null","<div style=""font-size:60px;"">+</div>","null","fixation","","","","","","","","","","","31","","",""
"revaluation","247","1072249","0.0-4.0-4.0-0.16","spark_pilot_2","7384","3","15","Female","","false","","","","","[531.8999998569489]","./assets/img/ocean/animals/seahorse.jpg","[""ArrowRight""]","revaluation","ocean","30","{""ArrowUp,ArrowLeft"":23,""ArrowUp,ArrowRight"":10,""ArrowDown,ArrowLeft"":8,""ArrowDown,ArrowRight"":30}","true","ArrowDown,ArrowRight","","","","original","1","32","","",""
"html-keyboard-response","248","1072757","0.0-4.0-4.0-1.16","spark_pilot_2","7384","3","15","Female","","","","","","","null","<div style=""font-size:60px;"">+</div>","null","fixation","","","","","","","","","","","33","","",""
"revaluation","249","1076777","0.0-4.0-4.0-0.17","spark_pilot_2","7384","3","15","Female","","false","","","","","[516.5]","./assets/img/ocean/animals/octopus.jpg","[""ArrowLeft""]","revaluation","ocean","23","{""ArrowUp,ArrowLeft"":23,""ArrowUp,ArrowRight"":10,""ArrowDown,ArrowLeft"":8,""ArrowDown,ArrowRight"":30}","true","ArrowUp,ArrowLeft","","","","original","1","34","","",""
"html-keyboard-response","250","1077282","0.0-4.0-4.0-1.17","spark_pilot_2","7384","3","15","Female","","","","","","","null","<div style=""font-size:60px;"">+</div>","null","fixation","","","","","","","","","","","35","","",""
"learning-instructions","251","1090004","0.0-4.0-5.0-0.0","spark_pilot_2","7384","3","15","Female","","","","","","","618.2000000476837","<p> Time to play the dot game! </p>
            <p> For one minute, click the red dots on the following screen as they appear. </p>
            <p><b> Don't look away, as you will earn bonus for clicking dots</b>. </p>","","instructions","","","","","","","","","","","","","",""
"revaluation","252","1150009","0.0-4.0-6.0-0.0","spark_pilot_2","7384","3","15","Female","","","","","","","[107,81,105,77,116,92,123]","","","rest","","70","","","","","0","60000","","","","","",""
"learning-instructions","253","1158327","0.0-4.0-7.0-0.0","spark_pilot_2","7384","3","15","Female","","","","","","","1487.5","<p> You have almost finished this part of the game! </p>
            <p> We are going to ask you to make a few more choices. </p>","","instructions","","","","","","","","","","","","","",""
"learning-instructions","254","1174022","0.0-4.0-7.0-0.1","spark_pilot_2","7384","3","15","Female","","","","","","","1723.2000000476837","<p> First, you need to decide whether to go up or down. When you see each picture, use the arrow keys to make your choice. </p>
            <p><b>You will not see which animal you found, but try to get to the one that will give you the most treasure.</b></p>","","instructions","","","","","","","","","","","","","",""
"revaluation","255","1175156","0.0-4.0-8.0-0.0","spark_pilot_2","7384","3","15","Female","","false","","","","","[1130.0999999046326]","./assets/img/ocean/test/3.jpg","[""ArrowUp""]","first stage test","ocean","0","{""ArrowUp,ArrowLeft"":23,""ArrowUp,ArrowRight"":10,""ArrowDown,ArrowLeft"":8,""ArrowDown,ArrowRight"":30}","false","ArrowUp","false","","","original","1","","","",""
"html-keyboard-response","256","1175669","0.0-4.0-8.0-1.0","spark_pilot_2","7384","3","15","Female","","","","","","","null","<div style=""font-size:60px;"">+</div>","null","fixation","","","","","","","","","","","","","",""
"revaluation","257","1176280","0.0-4.0-8.0-0.1","spark_pilot_2","7384","3","15","Female","","false","","","","","[605.7000000476837]","./assets/img/ocean/test/2.jpg","[""ArrowUp""]","first stage test","ocean","0","{""ArrowUp,ArrowLeft"":23,""ArrowUp,ArrowRight"":10,""ArrowDown,ArrowLeft"":8,""ArrowDown,ArrowRight"":30}","false","ArrowUp","false","","","original","1","","","",""
"html-keyboard-response","258","1176790","0.0-4.0-8.0-1.1","spark_pilot_2","7384","3","15","Female","","","","","","","null","<div style=""font-size:60px;"">+</div>","null","fixation","","","","","","","","","","","","","",""
"revaluation","259","1177986","0.0-4.0-8.0-0.2","spark_pilot_2","7384","3","15","Female","","false","","","","","[1191.7000000476837]","./assets/img/ocean/test/1.jpg","[""ArrowUp""]","first stage test","ocean","0","{""ArrowUp,ArrowLeft"":23,""ArrowUp,ArrowRight"":10,""ArrowDown,ArrowLeft"":8,""ArrowDown,ArrowRight"":30}","false","ArrowUp","false","","","original","1","","","",""
"html-keyboard-response","260","1178498","0.0-4.0-8.0-1.2","spark_pilot_2","7384","3","15","Female","","","","","","","null","<div style=""font-size:60px;"">+</div>","null","fixation","","","","","","","","","","","","","",""
"revaluation","261","1179420","0.0-4.0-8.0-0.3","spark_pilot_2","7384","3","15","Female","","false","","","","","[916.8999998569489]","./assets/img/ocean/test/0.jpg","[""ArrowUp""]","first stage test","ocean","0","{""ArrowUp,ArrowLeft"":23,""ArrowUp,ArrowRight"":10,""ArrowDown,ArrowLeft"":8,""ArrowDown,ArrowRight"":30}","false","ArrowUp","false","","","original","1","","","",""
"html-keyboard-response","262","1179935","0.0-4.0-8.0-1.3","spark_pilot_2","7384","3","15","Female","","","","","","","null","<div style=""font-size:60px;"">+</div>","null","fixation","","","","","","","","","","","","","",""
"learning-instructions","263","1192553","0.0-4.0-9.0-0.0","spark_pilot_2","7384","3","15","Female","","","","","","","1270.5","<p> Now you will see the animals again and can search their chests for treasure. </p>
            <p> This time, you will not see how much treasure you earned, but you will earn more bonus money for making better choices. </p>","","instructions","","","","","","","","","","","","","",""
"revaluation","264","1193020","0.0-4.0-10.0-0.0","spark_pilot_2","7384","3","15","Female","","false","","","","","[464.39999985694885]","./assets/img/ocean/animals/octopus.jpg","[""ArrowRight""]","second stage test","ocean","0","{""ArrowUp,ArrowLeft"":23,""ArrowUp,ArrowRight"":10,""ArrowDown,ArrowLeft"":8,""ArrowDown,ArrowRight"":30}","false","ArrowUp,ArrowRight","","","","original","1","","","",""
"html-keyboard-response","265","1193533","0.0-4.0-10.0-1.0","spark_pilot_2","7384","3","15","Female","","","","","","","null","<div style=""font-size:60px;"">+</div>","null","fixation","","","","","","","","","","","","","",""
"revaluation","266","1194257","0.0-4.0-10.0-0.1","spark_pilot_2","7384","3","15","Female","","false","","","","","[721.0999999046326]","./assets/img/ocean/animals/octopus.jpg","[""ArrowLeft""]","second stage test","ocean","0","{""ArrowUp,ArrowLeft"":23,""ArrowUp,ArrowRight"":10,""ArrowDown,ArrowLeft"":8,""ArrowDown,ArrowRight"":30}","true","ArrowUp,ArrowLeft","","","","original","1","","","",""
"html-keyboard-response","267","1194768","0.0-4.0-10.0-1.1","spark_pilot_2","7384","3","15","Female","","","","","","","null","<div style=""font-size:60px;"">+</div>","null","fixation","","","","","","","","","","","","","",""
"revaluation","268","1195107","0.0-4.0-10.0-0.2","spark_pilot_2","7384","3","15","Female","","false","","","","","[333.2999999523163]","./assets/img/ocean/animals/octopus.jpg","[""ArrowLeft""]","second stage test","ocean","0","{""ArrowUp,ArrowLeft"":23,""ArrowUp,ArrowRight"":10,""ArrowDown,ArrowLeft"":8,""ArrowDown,ArrowRight"":30}","true","ArrowUp,ArrowLeft","","","","original","1","","","",""
"html-keyboard-response","269","1195617","0.0-4.0-10.0-1.2","spark_pilot_2","7384","3","15","Female","","","","","","","null","<div style=""font-size:60px;"">+</div>","null","fixation","","","","","","","","","","","","","",""
"revaluation","270","1195932","0.0-4.0-10.0-0.3","spark_pilot_2","7384","3","15","Female","","false","","","","","[310.90000009536743]","./assets/img/ocean/animals/octopus.jpg","[""ArrowLeft""]","second stage test","ocean","0","{""ArrowUp,ArrowLeft"":23,""ArrowUp,ArrowRight"":10,""ArrowDown,ArrowLeft"":8,""ArrowDown,ArrowRight"":30}","true","ArrowUp,ArrowLeft","","","","original","1","","","",""
"html-keyboard-response","271","1196448","0.0-4.0-10.0-1.3","spark_pilot_2","7384","3","15","Female","","","","","","","null","<div style=""font-size:60px;"">+</div>","null","fixation","","","","","","","","","","","","","",""
"revaluation","272","1197237","0.0-4.0-10.0-0.4","spark_pilot_2","7384","3","15","Female","","false","","","","","[784.5]","./assets/img/ocean/animals/seahorse.jpg","[""ArrowRight""]","second stage test","ocean","0","{""ArrowUp,ArrowLeft"":23,""ArrowUp,ArrowRight"":10,""ArrowDown,ArrowLeft"":8,""ArrowDown,ArrowRight"":30}","true","ArrowDown,ArrowRight","","","","original","1","","","",""
"html-keyboard-response","273","1197746","0.0-4.0-10.0-1.4","spark_pilot_2","7384","3","15","Female","","","","","","","null","<div style=""font-size:60px;"">+</div>","null","fixation","","","","","","","","","","","","","",""
"revaluation","274","1198051","0.0-4.0-10.0-0.5","spark_pilot_2","7384","3","15","Female","","false","","","","","[301]","./assets/img/ocean/animals/seahorse.jpg","[""ArrowRight""]","second stage test","ocean","0","{""ArrowUp,ArrowLeft"":23,""ArrowUp,ArrowRight"":10,""ArrowDown,ArrowLeft"":8,""ArrowDown,ArrowRight"":30}","true","ArrowDown,ArrowRight","","","","original","1","","","",""
"html-keyboard-response","275","1198567","0.0-4.0-10.0-1.5","spark_pilot_2","7384","3","15","Female","","","","","","","null","<div style=""font-size:60px;"">+</div>","null","fixation","","","","","","","","","","","","","",""
"revaluation","276","1198932","0.0-4.0-10.0-0.6","spark_pilot_2","7384","3","15","Female","","false","","","","","[360.60000014305115]","./assets/img/ocean/animals/seahorse.jpg","[""ArrowRight""]","second stage test","ocean","0","{""ArrowUp,ArrowLeft"":23,""ArrowUp,ArrowRight"":10,""ArrowDown,ArrowLeft"":8,""ArrowDown,ArrowRight"":30}","true","ArrowDown,ArrowRight","","","","original","1","","","",""
"html-keyboard-response","277","1199445","0.0-4.0-10.0-1.6","spark_pilot_2","7384","3","15","Female","","","","","","","null","<div style=""font-size:60px;"">+</div>","null","fixation","","","","","","","","","","","","","",""
"revaluation","278","1199790","0.0-4.0-10.0-0.7","spark_pilot_2","7384","3","15","Female","","false","","","","","[340.7999999523163]","./assets/img/ocean/animals/seahorse.jpg","[""ArrowRight""]","second stage test","ocean","0","{""ArrowUp,ArrowLeft"":23,""ArrowUp,ArrowRight"":10,""ArrowDown,ArrowLeft"":8,""ArrowDown,ArrowRight"":30}","true","ArrowDown,ArrowRight","","","","original","1","","","",""
"html-keyboard-response","279","1200293","0.0-4.0-10.0-1.7","spark_pilot_2","7384","3","15","Female","","","","","","","null","<div style=""font-size:60px;"">+</div>","null","fixation","","","","","","","","","","","","","",""
"learning-instructions","280","1203633","0.0-4.0-0.1-0.2","spark_pilot_2","7384","3","15","Female","","","","","","","540.1000001430511","<p> This time you are searching for treasure in the <b>canyon</b>.</p>","","instructions","","","","","","","","","","","","","",""
"learning-instructions","281","1223409","0.0-4.0-0.1-0.3","spark_pilot_2","7384","3","15","Female","","","","","","","2527","<p><b>New</b> animals with <b>new</b> treasure chests live here. You need to explore to discover where the animal with the best treasure chest is.</p>
                    <p> Like before, once you figure out which animal has the chest with the most treasure, you should try to get to that animal and select that chest! </p>","","instructions","","","","","","","","","","","","","",""
"learning-instructions","282","1238900","0.0-4.0-1.1-0.1","spark_pilot_2","7384","3","15","Female","","","","","","","758.2000000476837","<p> Remember, when you see a picture of the place, use the up and down keys to <b>find an animal</b>.</p>
            <p> When you encounter an animal, you should use the left and right keys to <b>select a treasure chest</b>.</p>
            <p> Don't forget to look out for the robber! </p>","","instructions","","","","","","","","","","","","","",""
"revaluation","283","1244930","0.0-4.0-2.1-0.50","spark_pilot_2","7384","3","15","Female","","false","","","","","[739.3000001907349,493.40000009536743]","./assets/img/canyon/memory/8.jpg","[""ArrowUp"",""ArrowRight""]","value training","canyon","10","{""ArrowUp,ArrowLeft"":26,""ArrowUp,ArrowRight"":10,""ArrowDown,ArrowLeft"":5,""ArrowDown,ArrowRight"":17}","false","ArrowUp,ArrowRight","false","","","revaluation","2","0","","",""
"html-keyboard-response","284","1245445","0.0-4.0-2.1-1.50","spark_pilot_2","7384","3","15","Female","","","","","","","null","<div style=""font-size:60px;"">+</div>","null","fixation","","","","","","","","","","","1","","",""
"revaluation","285","1251481","0.0-4.0-2.1-0.51","spark_pilot_2","7384","3","15","Female","","false","","","","","[304.09999990463257,600.5]","./assets/img/canyon/memory/28.jpg","[""ArrowUp"",""ArrowLeft""]","value training","canyon","26","{""ArrowUp,ArrowLeft"":26,""ArrowUp,ArrowRight"":10,""ArrowDown,ArrowLeft"":5,""ArrowDown,ArrowRight"":17}","true","ArrowUp,ArrowLeft","false","","","revaluation","2","2","","",""
"html-keyboard-response","286","1251988","0.0-4.0-2.1-1.51","spark_pilot_2","7384","3","15","Female","","","","","","","null","<div style=""font-size:60px;"">+</div>","null","fixation","","","","","","","","","","","3","","",""
"revaluation","287","1258015","0.0-4.0-2.1-0.52","spark_pilot_2","7384","3","15","Female","","false","","","","","[632.9000000953674,982]","./assets/img/canyon/memory/7.jpg","[""ArrowDown"",""ArrowRight""]","value training","canyon","17","{""ArrowUp,ArrowLeft"":26,""ArrowUp,ArrowRight"":10,""ArrowDown,ArrowLeft"":5,""ArrowDown,ArrowRight"":17}","false","ArrowDown,ArrowRight","false","","","revaluation","2","4","","",""
"html-keyboard-response","288","1258527","0.0-4.0-2.1-1.52","spark_pilot_2","7384","3","15","Female","","","","","","","null","<div style=""font-size:60px;"">+</div>","null","fixation","","","","","","","","","","","5","","",""
"revaluation","289","1264545","0.0-4.0-2.1-0.53","spark_pilot_2","7384","3","15","Female","","false","","","","","[931.3999998569489,387.7999999523163]","./assets/img/canyon/memory/0.jpg","[""ArrowDown"",""ArrowLeft""]","value training","canyon","5","{""ArrowUp,ArrowLeft"":26,""ArrowUp,ArrowRight"":10,""ArrowDown,ArrowLeft"":5,""ArrowDown,ArrowRight"":17}","false","ArrowDown,ArrowLeft","false","","","revaluation","2","6","","",""
"html-keyboard-response","290","1265058","0.0-4.0-2.1-1.53","spark_pilot_2","7384","3","15","Female","","","","","","","null","<div style=""font-size:60px;"">+</div>","null","fixation","","","","","","","","","","","7","","",""
"revaluation","291","1269077","0.0-4.0-2.1-0.54","spark_pilot_2","7384","3","15","Female","","false","","","","","[951.7000000476837]","./assets/img/canyon/catch/3.jpg","[""spaceBar""]","value training","canyon","0","{""ArrowUp,ArrowLeft"":26,""ArrowUp,ArrowRight"":10,""ArrowDown,ArrowLeft"":5,""ArrowDown,ArrowRight"":17}","true","spaceBar","true","","","revaluation","2","8","","",""
"html-keyboard-response","292","1269585","0.0-4.0-2.1-1.54","spark_pilot_2","7384","3","15","Female","","","","","","","null","<div style=""font-size:60px;"">+</div>","null","fixation","","","","","","","","","","","9","","",""
"revaluation","293","1275602","0.0-4.0-2.1-0.55","spark_pilot_2","7384","3","15","Female","","false","","","","","[936.9000000953674,259.2999999523163]","./assets/img/canyon/memory/39.jpg","[""ArrowUp"",""ArrowLeft""]","value training","canyon","26","{""ArrowUp,ArrowLeft"":26,""ArrowUp,ArrowRight"":10,""ArrowDown,ArrowLeft"":5,""ArrowDown,ArrowRight"":17}","true","ArrowUp,ArrowLeft","false","","","revaluation","2","10","","",""
"html-keyboard-response","294","1276109","0.0-4.0-2.1-1.55","spark_pilot_2","7384","3","15","Female","","","","","","","null","<div style=""font-size:60px;"">+</div>","null","fixation","","","","","","","","","","","11","","",""
"revaluation","295","1280120","0.0-4.0-2.1-0.56","spark_pilot_2","7384","3","15","Female","","false","","","","","[786.3999998569489]","./assets/img/canyon/catch/5.jpg","[""spaceBar""]","value training","canyon","0","{""ArrowUp,ArrowLeft"":26,""ArrowUp,ArrowRight"":10,""ArrowDown,ArrowLeft"":5,""ArrowDown,ArrowRight"":17}","true","spaceBar","true","","","revaluation","2","12","","",""
"html-keyboard-response","296","1280632","0.0-4.0-2.1-1.56","spark_pilot_2","7384","3","15","Female","","","","","","","null","<div style=""font-size:60px;"">+</div>","null","fixation","","","","","","","","","","","13","","",""
"revaluation","297","1286661","0.0-4.0-2.1-0.57","spark_pilot_2","7384","3","15","Female","","false","","","","","[416.90000009536743,340.5]","./assets/img/canyon/memory/0.jpg","[""ArrowUp"",""ArrowLeft""]","value training","canyon","26","{""ArrowUp,ArrowLeft"":26,""ArrowUp,ArrowRight"":10,""ArrowDown,ArrowLeft"":5,""ArrowDown,ArrowRight"":17}","true","ArrowUp,ArrowLeft","false","","","revaluation","2","14","","",""
"html-keyboard-response","298","1287167","0.0-4.0-2.1-1.57","spark_pilot_2","7384","3","15","Female","","","","","","","null","<div style=""font-size:60px;"">+</div>","null","fixation","","","","","","","","","","","15","","",""
"revaluation","299","1293187","0.0-4.0-2.1-0.58","spark_pilot_2","7384","3","15","Female","","false","","","","","[746.2000000476837,321.60000014305115]","./assets/img/canyon/memory/22.jpg","[""ArrowUp"",""ArrowLeft""]","value training","canyon","26","{""ArrowUp,ArrowLeft"":26,""ArrowUp,ArrowRight"":10,""ArrowDown,ArrowLeft"":5,""ArrowDown,ArrowRight"":17}","true","ArrowUp,ArrowLeft","false","","","revaluation","2","16","","",""
"html-keyboard-response","300","1293695","0.0-4.0-2.1-1.58","spark_pilot_2","7384","3","15","Female","","","","","","","null","<div style=""font-size:60px;"">+</div>","null","fixation","","","","","","","","","","","17","","",""
"revaluation","301","1299716","0.0-4.0-2.1-0.59","spark_pilot_2","7384","3","15","Female","","false","","","","","[526.8000001907349,359.59999990463257]","./assets/img/canyon/memory/29.jpg","[""ArrowUp"",""ArrowLeft""]","value training","canyon","26","{""ArrowUp,ArrowLeft"":26,""ArrowUp,ArrowRight"":10,""ArrowDown,ArrowLeft"":5,""ArrowDown,ArrowRight"":17}","true","ArrowUp,ArrowLeft","false","","","revaluation","2","18","","",""
"html-keyboard-response","302","1300226","0.0-4.0-2.1-1.59","spark_pilot_2","7384","3","15","Female","","","","","","","null","<div style=""font-size:60px;"">+</div>","null","fixation","","","","","","","","","","","19","","",""
"revaluation","303","1306251","0.0-4.0-2.1-0.60","spark_pilot_2","7384","3","15","Female","","false","","","","","[1140.7999999523163,377]","./assets/img/canyon/memory/2.jpg","[""ArrowUp"",""ArrowLeft""]","value training","canyon","26","{""ArrowUp,ArrowLeft"":26,""ArrowUp,ArrowRight"":10,""ArrowDown,ArrowLeft"":5,""ArrowDown,ArrowRight"":17}","true","ArrowUp,ArrowLeft","false","","","revaluation","2","20","","",""
"html-keyboard-response","304","1306759","0.0-4.0-2.1-1.60","spark_pilot_2","7384","3","15","Female","","","","","","","null","<div style=""font-size:60px;"">+</div>","null","fixation","","","","","","","","","","","21","","",""
"revaluation","305","1312778","0.0-4.0-2.1-0.61","spark_pilot_2","7384","3","15","Female","","false","","","","","[673.2000000476837,390.39999985694885]","./assets/img/canyon/memory/13.jpg","[""ArrowUp"",""ArrowLeft""]","value training","canyon","26","{""ArrowUp,ArrowLeft"":26,""ArrowUp,ArrowRight"":10,""ArrowDown,ArrowLeft"":5,""ArrowDown,ArrowRight"":17}","true","ArrowUp,ArrowLeft","false","","","revaluation","2","22","","",""
