"trial_type","trial_index","time_elapsed","internal_node_id","task_version","subject_id","assigned_condition","age","gender","success","timeout","failed_images","failed_audio","failed_video","browser_interaction","rt","stimulus","response","task_part","environment","score","rewardMap","correct","fullState","isCatch","numberMissed","duration","condition","order","trial_num","key_press","ground_truth","bonus"
"pavlovia","0","1507","0.0-0.0","spark_pilot_2","7323","4","12","Male","","","","","","","","","","","","","","","","","","","","","","","",""
"preload","1","2699","0.0-1.0","spark_pilot_2","7323","4","12","Male","true","false","[]","[]","[]","[{""event"":""blur"",""trial"":2,""time"":2825},{""event"":""focus"",""trial"":2,""time"":10682},{""event"":""fullscreenenter"",""trial"":2,""time"":13437},{""event"":""fullscreenexit"",""trial"":4,""time"":17791},{""event"":""blur"",""trial"":4,""time"":20230},{""event"":""focus"",""trial"":4,""time"":27402},{""event"":""blur"",""trial"":37,""time"":269328},{""event"":""focus"",""trial"":37,""time"":269647},{""event"":""blur"",""trial"":114,""time"":689328},{""event"":""focus"",""trial"":114,""time"":696399}]","","","","","","","","","","","","","","","","","",""
"fullscreen","2","14384","0.0-2.0","spark_pilot_2","7323","4","12","Male","true","","","","","","","","","","","","","","","","","","","","","","",""
"audio-button-response","3","16398","0.0-3.0-0.0-0.0","spark_pilot_2","7323","4","12","Male","","","","","","[{""event"":""blur"",""trial"":2,""time"":2825},{""event"":""focus"",""trial"":2,""time"":10682},{""event"":""fullscreenenter"",""trial"":2,""time"":13437},{""event"":""fullscreenexit"",""trial"":4,""time"":17791},{""event"":""blur"",""trial"":4,""time"":20230},{""event"":""focus"",""trial"":4,""time"":27402},{""event"":""blur"",""trial"":37,""time"":269328},{""event"":""focus"",""trial"":37,""time"":269647},{""event"":""blur"",""trial"":114,""time"":689328},{""event"":""focus"",""trial"":114,""time"":696399}]","1400","./assets/audio/audiotest/turtle.mp3","2","audio_test","","","","","","","","","","","","","",""
"learning-instructions","4","29125","0.0-3.0-1.0-0.0","spark_pilot_2","7323","4","12","Male","","","","","","","5684.199999999255","<p> Welcome! Please remember to stay in fullscreen mode and don't click away from the experiment. </p>","","instructions","","","","","","","","","","","","","",""
"learning-instructions","5","81869","0.0-3.0-1.0-0.1","spark_pilot_2","7323","4","12","Male","","","","","","","44264","<p> Today you will be playing a game to earn treasure. </p>
            <p> At the end of the experiment, you will earn a bonus based on how much treasure you find. </p>
            <img src='./assets/img/instructions/treasure.jpg' class='instructions-image'>","","instructions","","","","","","","","","","","","","",""
"learning-instructions","6","92561","0.0-3.0-1.0-0.2","spark_pilot_2","7323","4","12","Male","","","","","","","2027.800000000745","<p> Animals have hidden treasure in treasure chests. </p>
            <p> You need to first find an animal and then choose which of their treasure chests to search. </p>
            <img src='./assets/img/space/animals/cat.jpg' class='instructions-image'>","","instructions","","","","","","","","","","","","","",""
"learning-instructions","7","108765","0.0-3.0-1.0-0.3","spark_pilot_2","7323","4","12","Male","","","","","","","2951.800000000745","<p> In each round, you will search for treasure in a different place. In the real game, there will be two rounds. </p>
            <p> You will begin with a separate, practice round where you will search for treasure in outer space. </p>
            <img src='./assets/img/space/0.jpg' class='instructions-image'>","","instructions","","","","","","","","","","","","","",""
"learning-instructions","8","123664","0.0-3.0-1.0-0.4","spark_pilot_2","7323","4","12","Male","","","","","","","3380.800000000745","<p> On every turn, you will see a picture of the place that you are in, but the specific image may be different each time. </p>
            <p> For example, both of these images mean you are in outer space. </p>
            <img src='./assets/img/instructions/outerspace.jpg' class='instructions-image'>","","instructions","","","","","","","","","","","","","",""
"learning-instructions","9","132386","0.0-3.0-1.0-0.5","spark_pilot_2","7323","4","12","Male","","","","","","","823.6000000014901","<p> You need to decide which direction to travel in. </p>
            <p> You can choose between going <b>up or down</b> by using the arrow keys. </p>
            <img src='./assets/img/instructions/updown.jpg' class='instructions-image'>","","instructions","","","","","","","","","","","","","",""
"learning-instructions","10","142358","0.0-3.0-1.0-0.6","spark_pilot_2","7323","4","12","Male","","","","","","","1077.7999999970198","<p> You will have <b>2 seconds</b> to make your choice. </p>
            <p> If you do not make a choice within 2 seconds, you will not find an animal or earn treasure. </p>
            <img src='./assets/img/instructions/2seconds.jpg' class='instructions-image'>","","instructions","","","","","","","","","","","","","",""
"learning-instructions","11","150353","0.0-3.0-1.0-0.7","spark_pilot_2","7323","4","12","Male","","","","","","","903","<p> Let’s try practicing that now! </p>
            <p> When you see a picture of the place you are in, press the <b>up</b> key to travel up. </p>
            <img src='./assets/img/instructions/pressUp.jpg' class='instructions-image'>","","instructions","","","","","","","","","","","","","",""
"revaluation","12","154415","0.0-3.0-2.0-0.0","spark_pilot_2","7323","4","12","Male","","false","","","","","[1971.300000000745]","./assets/img/space/0.jpg","[""ArrowUp""]","first stage practice","space","0","null","null","ArrowUp","false","","","","","","","",""
"html-keyboard-response","13","154933","0.0-3.0-2.0-1.0","spark_pilot_2","7323","4","12","Male","","","","","","","null","<div style=""font-size:60px;"">+</div>","null","fixation","","","","","","","","","","","","","",""
"revaluation","14","158965","0.0-3.0-2.0-0.1","spark_pilot_2","7323","4","12","Male","","true","","","","","[]","./assets/img/space/1.jpg","[]","first stage practice","space","-5","null","null","","false","","","","","","","",""
"html-keyboard-response","15","159474","0.0-3.0-2.0-1.1","spark_pilot_2","7323","4","12","Male","","","","","","","null","<div style=""font-size:60px;"">+</div>","null","fixation","","","","","","","","","","","","","",""
"revaluation","16","163491","0.0-3.0-2.0-0.2","spark_pilot_2","7323","4","12","Male","","false","","","","","[365]","./assets/img/space/2.jpg","[""ArrowUp""]","first stage practice","space","0","null","null","ArrowUp","false","","","","","","","",""
"html-keyboard-response","17","164001","0.0-3.0-2.0-1.2","spark_pilot_2","7323","4","12","Male","","","","","","","null","<div style=""font-size:60px;"">+</div>","null","fixation","","","","","","","","","","","","","",""
"learning-instructions","18","170454","0.0-3.0-3.0-0.0","spark_pilot_2","7323","4","12","Male","","","","","","","1714.7999999970198","<p> Great job! Now try pressing the <b>down</b> key to travel down. </p>
            <img src='./assets/img/instructions/pressDown.jpg' class='instructions-image'>","","instructions","","","","","","","","","","","","","",""
"revaluation","19","174464","0.0-3.0-4.0-0.0","spark_pilot_2","7323","4","12","Male","","false","","","","","[447.6000000014901]","./assets/img/space/3.jpg","[""ArrowDown""]","first stage practice","space","0","null","null","ArrowDown","false","","","","","","","",""
"html-keyboard-response","20","174967","0.0-3.0-4.0-1.0","spark_pilot_2","7323","4","12","Male","","","","","","","null","<div style=""font-size:60px;"">+</div>","null","fixation","","","","","","","","","","","","","",""
"revaluation","21","178989","0.0-3.0-4.0-0.1","spark_pilot_2","7323","4","12","Male","","false","","","","","[836.3999999985099]","./assets/img/space/4.jpg","[""ArrowDown""]","first stage practice","space","0","null","null","ArrowDown","false","","","","","","","",""
"html-keyboard-response","22","179497","0.0-3.0-4.0-1.1","spark_pilot_2","7323","4","12","Male","","","","","","","null","<div style=""font-size:60px;"">+</div>","null","fixation","","","","","","","","","","","","","",""
"revaluation","23","183521","0.0-3.0-4.0-0.2","spark_pilot_2","7323","4","12","Male","","true","","","","","[]","./assets/img/space/5.jpg","[]","first stage practice","space","-5","null","null","","false","","","","","","","",""
"html-keyboard-response","24","184033","0.0-3.0-4.0-1.2","spark_pilot_2","7323","4","12","Male","","","","","","","null","<div style=""font-size:60px;"">+</div>","null","fixation","","","","","","","","","","","","","",""
"learning-instructions","25","195870","0.0-3.0-5.0-0.0","spark_pilot_2","7323","4","12","Male","","","","","","","1910.300000000745","<p> The animals don’t move, so the animal in the upper part of a place will stay in the upper part of a place, and the animal in the lower part of a place will stay in the lower part of a place. </p>","","instructions","","","","","","","","","","","","","",""
"learning-instructions","26","206525","0.0-3.0-5.0-0.1","spark_pilot_2","7323","4","12","Male","","","","","","","1443.5","<p> Each animal has two treasure chests for you to choose from. </p>
            <p> The amount of treasure in each chest can range from <b> 0 to 40 pieces.</b></p>","","instructions","","","","","","","","","","","","","",""
"learning-instructions","27","218715","0.0-3.0-5.0-0.2","spark_pilot_2","7323","4","12","Male","","","","","","","902.3999999985099","<p> You should decide which chest to search for treasure by using the <b>left</b> and <b>right</b> arrow keys. </p>
            <p><b> Pay attention to which animal is on the screen, as the animals have different treasure chests. </b></p>
            <img src='./assets/img/instructions/leftright.jpg' class='instructions-image'>","","instructions","","","","","","","","","","","","","",""
"learning-instructions","28","226327","0.0-3.0-5.0-0.3","spark_pilot_2","7323","4","12","Male","","","","","","","1193.699999999255","<p> Let’s try practicing that now. </p>
            <p> When you see an animal, choose which chest to search for treasure. </p>
            <img src='./assets/img/instructions/chooseChest.jpg' class='instructions-image'>","","instructions","","","","","","","","","","","","","",""
"revaluation","29","230350","0.0-3.0-6.0-0.0","spark_pilot_2","7323","4","12","Male","","false","","","","","[502.6000000014901]","./assets/img/space/animals/cat.jpg","[""ArrowRight""]","second stage practice","space","36","{""ArrowUp,ArrowLeft"":3,""ArrowUp,ArrowRight"":36,""ArrowDown,ArrowLeft"":15,""ArrowDown,ArrowRight"":23}","true","ArrowUp,ArrowRight","","","","","","","","",""
"html-keyboard-response","30","230854","0.0-3.0-6.0-1.0","spark_pilot_2","7323","4","12","Male","","","","","","","null","<div style=""font-size:60px;"">+</div>","null","fixation","","","","","","","","","","","","","",""
"revaluation","31","234880","0.0-3.0-6.0-0.1","spark_pilot_2","7323","4","12","Male","","false","","","","","[309.80000000074506]","./assets/img/space/animals/rabbit.jpg","[""ArrowLeft""]","second stage practice","space","15","{""ArrowUp,ArrowLeft"":3,""ArrowUp,ArrowRight"":36,""ArrowDown,ArrowLeft"":15,""ArrowDown,ArrowRight"":23}","false","ArrowDown,ArrowLeft","","","","","","","","",""
"html-keyboard-response","32","235389","0.0-3.0-6.0-1.1","spark_pilot_2","7323","4","12","Male","","","","","","","null","<div style=""font-size:60px;"">+</div>","null","fixation","","","","","","","","","","","","","",""
"revaluation","33","239410","0.0-3.0-6.0-0.2","spark_pilot_2","7323","4","12","Male","","false","","","","","[386.8999999985099]","./assets/img/space/animals/cat.jpg","[""ArrowRight""]","second stage practice","space","36","{""ArrowUp,ArrowLeft"":3,""ArrowUp,ArrowRight"":36,""ArrowDown,ArrowLeft"":15,""ArrowDown,ArrowRight"":23}","true","ArrowUp,ArrowRight","","","","","","","","",""
"html-keyboard-response","34","239921","0.0-3.0-6.0-1.2","spark_pilot_2","7323","4","12","Male","","","","","","","null","<div style=""font-size:60px;"">+</div>","null","fixation","","","","","","","","","","","","","",""
"revaluation","35","243946","0.0-3.0-6.0-0.3","spark_pilot_2","7323","4","12","Male","","false","","","","","[866]","./assets/img/space/animals/rabbit.jpg","[""ArrowRight""]","second stage practice","space","23","{""ArrowUp,ArrowLeft"":3,""ArrowUp,ArrowRight"":36,""ArrowDown,ArrowLeft"":15,""ArrowDown,ArrowRight"":23}","true","ArrowDown,ArrowRight","","","","","","","","",""
"html-keyboard-response","36","244453","0.0-3.0-6.0-1.3","spark_pilot_2","7323","4","12","Male","","","","","","[{""event"":""blur"",""trial"":2,""time"":2825},{""event"":""focus"",""trial"":2,""time"":10682},{""event"":""fullscreenenter"",""trial"":2,""time"":13437},{""event"":""fullscreenexit"",""trial"":4,""time"":17791},{""event"":""blur"",""trial"":4,""time"":20230},{""event"":""focus"",""trial"":4,""time"":27402},{""event"":""blur"",""trial"":37,""time"":269328},{""event"":""focus"",""trial"":37,""time"":269647},{""event"":""blur"",""trial"":114,""time"":689328},{""event"":""focus"",""trial"":114,""time"":696399}]","null","<div style=""font-size:60px;"">+</div>","null","fixation","","","","","","","","","","","","","",""
"learning-instructions","37","279038","0.0-3.0-7.0-0.0","spark_pilot_2","7323","4","12","Male","","","","","","","17645.89999999851","<p> Great job. Now let’s try putting it together. </p>
            <p> On each turn, you will first see a picture to remind you of the place you are in, and you need to choose whether to go up or down. </p>
            <p> Then you will see an animal and choose which of its chests to search for treasure. </p>","","instructions","","","","","","","","","","","","","",""
"learning-instructions","38","289904","0.0-3.0-7.0-0.1","spark_pilot_2","7323","4","12","Male","","","","","","","2532.400000002235","<p> When you choose whether to go up or down, try to go to the animal with the chest with the most treasure. </p>
            <p> Try practicing that now! </p>","","instructions","","","","","","","","","","","","","",""
"revaluation","39","295928","0.0-3.0-8.0-0.0","spark_pilot_2","7323","4","12","Male","","false","","","","","[615.5999999977648,508.80000000074506]","./assets/img/space/6.jpg","[""ArrowDown"",""ArrowRight""]","full practice","space","23","{""ArrowUp,ArrowLeft"":3,""ArrowUp,ArrowRight"":36,""ArrowDown,ArrowLeft"":15,""ArrowDown,ArrowRight"":23}","false","ArrowDown,ArrowRight","false","","","","","","","",""
"html-keyboard-response","40","296439","0.0-3.0-8.0-1.0","spark_pilot_2","7323","4","12","Male","","","","","","","null","<div style=""font-size:60px;"">+</div>","null","fixation","","","","","","","","","","","","","",""
"revaluation","41","302483","0.0-3.0-8.0-0.1","spark_pilot_2","7323","4","12","Male","","false","","","","","[609.5999999977648,471.80000000074506]","./assets/img/space/7.jpg","[""ArrowDown"",""ArrowLeft""]","full practice","space","15","{""ArrowUp,ArrowLeft"":3,""ArrowUp,ArrowRight"":36,""ArrowDown,ArrowLeft"":15,""ArrowDown,ArrowRight"":23}","false","ArrowDown,ArrowLeft","false","","","","","","","",""
"html-keyboard-response","42","302989","0.0-3.0-8.0-1.1","spark_pilot_2","7323","4","12","Male","","","","","","","null","<div style=""font-size:60px;"">+</div>","null","fixation","","","","","","","","","","","","","",""
"revaluation","43","309016","0.0-3.0-8.0-0.2","spark_pilot_2","7323","4","12","Male","","false","","","","","[761.7999999970198,453.1000000014901]","./assets/img/space/8.jpg","[""ArrowUp"",""ArrowRight""]","full practice","space","36","{""ArrowUp,ArrowLeft"":3,""ArrowUp,ArrowRight"":36,""ArrowDown,ArrowLeft"":15,""ArrowDown,ArrowRight"":23}","true","ArrowUp,ArrowRight","false","","","","","","","",""
"html-keyboard-response","44","309527","0.0-3.0-8.0-1.2","spark_pilot_2","7323","4","12","Male","","","","","","","null","<div style=""font-size:60px;"">+</div>","null","fixation","","","","","","","","","","","","","",""
"revaluation","45","315552","0.0-3.0-8.0-0.3","spark_pilot_2","7323","4","12","Male","","false","","","","","[696.9000000022352,288.0999999977648]","./assets/img/space/9.jpg","[""ArrowUp"",""ArrowLeft""]","full practice","space","3","{""ArrowUp,ArrowLeft"":3,""ArrowUp,ArrowRight"":36,""ArrowDown,ArrowLeft"":15,""ArrowDown,ArrowRight"":23}","false","ArrowUp,ArrowLeft","false","","","","","","","",""
"html-keyboard-response","46","316063","0.0-3.0-8.0-1.3","spark_pilot_2","7323","4","12","Male","","","","","","","null","<div style=""font-size:60px;"">+</div>","null","fixation","","","","","","","","","","","","","",""
"revaluation","47","322101","0.0-3.0-8.0-0.4","spark_pilot_2","7323","4","12","Male","","false","","","","","[1195,361]","./assets/img/space/10.jpg","[""ArrowUp"",""ArrowLeft""]","full practice","space","3","{""ArrowUp,ArrowLeft"":3,""ArrowUp,ArrowRight"":36,""ArrowDown,ArrowLeft"":15,""ArrowDown,ArrowRight"":23}","false","ArrowUp,ArrowLeft","false","","","","","","","",""
"html-keyboard-response","48","322605","0.0-3.0-8.0-1.4","spark_pilot_2","7323","4","12","Male","","","","","","","null","<div style=""font-size:60px;"">+</div>","null","fixation","","","","","","","","","","","","","",""
"learning-instructions","49","334953","0.0-3.0-9.0-0.0","spark_pilot_2","7323","4","12","Male","","","","","","","1505.5999999977648","<p> One last thing: sometimes, you will see a robber. The robber can be anywhere in the picture. </p>
            <p> If you do not stop them, you will lose treasure. </p>
            <img src='./assets/img/instructions/robber.jpg' class='instructions-image'>","","instructions","","","","","","","","","","","","","",""
"learning-instructions","50","343818","0.0-3.0-9.0-0.1","spark_pilot_2","7323","4","12","Male","","","","","","","1631.199999999255","<p> If you see the robber, you should <b>press the space bar</b> rather than using the arrow keys. </p>
            <p> Try practicing that now! </p>","","instructions","","","","","","","","","","","","","",""
"revaluation","51","347841","0.0-3.0-10.0-0.0","spark_pilot_2","7323","4","12","Male","","false","","","","","[666.8000000007451]","./assets/img/space/catch/0.jpg","[""spaceBar""]","catch practice","space","0","{""ArrowUp,ArrowLeft"":3,""ArrowUp,ArrowRight"":36,""ArrowDown,ArrowLeft"":15,""ArrowDown,ArrowRight"":23}","true","spaceBar","true","","","","","","","",""
"html-keyboard-response","52","348355","0.0-3.0-10.0-1.0","spark_pilot_2","7323","4","12","Male","","","","","","","null","<div style=""font-size:60px;"">+</div>","null","fixation","","","","","","","","","","","","","",""
"revaluation","53","352381","0.0-3.0-10.0-0.1","spark_pilot_2","7323","4","12","Male","","false","","","","","[525.5]","./assets/img/space/catch/1.jpg","[""spaceBar""]","catch practice","space","0","{""ArrowUp,ArrowLeft"":3,""ArrowUp,ArrowRight"":36,""ArrowDown,ArrowLeft"":15,""ArrowDown,ArrowRight"":23}","true","spaceBar","true","","","","","","","",""
"html-keyboard-response","54","352893","0.0-3.0-10.0-1.1","spark_pilot_2","7323","4","12","Male","","","","","","","null","<div style=""font-size:60px;"">+</div>","null","fixation","","","","","","","","","","","","","",""
"revaluation","55","356909","0.0-3.0-10.0-0.2","spark_pilot_2","7323","4","12","Male","","false","","","","","[677.6999999992549]","./assets/img/space/catch/2.jpg","[""spaceBar""]","catch practice","space","0","{""ArrowUp,ArrowLeft"":3,""ArrowUp,ArrowRight"":36,""ArrowDown,ArrowLeft"":15,""ArrowDown,ArrowRight"":23}","true","spaceBar","true","","","","","","","",""
"html-keyboard-response","56","357419","0.0-3.0-10.0-1.2","spark_pilot_2","7323","4","12","Male","","","","","","","null","<div style=""font-size:60px;"">+</div>","null","fixation","","","","","","","","","","","","","",""
"learning-instructions","57","372358","0.0-3.0-11.0-0.0","spark_pilot_2","7323","4","12","Male","","","","","","","1239.6000000014901","<p> After you explore a place to find treasure, it will be time to play a different game. </p>
            <p> During this game, red dots will appear on the screen and fall down slowly. </p>
            <p><b> You must click on them before they reach the bottom. </b></p>
            <img src='./assets/img/instructions/dotGame.jpg' class='instructions-image'>","","instructions","","","","","","","","","","","","","",""
"learning-instructions","58","379129","0.0-3.0-11.0-0.1","spark_pilot_2","7323","4","12","Male","","","","","","","1052.1000000014901","<p> For every dot you click, you will earn additional treasure. </p>
            <p> Let’s try practicing that now. </p>","","instructions","","","","","","","","","","","","","",""
"revaluation","59","394153","0.0-3.0-12.0-0.0","spark_pilot_2","7323","4","12","Male","","","","","","","[80,80]","","","rest practice","","20","","","","","0","15000","","","","","",""
"learning-instructions","60","400836","0.0-3.0-13.0-0.0-0.0","spark_pilot_2","7323","4","12","Male","","","","","","","1364.5","<p> Now, you will practice a shortened version of the game to get a sense of how it all fits together. </p>","","instructions","","","","","","","","","","","","","",""
"learning-instructions","61","404923","0.0-3.0-13.0-0.0-0.1","spark_pilot_2","7323","4","12","Male","","","","","","","862.9000000022352","<p>This time you are searching for treasure in outer space.</p>","","instructions","","","","","","","","","","","","","",""
"learning-instructions","62","421291","0.0-3.0-13.0-1.0-0.0","spark_pilot_2","7323","4","12","Male","","","","","","","1491","<p> Remember, when you see a picture of the place, use the up and down keys to <b>find an animal</b>.</p>
            <p> When you encounter an animal, you should use the left and right keys to <b>select a treasure chest</b>.</p>
            <p> Don't forget to look out for the robber! </p>","","instructions","","","","","","","","","","","","","",""
"revaluation","63","427320","0.0-3.0-13.0-2.0-0.0","spark_pilot_2","7323","4","12","Male","","false","","","","","[1051.5999999977648,537.1999999992549]","./assets/img/space/11.jpg","[""ArrowDown"",""ArrowRight""]","practice block","space","23","{""ArrowUp,ArrowLeft"":3,""ArrowUp,ArrowRight"":36,""ArrowDown,ArrowLeft"":15,""ArrowDown,ArrowRight"":23}","false","ArrowDown,ArrowRight","false","","","","","","","",""
"html-keyboard-response","64","427833","0.0-3.0-13.0-2.0-1.0","spark_pilot_2","7323","4","12","Male","","","","","","","null","<div style=""font-size:60px;"">+</div>","null","fixation","","","","","","","","","","","","","",""
"revaluation","65","433868","0.0-3.0-13.0-2.0-0.1","spark_pilot_2","7323","4","12","Male","","false","","","","","[849.5,1290.5999999977648]","./assets/img/space/12.jpg","[""ArrowUp"",""ArrowRight""]","practice block","space","36","{""ArrowUp,ArrowLeft"":3,""ArrowUp,ArrowRight"":36,""ArrowDown,ArrowLeft"":15,""ArrowDown,ArrowRight"":23}","true","ArrowUp,ArrowRight","false","","","","","","","",""
"html-keyboard-response","66","434384","0.0-3.0-13.0-2.0-1.1","spark_pilot_2","7323","4","12","Male","","","","","","","null","<div style=""font-size:60px;"">+</div>","null","fixation","","","","","","","","","","","","","",""
"revaluation","67","440428","0.0-3.0-13.0-2.0-0.2","spark_pilot_2","7323","4","12","Male","","false","","","","","[1088.5,508.3999999985099]","./assets/img/space/13.jpg","[""ArrowUp"",""ArrowRight""]","practice block","space","36","{""ArrowUp,ArrowLeft"":3,""ArrowUp,ArrowRight"":36,""ArrowDown,ArrowLeft"":15,""ArrowDown,ArrowRight"":23}","true","ArrowUp,ArrowRight","false","","","","","","","",""
"html-keyboard-response","68","440939","0.0-3.0-13.0-2.0-1.2","spark_pilot_2","7323","4","12","Male","","","","","","","null","<div style=""font-size:60px;"">+</div>","null","fixation","","","","","","","","","","","","","",""
"revaluation","69","446987","0.0-3.0-13.0-2.0-0.3","spark_pilot_2","7323","4","12","Male","","false","","","","","[1007,434.9000000022352]","./assets/img/space/14.jpg","[""ArrowUp"",""ArrowRight""]","practice block","space","36","{""ArrowUp,ArrowLeft"":3,""ArrowUp,ArrowRight"":36,""ArrowDown,ArrowLeft"":15,""ArrowDown,ArrowRight"":23}","true","ArrowUp,ArrowRight","false","","","","","","","",""
"html-keyboard-response","70","447500","0.0-3.0-13.0-2.0-1.3","spark_pilot_2","7323","4","12","Male","","","","","","","null","<div style=""font-size:60px;"">+</div>","null","fixation","","","","","","","","","","","","","",""
"revaluation","71","453526","0.0-3.0-13.0-2.0-0.4","spark_pilot_2","7323","4","12","Male","","false","","","","","[610.1000000014901,1087.5]","./assets/img/space/11.jpg","[""ArrowUp"",""ArrowRight""]","practice block","space","36","{""ArrowUp,ArrowLeft"":3,""ArrowUp,ArrowRight"":36,""ArrowDown,ArrowLeft"":15,""ArrowDown,ArrowRight"":23}","true","ArrowUp,ArrowRight","false","","","","","","","",""
"html-keyboard-response","72","454028","0.0-3.0-13.0-2.0-1.4","spark_pilot_2","7323","4","12","Male","","","","","","","null","<div style=""font-size:60px;"">+</div>","null","fixation","","","","","","","","","","","","","",""
"revaluation","73","460061","0.0-3.0-13.0-2.0-0.5","spark_pilot_2","7323","4","12","Male","","false","","","","","[1024.5,623]","./assets/img/space/12.jpg","[""ArrowUp"",""ArrowRight""]","practice block","space","36","{""ArrowUp,ArrowLeft"":3,""ArrowUp,ArrowRight"":36,""ArrowDown,ArrowLeft"":15,""ArrowDown,ArrowRight"":23}","true","ArrowUp,ArrowRight","false","","","","","","","",""
"html-keyboard-response","74","460568","0.0-3.0-13.0-2.0-1.5","spark_pilot_2","7323","4","12","Male","","","","","","","null","<div style=""font-size:60px;"">+</div>","null","fixation","","","","","","","","","","","","","",""
"revaluation","75","466581","0.0-3.0-13.0-2.0-0.6","spark_pilot_2","7323","4","12","Male","","false","","","","","[867,429.4000000022352]","./assets/img/space/13.jpg","[""ArrowUp"",""ArrowRight""]","practice block","space","36","{""ArrowUp,ArrowLeft"":3,""ArrowUp,ArrowRight"":36,""ArrowDown,ArrowLeft"":15,""ArrowDown,ArrowRight"":23}","true","ArrowUp,ArrowRight","false","","","","","","","",""
"html-keyboard-response","76","467090","0.0-3.0-13.0-2.0-1.6","spark_pilot_2","7323","4","12","Male","","","","","","","null","<div style=""font-size:60px;"">+</div>","null","fixation","","","","","","","","","","","","","",""
"revaluation","77","473125","0.0-3.0-13.0-2.0-0.7","spark_pilot_2","7323","4","12","Male","","false","","","","","[639.6999999992549,572.4000000022352]","./assets/img/space/14.jpg","[""ArrowUp"",""ArrowRight""]","practice block","space","36","{""ArrowUp,ArrowLeft"":3,""ArrowUp,ArrowRight"":36,""ArrowDown,ArrowLeft"":15,""ArrowDown,ArrowRight"":23}","true","ArrowUp,ArrowRight","false","","","","","","","",""
"html-keyboard-response","78","473630","0.0-3.0-13.0-2.0-1.7","spark_pilot_2","7323","4","12","Male","","","","","","","null","<div style=""font-size:60px;"">+</div>","null","fixation","","","","","","","","","","","","","",""
"revaluation","79","477644","0.0-3.0-13.0-2.0-0.8","spark_pilot_2","7323","4","12","Male","","false","","","","","[837.5999999977648]","./assets/img/space/catch/3.jpg","[""spaceBar""]","practice block","space","0","{""ArrowUp,ArrowLeft"":3,""ArrowUp,ArrowRight"":36,""ArrowDown,ArrowLeft"":15,""ArrowDown,ArrowRight"":23}","true","spaceBar","true","","","","","","","",""
"html-keyboard-response","80","478155","0.0-3.0-13.0-2.0-1.8","spark_pilot_2","7323","4","12","Male","","","","","","","null","<div style=""font-size:60px;"">+</div>","null","fixation","","","","","","","","","","","","","",""
"learning-instructions","81","492443","0.0-3.0-13.0-3.0-0.0","spark_pilot_2","7323","4","12","Male","","","","","","","932.5999999977648","<p> Now, you will travel with a friend who will choose whether you go up or down first. </p>
            <p> On these turns, you will just see the animal that they found. You will still get to choose which chest to search for treasure.</p>","","instructions","","","","","","","","","","","","","",""
"revaluation","82","496466","0.0-3.0-13.0-4.0-0.0","spark_pilot_2","7323","4","12","Male","","false","","","","","[1061.4000000022352]","./assets/img/space/animals/cat.jpg","[""ArrowRight""]","practice block","space","36","{""ArrowUp,ArrowLeft"":3,""ArrowUp,ArrowRight"":36,""ArrowDown,ArrowLeft"":15,""ArrowDown,ArrowRight"":23}","true","ArrowUp,ArrowRight","","","","","","","","",""
"html-keyboard-response","83","496981","0.0-3.0-13.0-4.0-1.0","spark_pilot_2","7323","4","12","Male","","","","","","","null","<div style=""font-size:60px;"">+</div>","null","fixation","","","","","","","","","","","","","",""
"revaluation","84","501010","0.0-3.0-13.0-4.0-0.1","spark_pilot_2","7323","4","12","Male","","false","","","","","[416.5999999977648]","./assets/img/space/animals/cat.jpg","[""ArrowRight""]","practice block","space","36","{""ArrowUp,ArrowLeft"":3,""ArrowUp,ArrowRight"":36,""ArrowDown,ArrowLeft"":15,""ArrowDown,ArrowRight"":23}","true","ArrowUp,ArrowRight","","","","","","","","",""
"html-keyboard-response","85","501517","0.0-3.0-13.0-4.0-1.1","spark_pilot_2","7323","4","12","Male","","","","","","","null","<div style=""font-size:60px;"">+</div>","null","fixation","","","","","","","","","","","","","",""
"revaluation","86","505548","0.0-3.0-13.0-4.0-0.2","spark_pilot_2","7323","4","12","Male","","false","","","","","[291]","./assets/img/space/animals/rabbit.jpg","[""ArrowRight""]","practice block","space","23","{""ArrowUp,ArrowLeft"":3,""ArrowUp,ArrowRight"":36,""ArrowDown,ArrowLeft"":15,""ArrowDown,ArrowRight"":23}","true","ArrowDown,ArrowRight","","","","","","","","",""
"html-keyboard-response","87","506059","0.0-3.0-13.0-4.0-1.2","spark_pilot_2","7323","4","12","Male","","","","","","","null","<div style=""font-size:60px;"">+</div>","null","fixation","","","","","","","","","","","","","",""
"revaluation","88","510079","0.0-3.0-13.0-4.0-0.3","spark_pilot_2","7323","4","12","Male","","false","","","","","[113.40000000223517]","./assets/img/space/animals/rabbit.jpg","[""ArrowRight""]","practice block","space","23","{""ArrowUp,ArrowLeft"":3,""ArrowUp,ArrowRight"":36,""ArrowDown,ArrowLeft"":15,""ArrowDown,ArrowRight"":23}","true","ArrowDown,ArrowRight","","","","","","","","",""
"html-keyboard-response","89","510583","0.0-3.0-13.0-4.0-1.3","spark_pilot_2","7323","4","12","Male","","","","","","","null","<div style=""font-size:60px;"">+</div>","null","fixation","","","","","","","","","","","","","",""
"learning-instructions","90","519525","0.0-3.0-13.0-5.0-0.0","spark_pilot_2","7323","4","12","Male","","","","","","","1513.8999999985099","<p> Time to play the dot game! </p>
            <p> For 15 seconds, click the red dots on the following screen as they appear. </p>","","instructions","","","","","","","","","","","","","",""
"revaluation","91","534527","0.0-3.0-13.0-6.0-0.0","spark_pilot_2","7323","4","12","Male","","","","","","","[88]","","","rest practice","","10","","","","","0","15000","","","","","",""
"learning-instructions","92","542174","0.0-3.0-13.0-7.0-0.0","spark_pilot_2","7323","4","12","Male","","","","","","","1473.6000000014901","<p> You have almost finished this part of the game! </p>
            <p> We are going to ask you to make a few more choices. </p>","","instructions","","","","","","","","","","","","","",""
"learning-instructions","93","557683","0.0-3.0-13.0-7.0-0.1","spark_pilot_2","7323","4","12","Male","","","","","","","1402.699999999255","<p> First, you need to decide whether to go up or down. When you see each picture, use the arrow keys to make your choice. </p>
            <p><b>You will not see which animal you found, but try to get to the one that will give you the most treasure.</b></p>","","instructions","","","","","","","","","","","","","",""
"revaluation","94","558368","0.0-3.0-13.0-8.0","spark_pilot_2","7323","4","12","Male","","false","","","","","[679.8000000007451]","./assets/img/space/15.jpg","[""ArrowUp""]","practice block","space","0","{""ArrowUp,ArrowLeft"":3,""ArrowUp,ArrowRight"":36,""ArrowDown,ArrowLeft"":15,""ArrowDown,ArrowRight"":23}","true","ArrowUp","false","","","","","","","",""
"html-keyboard-response","95","558883","0.0-3.0-13.0-9.0","spark_pilot_2","7323","4","12","Male","","","","","","","null","<div style=""font-size:60px;"">+</div>","null","fixation","","","","","","","","","","","","","",""
"learning-instructions","96","571350","0.0-3.0-13.0-10.0-0.0","spark_pilot_2","7323","4","12","Male","","","","","","","988.7999999970198","<p> Now you will see the animals again and can search their chests for treasure. </p>
            <p> This time, you will not see how much treasure you earned, but you will earn more bonus money for making better choices. </p>","","instructions","","","","","","","","","","","","","",""
"revaluation","97","572492","0.0-3.0-13.0-11.0-0.0","spark_pilot_2","7323","4","12","Male","","false","","","","","[1135.9000000022352]","./assets/img/space/animals/cat.jpg","[""ArrowRight""]","practice block","space","0","{""ArrowUp,ArrowLeft"":3,""ArrowUp,ArrowRight"":36,""ArrowDown,ArrowLeft"":15,""ArrowDown,ArrowRight"":23}","true","ArrowUp,ArrowRight","","","","","","","","",""
"html-keyboard-response","98","572997","0.0-3.0-13.0-11.0-1.0","spark_pilot_2","7323","4","12","Male","","","","","","","null","<div style=""font-size:60px;"">+</div>","null","fixation","","","","","","","","","","","","","",""
"revaluation","99","574092","0.0-3.0-13.0-11.0-0.1","spark_pilot_2","7323","4","12","Male","","false","","","","","[1089.2000000029802]","./assets/img/space/animals/rabbit.jpg","[""ArrowRight""]","practice block","space","0","{""ArrowUp,ArrowLeft"":3,""ArrowUp,ArrowRight"":36,""ArrowDown,ArrowLeft"":15,""ArrowDown,ArrowRight"":23}","true","ArrowDown,ArrowRight","","","","","","","","",""
"html-keyboard-response","100","574596","0.0-3.0-13.0-11.0-1.1","spark_pilot_2","7323","4","12","Male","","","","","","","null","<div style=""font-size:60px;"">+</div>","null","fixation","","","","","","","","","","","","","",""
"learning-instructions","101","582306","0.0-3.0-14.0-0.0","spark_pilot_2","7323","4","12","Male","","","","","","","3086.2000000029802","<p> Before you start, we're going to ask you a few questions about how the game works. </p>","","instructions","","","","","","","","","","","","","",""
"comp-q","102","588882","0.0-3.0-15.0-0.0-0.0","spark_pilot_2","7323","4","12","Male","","","","","","","923.3000000007451","<p> <b> True or False? </b> </p>
            <p> There can be 50 pieces of treasure in a given animal's chest. </p>","0","comp_question","","","","false","","","","","","","","","",""
"comp-q","103","596381","0.0-3.0-15.0-0.0-1.0","spark_pilot_2","7323","4","12","Male","","","","","","","920.1999999992549","<p> <b>Incorrect.</b> The amount of treasure in each chest can range from 0 to 40 pieces. </p>","0","comp_answer","","","","","","","","","","","","","",""
"comp-q","104","603012","0.0-3.0-15.0-0.1-0.1","spark_pilot_2","7323","4","12","Male","","","","","","","1062.199999999255","<p> <b> True or False? </b> </p>
            <p> There can be 50 pieces of treasure in a given animal's chest. </p>","1","comp_question","","","","true","","","","","","","","","",""
"comp-q","105","610983","0.0-3.0-15.0-0.1-1.1","spark_pilot_2","7323","4","12","Male","","","","","","","1264.5","<p> <b> That's right! </b> The amount of treasure in each chest can range from 0 to 40 pieces. </p>","0","comp_answer","","","","","","","","","","","","","",""
"comp-q","106","619548","0.0-3.0-15.0-0.2-0.2","spark_pilot_2","7323","4","12","Male","","","","","","","1448","<p> <b> True or False? </b> </p><p> In this game, all animals have the same amount of treasure in their left and right chests. </p>","1","comp_question","","","","true","","","","","","","","","",""
"comp-q","107","625904","0.0-3.0-15.0-0.2-1.2","spark_pilot_2","7323","4","12","Male","","","","","","","1103.699999999255","<p> <b> That's right! </b> Animals have different amounts of treasure in their treasure chests. </p>","0","comp_answer","","","","","","","","","","","","","",""
"comp-q","108","632995","0.0-3.0-15.0-0.3-0.3","spark_pilot_2","7323","4","12","Male","","","","","","","1095.199999999255","<p> <b> True or False? </b> </p><p> The same animal will always be there if you go up in the same place. </p>","0","comp_question","","","","true","","","","","","","","","",""
"comp-q","109","640438","0.0-3.0-15.0-0.3-1.3","spark_pilot_2","7323","4","12","Male","","","","","","","938.8999999985099","<p> <b> That's right! </b> One animal lives in the upper part and one lives in the lower part of every place. </p>","0","comp_answer","","","","","","","","","","","","","",""
"comp-q","110","646619","0.0-3.0-15.0-0.4-0.4","spark_pilot_2","7323","4","12","Male","","","","","","","609.8000000007451","<p> <b> True or False? </b> </p><p> If you see a different picture, it means you are in a new place. </p>","1","comp_question","","","","true","","","","","","","","","",""
"comp-q","111","659557","0.0-3.0-15.0-0.4-1.4","spark_pilot_2","7323","4","12","Male","","","","","","","1617.0999999977648","<p> <b> That's right! </b> Lots of different images may show the same place. For example,  you may see three different images that all remind you that you are in outer space. </p>","0","comp_answer","","","","","","","","","","","","","",""
"learning-instructions","112","671182","0.0-3.0-16.0-0.0","spark_pilot_2","7323","4","12","Male","","","","","","","1693.3999999985099","<p> Good job. Remember to do your best because the amount of treasure you earn will be converted into bonus money. </p>
            <p> It’s time to start the real game! </p>","","instructions","","","","","","","","","","","","","",""
"learning-instructions","113","674983","0.0-4.0-0.0-0.0","spark_pilot_2","7323","4","12","Male","","","","","","[{""event"":""blur"",""trial"":2,""time"":2825},{""event"":""focus"",""trial"":2,""time"":10682},{""event"":""fullscreenenter"",""trial"":2,""time"":13437},{""event"":""fullscreenexit"",""trial"":4,""time"":17791},{""event"":""blur"",""trial"":4,""time"":20230},{""event"":""focus"",""trial"":4,""time"":27402},{""event"":""blur"",""trial"":37,""time"":269328},{""event"":""focus"",""trial"":37,""time"":269647},{""event"":""blur"",""trial"":114,""time"":689328},{""event"":""focus"",""trial"":114,""time"":696399}]","1063.6000000014901","<p> This time you are searching for treasure in the <b>ocean</b>.</p>","","instructions","","","","","","","","","","","","","",""
"learning-instructions","114","697867","0.0-4.0-0.0-0.1","spark_pilot_2","7323","4","12","Male","","","","","","","5458.800000000745","<p><b>New</b> animals with <b>new</b> treasure chests live here. You need to explore to discover where the animal with the best treasure chest is.</p>
                    <p> Like before, once you figure out which animal has the chest with the most treasure, you should try to get to that animal and select that chest! </p>","","instructions","","","","","","","","","","","","","",""
"learning-instructions","115","713376","0.0-4.0-1.0-0.0","spark_pilot_2","7323","4","12","Male","","","","","","","776.0999999977648","<p> Remember, when you see a picture of the place, use the up and down keys to <b>find an animal</b>.</p>
            <p> When you encounter an animal, you should use the left and right keys to <b>select a treasure chest</b>.</p>
            <p> Don't forget to look out for the robber! </p>","","instructions","","","","","","","","","","","","","",""
"revaluation","116","717399","0.0-4.0-2.0-0.0","spark_pilot_2","7323","4","12","Male","","false","","","","","[867.0999999977648]","./assets/img/ocean/catch/0.jpg","[""spaceBar""]","value training","ocean","0","{""ArrowUp,ArrowLeft"":26,""ArrowUp,ArrowRight"":10,""ArrowDown,ArrowLeft"":5,""ArrowDown,ArrowRight"":17}","true","spaceBar","true","","","revaluation","1","0","","",""
"html-keyboard-response","117","717917","0.0-4.0-2.0-1.0","spark_pilot_2","7323","4","12","Male","","","","","","","null","<div style=""font-size:60px;"">+</div>","null","fixation","","","","","","","","","","","1","","",""
"revaluation","118","723957","0.0-4.0-2.0-0.1","spark_pilot_2","7323","4","12","Male","","false","","","","","[1172.1000000014901,666.1999999992549]","./assets/img/ocean/memory/9.jpg","[""ArrowUp"",""ArrowRight""]","value training","ocean","10","{""ArrowUp,ArrowLeft"":26,""ArrowUp,ArrowRight"":10,""ArrowDown,ArrowLeft"":5,""ArrowDown,ArrowRight"":17}","false","ArrowUp,ArrowRight","false","","","revaluation","1","2","","",""
"html-keyboard-response","119","724467","0.0-4.0-2.0-1.1","spark_pilot_2","7323","4","12","Male","","","","","","","null","<div style=""font-size:60px;"">+</div>","null","fixation","","","","","","","","","","","3","","",""
"revaluation","120","730488","0.0-4.0-2.0-0.2","spark_pilot_2","7323","4","12","Male","","false","","","","","[604.8000000007451,586.0999999977648]","./assets/img/ocean/memory/7.jpg","[""ArrowUp"",""ArrowLeft""]","value training","ocean","26","{""ArrowUp,ArrowLeft"":26,""ArrowUp,ArrowRight"":10,""ArrowDown,ArrowLeft"":5,""ArrowDown,ArrowRight"":17}","true","ArrowUp,ArrowLeft","false","","","revaluation","1","4","","",""
"html-keyboard-response","121","730999","0.0-4.0-2.0-1.2","spark_pilot_2","7323","4","12","Male","","","","","","","null","<div style=""font-size:60px;"">+</div>","null","fixation","","","","","","","","","","","5","","",""
"revaluation","122","737027","0.0-4.0-2.0-0.3","spark_pilot_2","7323","4","12","Male","","false","","","","","[977.5,706.7000000029802]","./assets/img/ocean/memory/5.jpg","[""ArrowDown"",""ArrowLeft""]","value training","ocean","5","{""ArrowUp,ArrowLeft"":26,""ArrowUp,ArrowRight"":10,""ArrowDown,ArrowLeft"":5,""ArrowDown,ArrowRight"":17}","false","ArrowDown,ArrowLeft","false","","","revaluation","1","6","","",""
"html-keyboard-response","123","737544","0.0-4.0-2.0-1.3","spark_pilot_2","7323","4","12","Male","","","","","","","null","<div style=""font-size:60px;"">+</div>","null","fixation","","","","","","","","","","","7","","",""
"revaluation","124","743566","0.0-4.0-2.0-0.4","spark_pilot_2","7323","4","12","Male","","false","","","","","[445.19999999925494,477.0999999977648]","./assets/img/ocean/memory/29.jpg","[""ArrowDown"",""ArrowRight""]","value training","ocean","17","{""ArrowUp,ArrowLeft"":26,""ArrowUp,ArrowRight"":10,""ArrowDown,ArrowLeft"":5,""ArrowDown,ArrowRight"":17}","false","ArrowDown,ArrowRight","false","","","revaluation","1","8","","",""
"html-keyboard-response","125","744076","0.0-4.0-2.0-1.4","spark_pilot_2","7323","4","12","Male","","","","","","","null","<div style=""font-size:60px;"">+</div>","null","fixation","","","","","","","","","","","9","","",""
"revaluation","126","750105","0.0-4.0-2.0-0.5","spark_pilot_2","7323","4","12","Male","","false","","","","","[990.2000000029802,405.69999999925494]","./assets/img/ocean/memory/28.jpg","[""ArrowUp"",""ArrowLeft""]","value training","ocean","26","{""ArrowUp,ArrowLeft"":26,""ArrowUp,ArrowRight"":10,""ArrowDown,ArrowLeft"":5,""ArrowDown,ArrowRight"":17}","true","ArrowUp,ArrowLeft","false","","","revaluation","1","10","","",""
"html-keyboard-response","127","750615","0.0-4.0-2.0-1.5","spark_pilot_2","7323","4","12","Male","","","","","","","null","<div style=""font-size:60px;"">+</div>","null","fixation","","","","","","","","","","","11","","",""
"revaluation","128","756642","0.0-4.0-2.0-0.6","spark_pilot_2","7323","4","12","Male","","false","","","","","[535.5,747.5]","./assets/img/ocean/memory/12.jpg","[""ArrowUp"",""ArrowLeft""]","value training","ocean","26","{""ArrowUp,ArrowLeft"":26,""ArrowUp,ArrowRight"":10,""ArrowDown,ArrowLeft"":5,""ArrowDown,ArrowRight"":17}","true","ArrowUp,ArrowLeft","false","","","revaluation","1","12","","",""
"html-keyboard-response","129","757150","0.0-4.0-2.0-1.6","spark_pilot_2","7323","4","12","Male","","","","","","","null","<div style=""font-size:60px;"">+</div>","null","fixation","","","","","","","","","","","13","","",""
"revaluation","130","763170","0.0-4.0-2.0-0.7","spark_pilot_2","7323","4","12","Male","","false","","","","","[1019,743]","./assets/img/ocean/memory/24.jpg","[""ArrowUp"",""ArrowLeft""]","value training","ocean","26","{""ArrowUp,ArrowLeft"":26,""ArrowUp,ArrowRight"":10,""ArrowDown,ArrowLeft"":5,""ArrowDown,ArrowRight"":17}","true","ArrowUp,ArrowLeft","false","","","revaluation","1","14","","",""
"html-keyboard-response","131","763686","0.0-4.0-2.0-1.7","spark_pilot_2","7323","4","12","Male","","","","","","","null","<div style=""font-size:60px;"">+</div>","null","fixation","","","","","","","","","","","15","","",""
"revaluation","132","769710","0.0-4.0-2.0-0.8","spark_pilot_2","7323","4","12","Male","","false","","","","","[698.3999999985099,535.7999999970198]","./assets/img/ocean/memory/21.jpg","[""ArrowUp"",""ArrowLeft""]","value training","ocean","26","{""ArrowUp,ArrowLeft"":26,""ArrowUp,ArrowRight"":10,""ArrowDown,ArrowLeft"":5,""ArrowDown,ArrowRight"":17}","true","ArrowUp,ArrowLeft","false","","","revaluation","1","16","","",""
"html-keyboard-response","133","770212","0.0-4.0-2.0-1.8","spark_pilot_2","7323","4","12","Male","","","","","","","null","<div style=""font-size:60px;"">+</div>","null","fixation","","","","","","","","","","","17","","",""
"revaluation","134","776241","0.0-4.0-2.0-0.9","spark_pilot_2","7323","4","12","Male","","false","","","","","[861.0999999977648,463]","./assets/img/ocean/memory/1.jpg","[""ArrowUp"",""ArrowLeft""]","value training","ocean","26","{""ArrowUp,ArrowLeft"":26,""ArrowUp,ArrowRight"":10,""ArrowDown,ArrowLeft"":5,""ArrowDown,ArrowRight"":17}","true","ArrowUp,ArrowLeft","false","","","revaluation","1","18","","",""
"html-keyboard-response","135","776747","0.0-4.0-2.0-1.9","spark_pilot_2","7323","4","12","Male","","","","","","","null","<div style=""font-size:60px;"">+</div>","null","fixation","","","","","","","","","","","19","","",""
"revaluation","136","782772","0.0-4.0-2.0-0.10","spark_pilot_2","7323","4","12","Male","","false","","","","","[1050.4000000022352,774.6999999992549]","./assets/img/ocean/memory/9.jpg","[""ArrowUp"",""ArrowLeft""]","value training","ocean","26","{""ArrowUp,ArrowLeft"":26,""ArrowUp,ArrowRight"":10,""ArrowDown,ArrowLeft"":5,""ArrowDown,ArrowRight"":17}","true","ArrowUp,ArrowLeft","false","","","revaluation","1","20","","",""
"html-keyboard-response","137","783277","0.0-4.0-2.0-1.10","spark_pilot_2","7323","4","12","Male","","","","","","","null","<div style=""font-size:60px;"">+</div>","null","fixation","","","","","","","","","","","21","","",""
"revaluation","138","789299","0.0-4.0-2.0-0.11","spark_pilot_2","7323","4","12","Male","","false","","","","","[657,903.6999999992549]","./assets/img/ocean/memory/19.jpg","[""ArrowUp"",""ArrowLeft""]","value training","ocean","26","{""ArrowUp,ArrowLeft"":26,""ArrowUp,ArrowRight"":10,""ArrowDown,ArrowLeft"":5,""ArrowDown,ArrowRight"":17}","true","ArrowUp,ArrowLeft","false","","","revaluation","1","22","","",""
"html-keyboard-response","139","789803","0.0-4.0-2.0-1.11","spark_pilot_2","7323","4","12","Male","","","","","","","null","<div style=""font-size:60px;"">+</div>","null","fixation","","","","","","","","","","","23","","",""
"revaluation","140","795827","0.0-4.0-2.0-0.12","spark_pilot_2","7323","4","12","Male","","false","","","","","[982.6000000014901,806.5]","./assets/img/ocean/memory/10.jpg","[""ArrowUp"",""ArrowLeft""]","value training","ocean","26","{""ArrowUp,ArrowLeft"":26,""ArrowUp,ArrowRight"":10,""ArrowDown,ArrowLeft"":5,""ArrowDown,ArrowRight"":17}","true","ArrowUp,ArrowLeft","false","","","revaluation","1","24","","",""
"html-keyboard-response","141","796336","0.0-4.0-2.0-1.12","spark_pilot_2","7323","4","12","Male","","","","","","","null","<div style=""font-size:60px;"">+</div>","null","fixation","","","","","","","","","","","25","","",""
"revaluation","142","802362","0.0-4.0-2.0-0.13","spark_pilot_2","7323","4","12","Male","","false","","","","","[574.5,1153.4000000022352]","./assets/img/ocean/memory/30.jpg","[""ArrowUp"",""ArrowLeft""]","value training","ocean","26","{""ArrowUp,ArrowLeft"":26,""ArrowUp,ArrowRight"":10,""ArrowDown,ArrowLeft"":5,""ArrowDown,ArrowRight"":17}","true","ArrowUp,ArrowLeft","false","","","revaluation","1","26","","",""
"html-keyboard-response","143","802866","0.0-4.0-2.0-1.13","spark_pilot_2","7323","4","12","Male","","","","","","","null","<div style=""font-size:60px;"">+</div>","null","fixation","","","","","","","","","","","27","","",""
"revaluation","144","808900","0.0-4.0-2.0-0.14","spark_pilot_2","7323","4","12","Male","","false","","","","","[646.5,570.7000000029802]","./assets/img/ocean/memory/23.jpg","[""ArrowUp"",""ArrowLeft""]","value training","ocean","26","{""ArrowUp,ArrowLeft"":26,""ArrowUp,ArrowRight"":10,""ArrowDown,ArrowLeft"":5,""ArrowDown,ArrowRight"":17}","true","ArrowUp,ArrowLeft","false","","","revaluation","1","28","","",""
"html-keyboard-response","145","809408","0.0-4.0-2.0-1.14","spark_pilot_2","7323","4","12","Male","","","","","","","null","<div style=""font-size:60px;"">+</div>","null","fixation","","","","","","","","","","","29","","",""
"revaluation","146","815426","0.0-4.0-2.0-0.15","spark_pilot_2","7323","4","12","Male","","false","","","","","[1009.2999999970198,598.3000000007451]","./assets/img/ocean/memory/20.jpg","[""ArrowUp"",""ArrowLeft""]","value training","ocean","26","{""ArrowUp,ArrowLeft"":26,""ArrowUp,ArrowRight"":10,""ArrowDown,ArrowLeft"":5,""ArrowDown,ArrowRight"":17}","true","ArrowUp,ArrowLeft","false","","","revaluation","1","30","","",""
"html-keyboard-response","147","815928","0.0-4.0-2.0-1.15","spark_pilot_2","7323","4","12","Male","","","","","","","null","<div style=""font-size:60px;"">+</div>","null","fixation","","","","","","","","","","","31","","",""
"revaluation","148","821947","0.0-4.0-2.0-0.16","spark_pilot_2","7323","4","12","Male","","false","","","","","[560.7999999970198,982.3999999985099]","./assets/img/ocean/memory/38.jpg","[""ArrowUp"",""ArrowLeft""]","value training","ocean","26","{""ArrowUp,ArrowLeft"":26,""ArrowUp,ArrowRight"":10,""ArrowDown,ArrowLeft"":5,""ArrowDown,ArrowRight"":17}","true","ArrowUp,ArrowLeft","false","","","revaluation","1","32","","",""
"html-keyboard-response","149","822458","0.0-4.0-2.0-1.16","spark_pilot_2","7323","4","12","Male","","","","","","","null","<div style=""font-size:60px;"">+</div>","null","fixation","","","","","","","","","","","33","","",""
"revaluation","150","828481","0.0-4.0-2.0-0.17","spark_pilot_2","7323","4","12","Male","","false","","","","","[1065.800000000745,933.1000000014901]","./assets/img/ocean/memory/21.jpg","[""ArrowUp"",""ArrowLeft""]","value training","ocean","26","{""ArrowUp,ArrowLeft"":26,""ArrowUp,ArrowRight"":10,""ArrowDown,ArrowLeft"":5,""ArrowDown,ArrowRight"":17}","true","ArrowUp,ArrowLeft","false","","","revaluation","1","34","","",""
"html-keyboard-response","151","828990","0.0-4.0-2.0-1.17","spark_pilot_2","7323","4","12","Male","","","","","","","null","<div style=""font-size:60px;"">+</div>","null","fixation","","","","","","","","","","","35","","",""
"revaluation","152","835008","0.0-4.0-2.0-0.18","spark_pilot_2","7323","4","12","Male","","false","","","","","[481.4000000022352,1120.8999999985099]","./assets/img/ocean/memory/23.jpg","[""ArrowUp"",""ArrowLeft""]","value training","ocean","26","{""ArrowUp,ArrowLeft"":26,""ArrowUp,ArrowRight"":10,""ArrowDown,ArrowLeft"":5,""ArrowDown,ArrowRight"":17}","true","ArrowUp,ArrowLeft","false","","","revaluation","1","36","","",""
"html-keyboard-response","153","835515","0.0-4.0-2.0-1.18","spark_pilot_2","7323","4","12","Male","","","","","","","null","<div style=""font-size:60px;"">+</div>","null","fixation","","","","","","","","","","","37","","",""
"revaluation","154","841539","0.0-4.0-2.0-0.19","spark_pilot_2","7323","4","12","Male","","false","","","","","[1109.699999999255,601.5]","./assets/img/ocean/memory/5.jpg","[""ArrowUp"",""ArrowLeft""]","value training","ocean","26","{""ArrowUp,ArrowLeft"":26,""ArrowUp,ArrowRight"":10,""ArrowDown,ArrowLeft"":5,""ArrowDown,ArrowRight"":17}","true","ArrowUp,ArrowLeft","false","","","revaluation","1","38","","",""
"html-keyboard-response","155","842048","0.0-4.0-2.0-1.19","spark_pilot_2","7323","4","12","Male","","","","","","","null","<div style=""font-size:60px;"">+</div>","null","fixation","","","","","","","","","","","39","","",""
"revaluation","156","848082","0.0-4.0-2.0-0.20","spark_pilot_2","7323","4","12","Male","","false","","","","","[638.9000000022352,628.5]","./assets/img/ocean/memory/14.jpg","[""ArrowUp"",""ArrowLeft""]","value training","ocean","26","{""ArrowUp,ArrowLeft"":26,""ArrowUp,ArrowRight"":10,""ArrowDown,ArrowLeft"":5,""ArrowDown,ArrowRight"":17}","true","ArrowUp,ArrowLeft","false","","","revaluation","1","40","","",""
"html-keyboard-response","157","848589","0.0-4.0-2.0-1.20","spark_pilot_2","7323","4","12","Male","","","","","","","null","<div style=""font-size:60px;"">+</div>","null","fixation","","","","","","","","","","","41","","",""
"revaluation","158","854625","0.0-4.0-2.0-0.21","spark_pilot_2","7323","4","12","Male","","false","","","","","[759.6000000014901,627.6000000014901]","./assets/img/ocean/memory/6.jpg","[""ArrowUp"",""ArrowLeft""]","value training","ocean","26","{""ArrowUp,ArrowLeft"":26,""ArrowUp,ArrowRight"":10,""ArrowDown,ArrowLeft"":5,""ArrowDown,ArrowRight"":17}","true","ArrowUp,ArrowLeft","false","","","revaluation","1","42","","",""
"html-keyboard-response","159","855135","0.0-4.0-2.0-1.21","spark_pilot_2","7323","4","12","Male","","","","","","","null","<div style=""font-size:60px;"">+</div>","null","fixation","","","","","","","","","","","43","","",""
"revaluation","160","861148","0.0-4.0-2.0-0.22","spark_pilot_2","7323","4","12","Male","","false","","","","","[560.1999999992549,632.3999999985099]","./assets/img/ocean/memory/25.jpg","[""ArrowUp"",""ArrowLeft""]","value training","ocean","26","{""ArrowUp,ArrowLeft"":26,""ArrowUp,ArrowRight"":10,""ArrowDown,ArrowLeft"":5,""ArrowDown,ArrowRight"":17}","true","ArrowUp,ArrowLeft","false","","","revaluation","1","44","","",""
"html-keyboard-response","161","861654","0.0-4.0-2.0-1.22","spark_pilot_2","7323","4","12","Male","","","","","","","null","<div style=""font-size:60px;"">+</div>","null","fixation","","","","","","","","","","","45","","",""
"revaluation","162","867672","0.0-4.0-2.0-0.23","spark_pilot_2","7323","4","12","Male","","false","","","","","[630.1999999992549,433.5]","./assets/img/ocean/memory/30.jpg","[""ArrowUp"",""ArrowLeft""]","value training","ocean","26","{""ArrowUp,ArrowLeft"":26,""ArrowUp,ArrowRight"":10,""ArrowDown,ArrowLeft"":5,""ArrowDown,ArrowRight"":17}","true","ArrowUp,ArrowLeft","false","","","revaluation","1","46","","",""
"html-keyboard-response","163","868174","0.0-4.0-2.0-1.23","spark_pilot_2","7323","4","12","Male","","","","","","","null","<div style=""font-size:60px;"">+</div>","null","fixation","","","","","","","","","","","47","","",""
"revaluation","164","872188","0.0-4.0-2.0-0.24","spark_pilot_2","7323","4","12","Male","","false","","","","","[472.69999999925494]","./assets/img/ocean/catch/4.jpg","[""ArrowUp""]","value training","ocean","-10","{""ArrowUp,ArrowLeft"":26,""ArrowUp,ArrowRight"":10,""ArrowDown,ArrowLeft"":5,""ArrowDown,ArrowRight"":17}","false","ArrowUp","true","","","revaluation","1","48","","",""
"html-keyboard-response","165","872690","0.0-4.0-2.0-1.24","spark_pilot_2","7323","4","12","Male","","","","","","","null","<div style=""font-size:60px;"">+</div>","null","fixation","","","","","","","","","","","49","","",""
"revaluation","166","878715","0.0-4.0-2.0-0.25","spark_pilot_2","7323","4","12","Male","","false","","","","","[936.7999999970198,910.1999999992549]","./assets/img/ocean/memory/0.jpg","[""ArrowUp"",""ArrowLeft""]","value training","ocean","26","{""ArrowUp,ArrowLeft"":26,""ArrowUp,ArrowRight"":10,""ArrowDown,ArrowLeft"":5,""ArrowDown,ArrowRight"":17}","true","ArrowUp,ArrowLeft","false","","","revaluation","1","50","","",""
"html-keyboard-response","167","879225","0.0-4.0-2.0-1.25","spark_pilot_2","7323","4","12","Male","","","","","","","null","<div style=""font-size:60px;"">+</div>","null","fixation","","","","","","","","","","","51","","",""
"revaluation","168","883238","0.0-4.0-2.0-0.26","spark_pilot_2","7323","4","12","Male","","false","","","","","[823.6000000014901]","./assets/img/ocean/catch/3.jpg","[""spaceBar""]","value training","ocean","0","{""ArrowUp,ArrowLeft"":26,""ArrowUp,ArrowRight"":10,""ArrowDown,ArrowLeft"":5,""ArrowDown,ArrowRight"":17}","true","spaceBar","true","","","revaluation","1","52","","",""
"html-keyboard-response","169","883748","0.0-4.0-2.0-1.26","spark_pilot_2","7323","4","12","Male","","","","","","","null","<div style=""font-size:60px;"">+</div>","null","fixation","","","","","","","","","","","53","","",""
"revaluation","170","889774","0.0-4.0-2.0-0.27","spark_pilot_2","7323","4","12","Male","","false","","","","","[505.9000000022352,662.1000000014901]","./assets/img/ocean/memory/12.jpg","[""ArrowUp"",""ArrowLeft""]","value training","ocean","26","{""ArrowUp,ArrowLeft"":26,""ArrowUp,ArrowRight"":10,""ArrowDown,ArrowLeft"":5,""ArrowDown,ArrowRight"":17}","true","ArrowUp,ArrowLeft","false","","","revaluation","1","54","","",""
"html-keyboard-response","171","890281","0.0-4.0-2.0-1.27","spark_pilot_2","7323","4","12","Male","","","","","","","null","<div style=""font-size:60px;"">+</div>","null","fixation","","","","","","","","","","","55","","",""
"revaluation","172","896295","0.0-4.0-2.0-0.28","spark_pilot_2","7323","4","12","Male","","false","","","","","[646.8999999985099,1044.0999999977648]","./assets/img/ocean/memory/19.jpg","[""ArrowUp"",""ArrowLeft""]","value training","ocean","26","{""ArrowUp,ArrowLeft"":26,""ArrowUp,ArrowRight"":10,""ArrowDown,ArrowLeft"":5,""ArrowDown,ArrowRight"":17}","true","ArrowUp,ArrowLeft","false","","","revaluation","1","56","","",""
"html-keyboard-response","173","896808","0.0-4.0-2.0-1.28","spark_pilot_2","7323","4","12","Male","","","","","","","null","<div style=""font-size:60px;"">+</div>","null","fixation","","","","","","","","","","","57","","",""
"revaluation","174","900836","0.0-4.0-2.0-0.29","spark_pilot_2","7323","4","12","Male","","false","","","","","[719.5]","./assets/img/ocean/catch/1.jpg","[""spaceBar""]","value training","ocean","0","{""ArrowUp,ArrowLeft"":26,""ArrowUp,ArrowRight"":10,""ArrowDown,ArrowLeft"":5,""ArrowDown,ArrowRight"":17}","true","spaceBar","true","","","revaluation","1","58","","",""
"html-keyboard-response","175","901346","0.0-4.0-2.0-1.29","spark_pilot_2","7323","4","12","Male","","","","","","","null","<div style=""font-size:60px;"">+</div>","null","fixation","","","","","","","","","","","59","","",""
"revaluation","176","907362","0.0-4.0-2.0-0.30","spark_pilot_2","7323","4","12","Male","","false","","","","","[1043.7000000029802,406.0999999977648]","./assets/img/ocean/memory/28.jpg","[""ArrowUp"",""ArrowLeft""]","value training","ocean","26","{""ArrowUp,ArrowLeft"":26,""ArrowUp,ArrowRight"":10,""ArrowDown,ArrowLeft"":5,""ArrowDown,ArrowRight"":17}","true","ArrowUp,ArrowLeft","false","","","revaluation","1","60","","",""
"html-keyboard-response","177","907879","0.0-4.0-2.0-1.30","spark_pilot_2","7323","4","12","Male","","","","","","","null","<div style=""font-size:60px;"">+</div>","null","fixation","","","","","","","","","","","61","","",""
"revaluation","178","913909","0.0-4.0-2.0-0.31","spark_pilot_2","7323","4","12","Male","","false","","","","","[603.2000000029802,472.3999999985099]","./assets/img/ocean/memory/0.jpg","[""ArrowUp"",""ArrowRight""]","value training","ocean","10","{""ArrowUp,ArrowLeft"":26,""ArrowUp,ArrowRight"":10,""ArrowDown,ArrowLeft"":5,""ArrowDown,ArrowRight"":17}","false","ArrowUp,ArrowRight","false","","","revaluation","1","62","","",""
"html-keyboard-response","179","914415","0.0-4.0-2.0-1.31","spark_pilot_2","7323","4","12","Male","","","","","","","null","<div style=""font-size:60px;"">+</div>","null","fixation","","","","","","","","","","","63","","",""
"revaluation","180","920432","0.0-4.0-2.0-0.32","spark_pilot_2","7323","4","12","Male","","false","","","","","[939.2000000029802,1034.300000000745]","./assets/img/ocean/memory/32.jpg","[""ArrowUp"",""ArrowLeft""]","value training","ocean","26","{""ArrowUp,ArrowLeft"":26,""ArrowUp,ArrowRight"":10,""ArrowDown,ArrowLeft"":5,""ArrowDown,ArrowRight"":17}","true","ArrowUp,ArrowLeft","false","","","revaluation","1","64","","",""
"html-keyboard-response","181","920941","0.0-4.0-2.0-1.32","spark_pilot_2","7323","4","12","Male","","","","","","","null","<div style=""font-size:60px;"">+</div>","null","fixation","","","","","","","","","","","65","","",""
"revaluation","182","924952","0.0-4.0-2.0-0.33","spark_pilot_2","7323","4","12","Male","","false","","","","","[824.6000000014901]","./assets/img/ocean/catch/7.jpg","[""spaceBar""]","value training","ocean","0","{""ArrowUp,ArrowLeft"":26,""ArrowUp,ArrowRight"":10,""ArrowDown,ArrowLeft"":5,""ArrowDown,ArrowRight"":17}","true","spaceBar","true","","","revaluation","1","66","","",""
"html-keyboard-response","183","925459","0.0-4.0-2.0-1.33","spark_pilot_2","7323","4","12","Male","","","","","","","null","<div style=""font-size:60px;"">+</div>","null","fixation","","","","","","","","","","","67","","",""
"revaluation","184","931482","0.0-4.0-2.0-0.34","spark_pilot_2","7323","4","12","Male","","false","","","","","[497.30000000074506,848.1999999992549]","./assets/img/ocean/memory/7.jpg","[""ArrowUp"",""ArrowLeft""]","value training","ocean","26","{""ArrowUp,ArrowLeft"":26,""ArrowUp,ArrowRight"":10,""ArrowDown,ArrowLeft"":5,""ArrowDown,ArrowRight"":17}","true","ArrowUp,ArrowLeft","false","","","revaluation","1","68","","",""
"html-keyboard-response","185","931994","0.0-4.0-2.0-1.34","spark_pilot_2","7323","4","12","Male","","","","","","","null","<div style=""font-size:60px;"">+</div>","null","fixation","","","","","","","","","","","69","","",""
"revaluation","186","938028","0.0-4.0-2.0-0.35","spark_pilot_2","7323","4","12","Male","","false","","","","","[804.8999999985099,763.3000000007451]","./assets/img/ocean/memory/20.jpg","[""ArrowUp"",""ArrowLeft""]","value training","ocean","26","{""ArrowUp,ArrowLeft"":26,""ArrowUp,ArrowRight"":10,""ArrowDown,ArrowLeft"":5,""ArrowDown,ArrowRight"":17}","true","ArrowUp,ArrowLeft","false","","","revaluation","1","70","","",""
"html-keyboard-response","187","938532","0.0-4.0-2.0-1.35","spark_pilot_2","7323","4","12","Male","","","","","","","null","<div style=""font-size:60px;"">+</div>","null","fixation","","","","","","","","","","","71","","",""
"revaluation","188","944550","0.0-4.0-2.0-0.36","spark_pilot_2","7323","4","12","Male","","false","","","","","[604.1000000014901,1270.6000000014901]","./assets/img/ocean/memory/27.jpg","[""ArrowUp"",""ArrowLeft""]","value training","ocean","26","{""ArrowUp,ArrowLeft"":26,""ArrowUp,ArrowRight"":10,""ArrowDown,ArrowLeft"":5,""ArrowDown,ArrowRight"":17}","true","ArrowUp,ArrowLeft","false","","","revaluation","1","72","","",""
"html-keyboard-response","189","945058","0.0-4.0-2.0-1.36","spark_pilot_2","7323","4","12","Male","","","","","","","null","<div style=""font-size:60px;"">+</div>","null","fixation","","","","","","","","","","","73","","",""
"revaluation","190","951086","0.0-4.0-2.0-0.37","spark_pilot_2","7323","4","12","Male","","false","","","","","[1114.9000000022352,128]","./assets/img/ocean/memory/25.jpg","[""ArrowUp"",""ArrowLeft""]","value training","ocean","26","{""ArrowUp,ArrowLeft"":26,""ArrowUp,ArrowRight"":10,""ArrowDown,ArrowLeft"":5,""ArrowDown,ArrowRight"":17}","true","ArrowUp,ArrowLeft","false","","","revaluation","1","74","","",""
"html-keyboard-response","191","951588","0.0-4.0-2.0-1.37","spark_pilot_2","7323","4","12","Male","","","","","","","null","<div style=""font-size:60px;"">+</div>","null","fixation","","","","","","","","","","","75","","",""
"revaluation","192","957619","0.0-4.0-2.0-0.38","spark_pilot_2","7323","4","12","Male","","false","","","","","[1137.5,425.69999999925494]","./assets/img/ocean/memory/14.jpg","[""ArrowUp"",""ArrowLeft""]","value training","ocean","26","{""ArrowUp,ArrowLeft"":26,""ArrowUp,ArrowRight"":10,""ArrowDown,ArrowLeft"":5,""ArrowDown,ArrowRight"":17}","true","ArrowUp,ArrowLeft","false","","","revaluation","1","76","","",""
"html-keyboard-response","193","958127","0.0-4.0-2.0-1.38","spark_pilot_2","7323","4","12","Male","","","","","","","null","<div style=""font-size:60px;"">+</div>","null","fixation","","","","","","","","","","","77","","",""
"revaluation","194","964139","0.0-4.0-2.0-0.39","spark_pilot_2","7323","4","12","Male","","false","","","","","[772.8000000007451,54.69999999925494]","./assets/img/ocean/memory/27.jpg","[""ArrowUp"",""ArrowLeft""]","value training","ocean","26","{""ArrowUp,ArrowLeft"":26,""ArrowUp,ArrowRight"":10,""ArrowDown,ArrowLeft"":5,""ArrowDown,ArrowRight"":17}","true","ArrowUp,ArrowLeft","false","","","revaluation","1","78","","",""
"html-keyboard-response","195","964656","0.0-4.0-2.0-1.39","spark_pilot_2","7323","4","12","Male","","","","","","","null","<div style=""font-size:60px;"">+</div>","null","fixation","","","","","","","","","","","79","","",""
"revaluation","196","970689","0.0-4.0-2.0-0.40","spark_pilot_2","7323","4","12","Male","","false","","","","","[660.0999999977648,354.80000000074506]","./assets/img/ocean/memory/6.jpg","[""ArrowUp"",""ArrowLeft""]","value training","ocean","26","{""ArrowUp,ArrowLeft"":26,""ArrowUp,ArrowRight"":10,""ArrowDown,ArrowLeft"":5,""ArrowDown,ArrowRight"":17}","true","ArrowUp,ArrowLeft","false","","","revaluation","1","80","","",""
"html-keyboard-response","197","971207","0.0-4.0-2.0-1.40","spark_pilot_2","7323","4","12","Male","","","","","","","null","<div style=""font-size:60px;"">+</div>","null","fixation","","","","","","","","","","","81","","",""
"revaluation","198","977237","0.0-4.0-2.0-0.41","spark_pilot_2","7323","4","12","Male","","false","","","","","[999.6999999992549,390.69999999925494]","./assets/img/ocean/memory/24.jpg","[""ArrowUp"",""ArrowLeft""]","value training","ocean","26","{""ArrowUp,ArrowLeft"":26,""ArrowUp,ArrowRight"":10,""ArrowDown,ArrowLeft"":5,""ArrowDown,ArrowRight"":17}","true","ArrowUp,ArrowLeft","false","","","revaluation","1","82","","",""
"html-keyboard-response","199","977743","0.0-4.0-2.0-1.41","spark_pilot_2","7323","4","12","Male","","","","","","","null","<div style=""font-size:60px;"">+</div>","null","fixation","","","","","","","","","","","83","","",""
"revaluation","200","983772","0.0-4.0-2.0-0.42","spark_pilot_2","7323","4","12","Male","","false","","","","","[214.89999999850988,576.3000000007451]","./assets/img/ocean/memory/1.jpg","[""ArrowUp"",""ArrowLeft""]","value training","ocean","26","{""ArrowUp,ArrowLeft"":26,""ArrowUp,ArrowRight"":10,""ArrowDown,ArrowLeft"":5,""ArrowDown,ArrowRight"":17}","true","ArrowUp,ArrowLeft","false","","","revaluation","1","84","","",""
"html-keyboard-response","201","984278","0.0-4.0-2.0-1.42","spark_pilot_2","7323","4","12","Male","","","","","","","null","<div style=""font-size:60px;"">+</div>","null","fixation","","","","","","","","","","","85","","",""
"revaluation","202","990307","0.0-4.0-2.0-0.43","spark_pilot_2","7323","4","12","Male","","false","","","","","[391.5,219]","./assets/img/ocean/memory/10.jpg","[""ArrowUp"",""ArrowLeft""]","value training","ocean","26","{""ArrowUp,ArrowLeft"":26,""ArrowUp,ArrowRight"":10,""ArrowDown,ArrowLeft"":5,""ArrowDown,ArrowRight"":17}","true","ArrowUp,ArrowLeft","false","","","revaluation","1","86","","",""
"html-keyboard-response","203","990817","0.0-4.0-2.0-1.43","spark_pilot_2","7323","4","12","Male","","","","","","","null","<div style=""font-size:60px;"">+</div>","null","fixation","","","","","","","","","","","87","","",""
"revaluation","204","994849","0.0-4.0-2.0-0.44","spark_pilot_2","7323","4","12","Male","","false","","","","","[909.6999999992549]","./assets/img/ocean/catch/5.jpg","[""spaceBar""]","value training","ocean","0","{""ArrowUp,ArrowLeft"":26,""ArrowUp,ArrowRight"":10,""ArrowDown,ArrowLeft"":5,""ArrowDown,ArrowRight"":17}","true","spaceBar","true","","","revaluation","1","88","","",""
"html-keyboard-response","205","995364","0.0-4.0-2.0-1.44","spark_pilot_2","7323","4","12","Male","","","","","","","null","<div style=""font-size:60px;"">+</div>","null","fixation","","","","","","","","","","","89","","",""
"revaluation","206","999390","0.0-4.0-2.0-0.45","spark_pilot_2","7323","4","12","Male","","false","","","","","[1283.8999999985099]","./assets/img/ocean/catch/2.jpg","[""spaceBar""]","value training","ocean","0","{""ArrowUp,ArrowLeft"":26,""ArrowUp,ArrowRight"":10,""ArrowDown,ArrowLeft"":5,""ArrowDown,ArrowRight"":17}","true","spaceBar","true","","","revaluation","1","90","","",""
"html-keyboard-response","207","999893","0.0-4.0-2.0-1.45","spark_pilot_2","7323","4","12","Male","","","","","","","null","<div style=""font-size:60px;"">+</div>","null","fixation","","","","","","","","","","","91","","",""
"revaluation","208","1005924","0.0-4.0-2.0-0.46","spark_pilot_2","7323","4","12","Male","","true","","","","","[946.1999999992549]","./assets/img/ocean/memory/32.jpg","[""ArrowUp""]","value training","ocean","-5","{""ArrowUp,ArrowLeft"":26,""ArrowUp,ArrowRight"":10,""ArrowDown,ArrowLeft"":5,""ArrowDown,ArrowRight"":17}","false","ArrowUp","false","","","revaluation","1","92","","",""
"html-keyboard-response","209","1006434","0.0-4.0-2.0-1.46","spark_pilot_2","7323","4","12","Male","","","","","","","null","<div style=""font-size:60px;"">+</div>","null","fixation","","","","","","","","","","","93","","",""
"revaluation","210","1012458","0.0-4.0-2.0-0.47","spark_pilot_2","7323","4","12","Male","","false","","","","","[849,723.0999999977648]","./assets/img/ocean/memory/29.jpg","[""ArrowUp"",""ArrowLeft""]","value training","ocean","26","{""ArrowUp,ArrowLeft"":26,""ArrowUp,ArrowRight"":10,""ArrowDown,ArrowLeft"":5,""ArrowDown,ArrowRight"":17}","true","ArrowUp,ArrowLeft","false","","","revaluation","1","94","","",""
"html-keyboard-response","211","1012962","0.0-4.0-2.0-1.47","spark_pilot_2","7323","4","12","Male","","","","","","","null","<div style=""font-size:60px;"">+</div>","null","fixation","","","","","","","","","","","95","","",""
"revaluation","212","1018981","0.0-4.0-2.0-0.48","spark_pilot_2","7323","4","12","Male","","false","","","","","[655.9000000022352,1615.199999999255]","./assets/img/ocean/memory/38.jpg","[""ArrowUp"",""ArrowLeft""]","value training","ocean","26","{""ArrowUp,ArrowLeft"":26,""ArrowUp,ArrowRight"":10,""ArrowDown,ArrowLeft"":5,""ArrowDown,ArrowRight"":17}","true","ArrowUp,ArrowLeft","false","","","revaluation","1","96","","",""
"html-keyboard-response","213","1019497","0.0-4.0-2.0-1.48","spark_pilot_2","7323","4","12","Male","","","","","","","null","<div style=""font-size:60px;"">+</div>","null","fixation","","","","","","","","","","","97","","",""
"revaluation","214","1023521","0.0-4.0-2.0-0.49","spark_pilot_2","7323","4","12","Male","","false","","","","","[804.3999999985099]","./assets/img/ocean/catch/6.jpg","[""spaceBar""]","value training","ocean","0","{""ArrowUp,ArrowLeft"":26,""ArrowUp,ArrowRight"":10,""ArrowDown,ArrowLeft"":5,""ArrowDown,ArrowRight"":17}","true","spaceBar","true","","","revaluation","1","98","","",""
"html-keyboard-response","215","1024025","0.0-4.0-2.0-1.49","spark_pilot_2","7323","4","12","Male","","","","","","","null","<div style=""font-size:60px;"">+</div>","null","fixation","","","","","","","","","","","99","","",""
"learning-instructions","216","1038633","0.0-4.0-3.0-0.0","spark_pilot_2","7323","4","12","Male","","","","","","","1340.4000000022352","<p> Now, you will travel with a friend who will choose whether you go up or down first. </p>
            <p> On these turns, you will just see the animal that they found. You will still get to choose which chest to search for treasure.</p>","","instructions","","","","","","","","","","","","","",""
"revaluation","217","1042662","0.0-4.0-4.0-0.0","spark_pilot_2","7323","4","12","Male","","false","","","","","[1232.6000000014901]","./assets/img/ocean/animals/seahorse.jpg","[""ArrowRight""]","revaluation","ocean","11","{""ArrowUp,ArrowLeft"":2,""ArrowUp,ArrowRight"":11,""ArrowDown,ArrowLeft"":8,""ArrowDown,ArrowRight"":27}","true","ArrowUp,ArrowRight","","","","revaluation","1","0","","",""
"html-keyboard-response","218","1043186","0.0-4.0-4.0-1.0","spark_pilot_2","7323","4","12","Male","","","","","","","null","<div style=""font-size:60px;"">+</div>","null","fixation","","","","","","","","","","","1","","",""
"revaluation","219","1047208","0.0-4.0-4.0-0.1","spark_pilot_2","7323","4","12","Male","","false","","","","","[410.19999999925494]","./assets/img/ocean/animals/seahorse.jpg","[""ArrowLeft""]","revaluation","ocean","2","{""ArrowUp,ArrowLeft"":2,""ArrowUp,ArrowRight"":11,""ArrowDown,ArrowLeft"":8,""ArrowDown,ArrowRight"":27}","false","ArrowUp,ArrowLeft","","","","revaluation","1","2","","",""
"html-keyboard-response","220","1047715","0.0-4.0-4.0-1.1","spark_pilot_2","7323","4","12","Male","","","","","","","null","<div style=""font-size:60px;"">+</div>","null","fixation","","","","","","","","","","","3","","",""
"revaluation","221","1051731","0.0-4.0-4.0-0.2","spark_pilot_2","7323","4","12","Male","","false","","","","","[691]","./assets/img/ocean/animals/octopus.jpg","[""ArrowRight""]","revaluation","ocean","27","{""ArrowUp,ArrowLeft"":2,""ArrowUp,ArrowRight"":11,""ArrowDown,ArrowLeft"":8,""ArrowDown,ArrowRight"":27}","true","ArrowDown,ArrowRight","","","","revaluation","1","4","","",""
"html-keyboard-response","222","1052243","0.0-4.0-4.0-1.2","spark_pilot_2","7323","4","12","Male","","","","","","","null","<div style=""font-size:60px;"">+</div>","null","fixation","","","","","","","","","","","5","","",""
"revaluation","223","1056261","0.0-4.0-4.0-0.3","spark_pilot_2","7323","4","12","Male","","false","","","","","[895.8999999985099]","./assets/img/ocean/animals/seahorse.jpg","[""ArrowRight""]","revaluation","ocean","11","{""ArrowUp,ArrowLeft"":2,""ArrowUp,ArrowRight"":11,""ArrowDown,ArrowLeft"":8,""ArrowDown,ArrowRight"":27}","true","ArrowUp,ArrowRight","","","","revaluation","1","6","","",""
"html-keyboard-response","224","1056771","0.0-4.0-4.0-1.3","spark_pilot_2","7323","4","12","Male","","","","","","","null","<div style=""font-size:60px;"">+</div>","null","fixation","","","","","","","","","","","7","","",""
"revaluation","225","1060798","0.0-4.0-4.0-0.4","spark_pilot_2","7323","4","12","Male","","false","","","","","[419.9000000022352]","./assets/img/ocean/animals/octopus.jpg","[""ArrowRight""]","revaluation","ocean","27","{""ArrowUp,ArrowLeft"":2,""ArrowUp,ArrowRight"":11,""ArrowDown,ArrowLeft"":8,""ArrowDown,ArrowRight"":27}","true","ArrowDown,ArrowRight","","","","revaluation","1","8","","",""
"html-keyboard-response","226","1061316","0.0-4.0-4.0-1.4","spark_pilot_2","7323","4","12","Male","","","","","","","null","<div style=""font-size:60px;"">+</div>","null","fixation","","","","","","","","","","","9","","",""
"revaluation","227","1065349","0.0-4.0-4.0-0.5","spark_pilot_2","7323","4","12","Male","","false","","","","","[852.8000000007451]","./assets/img/ocean/animals/octopus.jpg","[""ArrowLeft""]","revaluation","ocean","8","{""ArrowUp,ArrowLeft"":2,""ArrowUp,ArrowRight"":11,""ArrowDown,ArrowLeft"":8,""ArrowDown,ArrowRight"":27}","false","ArrowDown,ArrowLeft","","","","revaluation","1","10","","",""
"html-keyboard-response","228","1065865","0.0-4.0-4.0-1.5","spark_pilot_2","7323","4","12","Male","","","","","","","null","<div style=""font-size:60px;"">+</div>","null","fixation","","","","","","","","","","","11","","",""
"revaluation","229","1069880","0.0-4.0-4.0-0.6","spark_pilot_2","7323","4","12","Male","","false","","","","","[413.30000000074506]","./assets/img/ocean/animals/seahorse.jpg","[""ArrowRight""]","revaluation","ocean","11","{""ArrowUp,ArrowLeft"":2,""ArrowUp,ArrowRight"":11,""ArrowDown,ArrowLeft"":8,""ArrowDown,ArrowRight"":27}","true","ArrowUp,ArrowRight","","","","revaluation","1","12","","",""
"html-keyboard-response","230","1070383","0.0-4.0-4.0-1.6","spark_pilot_2","7323","4","12","Male","","","","","","","null","<div style=""font-size:60px;"">+</div>","null","fixation","","","","","","","","","","","13","","",""
"revaluation","231","1074398","0.0-4.0-4.0-0.7","spark_pilot_2","7323","4","12","Male","","false","","","","","[130.39999999850988]","./assets/img/ocean/animals/seahorse.jpg","[""ArrowRight""]","revaluation","ocean","11","{""ArrowUp,ArrowLeft"":2,""ArrowUp,ArrowRight"":11,""ArrowDown,ArrowLeft"":8,""ArrowDown,ArrowRight"":27}","true","ArrowUp,ArrowRight","","","","revaluation","1","14","","",""
"html-keyboard-response","232","1074905","0.0-4.0-4.0-1.7","spark_pilot_2","7323","4","12","Male","","","","","","","null","<div style=""font-size:60px;"">+</div>","null","fixation","","","","","","","","","","","15","","",""
"revaluation","233","1078922","0.0-4.0-4.0-0.8","spark_pilot_2","7323","4","12","Male","","false","","","","","[105]","./assets/img/ocean/animals/seahorse.jpg","[""ArrowRight""]","revaluation","ocean","11","{""ArrowUp,ArrowLeft"":2,""ArrowUp,ArrowRight"":11,""ArrowDown,ArrowLeft"":8,""ArrowDown,ArrowRight"":27}","true","ArrowUp,ArrowRight","","","","revaluation","1","16","","",""
"html-keyboard-response","234","1079436","0.0-4.0-4.0-1.8","spark_pilot_2","7323","4","12","Male","","","","","","","null","<div style=""font-size:60px;"">+</div>","null","fixation","","","","","","","","","","","17","","",""
"revaluation","235","1083461","0.0-4.0-4.0-0.9","spark_pilot_2","7323","4","12","Male","","false","","","","","[676]","./assets/img/ocean/animals/seahorse.jpg","[""ArrowRight""]","revaluation","ocean","11","{""ArrowUp,ArrowLeft"":2,""ArrowUp,ArrowRight"":11,""ArrowDown,ArrowLeft"":8,""ArrowDown,ArrowRight"":27}","true","ArrowUp,ArrowRight","","","","revaluation","1","18","","",""
"html-keyboard-response","236","1083969","0.0-4.0-4.0-1.9","spark_pilot_2","7323","4","12","Male","","","","","","","null","<div style=""font-size:60px;"">+</div>","null","fixation","","","","","","","","","","","19","","",""
"revaluation","237","1087998","0.0-4.0-4.0-0.10","spark_pilot_2","7323","4","12","Male","","false","","","","","[171.09999999776483]","./assets/img/ocean/animals/octopus.jpg","[""ArrowRight""]","revaluation","ocean","27","{""ArrowUp,ArrowLeft"":2,""ArrowUp,ArrowRight"":11,""ArrowDown,ArrowLeft"":8,""ArrowDown,ArrowRight"":27}","true","ArrowDown,ArrowRight","","","","revaluation","1","20","","",""
"html-keyboard-response","238","1088501","0.0-4.0-4.0-1.10","spark_pilot_2","7323","4","12","Male","","","","","","","null","<div style=""font-size:60px;"">+</div>","null","fixation","","","","","","","","","","","21","","",""
"revaluation","239","1092517","0.0-4.0-4.0-0.11","spark_pilot_2","7323","4","12","Male","","false","","","","","[136.80000000074506]","./assets/img/ocean/animals/octopus.jpg","[""ArrowRight""]","revaluation","ocean","27","{""ArrowUp,ArrowLeft"":2,""ArrowUp,ArrowRight"":11,""ArrowDown,ArrowLeft"":8,""ArrowDown,ArrowRight"":27}","true","ArrowDown,ArrowRight","","","","revaluation","1","22","","",""
"html-keyboard-response","240","1093022","0.0-4.0-4.0-1.11","spark_pilot_2","7323","4","12","Male","","","","","","","null","<div style=""font-size:60px;"">+</div>","null","fixation","","","","","","","","","","","23","","",""
"revaluation","241","1097034","0.0-4.0-4.0-0.12","spark_pilot_2","7323","4","12","Male","","false","","","","","[116.89999999850988]","./assets/img/ocean/animals/octopus.jpg","[""ArrowRight""]","revaluation","ocean","27","{""ArrowUp,ArrowLeft"":2,""ArrowUp,ArrowRight"":11,""ArrowDown,ArrowLeft"":8,""ArrowDown,ArrowRight"":27}","true","ArrowDown,ArrowRight","","","","revaluation","1","24","","",""
"html-keyboard-response","242","1097537","0.0-4.0-4.0-1.12","spark_pilot_2","7323","4","12","Male","","","","","","","null","<div style=""font-size:60px;"">+</div>","null","fixation","","","","","","","","","","","25","","",""
"revaluation","243","1101547","0.0-4.0-4.0-0.13","spark_pilot_2","7323","4","12","Male","","false","","","","","[46.30000000074506]","./assets/img/ocean/animals/seahorse.jpg","[""ArrowRight""]","revaluation","ocean","11","{""ArrowUp,ArrowLeft"":2,""ArrowUp,ArrowRight"":11,""ArrowDown,ArrowLeft"":8,""ArrowDown,ArrowRight"":27}","true","ArrowUp,ArrowRight","","","","revaluation","1","26","","",""
"html-keyboard-response","244","1102056","0.0-4.0-4.0-1.13","spark_pilot_2","7323","4","12","Male","","","","","","","null","<div style=""font-size:60px;"">+</div>","null","fixation","","","","","","","","","","","27","","",""
"revaluation","245","1106071","0.0-4.0-4.0-0.14","spark_pilot_2","7323","4","12","Male","","false","","","","","[548.1000000014901]","./assets/img/ocean/animals/octopus.jpg","[""ArrowRight""]","revaluation","ocean","27","{""ArrowUp,ArrowLeft"":2,""ArrowUp,ArrowRight"":11,""ArrowDown,ArrowLeft"":8,""ArrowDown,ArrowRight"":27}","true","ArrowDown,ArrowRight","","","","revaluation","1","28","","",""
"html-keyboard-response","246","1106579","0.0-4.0-4.0-1.14","spark_pilot_2","7323","4","12","Male","","","","","","","null","<div style=""font-size:60px;"">+</div>","null","fixation","","","","","","","","","","","29","","",""
"revaluation","247","1110600","0.0-4.0-4.0-0.15","spark_pilot_2","7323","4","12","Male","","false","","","","","[471.70000000298023]","./assets/img/ocean/animals/octopus.jpg","[""ArrowRight""]","revaluation","ocean","27","{""ArrowUp,ArrowLeft"":2,""ArrowUp,ArrowRight"":11,""ArrowDown,ArrowLeft"":8,""ArrowDown,ArrowRight"":27}","true","ArrowDown,ArrowRight","","","","revaluation","1","30","","",""
"html-keyboard-response","248","1111106","0.0-4.0-4.0-1.15","spark_pilot_2","7323","4","12","Male","","","","","","","null","<div style=""font-size:60px;"">+</div>","null","fixation","","","","","","","","","","","31","","",""
"revaluation","249","1115124","0.0-4.0-4.0-0.16","spark_pilot_2","7323","4","12","Male","","false","","","","","[445.19999999925494]","./assets/img/ocean/animals/seahorse.jpg","[""ArrowRight""]","revaluation","ocean","11","{""ArrowUp,ArrowLeft"":2,""ArrowUp,ArrowRight"":11,""ArrowDown,ArrowLeft"":8,""ArrowDown,ArrowRight"":27}","true","ArrowUp,ArrowRight","","","","revaluation","1","32","","",""
"html-keyboard-response","250","1115627","0.0-4.0-4.0-1.16","spark_pilot_2","7323","4","12","Male","","","","","","","null","<div style=""font-size:60px;"">+</div>","null","fixation","","","","","","","","","","","33","","",""
"revaluation","251","1119645","0.0-4.0-4.0-0.17","spark_pilot_2","7323","4","12","Male","","false","","","","","[365.9000000022352]","./assets/img/ocean/animals/octopus.jpg","[""ArrowRight""]","revaluation","ocean","27","{""ArrowUp,ArrowLeft"":2,""ArrowUp,ArrowRight"":11,""ArrowDown,ArrowLeft"":8,""ArrowDown,ArrowRight"":27}","true","ArrowDown,ArrowRight","","","","revaluation","1","34","","",""
"html-keyboard-response","252","1120154","0.0-4.0-4.0-1.17","spark_pilot_2","7323","4","12","Male","","","","","","","null","<div style=""font-size:60px;"">+</div>","null","fixation","","","","","","","","","","","35","","",""
"learning-instructions","253","1134212","0.0-4.0-5.0-0.0","spark_pilot_2","7323","4","12","Male","","","","","","","2194.300000000745","<p> Time to play the dot game! </p>
            <p> For one minute, click the red dots on the following screen as they appear. </p>
            <p><b> Don't look away, as you will earn bonus for clicking dots</b>. </p>","","instructions","","","","","","","","","","","","","",""
"revaluation","254","1194212","0.0-4.0-6.0-0.0","spark_pilot_2","7323","4","12","Male","","","","","","","[57,85,261,100,75,105,116]","","","rest","","70","","","","","0","60000","","","","","",""
"learning-instructions","255","1202273","0.0-4.0-7.0-0.0","spark_pilot_2","7323","4","12","Male","","","","","","","1611.5","<p> You have almost finished this part of the game! </p>
            <p> We are going to ask you to make a few more choices. </p>","","instructions","","","","","","","","","","","","","",""
"learning-instructions","256","1217822","0.0-4.0-7.0-0.1","spark_pilot_2","7323","4","12","Male","","","","","","","1571.800000000745","<p> First, you need to decide whether to go up or down. When you see each picture, use the arrow keys to make your choice. </p>
            <p><b>You will not see which animal you found, but try to get to the one that will give you the most treasure.</b></p>","","instructions","","","","","","","","","","","","","",""
"revaluation","257","1218438","0.0-4.0-8.0-0.0","spark_pilot_2","7323","4","12","Male","","false","","","","","[611.3000000007451]","./assets/img/ocean/test/2.jpg","[""ArrowUp""]","first stage test","ocean","0","{""ArrowUp,ArrowLeft"":2,""ArrowUp,ArrowRight"":11,""ArrowDown,ArrowLeft"":8,""ArrowDown,ArrowRight"":27}","false","ArrowUp","false","","","revaluation","1","","","",""
"html-keyboard-response","258","1218952","0.0-4.0-8.0-1.0","spark_pilot_2","7323","4","12","Male","","","","","","","null","<div style=""font-size:60px;"">+</div>","null","fixation","","","","","","","","","","","","","",""
"revaluation","259","1219846","0.0-4.0-8.0-0.1","spark_pilot_2","7323","4","12","Male","","false","","","","","[887.8000000007451]","./assets/img/ocean/test/0.jpg","[""ArrowUp""]","first stage test","ocean","0","{""ArrowUp,ArrowLeft"":2,""ArrowUp,ArrowRight"":11,""ArrowDown,ArrowLeft"":8,""ArrowDown,ArrowRight"":27}","false","ArrowUp","false","","","revaluation","1","","","",""
"html-keyboard-response","260","1220361","0.0-4.0-8.0-1.1","spark_pilot_2","7323","4","12","Male","","","","","","","null","<div style=""font-size:60px;"">+</div>","null","fixation","","","","","","","","","","","","","",""
"revaluation","261","1221400","0.0-4.0-8.0-0.2","spark_pilot_2","7323","4","12","Male","","false","","","","","[1033.1000000014901]","./assets/img/ocean/test/3.jpg","[""ArrowDown""]","first stage test","ocean","0","{""ArrowUp,ArrowLeft"":2,""ArrowUp,ArrowRight"":11,""ArrowDown,ArrowLeft"":8,""ArrowDown,ArrowRight"":27}","true","ArrowDown","false","","","revaluation","1","","","",""
"html-keyboard-response","262","1221918","0.0-4.0-8.0-1.2","spark_pilot_2","7323","4","12","Male","","","","","","","null","<div style=""font-size:60px;"">+</div>","null","fixation","","","","","","","","","","","","","",""
"revaluation","263","1222442","0.0-4.0-8.0-0.3","spark_pilot_2","7323","4","12","Male","","false","","","","","[518.8000000007451]","./assets/img/ocean/test/1.jpg","[""ArrowUp""]","first stage test","ocean","0","{""ArrowUp,ArrowLeft"":2,""ArrowUp,ArrowRight"":11,""ArrowDown,ArrowLeft"":8,""ArrowDown,ArrowRight"":27}","false","ArrowUp","false","","","revaluation","1","","","",""
"html-keyboard-response","264","1222950","0.0-4.0-8.0-1.3","spark_pilot_2","7323","4","12","Male","","","","","","","null","<div style=""font-size:60px;"">+</div>","null","fixation","","","","","","","","","","","","","",""
"learning-instructions","265","1235301","0.0-4.0-9.0-0.0","spark_pilot_2","7323","4","12","Male","","","","","","","999.8999999985099","<p> Now you will see the animals again and can search their chests for treasure. </p>
            <p> This time, you will not see how much treasure you earned, but you will earn more bonus money for making better choices. </p>","","instructions","","","","","","","","","","","","","",""
"revaluation","266","1236007","0.0-4.0-10.0-0.0","spark_pilot_2","7323","4","12","Male","","false","","","","","[700.8999999985099]","./assets/img/ocean/animals/seahorse.jpg","[""ArrowRight""]","second stage test","ocean","0","{""ArrowUp,ArrowLeft"":2,""ArrowUp,ArrowRight"":11,""ArrowDown,ArrowLeft"":8,""ArrowDown,ArrowRight"":27}","true","ArrowUp,ArrowRight","","","","revaluation","1","","","",""
"html-keyboard-response","267","1236517","0.0-4.0-10.0-1.0","spark_pilot_2","7323","4","12","Male","","","","","","","null","<div style=""font-size:60px;"">+</div>","null","fixation","","","","","","","","","","","","","",""
"revaluation","268","1237441","0.0-4.0-10.0-0.1","spark_pilot_2","7323","4","12","Male","","false","","","","","[918.6000000014901]","./assets/img/ocean/animals/seahorse.jpg","[""ArrowRight""]","second stage test","ocean","0","{""ArrowUp,ArrowLeft"":2,""ArrowUp,ArrowRight"":11,""ArrowDown,ArrowLeft"":8,""ArrowDown,ArrowRight"":27}","true","ArrowUp,ArrowRight","","","","revaluation","1","","","",""
"html-keyboard-response","269","1237948","0.0-4.0-10.0-1.1","spark_pilot_2","7323","4","12","Male","","","","","","","null","<div style=""font-size:60px;"">+</div>","null","fixation","","","","","","","","","","","","","",""
"revaluation","270","1238480","0.0-4.0-10.0-0.2","spark_pilot_2","7323","4","12","Male","","false","","","","","[525.6000000014901]","./assets/img/ocean/animals/seahorse.jpg","[""ArrowRight""]","second stage test","ocean","0","{""ArrowUp,ArrowLeft"":2,""ArrowUp,ArrowRight"":11,""ArrowDown,ArrowLeft"":8,""ArrowDown,ArrowRight"":27}","true","ArrowUp,ArrowRight","","","","revaluation","1","","","",""
"html-keyboard-response","271","1238996","0.0-4.0-10.0-1.2","spark_pilot_2","7323","4","12","Male","","","","","","","null","<div style=""font-size:60px;"">+</div>","null","fixation","","","","","","","","","","","","","",""
"revaluation","272","1239427","0.0-4.0-10.0-0.3","spark_pilot_2","7323","4","12","Male","","false","","","","","[426.5]","./assets/img/ocean/animals/seahorse.jpg","[""ArrowRight""]","second stage test","ocean","0","{""ArrowUp,ArrowLeft"":2,""ArrowUp,ArrowRight"":11,""ArrowDown,ArrowLeft"":8,""ArrowDown,ArrowRight"":27}","true","ArrowUp,ArrowRight","","","","revaluation","1","","","",""
"html-keyboard-response","273","1239942","0.0-4.0-10.0-1.3","spark_pilot_2","7323","4","12","Male","","","","","","","null","<div style=""font-size:60px;"">+</div>","null","fixation","","","","","","","","","","","","","",""
"revaluation","274","1240528","0.0-4.0-10.0-0.4","spark_pilot_2","7323","4","12","Male","","false","","","","","[580.8000000007451]","./assets/img/ocean/animals/octopus.jpg","[""ArrowRight""]","second stage test","ocean","0","{""ArrowUp,ArrowLeft"":2,""ArrowUp,ArrowRight"":11,""ArrowDown,ArrowLeft"":8,""ArrowDown,ArrowRight"":27}","true","ArrowDown,ArrowRight","","","","revaluation","1","","","",""
"html-keyboard-response","275","1241039","0.0-4.0-10.0-1.4","spark_pilot_2","7323","4","12","Male","","","","","","","null","<div style=""font-size:60px;"">+</div>","null","fixation","","","","","","","","","","","","","",""
"revaluation","276","1241406","0.0-4.0-10.0-0.5","spark_pilot_2","7323","4","12","Male","","false","","","","","[361.6000000014901]","./assets/img/ocean/animals/octopus.jpg","[""ArrowRight""]","second stage test","ocean","0","{""ArrowUp,ArrowLeft"":2,""ArrowUp,ArrowRight"":11,""ArrowDown,ArrowLeft"":8,""ArrowDown,ArrowRight"":27}","true","ArrowDown,ArrowRight","","","","revaluation","1","","","",""
"html-keyboard-response","277","1241917","0.0-4.0-10.0-1.5","spark_pilot_2","7323","4","12","Male","","","","","","","null","<div style=""font-size:60px;"">+</div>","null","fixation","","","","","","","","","","","","","",""
"revaluation","278","1242211","0.0-4.0-10.0-0.6","spark_pilot_2","7323","4","12","Male","","false","","","","","[289.4000000022352]","./assets/img/ocean/animals/octopus.jpg","[""ArrowRight""]","second stage test","ocean","0","{""ArrowUp,ArrowLeft"":2,""ArrowUp,ArrowRight"":11,""ArrowDown,ArrowLeft"":8,""ArrowDown,ArrowRight"":27}","true","ArrowDown,ArrowRight","","","","revaluation","1","","","",""
"html-keyboard-response","279","1242714","0.0-4.0-10.0-1.6","spark_pilot_2","7323","4","12","Male","","","","","","","null","<div style=""font-size:60px;"">+</div>","null","fixation","","","","","","","","","","","","","",""
"revaluation","280","1243066","0.0-4.0-10.0-0.7","spark_pilot_2","7323","4","12","Male","","false","","","","","[346.80000000074506]","./assets/img/ocean/animals/octopus.jpg","[""ArrowRight""]","second stage test","ocean","0","{""ArrowUp,ArrowLeft"":2,""ArrowUp,ArrowRight"":11,""ArrowDown,ArrowLeft"":8,""ArrowDown,ArrowRight"":27}","true","ArrowDown,ArrowRight","","","","revaluation","1","","","",""
"html-keyboard-response","281","1243578","0.0-4.0-10.0-1.7","spark_pilot_2","7323","4","12","Male","","","","","","","null","<div style=""font-size:60px;"">+</div>","null","fixation","","","","","","","","","","","","","",""
"learning-instructions","282","1247766","0.0-4.0-0.1-0.2","spark_pilot_2","7323","4","12","Male","","","","","","","1385.3999999985099","<p> This time you are searching for treasure in the <b>canyon</b>.</p>","","instructions","","","","","","","","","","","","","",""
"learning-instructions","283","1266270","0.0-4.0-0.1-0.3","spark_pilot_2","7323","4","12","Male","","","","","","","1259.4000000022352","<p><b>New</b> animals with <b>new</b> treasure chests live here. You need to explore to discover where the animal with the best treasure chest is.</p>
                    <p> Like before, once you figure out which animal has the chest with the most treasure, you should try to get to that animal and select that chest! </p>","","instructions","","","","","","","","","","","","","",""
"learning-instructions","284","1282327","0.0-4.0-1.1-0.1","spark_pilot_2","7323","4","12","Male","","","","","","","1316.6000000014901","<p> Remember, when you see a picture of the place, use the up and down keys to <b>find an animal</b>.</p>
            <p> When you encounter an animal, you should use the left and right keys to <b>select a treasure chest</b>.</p>
            <p> Don't forget to look out for the robber! </p>","","instructions","","","","","","","","","","","","","",""
"revaluation","285","1286339","0.0-4.0-2.1-0.50","spark_pilot_2","7323","4","12","Male","","false","","","","","[925.8999999985099]","./assets/img/canyon/catch/7.jpg","[""spaceBar""]","value training","canyon","0","{""ArrowUp,ArrowLeft"":23,""ArrowUp,ArrowRight"":10,""ArrowDown,ArrowLeft"":8,""ArrowDown,ArrowRight"":30}","true","spaceBar","true","","","original","2","0","","",""
"html-keyboard-response","286","1286846","0.0-4.0-2.1-1.50","spark_pilot_2","7323","4","12","Male","","","","","","","null","<div style=""font-size:60px;"">+</div>","null","fixation","","","","","","","","","","","1","","",""
"revaluation","287","1292878","0.0-4.0-2.1-0.51","spark_pilot_2","7323","4","12","Male","","false","","","","","[1314.300000000745,812.5999999977648]","./assets/img/canyon/memory/10.jpg","[""ArrowUp"",""ArrowRight""]","value training","canyon","10","{""ArrowUp,ArrowLeft"":23,""ArrowUp,ArrowRight"":10,""ArrowDown,ArrowLeft"":8,""ArrowDown,ArrowRight"":30}","false","ArrowUp,ArrowRight","false","","","original","2","2","","",""
"html-keyboard-response","288","1293393","0.0-4.0-2.1-1.51","spark_pilot_2","7323","4","12","Male","","","","","","","null","<div style=""font-size:60px;"">+</div>","null","fixation","","","","","","","","","","","3","","",""
"revaluation","289","1299428","0.0-4.0-2.1-0.52","spark_pilot_2","7323","4","12","Male","","false","","","","","[993.5,359.1000000014901]","./assets/img/canyon/memory/29.jpg","[""ArrowUp"",""ArrowLeft""]","value training","canyon","23","{""ArrowUp,ArrowLeft"":23,""ArrowUp,ArrowRight"":10,""ArrowDown,ArrowLeft"":8,""ArrowDown,ArrowRight"":30}","false","ArrowUp,ArrowLeft","false","","","original","2","4","","",""
"html-keyboard-response","290","1299934","0.0-4.0-2.1-1.52","spark_pilot_2","7323","4","12","Male","","","","","","","null","<div style=""font-size:60px;"">+</div>","null","fixation","","","","","","","","","","","5","","",""
"revaluation","291","1305970","0.0-4.0-2.1-0.53","spark_pilot_2","7323","4","12","Male","","false","","","","","[456,605.8000000007451]","./assets/img/canyon/memory/9.jpg","[""ArrowDown"",""ArrowRight""]","value training","canyon","30","{""ArrowUp,ArrowLeft"":23,""ArrowUp,ArrowRight"":10,""ArrowDown,ArrowLeft"":8,""ArrowDown,ArrowRight"":30}","true","ArrowDown,ArrowRight","false","","","original","2","6","","",""
"html-keyboard-response","292","1306482","0.0-4.0-2.1-1.53","spark_pilot_2","7323","4","12","Male","","","","","","","null","<div style=""font-size:60px;"">+</div>","null","fixation","","","","","","","","","","","7","","",""
"revaluation","293","1312507","0.0-4.0-2.1-0.54","spark_pilot_2","7323","4","12","Male","","false","","","","","[613.9000000022352,370.30000000074506]","./assets/img/canyon/memory/30.jpg","[""ArrowDown"",""ArrowRight""]","value training","canyon","30","{""ArrowUp,ArrowLeft"":23,""ArrowUp,ArrowRight"":10,""ArrowDown,ArrowLeft"":8,""ArrowDown,ArrowRight"":30}","true","ArrowDown,ArrowRight","false","","","original","2","8","","",""
"html-keyboard-response","294","1313017","0.0-4.0-2.1-1.54","spark_pilot_2","7323","4","12","Male","","","","","","","null","<div style=""font-size:60px;"">+</div>","null","fixation","","","","","","","","","","","9","","",""
"revaluation","295","1319047","0.0-4.0-2.1-0.55","spark_pilot_2","7323","4","12","Male","","false","","","","","[381.80000000074506,168.89999999850988]","./assets/img/canyon/memory/19.jpg","[""ArrowDown"",""ArrowLeft""]","value training","canyon","8","{""ArrowUp,ArrowLeft"":23,""ArrowUp,ArrowRight"":10,""ArrowDown,ArrowLeft"":8,""ArrowDown,ArrowRight"":30}","false","ArrowDown,ArrowLeft","false","","","original","2","10","","",""
"html-keyboard-response","296","1319554","0.0-4.0-2.1-1.55","spark_pilot_2","7323","4","12","Male","","","","","","","null","<div style=""font-size:60px;"">+</div>","null","fixation","","","","","","","","","","","11","","",""
"revaluation","297","1325575","0.0-4.0-2.1-0.56","spark_pilot_2","7323","4","12","Male","","false","","","","","[21,564.6999999992549]","./assets/img/canyon/memory/28.jpg","[""ArrowDown"",""ArrowRight""]","value training","canyon","30","{""ArrowUp,ArrowLeft"":23,""ArrowUp,ArrowRight"":10,""ArrowDown,ArrowLeft"":8,""ArrowDown,ArrowRight"":30}","true","ArrowDown,ArrowRight","false","","","original","2","12","","",""
"html-keyboard-response","298","1326078","0.0-4.0-2.1-1.56","spark_pilot_2","7323","4","12","Male","","","","","","","null","<div style=""font-size:60px;"">+</div>","null","fixation","","","","","","","","","","","13","","",""
"revaluation","299","1332097","0.0-4.0-2.1-0.57","spark_pilot_2","7323","4","12","Male","","false","","","","","[708.1000000014901,36]","./assets/img/canyon/memory/25.jpg","[""ArrowDown"",""ArrowRight""]","value training","canyon","30","{""ArrowUp,ArrowLeft"":23,""ArrowUp,ArrowRight"":10,""ArrowDown,ArrowLeft"":8,""ArrowDown,ArrowRight"":30}","true","ArrowDown,ArrowRight","false","","","original","2","14","","",""
"html-keyboard-response","300","1332603","0.0-4.0-2.1-1.57","spark_pilot_2","7323","4","12","Male","","","","","","","null","<div style=""font-size:60px;"">+</div>","null","fixation","","","","","","","","","","","15","","",""
"revaluation","301","1338619","0.0-4.0-2.1-0.58","spark_pilot_2","7323","4","12","Male","","false","","","","","[29.5,67.69999999925494]","./assets/img/canyon/memory/0.jpg","[""ArrowDown"",""ArrowRight""]","value training","canyon","30","{""ArrowUp,ArrowLeft"":23,""ArrowUp,ArrowRight"":10,""ArrowDown,ArrowLeft"":8,""ArrowDown,ArrowRight"":30}","true","ArrowDown,ArrowRight","false","","","original","2","16","","",""
"html-keyboard-response","302","1339124","0.0-4.0-2.1-1.58","spark_pilot_2","7323","4","12","Male","","","","","","","null","<div style=""font-size:60px;"">+</div>","null","fixation","","","","","","","","","","","17","","",""
