"trial_type","trial_index","time_elapsed","internal_node_id","task_version","subject_id","assigned_condition","age","gender","success","timeout","failed_images","failed_audio","failed_video","browser_interaction","rt","stimulus","response","task_part","environment","score","rewardMap","correct","fullState","isCatch","numberMissed","duration","condition","order","trial_num","key_press","ground_truth","bonus"
"pavlovia","0","1491","0.0-0.0","spark_pilot_2","7419","8","17","Female","","","","","","","","","","","","","","","","","","","","","","","",""
"preload","1","13290","0.0-1.0","spark_pilot_2","7419","8","17","Female","true","false","[]","[]","[]","[{""event"":""fullscreenenter"",""trial"":2,""time"":16760}]","","","","","","","","","","","","","","","","","",""
"fullscreen","2","17732","0.0-2.0","spark_pilot_2","7419","8","17","Female","true","","","","","","","","","","","","","","","","","","","","","","",""
"audio-button-response","3","19832","0.0-3.0-0.0-0.0","spark_pilot_2","7419","8","17","Female","","","","","","","2091","./assets/audio/audiotest/turtle.mp3","2","audio_test","","","","","","","","","","","","","",""
"learning-instructions","4","29480","0.0-3.0-1.0-0.0","spark_pilot_2","7419","8","17","Female","","","","","","","2674.5999999046326","<p> Welcome! Please remember to stay in fullscreen mode and don't click away from the experiment. </p>","","instructions","","","","","","","","","","","","","",""
"learning-instructions","5","40456","0.0-3.0-1.0-0.1","spark_pilot_2","7419","8","17","Female","","","","","","","2580.4000000953674","<p> Today you will be playing a game to earn treasure. </p>
            <p> At the end of the experiment, you will earn a bonus based on how much treasure you find. </p>
            <img src='./assets/img/instructions/treasure.jpg' class='instructions-image'>","","instructions","","","","","","","","","","","","","",""
"learning-instructions","6","51424","0.0-3.0-1.0-0.2","spark_pilot_2","7419","8","17","Female","","","","","","","2708.399999856949","<p> Animals have hidden treasure in treasure chests. </p>
            <p> You need to first find an animal and then choose which of their treasure chests to search. </p>
            <img src='./assets/img/space/animals/cat.jpg' class='instructions-image'>","","instructions","","","","","","","","","","","","","",""
"learning-instructions","7","66399","0.0-3.0-1.0-0.3","spark_pilot_2","7419","8","17","Female","","","","","","","1834.2999999523163","<p> In each round, you will search for treasure in a different place. In the real game, there will be two rounds. </p>
            <p> You will begin with a separate, practice round where you will search for treasure in outer space. </p>
            <img src='./assets/img/space/0.jpg' class='instructions-image'>","","instructions","","","","","","","","","","","","","",""
"learning-instructions","8","78407","0.0-3.0-1.0-0.4","spark_pilot_2","7419","8","17","Female","","","","","","","602.4000000953674","<p> On every turn, you will see a picture of the place that you are in, but the specific image may be different each time. </p>
            <p> For example, both of these images mean you are in outer space. </p>
            <img src='./assets/img/instructions/outerspace.jpg' class='instructions-image'>","","instructions","","","","","","","","","","","","","",""
"learning-instructions","9","87192","0.0-3.0-1.0-0.5","spark_pilot_2","7419","8","17","Female","","","","","","","966.4000000953674","<p> You need to decide which direction to travel in. </p>
            <p> You can choose between going <b>up or down</b> by using the arrow keys. </p>
            <img src='./assets/img/instructions/updown.jpg' class='instructions-image'>","","instructions","","","","","","","","","","","","","",""
"learning-instructions","10","96457","0.0-3.0-1.0-0.6","spark_pilot_2","7419","8","17","Female","","","","","","","462.2000000476837","<p> You will have <b>2 seconds</b> to make your choice. </p>
            <p> If you do not make a choice within 2 seconds, you will not find an animal or earn treasure. </p>
            <img src='./assets/img/instructions/2seconds.jpg' class='instructions-image'>","","instructions","","","","","","","","","","","","","",""
"learning-instructions","11","105104","0.0-3.0-1.0-0.7","spark_pilot_2","7419","8","17","Female","","","","","","","1618.2999999523163","<p> Let’s try practicing that now! </p>
            <p> When you see a picture of the place you are in, press the <b>up</b> key to travel up. </p>
            <img src='./assets/img/instructions/pressUp.jpg' class='instructions-image'>","","instructions","","","","","","","","","","","","","",""
"revaluation","12","109113","0.0-3.0-2.0-0.0","spark_pilot_2","7419","8","17","Female","","false","","","","","[1232]","./assets/img/space/0.jpg","[""ArrowUp""]","first stage practice","space","0","null","null","ArrowUp","false","","","","","","","",""
"html-keyboard-response","13","109616","0.0-3.0-2.0-1.0","spark_pilot_2","7419","8","17","Female","","","","","","","null","<div style=""font-size:60px;"">+</div>","null","fixation","","","","","","","","","","","","","",""
"revaluation","14","113621","0.0-3.0-2.0-0.1","spark_pilot_2","7419","8","17","Female","","false","","","","","[1394.3000001907349]","./assets/img/space/1.jpg","[""ArrowUp""]","first stage practice","space","0","null","null","ArrowUp","false","","","","","","","",""
"html-keyboard-response","15","114125","0.0-3.0-2.0-1.1","spark_pilot_2","7419","8","17","Female","","","","","","","null","<div style=""font-size:60px;"">+</div>","null","fixation","","","","","","","","","","","","","",""
"revaluation","16","118133","0.0-3.0-2.0-0.2","spark_pilot_2","7419","8","17","Female","","false","","","","","[487.30000019073486]","./assets/img/space/2.jpg","[""ArrowUp""]","first stage practice","space","0","null","null","ArrowUp","false","","","","","","","",""
"html-keyboard-response","17","118636","0.0-3.0-2.0-1.2","spark_pilot_2","7419","8","17","Female","","","","","","","null","<div style=""font-size:60px;"">+</div>","null","fixation","","","","","","","","","","","","","",""
"learning-instructions","18","126424","0.0-3.0-3.0-0.0","spark_pilot_2","7419","8","17","Female","","","","","","","3098.7000000476837","<p> Great job! Now try pressing the <b>down</b> key to travel down. </p>
            <img src='./assets/img/instructions/pressDown.jpg' class='instructions-image'>","","instructions","","","","","","","","","","","","","",""
"revaluation","19","130433","0.0-3.0-4.0-0.0","spark_pilot_2","7419","8","17","Female","","false","","","","","[1038.2000000476837]","./assets/img/space/3.jpg","[""ArrowDown""]","first stage practice","space","0","null","null","ArrowDown","false","","","","","","","",""
"html-keyboard-response","20","130937","0.0-3.0-4.0-1.0","spark_pilot_2","7419","8","17","Female","","","","","","","null","<div style=""font-size:60px;"">+</div>","null","fixation","","","","","","","","","","","","","",""
"revaluation","21","134941","0.0-3.0-4.0-0.1","spark_pilot_2","7419","8","17","Female","","false","","","","","[365.59999990463257]","./assets/img/space/4.jpg","[""ArrowDown""]","first stage practice","space","0","null","null","ArrowDown","false","","","","","","","",""
"html-keyboard-response","22","135444","0.0-3.0-4.0-1.1","spark_pilot_2","7419","8","17","Female","","","","","","","null","<div style=""font-size:60px;"">+</div>","null","fixation","","","","","","","","","","","","","",""
"revaluation","23","139452","0.0-3.0-4.0-0.2","spark_pilot_2","7419","8","17","Female","","false","","","","","[353.7999999523163]","./assets/img/space/5.jpg","[""ArrowDown""]","first stage practice","space","0","null","null","ArrowDown","false","","","","","","","",""
"html-keyboard-response","24","139953","0.0-3.0-4.0-1.2","spark_pilot_2","7419","8","17","Female","","","","","","","null","<div style=""font-size:60px;"">+</div>","null","fixation","","","","","","","","","","","","","",""
"learning-instructions","25","151360","0.0-3.0-5.0-0.0","spark_pilot_2","7419","8","17","Female","","","","","","","1565.2000000476837","<p> The animals don’t move, so the animal in the upper part of a place will stay in the upper part of a place, and the animal in the lower part of a place will stay in the lower part of a place. </p>","","instructions","","","","","","","","","","","","","",""
"learning-instructions","26","162016","0.0-3.0-5.0-0.1","spark_pilot_2","7419","8","17","Female","","","","","","","1531.1000001430511","<p> Each animal has two treasure chests for you to choose from. </p>
            <p> The amount of treasure in each chest can range from <b> 0 to 40 pieces.</b></p>","","instructions","","","","","","","","","","","","","",""
"learning-instructions","27","173712","0.0-3.0-5.0-0.2","spark_pilot_2","7419","8","17","Female","","","","","","","517","<p> You should decide which chest to search for treasure by using the <b>left</b> and <b>right</b> arrow keys. </p>
            <p><b> Pay attention to which animal is on the screen, as the animals have different treasure chests. </b></p>
            <img src='./assets/img/instructions/leftright.jpg' class='instructions-image'>","","instructions","","","","","","","","","","","","","",""
"learning-instructions","28","180512","0.0-3.0-5.0-0.3","spark_pilot_2","7419","8","17","Female","","","","","","","436.89999985694885","<p> Let’s try practicing that now. </p>
            <p> When you see an animal, choose which chest to search for treasure. </p>
            <img src='./assets/img/instructions/chooseChest.jpg' class='instructions-image'>","","instructions","","","","","","","","","","","","","",""
"revaluation","29","184517","0.0-3.0-6.0-0.0","spark_pilot_2","7419","8","17","Female","","false","","","","","[1060.6000001430511]","./assets/img/space/animals/rabbit.jpg","[""ArrowRight""]","second stage practice","space","23","{""ArrowUp,ArrowLeft"":3,""ArrowUp,ArrowRight"":36,""ArrowDown,ArrowLeft"":15,""ArrowDown,ArrowRight"":23}","true","ArrowDown,ArrowRight","","","","","","","","",""
"html-keyboard-response","30","185020","0.0-3.0-6.0-1.0","spark_pilot_2","7419","8","17","Female","","","","","","","null","<div style=""font-size:60px;"">+</div>","null","fixation","","","","","","","","","","","","","",""
"revaluation","31","189029","0.0-3.0-6.0-0.1","spark_pilot_2","7419","8","17","Female","","false","","","","","[1270.2999999523163]","./assets/img/space/animals/cat.jpg","[""ArrowLeft""]","second stage practice","space","3","{""ArrowUp,ArrowLeft"":3,""ArrowUp,ArrowRight"":36,""ArrowDown,ArrowLeft"":15,""ArrowDown,ArrowRight"":23}","false","ArrowUp,ArrowLeft","","","","","","","","",""
"html-keyboard-response","32","189533","0.0-3.0-6.0-1.1","spark_pilot_2","7419","8","17","Female","","","","","","","null","<div style=""font-size:60px;"">+</div>","null","fixation","","","","","","","","","","","","","",""
"revaluation","33","193541","0.0-3.0-6.0-0.2","spark_pilot_2","7419","8","17","Female","","false","","","","","[1207.3000001907349]","./assets/img/space/animals/rabbit.jpg","[""ArrowLeft""]","second stage practice","space","15","{""ArrowUp,ArrowLeft"":3,""ArrowUp,ArrowRight"":36,""ArrowDown,ArrowLeft"":15,""ArrowDown,ArrowRight"":23}","false","ArrowDown,ArrowLeft","","","","","","","","",""
"html-keyboard-response","34","194044","0.0-3.0-6.0-1.2","spark_pilot_2","7419","8","17","Female","","","","","","","null","<div style=""font-size:60px;"">+</div>","null","fixation","","","","","","","","","","","","","",""
"revaluation","35","198049","0.0-3.0-6.0-0.3","spark_pilot_2","7419","8","17","Female","","false","","","","","[797.5999999046326]","./assets/img/space/animals/cat.jpg","[""ArrowRight""]","second stage practice","space","36","{""ArrowUp,ArrowLeft"":3,""ArrowUp,ArrowRight"":36,""ArrowDown,ArrowLeft"":15,""ArrowDown,ArrowRight"":23}","true","ArrowUp,ArrowRight","","","","","","","","",""
"html-keyboard-response","36","198553","0.0-3.0-6.0-1.3","spark_pilot_2","7419","8","17","Female","","","","","","","null","<div style=""font-size:60px;"">+</div>","null","fixation","","","","","","","","","","","","","",""
"learning-instructions","37","217080","0.0-3.0-7.0-0.0","spark_pilot_2","7419","8","17","Female","","","","","","","1725.2999999523163","<p> Great job. Now let’s try putting it together. </p>
            <p> On each turn, you will first see a picture to remind you of the place you are in, and you need to choose whether to go up or down. </p>
            <p> Then you will see an animal and choose which of its chests to search for treasure. </p>","","instructions","","","","","","","","","","","","","",""
"learning-instructions","38","226728","0.0-3.0-7.0-0.1","spark_pilot_2","7419","8","17","Female","","","","","","","1383.2999999523163","<p> When you choose whether to go up or down, try to go to the animal with the chest with the most treasure. </p>
            <p> Try practicing that now! </p>","","instructions","","","","","","","","","","","","","",""
"revaluation","39","232737","0.0-3.0-8.0-0.0","spark_pilot_2","7419","8","17","Female","","false","","","","","[1174.9000000953674,935.2999999523163]","./assets/img/space/6.jpg","[""ArrowUp"",""ArrowRight""]","full practice","space","36","{""ArrowUp,ArrowLeft"":3,""ArrowUp,ArrowRight"":36,""ArrowDown,ArrowLeft"":15,""ArrowDown,ArrowRight"":23}","true","ArrowUp,ArrowRight","false","","","","","","","",""
"html-keyboard-response","40","233240","0.0-3.0-8.0-1.0","spark_pilot_2","7419","8","17","Female","","","","","","","null","<div style=""font-size:60px;"">+</div>","null","fixation","","","","","","","","","","","","","",""
"revaluation","41","239252","0.0-3.0-8.0-0.1","spark_pilot_2","7419","8","17","Female","","false","","","","","[1169.5999999046326,1125.1000001430511]","./assets/img/space/7.jpg","[""ArrowDown"",""ArrowRight""]","full practice","space","23","{""ArrowUp,ArrowLeft"":3,""ArrowUp,ArrowRight"":36,""ArrowDown,ArrowLeft"":15,""ArrowDown,ArrowRight"":23}","false","ArrowDown,ArrowRight","false","","","","","","","",""
"html-keyboard-response","42","239756","0.0-3.0-8.0-1.1","spark_pilot_2","7419","8","17","Female","","","","","","","null","<div style=""font-size:60px;"">+</div>","null","fixation","","","","","","","","","","","","","",""
"revaluation","43","245764","0.0-3.0-8.0-0.2","spark_pilot_2","7419","8","17","Female","","false","","","","","[1322,797.2999999523163]","./assets/img/space/8.jpg","[""ArrowUp"",""ArrowLeft""]","full practice","space","3","{""ArrowUp,ArrowLeft"":3,""ArrowUp,ArrowRight"":36,""ArrowDown,ArrowLeft"":15,""ArrowDown,ArrowRight"":23}","false","ArrowUp,ArrowLeft","false","","","","","","","",""
"html-keyboard-response","44","246268","0.0-3.0-8.0-1.2","spark_pilot_2","7419","8","17","Female","","","","","","","null","<div style=""font-size:60px;"">+</div>","null","fixation","","","","","","","","","","","","","",""
"revaluation","45","252273","0.0-3.0-8.0-0.3","spark_pilot_2","7419","8","17","Female","","false","","","","","[1261.9000000953674,1277.2000000476837]","./assets/img/space/9.jpg","[""ArrowDown"",""ArrowLeft""]","full practice","space","15","{""ArrowUp,ArrowLeft"":3,""ArrowUp,ArrowRight"":36,""ArrowDown,ArrowLeft"":15,""ArrowDown,ArrowRight"":23}","false","ArrowDown,ArrowLeft","false","","","","","","","",""
"html-keyboard-response","46","252777","0.0-3.0-8.0-1.3","spark_pilot_2","7419","8","17","Female","","","","","","","null","<div style=""font-size:60px;"">+</div>","null","fixation","","","","","","","","","","","","","",""
"revaluation","47","258789","0.0-3.0-8.0-0.4","spark_pilot_2","7419","8","17","Female","","false","","","","","[1073.3999998569489,528.5999999046326]","./assets/img/space/10.jpg","[""ArrowUp"",""ArrowRight""]","full practice","space","36","{""ArrowUp,ArrowLeft"":3,""ArrowUp,ArrowRight"":36,""ArrowDown,ArrowLeft"":15,""ArrowDown,ArrowRight"":23}","true","ArrowUp,ArrowRight","false","","","","","","","",""
"html-keyboard-response","48","259292","0.0-3.0-8.0-1.4","spark_pilot_2","7419","8","17","Female","","","","","","","null","<div style=""font-size:60px;"">+</div>","null","fixation","","","","","","","","","","","","","",""
"learning-instructions","49","271600","0.0-3.0-9.0-0.0","spark_pilot_2","7419","8","17","Female","","","","","","","2023.7999999523163","<p> One last thing: sometimes, you will see a robber. The robber can be anywhere in the picture. </p>
            <p> If you do not stop them, you will lose treasure. </p>
            <img src='./assets/img/instructions/robber.jpg' class='instructions-image'>","","instructions","","","","","","","","","","","","","",""
"learning-instructions","50","279624","0.0-3.0-9.0-0.1","spark_pilot_2","7419","8","17","Female","","","","","","","858.1000001430511","<p> If you see the robber, you should <b>press the space bar</b> rather than using the arrow keys. </p>
            <p> Try practicing that now! </p>","","instructions","","","","","","","","","","","","","",""
"revaluation","51","283629","0.0-3.0-10.0-0.0","spark_pilot_2","7419","8","17","Female","","false","","","","","[1106.2000000476837]","./assets/img/space/catch/0.jpg","[""ArrowUp""]","catch practice","space","-10","{""ArrowUp,ArrowLeft"":3,""ArrowUp,ArrowRight"":36,""ArrowDown,ArrowLeft"":15,""ArrowDown,ArrowRight"":23}","false","ArrowUp","true","","","","","","","",""
"html-keyboard-response","52","284133","0.0-3.0-10.0-1.0","spark_pilot_2","7419","8","17","Female","","","","","","","null","<div style=""font-size:60px;"">+</div>","null","fixation","","","","","","","","","","","","","",""
"revaluation","53","288141","0.0-3.0-10.0-0.1","spark_pilot_2","7419","8","17","Female","","false","","","","","[898.7000000476837]","./assets/img/space/catch/1.jpg","[""spaceBar""]","catch practice","space","0","{""ArrowUp,ArrowLeft"":3,""ArrowUp,ArrowRight"":36,""ArrowDown,ArrowLeft"":15,""ArrowDown,ArrowRight"":23}","true","spaceBar","true","","","","","","","",""
"html-keyboard-response","54","288642","0.0-3.0-10.0-1.1","spark_pilot_2","7419","8","17","Female","","","","","","","null","<div style=""font-size:60px;"">+</div>","null","fixation","","","","","","","","","","","","","",""
"revaluation","55","292649","0.0-3.0-10.0-0.2","spark_pilot_2","7419","8","17","Female","","false","","","","","[723.6000001430511]","./assets/img/space/catch/2.jpg","[""spaceBar""]","catch practice","space","0","{""ArrowUp,ArrowLeft"":3,""ArrowUp,ArrowRight"":36,""ArrowDown,ArrowLeft"":15,""ArrowDown,ArrowRight"":23}","true","spaceBar","true","","","","","","","",""
"html-keyboard-response","56","293153","0.0-3.0-10.0-1.2","spark_pilot_2","7419","8","17","Female","","","","","","","null","<div style=""font-size:60px;"">+</div>","null","fixation","","","","","","","","","","","","","",""
"learning-instructions","57","308368","0.0-3.0-11.0-0.0","spark_pilot_2","7419","8","17","Female","","","","","","","1631.6000001430511","<p> After you explore a place to find treasure, it will be time to play a different game. </p>
            <p> During this game, red dots will appear on the screen and fall down slowly. </p>
            <p><b> You must click on them before they reach the bottom. </b></p>
            <img src='./assets/img/instructions/dotGame.jpg' class='instructions-image'>","","instructions","","","","","","","","","","","","","",""
"learning-instructions","58","315224","0.0-3.0-11.0-0.1","spark_pilot_2","7419","8","17","Female","","","","","","","718.1999998092651","<p> For every dot you click, you will earn additional treasure. </p>
            <p> Let’s try practicing that now. </p>","","instructions","","","","","","","","","","","","","",""
"revaluation","59","330230","0.0-3.0-12.0-0.0","spark_pilot_2","7419","8","17","Female","","","","","","","[78]","","","rest practice","","10","","","","","0","15000","","","","","",""
"learning-instructions","60","337807","0.0-3.0-13.0-0.0-0.0","spark_pilot_2","7419","8","17","Female","","","","","","","2342.0999999046326","<p> Now, you will practice a shortened version of the game to get a sense of how it all fits together. </p>","","instructions","","","","","","","","","","","","","",""
"learning-instructions","61","341567","0.0-3.0-13.0-0.0-0.1","spark_pilot_2","7419","8","17","Female","","","","","","","582.2999999523163","<p>This time you are searching for treasure in outer space.</p>","","instructions","","","","","","","","","","","","","",""
"learning-instructions","62","387535","0.0-3.0-13.0-1.0-0.0","spark_pilot_2","7419","8","17","Female","","","","","","","31210.599999904633","<p> Remember, when you see a picture of the place, use the up and down keys to <b>find an animal</b>.</p>
            <p> When you encounter an animal, you should use the left and right keys to <b>select a treasure chest</b>.</p>
            <p> Don't forget to look out for the robber! </p>","","instructions","","","","","","","","","","","","","",""
"revaluation","63","393544","0.0-3.0-13.0-2.0-0.0","spark_pilot_2","7419","8","17","Female","","false","","","","","[1089.3000001907349,657.4000000953674]","./assets/img/space/11.jpg","[""ArrowUp"",""ArrowRight""]","practice block","space","36","{""ArrowUp,ArrowLeft"":3,""ArrowUp,ArrowRight"":36,""ArrowDown,ArrowLeft"":15,""ArrowDown,ArrowRight"":23}","true","ArrowUp,ArrowRight","false","","","","","","","",""
"html-keyboard-response","64","394047","0.0-3.0-13.0-2.0-1.0","spark_pilot_2","7419","8","17","Female","","","","","","","null","<div style=""font-size:60px;"">+</div>","null","fixation","","","","","","","","","","","","","",""
"revaluation","65","400057","0.0-3.0-13.0-2.0-0.1","spark_pilot_2","7419","8","17","Female","","false","","","","","[703.2000000476837,438]","./assets/img/space/12.jpg","[""ArrowUp"",""ArrowRight""]","practice block","space","36","{""ArrowUp,ArrowLeft"":3,""ArrowUp,ArrowRight"":36,""ArrowDown,ArrowLeft"":15,""ArrowDown,ArrowRight"":23}","true","ArrowUp,ArrowRight","false","","","","","","","",""
"html-keyboard-response","66","400560","0.0-3.0-13.0-2.0-1.1","spark_pilot_2","7419","8","17","Female","","","","","","","null","<div style=""font-size:60px;"">+</div>","null","fixation","","","","","","","","","","","","","",""
"revaluation","67","406573","0.0-3.0-13.0-2.0-0.2","spark_pilot_2","7419","8","17","Female","","false","","","","","[639.4000000953674,423.80000019073486]","./assets/img/space/13.jpg","[""ArrowUp"",""ArrowRight""]","practice block","space","36","{""ArrowUp,ArrowLeft"":3,""ArrowUp,ArrowRight"":36,""ArrowDown,ArrowLeft"":15,""ArrowDown,ArrowRight"":23}","true","ArrowUp,ArrowRight","false","","","","","","","",""
"html-keyboard-response","68","407077","0.0-3.0-13.0-2.0-1.2","spark_pilot_2","7419","8","17","Female","","","","","","","null","<div style=""font-size:60px;"">+</div>","null","fixation","","","","","","","","","","","","","",""
"revaluation","69","413081","0.0-3.0-13.0-2.0-0.3","spark_pilot_2","7419","8","17","Female","","false","","","","","[668.3999998569489,432.60000014305115]","./assets/img/space/14.jpg","[""ArrowUp"",""ArrowRight""]","practice block","space","36","{""ArrowUp,ArrowLeft"":3,""ArrowUp,ArrowRight"":36,""ArrowDown,ArrowLeft"":15,""ArrowDown,ArrowRight"":23}","true","ArrowUp,ArrowRight","false","","","","","","","",""
"html-keyboard-response","70","413584","0.0-3.0-13.0-2.0-1.3","spark_pilot_2","7419","8","17","Female","","","","","","","null","<div style=""font-size:60px;"">+</div>","null","fixation","","","","","","","","","","","","","",""
"revaluation","71","419596","0.0-3.0-13.0-2.0-0.4","spark_pilot_2","7419","8","17","Female","","false","","","","","[962.9000000953674,538.8999998569489]","./assets/img/space/11.jpg","[""ArrowUp"",""ArrowRight""]","practice block","space","36","{""ArrowUp,ArrowLeft"":3,""ArrowUp,ArrowRight"":36,""ArrowDown,ArrowLeft"":15,""ArrowDown,ArrowRight"":23}","true","ArrowUp,ArrowRight","false","","","","","","","",""
"html-keyboard-response","72","420097","0.0-3.0-13.0-2.0-1.4","spark_pilot_2","7419","8","17","Female","","","","","","","null","<div style=""font-size:60px;"">+</div>","null","fixation","","","","","","","","","","","","","",""
"revaluation","73","426106","0.0-3.0-13.0-2.0-0.5","spark_pilot_2","7419","8","17","Female","","false","","","","","[723.7999999523163,390.90000009536743]","./assets/img/space/12.jpg","[""ArrowDown"",""ArrowRight""]","practice block","space","23","{""ArrowUp,ArrowLeft"":3,""ArrowUp,ArrowRight"":36,""ArrowDown,ArrowLeft"":15,""ArrowDown,ArrowRight"":23}","false","ArrowDown,ArrowRight","false","","","","","","","",""
"html-keyboard-response","74","426609","0.0-3.0-13.0-2.0-1.5","spark_pilot_2","7419","8","17","Female","","","","","","","null","<div style=""font-size:60px;"">+</div>","null","fixation","","","","","","","","","","","","","",""
"revaluation","75","432617","0.0-3.0-13.0-2.0-0.6","spark_pilot_2","7419","8","17","Female","","false","","","","","[794.7999999523163,384.59999990463257]","./assets/img/space/13.jpg","[""ArrowUp"",""ArrowRight""]","practice block","space","36","{""ArrowUp,ArrowLeft"":3,""ArrowUp,ArrowRight"":36,""ArrowDown,ArrowLeft"":15,""ArrowDown,ArrowRight"":23}","true","ArrowUp,ArrowRight","false","","","","","","","",""
"html-keyboard-response","76","433120","0.0-3.0-13.0-2.0-1.6","spark_pilot_2","7419","8","17","Female","","","","","","","null","<div style=""font-size:60px;"">+</div>","null","fixation","","","","","","","","","","","","","",""
"revaluation","77","439125","0.0-3.0-13.0-2.0-0.7","spark_pilot_2","7419","8","17","Female","","false","","","","","[659,482.40000009536743]","./assets/img/space/14.jpg","[""ArrowDown"",""ArrowLeft""]","practice block","space","15","{""ArrowUp,ArrowLeft"":3,""ArrowUp,ArrowRight"":36,""ArrowDown,ArrowLeft"":15,""ArrowDown,ArrowRight"":23}","false","ArrowDown,ArrowLeft","false","","","","","","","",""
"html-keyboard-response","78","439628","0.0-3.0-13.0-2.0-1.7","spark_pilot_2","7419","8","17","Female","","","","","","","null","<div style=""font-size:60px;"">+</div>","null","fixation","","","","","","","","","","","","","",""
"revaluation","79","443632","0.0-3.0-13.0-2.0-0.8","spark_pilot_2","7419","8","17","Female","","false","","","","","[615.7999999523163]","./assets/img/space/catch/3.jpg","[""ArrowUp""]","practice block","space","-10","{""ArrowUp,ArrowLeft"":3,""ArrowUp,ArrowRight"":36,""ArrowDown,ArrowLeft"":15,""ArrowDown,ArrowRight"":23}","false","ArrowUp","true","","","","","","","",""
"html-keyboard-response","80","444137","0.0-3.0-13.0-2.0-1.8","spark_pilot_2","7419","8","17","Female","","","","","","","null","<div style=""font-size:60px;"">+</div>","null","fixation","","","","","","","","","","","","","",""
"learning-instructions","81","458960","0.0-3.0-13.0-3.0-0.0","spark_pilot_2","7419","8","17","Female","","","","","","","1905","<p> Now, you will travel with a friend who will choose whether you go up or down first. </p>
            <p> On these turns, you will just see the animal that they found. You will still get to choose which chest to search for treasure.</p>","","instructions","","","","","","","","","","","","","",""
"revaluation","82","462968","0.0-3.0-13.0-4.0-0.0","spark_pilot_2","7419","8","17","Female","","false","","","","","[1271.3999998569489]","./assets/img/space/animals/cat.jpg","[""ArrowRight""]","practice block","space","36","{""ArrowUp,ArrowLeft"":3,""ArrowUp,ArrowRight"":36,""ArrowDown,ArrowLeft"":15,""ArrowDown,ArrowRight"":23}","true","ArrowUp,ArrowRight","","","","","","","","",""
"html-keyboard-response","83","463468","0.0-3.0-13.0-4.0-1.0","spark_pilot_2","7419","8","17","Female","","","","","","","null","<div style=""font-size:60px;"">+</div>","null","fixation","","","","","","","","","","","","","",""
"revaluation","84","467476","0.0-3.0-13.0-4.0-0.1","spark_pilot_2","7419","8","17","Female","","false","","","","","[1238.5]","./assets/img/space/animals/rabbit.jpg","[""ArrowRight""]","practice block","space","23","{""ArrowUp,ArrowLeft"":3,""ArrowUp,ArrowRight"":36,""ArrowDown,ArrowLeft"":15,""ArrowDown,ArrowRight"":23}","true","ArrowDown,ArrowRight","","","","","","","","",""
"html-keyboard-response","85","467980","0.0-3.0-13.0-4.0-1.1","spark_pilot_2","7419","8","17","Female","","","","","","","null","<div style=""font-size:60px;"">+</div>","null","fixation","","","","","","","","","","","","","",""
"revaluation","86","471984","0.0-3.0-13.0-4.0-0.2","spark_pilot_2","7419","8","17","Female","","false","","","","","[720.7999999523163]","./assets/img/space/animals/rabbit.jpg","[""ArrowRight""]","practice block","space","23","{""ArrowUp,ArrowLeft"":3,""ArrowUp,ArrowRight"":36,""ArrowDown,ArrowLeft"":15,""ArrowDown,ArrowRight"":23}","true","ArrowDown,ArrowRight","","","","","","","","",""
"html-keyboard-response","87","472488","0.0-3.0-13.0-4.0-1.2","spark_pilot_2","7419","8","17","Female","","","","","","","null","<div style=""font-size:60px;"">+</div>","null","fixation","","","","","","","","","","","","","",""
"revaluation","88","476496","0.0-3.0-13.0-4.0-0.3","spark_pilot_2","7419","8","17","Female","","false","","","","","[778.5]","./assets/img/space/animals/cat.jpg","[""ArrowLeft""]","practice block","space","3","{""ArrowUp,ArrowLeft"":3,""ArrowUp,ArrowRight"":36,""ArrowDown,ArrowLeft"":15,""ArrowDown,ArrowRight"":23}","false","ArrowUp,ArrowLeft","","","","","","","","",""
"html-keyboard-response","89","477000","0.0-3.0-13.0-4.0-1.3","spark_pilot_2","7419","8","17","Female","","","","","","","null","<div style=""font-size:60px;"">+</div>","null","fixation","","","","","","","","","","","","","",""
"learning-instructions","90","485119","0.0-3.0-13.0-5.0-0.0","spark_pilot_2","7419","8","17","Female","","","","","","","764.7999999523163","<p> Time to play the dot game! </p>
            <p> For 15 seconds, click the red dots on the following screen as they appear. </p>","","instructions","","","","","","","","","","","","","",""
"revaluation","91","500120","0.0-3.0-13.0-6.0-0.0","spark_pilot_2","7419","8","17","Female","","","","","","","[71]","","","rest practice","","10","","","","","0","15000","","","","","",""
"learning-instructions","92","507943","0.0-3.0-13.0-7.0-0.0","spark_pilot_2","7419","8","17","Female","","","","","","","1709","<p> You have almost finished this part of the game! </p>
            <p> We are going to ask you to make a few more choices. </p>","","instructions","","","","","","","","","","","","","",""
"learning-instructions","93","522535","0.0-3.0-13.0-7.0-0.1","spark_pilot_2","7419","8","17","Female","","","","","","","601.2000000476837","<p> First, you need to decide whether to go up or down. When you see each picture, use the arrow keys to make your choice. </p>
            <p><b>You will not see which animal you found, but try to get to the one that will give you the most treasure.</b></p>","","instructions","","","","","","","","","","","","","",""
"revaluation","94","523546","0.0-3.0-13.0-8.0","spark_pilot_2","7419","8","17","Female","","false","","","","","[1009.0999999046326]","./assets/img/space/15.jpg","[""ArrowUp""]","practice block","space","0","{""ArrowUp,ArrowLeft"":3,""ArrowUp,ArrowRight"":36,""ArrowDown,ArrowLeft"":15,""ArrowDown,ArrowRight"":23}","true","ArrowUp","false","","","","","","","",""
"html-keyboard-response","95","524048","0.0-3.0-13.0-9.0","spark_pilot_2","7419","8","17","Female","","","","","","","null","<div style=""font-size:60px;"">+</div>","null","fixation","","","","","","","","","","","","","",""
"learning-instructions","96","537455","0.0-3.0-13.0-10.0-0.0","spark_pilot_2","7419","8","17","Female","","","","","","","2041","<p> Now you will see the animals again and can search their chests for treasure. </p>
            <p> This time, you will not see how much treasure you earned, but you will earn more bonus money for making better choices. </p>","","instructions","","","","","","","","","","","","","",""
"revaluation","97","538245","0.0-3.0-13.0-11.0-0.0","spark_pilot_2","7419","8","17","Female","","false","","","","","[788.7999999523163]","./assets/img/space/animals/cat.jpg","[""ArrowRight""]","practice block","space","0","{""ArrowUp,ArrowLeft"":3,""ArrowUp,ArrowRight"":36,""ArrowDown,ArrowLeft"":15,""ArrowDown,ArrowRight"":23}","true","ArrowUp,ArrowRight","","","","","","","","",""
"html-keyboard-response","98","538747","0.0-3.0-13.0-11.0-1.0","spark_pilot_2","7419","8","17","Female","","","","","","","null","<div style=""font-size:60px;"">+</div>","null","fixation","","","","","","","","","","","","","",""
"revaluation","99","539906","0.0-3.0-13.0-11.0-0.1","spark_pilot_2","7419","8","17","Female","","false","","","","","[1156.7000000476837]","./assets/img/space/animals/rabbit.jpg","[""ArrowRight""]","practice block","space","0","{""ArrowUp,ArrowLeft"":3,""ArrowUp,ArrowRight"":36,""ArrowDown,ArrowLeft"":15,""ArrowDown,ArrowRight"":23}","true","ArrowDown,ArrowRight","","","","","","","","",""
"html-keyboard-response","100","540408","0.0-3.0-13.0-11.0-1.1","spark_pilot_2","7419","8","17","Female","","","","","","","null","<div style=""font-size:60px;"">+</div>","null","fixation","","","","","","","","","","","","","",""
"learning-instructions","101","547063","0.0-3.0-14.0-0.0","spark_pilot_2","7419","8","17","Female","","","","","","","2089.100000143051","<p> Before you start, we're going to ask you a few questions about how the game works. </p>","","instructions","","","","","","","","","","","","","",""
"comp-q","102","553895","0.0-3.0-15.0-0.0-0.0","spark_pilot_2","7419","8","17","Female","","","","","","","1259.5999999046326","<p> <b> True or False? </b> </p>
            <p> There can be 50 pieces of treasure in a given animal's chest. </p>","0","comp_question","","","","false","","","","","","","","","",""
"comp-q","103","561767","0.0-3.0-15.0-0.0-1.0","spark_pilot_2","7419","8","17","Female","","","","","","","1353.0999999046326","<p> <b>Incorrect.</b> The amount of treasure in each chest can range from 0 to 40 pieces. </p>","0","comp_answer","","","","","","","","","","","","","",""
"comp-q","104","568263","0.0-3.0-15.0-0.1-0.1","spark_pilot_2","7419","8","17","Female","","","","","","","939.1999998092651","<p> <b> True or False? </b> </p>
            <p> There can be 50 pieces of treasure in a given animal's chest. </p>","1","comp_question","","","","true","","","","","","","","","",""
"comp-q","105","577575","0.0-3.0-15.0-0.1-1.1","spark_pilot_2","7419","8","17","Female","","","","","","","2660.9000000953674","<p> <b> That's right! </b> The amount of treasure in each chest can range from 0 to 40 pieces. </p>","0","comp_answer","","","","","","","","","","","","","",""
"comp-q","106","585319","0.0-3.0-15.0-0.2-0.2","spark_pilot_2","7419","8","17","Female","","","","","","","625.2999999523163","<p> <b> True or False? </b> </p><p> In this game, all animals have the same amount of treasure in their left and right chests. </p>","1","comp_question","","","","true","","","","","","","","","",""
"comp-q","107","593095","0.0-3.0-15.0-0.2-1.2","spark_pilot_2","7419","8","17","Female","","","","","","","2551.2000000476837","<p> <b> That's right! </b> Animals have different amounts of treasure in their treasure chests. </p>","0","comp_answer","","","","","","","","","","","","","",""
"comp-q","108","599680","0.0-3.0-15.0-0.3-0.3","spark_pilot_2","7419","8","17","Female","","","","","","","745.3999998569489","<p> <b> True or False? </b> </p><p> The same animal will always be there if you go up in the same place. </p>","0","comp_question","","","","true","","","","","","","","","",""
"comp-q","109","606753","0.0-3.0-15.0-0.3-1.3","spark_pilot_2","7419","8","17","Female","","","","","","","639.4000000953674","<p> <b> That's right! </b> One animal lives in the upper part and one lives in the lower part of every place. </p>","0","comp_answer","","","","","","","","","","","","","",""
"comp-q","110","612745","0.0-3.0-15.0-0.4-0.4","spark_pilot_2","7419","8","17","Female","","","","","","","481.39999985694885","<p> <b> True or False? </b> </p><p> If you see a different picture, it means you are in a new place. </p>","1","comp_question","","","","true","","","","","","","","","",""
"comp-q","111","626291","0.0-3.0-15.0-0.4-1.4","spark_pilot_2","7419","8","17","Female","","","","","","","1877.5","<p> <b> That's right! </b> Lots of different images may show the same place. For example,  you may see three different images that all remind you that you are in outer space. </p>","0","comp_answer","","","","","","","","","","","","","",""
"learning-instructions","112","637315","0.0-3.0-16.0-0.0","spark_pilot_2","7419","8","17","Female","","","","","","","1171.4000000953674","<p> Good job. Remember to do your best because the amount of treasure you earn will be converted into bonus money. </p>
            <p> It’s time to start the real game! </p>","","instructions","","","","","","","","","","","","","",""
"learning-instructions","113","641451","0.0-4.0-0.0-0.0","spark_pilot_2","7419","8","17","Female","","","","","","","1377.5","<p> This time you are searching for treasure in the <b>canyon</b>.</p>","","instructions","","","","","","","","","","","","","",""
"learning-instructions","114","659547","0.0-4.0-0.0-0.1","spark_pilot_2","7419","8","17","Female","","","","","","","813.5","<p><b>New</b> animals with <b>new</b> treasure chests live here. You need to explore to discover where the animal with the best treasure chest is.</p>
                    <p> Like before, once you figure out which animal has the chest with the most treasure, you should try to get to that animal and select that chest! </p>","","instructions","","","","","","","","","","","","","",""
"learning-instructions","115","675419","0.0-4.0-1.0-0.0","spark_pilot_2","7419","8","17","Female","","","","","","","1145.5999999046326","<p> Remember, when you see a picture of the place, use the up and down keys to <b>find an animal</b>.</p>
            <p> When you encounter an animal, you should use the left and right keys to <b>select a treasure chest</b>.</p>
            <p> Don't forget to look out for the robber! </p>","","instructions","","","","","","","","","","","","","",""
"revaluation","116","681429","0.0-4.0-2.0-0.0","spark_pilot_2","7419","8","17","Female","","false","","","","","[913.2999999523163,733.5999999046326]","./assets/img/canyon/memory/20.jpg","[""ArrowUp"",""ArrowRight""]","value training","canyon","10","{""ArrowUp,ArrowLeft"":26,""ArrowUp,ArrowRight"":10,""ArrowDown,ArrowLeft"":5,""ArrowDown,ArrowRight"":17}","false","ArrowUp,ArrowRight","false","","","revaluation","1","0","","",""
"html-keyboard-response","117","681932","0.0-4.0-2.0-1.0","spark_pilot_2","7419","8","17","Female","","","","","","","null","<div style=""font-size:60px;"">+</div>","null","fixation","","","","","","","","","","","1","","",""
"revaluation","118","687936","0.0-4.0-2.0-0.1","spark_pilot_2","7419","8","17","Female","","false","","","","","[521.2999999523163,969.5999999046326]","./assets/img/canyon/memory/31.jpg","[""ArrowDown"",""ArrowRight""]","value training","canyon","17","{""ArrowUp,ArrowLeft"":26,""ArrowUp,ArrowRight"":10,""ArrowDown,ArrowLeft"":5,""ArrowDown,ArrowRight"":17}","false","ArrowDown,ArrowRight","false","","","revaluation","1","2","","",""
"html-keyboard-response","119","688439","0.0-4.0-2.0-1.1","spark_pilot_2","7419","8","17","Female","","","","","","","null","<div style=""font-size:60px;"">+</div>","null","fixation","","","","","","","","","","","3","","",""
"revaluation","120","694451","0.0-4.0-2.0-0.2","spark_pilot_2","7419","8","17","Female","","false","","","","","[614.5,402.59999990463257]","./assets/img/canyon/memory/20.jpg","[""ArrowUp"",""ArrowLeft""]","value training","canyon","26","{""ArrowUp,ArrowLeft"":26,""ArrowUp,ArrowRight"":10,""ArrowDown,ArrowLeft"":5,""ArrowDown,ArrowRight"":17}","true","ArrowUp,ArrowLeft","false","","","revaluation","1","4","","",""
"html-keyboard-response","121","694955","0.0-4.0-2.0-1.2","spark_pilot_2","7419","8","17","Female","","","","","","","null","<div style=""font-size:60px;"">+</div>","null","fixation","","","","","","","","","","","5","","",""
"revaluation","122","698964","0.0-4.0-2.0-0.3","spark_pilot_2","7419","8","17","Female","","false","","","","","[559.8999998569489]","./assets/img/canyon/catch/0.jpg","[""ArrowDown""]","value training","canyon","-10","{""ArrowUp,ArrowLeft"":26,""ArrowUp,ArrowRight"":10,""ArrowDown,ArrowLeft"":5,""ArrowDown,ArrowRight"":17}","false","ArrowDown","true","","","revaluation","1","6","","",""
"html-keyboard-response","123","699468","0.0-4.0-2.0-1.3","spark_pilot_2","7419","8","17","Female","","","","","","","null","<div style=""font-size:60px;"">+</div>","null","fixation","","","","","","","","","","","7","","",""
"revaluation","124","705475","0.0-4.0-2.0-0.4","spark_pilot_2","7419","8","17","Female","","false","","","","","[603.2999999523163,507.7999999523163]","./assets/img/canyon/memory/9.jpg","[""ArrowDown"",""ArrowLeft""]","value training","canyon","5","{""ArrowUp,ArrowLeft"":26,""ArrowUp,ArrowRight"":10,""ArrowDown,ArrowLeft"":5,""ArrowDown,ArrowRight"":17}","false","ArrowDown,ArrowLeft","false","","","revaluation","1","8","","",""
"html-keyboard-response","125","705980","0.0-4.0-2.0-1.4","spark_pilot_2","7419","8","17","Female","","","","","","","null","<div style=""font-size:60px;"">+</div>","null","fixation","","","","","","","","","","","9","","",""
"revaluation","126","709985","0.0-4.0-2.0-0.5","spark_pilot_2","7419","8","17","Female","","false","","","","","[601.3000001907349]","./assets/img/canyon/catch/1.jpg","[""ArrowUp""]","value training","canyon","-10","{""ArrowUp,ArrowLeft"":26,""ArrowUp,ArrowRight"":10,""ArrowDown,ArrowLeft"":5,""ArrowDown,ArrowRight"":17}","false","ArrowUp","true","","","revaluation","1","10","","",""
"html-keyboard-response","127","710489","0.0-4.0-2.0-1.5","spark_pilot_2","7419","8","17","Female","","","","","","","null","<div style=""font-size:60px;"">+</div>","null","fixation","","","","","","","","","","","11","","",""
"revaluation","128","716497","0.0-4.0-2.0-0.6","spark_pilot_2","7419","8","17","Female","","false","","","","","[547.6999998092651,513.2000000476837]","./assets/img/canyon/memory/28.jpg","[""ArrowUp"",""ArrowRight""]","value training","canyon","10","{""ArrowUp,ArrowLeft"":26,""ArrowUp,ArrowRight"":10,""ArrowDown,ArrowLeft"":5,""ArrowDown,ArrowRight"":17}","false","ArrowUp,ArrowRight","false","","","revaluation","1","12","","",""
"html-keyboard-response","129","717001","0.0-4.0-2.0-1.6","spark_pilot_2","7419","8","17","Female","","","","","","","null","<div style=""font-size:60px;"">+</div>","null","fixation","","","","","","","","","","","13","","",""
"revaluation","130","721005","0.0-4.0-2.0-0.7","spark_pilot_2","7419","8","17","Female","","false","","","","","[825.5]","./assets/img/canyon/catch/6.jpg","[""spaceBar""]","value training","canyon","0","{""ArrowUp,ArrowLeft"":26,""ArrowUp,ArrowRight"":10,""ArrowDown,ArrowLeft"":5,""ArrowDown,ArrowRight"":17}","true","spaceBar","true","","","revaluation","1","14","","",""
"html-keyboard-response","131","721508","0.0-4.0-2.0-1.7","spark_pilot_2","7419","8","17","Female","","","","","","","null","<div style=""font-size:60px;"">+</div>","null","fixation","","","","","","","","","","","15","","",""
"revaluation","132","727520","0.0-4.0-2.0-0.8","spark_pilot_2","7419","8","17","Female","","false","","","","","[859.9000000953674,408.7000000476837]","./assets/img/canyon/memory/31.jpg","[""ArrowDown"",""ArrowRight""]","value training","canyon","17","{""ArrowUp,ArrowLeft"":26,""ArrowUp,ArrowRight"":10,""ArrowDown,ArrowLeft"":5,""ArrowDown,ArrowRight"":17}","false","ArrowDown,ArrowRight","false","","","revaluation","1","16","","",""
"html-keyboard-response","133","728025","0.0-4.0-2.0-1.8","spark_pilot_2","7419","8","17","Female","","","","","","","null","<div style=""font-size:60px;"">+</div>","null","fixation","","","","","","","","","","","17","","",""
"revaluation","134","734032","0.0-4.0-2.0-0.9","spark_pilot_2","7419","8","17","Female","","false","","","","","[1091.4000000953674,468.80000019073486]","./assets/img/canyon/memory/7.jpg","[""ArrowUp"",""ArrowLeft""]","value training","canyon","26","{""ArrowUp,ArrowLeft"":26,""ArrowUp,ArrowRight"":10,""ArrowDown,ArrowLeft"":5,""ArrowDown,ArrowRight"":17}","true","ArrowUp,ArrowLeft","false","","","revaluation","1","18","","",""
"html-keyboard-response","135","734536","0.0-4.0-2.0-1.9","spark_pilot_2","7419","8","17","Female","","","","","","","null","<div style=""font-size:60px;"">+</div>","null","fixation","","","","","","","","","","","19","","",""
"revaluation","136","740545","0.0-4.0-2.0-0.10","spark_pilot_2","7419","8","17","Female","","false","","","","","[530,391.2999999523163]","./assets/img/canyon/memory/0.jpg","[""ArrowUp"",""ArrowLeft""]","value training","canyon","26","{""ArrowUp,ArrowLeft"":26,""ArrowUp,ArrowRight"":10,""ArrowDown,ArrowLeft"":5,""ArrowDown,ArrowRight"":17}","true","ArrowUp,ArrowLeft","false","","","revaluation","1","20","","",""
"html-keyboard-response","137","741048","0.0-4.0-2.0-1.10","spark_pilot_2","7419","8","17","Female","","","","","","","null","<div style=""font-size:60px;"">+</div>","null","fixation","","","","","","","","","","","21","","",""
"revaluation","138","747060","0.0-4.0-2.0-0.11","spark_pilot_2","7419","8","17","Female","","false","","","","","[535.7000000476837,297]","./assets/img/canyon/memory/21.jpg","[""ArrowUp"",""ArrowLeft""]","value training","canyon","26","{""ArrowUp,ArrowLeft"":26,""ArrowUp,ArrowRight"":10,""ArrowDown,ArrowLeft"":5,""ArrowDown,ArrowRight"":17}","true","ArrowUp,ArrowLeft","false","","","revaluation","1","22","","",""
"html-keyboard-response","139","747564","0.0-4.0-2.0-1.11","spark_pilot_2","7419","8","17","Female","","","","","","","null","<div style=""font-size:60px;"">+</div>","null","fixation","","","","","","","","","","","23","","",""
"revaluation","140","753570","0.0-4.0-2.0-0.12","spark_pilot_2","7419","8","17","Female","","false","","","","","[354.2000000476837,351.5]","./assets/img/canyon/memory/33.jpg","[""ArrowUp"",""ArrowLeft""]","value training","canyon","26","{""ArrowUp,ArrowLeft"":26,""ArrowUp,ArrowRight"":10,""ArrowDown,ArrowLeft"":5,""ArrowDown,ArrowRight"":17}","true","ArrowUp,ArrowLeft","false","","","revaluation","1","24","","",""
"html-keyboard-response","141","754072","0.0-4.0-2.0-1.12","spark_pilot_2","7419","8","17","Female","","","","","","","null","<div style=""font-size:60px;"">+</div>","null","fixation","","","","","","","","","","","25","","",""
"revaluation","142","760080","0.0-4.0-2.0-0.13","spark_pilot_2","7419","8","17","Female","","false","","","","","[518.0999999046326,491.40000009536743]","./assets/img/canyon/memory/35.jpg","[""ArrowUp"",""ArrowLeft""]","value training","canyon","26","{""ArrowUp,ArrowLeft"":26,""ArrowUp,ArrowRight"":10,""ArrowDown,ArrowLeft"":5,""ArrowDown,ArrowRight"":17}","true","ArrowUp,ArrowLeft","false","","","revaluation","1","26","","",""
"html-keyboard-response","143","760585","0.0-4.0-2.0-1.13","spark_pilot_2","7419","8","17","Female","","","","","","","null","<div style=""font-size:60px;"">+</div>","null","fixation","","","","","","","","","","","27","","",""
"revaluation","144","766592","0.0-4.0-2.0-0.14","spark_pilot_2","7419","8","17","Female","","false","","","","","[912.6999998092651,345.2999999523163]","./assets/img/canyon/memory/37.jpg","[""ArrowUp"",""ArrowLeft""]","value training","canyon","26","{""ArrowUp,ArrowLeft"":26,""ArrowUp,ArrowRight"":10,""ArrowDown,ArrowLeft"":5,""ArrowDown,ArrowRight"":17}","true","ArrowUp,ArrowLeft","false","","","revaluation","1","28","","",""
"html-keyboard-response","145","767096","0.0-4.0-2.0-1.14","spark_pilot_2","7419","8","17","Female","","","","","","","null","<div style=""font-size:60px;"">+</div>","null","fixation","","","","","","","","","","","29","","",""
"revaluation","146","773105","0.0-4.0-2.0-0.15","spark_pilot_2","7419","8","17","Female","","false","","","","","[959.4000000953674,500.7999999523163]","./assets/img/canyon/memory/10.jpg","[""ArrowUp"",""ArrowLeft""]","value training","canyon","26","{""ArrowUp,ArrowLeft"":26,""ArrowUp,ArrowRight"":10,""ArrowDown,ArrowLeft"":5,""ArrowDown,ArrowRight"":17}","true","ArrowUp,ArrowLeft","false","","","revaluation","1","30","","",""
"html-keyboard-response","147","773608","0.0-4.0-2.0-1.15","spark_pilot_2","7419","8","17","Female","","","","","","","null","<div style=""font-size:60px;"">+</div>","null","fixation","","","","","","","","","","","31","","",""
"revaluation","148","779613","0.0-4.0-2.0-0.16","spark_pilot_2","7419","8","17","Female","","false","","","","","[464.5,321.30000019073486]","./assets/img/canyon/memory/15.jpg","[""ArrowUp"",""ArrowLeft""]","value training","canyon","26","{""ArrowUp,ArrowLeft"":26,""ArrowUp,ArrowRight"":10,""ArrowDown,ArrowLeft"":5,""ArrowDown,ArrowRight"":17}","true","ArrowUp,ArrowLeft","false","","","revaluation","1","32","","",""
"html-keyboard-response","149","780116","0.0-4.0-2.0-1.16","spark_pilot_2","7419","8","17","Female","","","","","","","null","<div style=""font-size:60px;"">+</div>","null","fixation","","","","","","","","","","","33","","",""
"revaluation","150","786125","0.0-4.0-2.0-0.17","spark_pilot_2","7419","8","17","Female","","false","","","","","[644.2999999523163,449]","./assets/img/canyon/memory/24.jpg","[""ArrowUp"",""ArrowLeft""]","value training","canyon","26","{""ArrowUp,ArrowLeft"":26,""ArrowUp,ArrowRight"":10,""ArrowDown,ArrowLeft"":5,""ArrowDown,ArrowRight"":17}","true","ArrowUp,ArrowLeft","false","","","revaluation","1","34","","",""
"html-keyboard-response","151","786628","0.0-4.0-2.0-1.17","spark_pilot_2","7419","8","17","Female","","","","","","","null","<div style=""font-size:60px;"">+</div>","null","fixation","","","","","","","","","","","35","","",""
"revaluation","152","792640","0.0-4.0-2.0-0.18","spark_pilot_2","7419","8","17","Female","","false","","","","","[712,357.7999999523163]","./assets/img/canyon/memory/23.jpg","[""ArrowUp"",""ArrowLeft""]","value training","canyon","26","{""ArrowUp,ArrowLeft"":26,""ArrowUp,ArrowRight"":10,""ArrowDown,ArrowLeft"":5,""ArrowDown,ArrowRight"":17}","true","ArrowUp,ArrowLeft","false","","","revaluation","1","36","","",""
"html-keyboard-response","153","793145","0.0-4.0-2.0-1.18","spark_pilot_2","7419","8","17","Female","","","","","","","null","<div style=""font-size:60px;"">+</div>","null","fixation","","","","","","","","","","","37","","",""
"revaluation","154","799157","0.0-4.0-2.0-0.19","spark_pilot_2","7419","8","17","Female","","false","","","","","[504.7000000476837,449.09999990463257]","./assets/img/canyon/memory/9.jpg","[""ArrowUp"",""ArrowLeft""]","value training","canyon","26","{""ArrowUp,ArrowLeft"":26,""ArrowUp,ArrowRight"":10,""ArrowDown,ArrowLeft"":5,""ArrowDown,ArrowRight"":17}","true","ArrowUp,ArrowLeft","false","","","revaluation","1","38","","",""
"html-keyboard-response","155","799661","0.0-4.0-2.0-1.19","spark_pilot_2","7419","8","17","Female","","","","","","","null","<div style=""font-size:60px;"">+</div>","null","fixation","","","","","","","","","","","39","","",""
"revaluation","156","803665","0.0-4.0-2.0-0.20","spark_pilot_2","7419","8","17","Female","","false","","","","","[469.69999980926514]","./assets/img/canyon/catch/2.jpg","[""ArrowUp""]","value training","canyon","-10","{""ArrowUp,ArrowLeft"":26,""ArrowUp,ArrowRight"":10,""ArrowDown,ArrowLeft"":5,""ArrowDown,ArrowRight"":17}","false","ArrowUp","true","","","revaluation","1","40","","",""
"html-keyboard-response","157","804168","0.0-4.0-2.0-1.20","spark_pilot_2","7419","8","17","Female","","","","","","","null","<div style=""font-size:60px;"">+</div>","null","fixation","","","","","","","","","","","41","","",""
"revaluation","158","810176","0.0-4.0-2.0-0.21","spark_pilot_2","7419","8","17","Female","","false","","","","","[1184,545.0999999046326]","./assets/img/canyon/memory/4.jpg","[""ArrowUp"",""ArrowLeft""]","value training","canyon","26","{""ArrowUp,ArrowLeft"":26,""ArrowUp,ArrowRight"":10,""ArrowDown,ArrowLeft"":5,""ArrowDown,ArrowRight"":17}","true","ArrowUp,ArrowLeft","false","","","revaluation","1","42","","",""
"html-keyboard-response","159","810681","0.0-4.0-2.0-1.21","spark_pilot_2","7419","8","17","Female","","","","","","","null","<div style=""font-size:60px;"">+</div>","null","fixation","","","","","","","","","","","43","","",""
"revaluation","160","816688","0.0-4.0-2.0-0.22","spark_pilot_2","7419","8","17","Female","","false","","","","","[545.1000001430511,512.3999998569489]","./assets/img/canyon/memory/4.jpg","[""ArrowUp"",""ArrowLeft""]","value training","canyon","26","{""ArrowUp,ArrowLeft"":26,""ArrowUp,ArrowRight"":10,""ArrowDown,ArrowLeft"":5,""ArrowDown,ArrowRight"":17}","true","ArrowUp,ArrowLeft","false","","","revaluation","1","44","","",""
"html-keyboard-response","161","817192","0.0-4.0-2.0-1.22","spark_pilot_2","7419","8","17","Female","","","","","","","null","<div style=""font-size:60px;"">+</div>","null","fixation","","","","","","","","","","","45","","",""
"revaluation","162","823197","0.0-4.0-2.0-0.23","spark_pilot_2","7419","8","17","Female","","false","","","","","[574.3999998569489,488.60000014305115]","./assets/img/canyon/memory/12.jpg","[""ArrowUp"",""ArrowLeft""]","value training","canyon","26","{""ArrowUp,ArrowLeft"":26,""ArrowUp,ArrowRight"":10,""ArrowDown,ArrowLeft"":5,""ArrowDown,ArrowRight"":17}","true","ArrowUp,ArrowLeft","false","","","revaluation","1","46","","",""
"html-keyboard-response","163","823700","0.0-4.0-2.0-1.23","spark_pilot_2","7419","8","17","Female","","","","","","","null","<div style=""font-size:60px;"">+</div>","null","fixation","","","","","","","","","","","47","","",""
"revaluation","164","827708","0.0-4.0-2.0-0.24","spark_pilot_2","7419","8","17","Female","","false","","","","","[378.40000009536743]","./assets/img/canyon/catch/4.jpg","[""spaceBar""]","value training","canyon","0","{""ArrowUp,ArrowLeft"":26,""ArrowUp,ArrowRight"":10,""ArrowDown,ArrowLeft"":5,""ArrowDown,ArrowRight"":17}","true","spaceBar","true","","","revaluation","1","48","","",""
"html-keyboard-response","165","828212","0.0-4.0-2.0-1.24","spark_pilot_2","7419","8","17","Female","","","","","","","null","<div style=""font-size:60px;"">+</div>","null","fixation","","","","","","","","","","","49","","",""
"revaluation","166","834225","0.0-4.0-2.0-0.25","spark_pilot_2","7419","8","17","Female","","false","","","","","[473.7000000476837,390.5]","./assets/img/canyon/memory/24.jpg","[""ArrowUp"",""ArrowLeft""]","value training","canyon","26","{""ArrowUp,ArrowLeft"":26,""ArrowUp,ArrowRight"":10,""ArrowDown,ArrowLeft"":5,""ArrowDown,ArrowRight"":17}","true","ArrowUp,ArrowLeft","false","","","revaluation","1","50","","",""
"html-keyboard-response","167","834728","0.0-4.0-2.0-1.25","spark_pilot_2","7419","8","17","Female","","","","","","","null","<div style=""font-size:60px;"">+</div>","null","fixation","","","","","","","","","","","51","","",""
"revaluation","168","840732","0.0-4.0-2.0-0.26","spark_pilot_2","7419","8","17","Female","","false","","","","","[623.8999998569489,391.7999999523163]","./assets/img/canyon/memory/29.jpg","[""ArrowUp"",""ArrowLeft""]","value training","canyon","26","{""ArrowUp,ArrowLeft"":26,""ArrowUp,ArrowRight"":10,""ArrowDown,ArrowLeft"":5,""ArrowDown,ArrowRight"":17}","true","ArrowUp,ArrowLeft","false","","","revaluation","1","52","","",""
"html-keyboard-response","169","841236","0.0-4.0-2.0-1.26","spark_pilot_2","7419","8","17","Female","","","","","","","null","<div style=""font-size:60px;"">+</div>","null","fixation","","","","","","","","","","","53","","",""
"revaluation","170","847244","0.0-4.0-2.0-0.27","spark_pilot_2","7419","8","17","Female","","false","","","","","[531.5999999046326,331.89999985694885]","./assets/img/canyon/memory/22.jpg","[""ArrowUp"",""ArrowLeft""]","value training","canyon","26","{""ArrowUp,ArrowLeft"":26,""ArrowUp,ArrowRight"":10,""ArrowDown,ArrowLeft"":5,""ArrowDown,ArrowRight"":17}","true","ArrowUp,ArrowLeft","false","","","revaluation","1","54","","",""
"html-keyboard-response","171","847746","0.0-4.0-2.0-1.27","spark_pilot_2","7419","8","17","Female","","","","","","","null","<div style=""font-size:60px;"">+</div>","null","fixation","","","","","","","","","","","55","","",""
"revaluation","172","853756","0.0-4.0-2.0-0.28","spark_pilot_2","7419","8","17","Female","","false","","","","","[514.3999998569489,337.09999990463257]","./assets/img/canyon/memory/33.jpg","[""ArrowUp"",""ArrowLeft""]","value training","canyon","26","{""ArrowUp,ArrowLeft"":26,""ArrowUp,ArrowRight"":10,""ArrowDown,ArrowLeft"":5,""ArrowDown,ArrowRight"":17}","true","ArrowUp,ArrowLeft","false","","","revaluation","1","56","","",""
"html-keyboard-response","173","854260","0.0-4.0-2.0-1.28","spark_pilot_2","7419","8","17","Female","","","","","","","null","<div style=""font-size:60px;"">+</div>","null","fixation","","","","","","","","","","","57","","",""
"revaluation","174","858268","0.0-4.0-2.0-0.29","spark_pilot_2","7419","8","17","Female","","false","","","","","[408]","./assets/img/canyon/catch/7.jpg","[""spaceBar""]","value training","canyon","0","{""ArrowUp,ArrowLeft"":26,""ArrowUp,ArrowRight"":10,""ArrowDown,ArrowLeft"":5,""ArrowDown,ArrowRight"":17}","true","spaceBar","true","","","revaluation","1","58","","",""
"html-keyboard-response","175","858773","0.0-4.0-2.0-1.29","spark_pilot_2","7419","8","17","Female","","","","","","","null","<div style=""font-size:60px;"">+</div>","null","fixation","","","","","","","","","","","59","","",""
"revaluation","176","864784","0.0-4.0-2.0-0.30","spark_pilot_2","7419","8","17","Female","","false","","","","","[711.3999998569489,496.2000000476837]","./assets/img/canyon/memory/40.jpg","[""ArrowUp"",""ArrowLeft""]","value training","canyon","26","{""ArrowUp,ArrowLeft"":26,""ArrowUp,ArrowRight"":10,""ArrowDown,ArrowLeft"":5,""ArrowDown,ArrowRight"":17}","true","ArrowUp,ArrowLeft","false","","","revaluation","1","60","","",""
"html-keyboard-response","177","865289","0.0-4.0-2.0-1.30","spark_pilot_2","7419","8","17","Female","","","","","","","null","<div style=""font-size:60px;"">+</div>","null","fixation","","","","","","","","","","","61","","",""
"revaluation","178","871296","0.0-4.0-2.0-0.31","spark_pilot_2","7419","8","17","Female","","false","","","","","[587.4000000953674,394.89999985694885]","./assets/img/canyon/memory/40.jpg","[""ArrowUp"",""ArrowLeft""]","value training","canyon","26","{""ArrowUp,ArrowLeft"":26,""ArrowUp,ArrowRight"":10,""ArrowDown,ArrowLeft"":5,""ArrowDown,ArrowRight"":17}","true","ArrowUp,ArrowLeft","false","","","revaluation","1","62","","",""
"html-keyboard-response","179","871800","0.0-4.0-2.0-1.31","spark_pilot_2","7419","8","17","Female","","","","","","","null","<div style=""font-size:60px;"">+</div>","null","fixation","","","","","","","","","","","63","","",""
"revaluation","180","877808","0.0-4.0-2.0-0.32","spark_pilot_2","7419","8","17","Female","","false","","","","","[729.6999998092651,670.2000000476837]","./assets/img/canyon/memory/2.jpg","[""ArrowUp"",""ArrowLeft""]","value training","canyon","26","{""ArrowUp,ArrowLeft"":26,""ArrowUp,ArrowRight"":10,""ArrowDown,ArrowLeft"":5,""ArrowDown,ArrowRight"":17}","true","ArrowUp,ArrowLeft","false","","","revaluation","1","64","","",""
"html-keyboard-response","181","878312","0.0-4.0-2.0-1.32","spark_pilot_2","7419","8","17","Female","","","","","","","null","<div style=""font-size:60px;"">+</div>","null","fixation","","","","","","","","","","","65","","",""
"revaluation","182","884321","0.0-4.0-2.0-0.33","spark_pilot_2","7419","8","17","Female","","false","","","","","[730.2000000476837,459.60000014305115]","./assets/img/canyon/memory/30.jpg","[""ArrowUp"",""ArrowLeft""]","value training","canyon","26","{""ArrowUp,ArrowLeft"":26,""ArrowUp,ArrowRight"":10,""ArrowDown,ArrowLeft"":5,""ArrowDown,ArrowRight"":17}","true","ArrowUp,ArrowLeft","false","","","revaluation","1","66","","",""
"html-keyboard-response","183","884824","0.0-4.0-2.0-1.33","spark_pilot_2","7419","8","17","Female","","","","","","","null","<div style=""font-size:60px;"">+</div>","null","fixation","","","","","","","","","","","67","","",""
"revaluation","184","890833","0.0-4.0-2.0-0.34","spark_pilot_2","7419","8","17","Female","","false","","","","","[685.9000000953674,335.40000009536743]","./assets/img/canyon/memory/22.jpg","[""ArrowUp"",""ArrowLeft""]","value training","canyon","26","{""ArrowUp,ArrowLeft"":26,""ArrowUp,ArrowRight"":10,""ArrowDown,ArrowLeft"":5,""ArrowDown,ArrowRight"":17}","true","ArrowUp,ArrowLeft","false","","","revaluation","1","68","","",""
"html-keyboard-response","185","891336","0.0-4.0-2.0-1.34","spark_pilot_2","7419","8","17","Female","","","","","","","null","<div style=""font-size:60px;"">+</div>","null","fixation","","","","","","","","","","","69","","",""
"revaluation","186","897345","0.0-4.0-2.0-0.35","spark_pilot_2","7419","8","17","Female","","false","","","","","[697.7000000476837,354.89999985694885]","./assets/img/canyon/memory/37.jpg","[""ArrowUp"",""ArrowLeft""]","value training","canyon","26","{""ArrowUp,ArrowLeft"":26,""ArrowUp,ArrowRight"":10,""ArrowDown,ArrowLeft"":5,""ArrowDown,ArrowRight"":17}","true","ArrowUp,ArrowLeft","false","","","revaluation","1","70","","",""
"html-keyboard-response","187","897848","0.0-4.0-2.0-1.35","spark_pilot_2","7419","8","17","Female","","","","","","","null","<div style=""font-size:60px;"">+</div>","null","fixation","","","","","","","","","","","71","","",""
"revaluation","188","901853","0.0-4.0-2.0-0.36","spark_pilot_2","7419","8","17","Female","","false","","","","","[372.19999980926514]","./assets/img/canyon/catch/5.jpg","[""spaceBar""]","value training","canyon","0","{""ArrowUp,ArrowLeft"":26,""ArrowUp,ArrowRight"":10,""ArrowDown,ArrowLeft"":5,""ArrowDown,ArrowRight"":17}","true","spaceBar","true","","","revaluation","1","72","","",""
"html-keyboard-response","189","902356","0.0-4.0-2.0-1.36","spark_pilot_2","7419","8","17","Female","","","","","","","null","<div style=""font-size:60px;"">+</div>","null","fixation","","","","","","","","","","","73","","",""
"revaluation","190","908361","0.0-4.0-2.0-0.37","spark_pilot_2","7419","8","17","Female","","false","","","","","[679.5999999046326,457.09999990463257]","./assets/img/canyon/memory/29.jpg","[""ArrowUp"",""ArrowLeft""]","value training","canyon","26","{""ArrowUp,ArrowLeft"":26,""ArrowUp,ArrowRight"":10,""ArrowDown,ArrowLeft"":5,""ArrowDown,ArrowRight"":17}","true","ArrowUp,ArrowLeft","false","","","revaluation","1","74","","",""
"html-keyboard-response","191","908865","0.0-4.0-2.0-1.37","spark_pilot_2","7419","8","17","Female","","","","","","","null","<div style=""font-size:60px;"">+</div>","null","fixation","","","","","","","","","","","75","","",""
"revaluation","192","914877","0.0-4.0-2.0-0.38","spark_pilot_2","7419","8","17","Female","","false","","","","","[808.5999999046326,927.2000000476837]","./assets/img/canyon/memory/30.jpg","[""ArrowUp"",""ArrowLeft""]","value training","canyon","26","{""ArrowUp,ArrowLeft"":26,""ArrowUp,ArrowRight"":10,""ArrowDown,ArrowLeft"":5,""ArrowDown,ArrowRight"":17}","true","ArrowUp,ArrowLeft","false","","","revaluation","1","76","","",""
"html-keyboard-response","193","915380","0.0-4.0-2.0-1.38","spark_pilot_2","7419","8","17","Female","","","","","","","null","<div style=""font-size:60px;"">+</div>","null","fixation","","","","","","","","","","","77","","",""
"revaluation","194","921392","0.0-4.0-2.0-0.39","spark_pilot_2","7419","8","17","Female","","false","","","","","[607.7999999523163,324.09999990463257]","./assets/img/canyon/memory/23.jpg","[""ArrowUp"",""ArrowLeft""]","value training","canyon","26","{""ArrowUp,ArrowLeft"":26,""ArrowUp,ArrowRight"":10,""ArrowDown,ArrowLeft"":5,""ArrowDown,ArrowRight"":17}","true","ArrowUp,ArrowLeft","false","","","revaluation","1","78","","",""
"html-keyboard-response","195","921893","0.0-4.0-2.0-1.39","spark_pilot_2","7419","8","17","Female","","","","","","","null","<div style=""font-size:60px;"">+</div>","null","fixation","","","","","","","","","","","79","","",""
"revaluation","196","927898","0.0-4.0-2.0-0.40","spark_pilot_2","7419","8","17","Female","","false","","","","","[652.5,361.2000000476837]","./assets/img/canyon/memory/35.jpg","[""ArrowUp"",""ArrowLeft""]","value training","canyon","26","{""ArrowUp,ArrowLeft"":26,""ArrowUp,ArrowRight"":10,""ArrowDown,ArrowLeft"":5,""ArrowDown,ArrowRight"":17}","true","ArrowUp,ArrowLeft","false","","","revaluation","1","80","","",""
"html-keyboard-response","197","928400","0.0-4.0-2.0-1.40","spark_pilot_2","7419","8","17","Female","","","","","","","null","<div style=""font-size:60px;"">+</div>","null","fixation","","","","","","","","","","","81","","",""
"revaluation","198","934408","0.0-4.0-2.0-0.41","spark_pilot_2","7419","8","17","Female","","false","","","","","[657.9000000953674,342]","./assets/img/canyon/memory/10.jpg","[""ArrowUp"",""ArrowLeft""]","value training","canyon","26","{""ArrowUp,ArrowLeft"":26,""ArrowUp,ArrowRight"":10,""ArrowDown,ArrowLeft"":5,""ArrowDown,ArrowRight"":17}","true","ArrowUp,ArrowLeft","false","","","revaluation","1","82","","",""
"html-keyboard-response","199","934913","0.0-4.0-2.0-1.41","spark_pilot_2","7419","8","17","Female","","","","","","","null","<div style=""font-size:60px;"">+</div>","null","fixation","","","","","","","","","","","83","","",""
"revaluation","200","938916","0.0-4.0-2.0-0.42","spark_pilot_2","7419","8","17","Female","","false","","","","","[339.7999999523163]","./assets/img/canyon/catch/3.jpg","[""spaceBar""]","value training","canyon","0","{""ArrowUp,ArrowLeft"":26,""ArrowUp,ArrowRight"":10,""ArrowDown,ArrowLeft"":5,""ArrowDown,ArrowRight"":17}","true","spaceBar","true","","","revaluation","1","84","","",""
"html-keyboard-response","201","939421","0.0-4.0-2.0-1.42","spark_pilot_2","7419","8","17","Female","","","","","","","null","<div style=""font-size:60px;"">+</div>","null","fixation","","","","","","","","","","","85","","",""
"revaluation","202","945432","0.0-4.0-2.0-0.43","spark_pilot_2","7419","8","17","Female","","false","","","","","[579.6000001430511,288.30000019073486]","./assets/img/canyon/memory/21.jpg","[""ArrowUp"",""ArrowLeft""]","value training","canyon","26","{""ArrowUp,ArrowLeft"":26,""ArrowUp,ArrowRight"":10,""ArrowDown,ArrowLeft"":5,""ArrowDown,ArrowRight"":17}","true","ArrowUp,ArrowLeft","false","","","revaluation","1","86","","",""
"html-keyboard-response","203","945933","0.0-4.0-2.0-1.43","spark_pilot_2","7419","8","17","Female","","","","","","","null","<div style=""font-size:60px;"">+</div>","null","fixation","","","","","","","","","","","87","","",""
"revaluation","204","951945","0.0-4.0-2.0-0.44","spark_pilot_2","7419","8","17","Female","","false","","","","","[553.2999999523163,427.10000014305115]","./assets/img/canyon/memory/0.jpg","[""ArrowUp"",""ArrowLeft""]","value training","canyon","26","{""ArrowUp,ArrowLeft"":26,""ArrowUp,ArrowRight"":10,""ArrowDown,ArrowLeft"":5,""ArrowDown,ArrowRight"":17}","true","ArrowUp,ArrowLeft","false","","","revaluation","1","88","","",""
"html-keyboard-response","205","952449","0.0-4.0-2.0-1.44","spark_pilot_2","7419","8","17","Female","","","","","","","null","<div style=""font-size:60px;"">+</div>","null","fixation","","","","","","","","","","","89","","",""
"revaluation","206","958456","0.0-4.0-2.0-0.45","spark_pilot_2","7419","8","17","Female","","false","","","","","[705.2999999523163,332.2000000476837]","./assets/img/canyon/memory/28.jpg","[""ArrowUp"",""ArrowLeft""]","value training","canyon","26","{""ArrowUp,ArrowLeft"":26,""ArrowUp,ArrowRight"":10,""ArrowDown,ArrowLeft"":5,""ArrowDown,ArrowRight"":17}","true","ArrowUp,ArrowLeft","false","","","revaluation","1","90","","",""
"html-keyboard-response","207","958960","0.0-4.0-2.0-1.45","spark_pilot_2","7419","8","17","Female","","","","","","","null","<div style=""font-size:60px;"">+</div>","null","fixation","","","","","","","","","","","91","","",""
"revaluation","208","964968","0.0-4.0-2.0-0.46","spark_pilot_2","7419","8","17","Female","","false","","","","","[585.5,331.60000014305115]","./assets/img/canyon/memory/15.jpg","[""ArrowUp"",""ArrowLeft""]","value training","canyon","26","{""ArrowUp,ArrowLeft"":26,""ArrowUp,ArrowRight"":10,""ArrowDown,ArrowLeft"":5,""ArrowDown,ArrowRight"":17}","true","ArrowUp,ArrowLeft","false","","","revaluation","1","92","","",""
"html-keyboard-response","209","965471","0.0-4.0-2.0-1.46","spark_pilot_2","7419","8","17","Female","","","","","","","null","<div style=""font-size:60px;"">+</div>","null","fixation","","","","","","","","","","","93","","",""
"revaluation","210","971484","0.0-4.0-2.0-0.47","spark_pilot_2","7419","8","17","Female","","false","","","","","[1056.4000000953674,322.89999985694885]","./assets/img/canyon/memory/12.jpg","[""ArrowUp"",""ArrowLeft""]","value training","canyon","26","{""ArrowUp,ArrowLeft"":26,""ArrowUp,ArrowRight"":10,""ArrowDown,ArrowLeft"":5,""ArrowDown,ArrowRight"":17}","true","ArrowUp,ArrowLeft","false","","","revaluation","1","94","","",""
"html-keyboard-response","211","971987","0.0-4.0-2.0-1.47","spark_pilot_2","7419","8","17","Female","","","","","","","null","<div style=""font-size:60px;"">+</div>","null","fixation","","","","","","","","","","","95","","",""
"revaluation","212","977999","0.0-4.0-2.0-0.48","spark_pilot_2","7419","8","17","Female","","false","","","","","[758.4000000953674,372.60000014305115]","./assets/img/canyon/memory/2.jpg","[""ArrowUp"",""ArrowLeft""]","value training","canyon","26","{""ArrowUp,ArrowLeft"":26,""ArrowUp,ArrowRight"":10,""ArrowDown,ArrowLeft"":5,""ArrowDown,ArrowRight"":17}","true","ArrowUp,ArrowLeft","false","","","revaluation","1","96","","",""
"html-keyboard-response","213","978504","0.0-4.0-2.0-1.48","spark_pilot_2","7419","8","17","Female","","","","","","","null","<div style=""font-size:60px;"">+</div>","null","fixation","","","","","","","","","","","97","","",""
"revaluation","214","984511","0.0-4.0-2.0-0.49","spark_pilot_2","7419","8","17","Female","","false","","","","","[680.7999999523163,329.60000014305115]","./assets/img/canyon/memory/7.jpg","[""ArrowUp"",""ArrowLeft""]","value training","canyon","26","{""ArrowUp,ArrowLeft"":26,""ArrowUp,ArrowRight"":10,""ArrowDown,ArrowLeft"":5,""ArrowDown,ArrowRight"":17}","true","ArrowUp,ArrowLeft","false","","","revaluation","1","98","","",""
"html-keyboard-response","215","985015","0.0-4.0-2.0-1.49","spark_pilot_2","7419","8","17","Female","","","","","","","null","<div style=""font-size:60px;"">+</div>","null","fixation","","","","","","","","","","","99","","",""
"learning-instructions","216","1000443","0.0-4.0-3.0-0.0","spark_pilot_2","7419","8","17","Female","","","","","","","2528","<p> Now, you will travel with a friend who will choose whether you go up or down first. </p>
            <p> On these turns, you will just see the animal that they found. You will still get to choose which chest to search for treasure.</p>","","instructions","","","","","","","","","","","","","",""
"revaluation","217","1004451","0.0-4.0-4.0-0.0","spark_pilot_2","7419","8","17","Female","","false","","","","","[932.5]","./assets/img/canyon/animals/giraffe.jpg","[""ArrowLeft""]","revaluation","canyon","2","{""ArrowUp,ArrowLeft"":2,""ArrowUp,ArrowRight"":11,""ArrowDown,ArrowLeft"":8,""ArrowDown,ArrowRight"":27}","false","ArrowUp,ArrowLeft","","","","revaluation","1","0","","",""
"html-keyboard-response","218","1004955","0.0-4.0-4.0-1.0","spark_pilot_2","7419","8","17","Female","","","","","","","null","<div style=""font-size:60px;"">+</div>","null","fixation","","","","","","","","","","","1","","",""
"revaluation","219","1008960","0.0-4.0-4.0-0.1","spark_pilot_2","7419","8","17","Female","","false","","","","","[1137.9000000953674]","./assets/img/canyon/animals/lion.jpg","[""ArrowLeft""]","revaluation","canyon","8","{""ArrowUp,ArrowLeft"":2,""ArrowUp,ArrowRight"":11,""ArrowDown,ArrowLeft"":8,""ArrowDown,ArrowRight"":27}","false","ArrowDown,ArrowLeft","","","","revaluation","1","2","","",""
"html-keyboard-response","220","1009464","0.0-4.0-4.0-1.1","spark_pilot_2","7419","8","17","Female","","","","","","","null","<div style=""font-size:60px;"">+</div>","null","fixation","","","","","","","","","","","3","","",""
"revaluation","221","1013471","0.0-4.0-4.0-0.2","spark_pilot_2","7419","8","17","Female","","false","","","","","[375.7000000476837]","./assets/img/canyon/animals/giraffe.jpg","[""ArrowRight""]","revaluation","canyon","11","{""ArrowUp,ArrowLeft"":2,""ArrowUp,ArrowRight"":11,""ArrowDown,ArrowLeft"":8,""ArrowDown,ArrowRight"":27}","true","ArrowUp,ArrowRight","","","","revaluation","1","4","","",""
"html-keyboard-response","222","1013975","0.0-4.0-4.0-1.2","spark_pilot_2","7419","8","17","Female","","","","","","","null","<div style=""font-size:60px;"">+</div>","null","fixation","","","","","","","","","","","5","","",""
"revaluation","223","1017980","0.0-4.0-4.0-0.3","spark_pilot_2","7419","8","17","Female","","false","","","","","[356]","./assets/img/canyon/animals/lion.jpg","[""ArrowRight""]","revaluation","canyon","27","{""ArrowUp,ArrowLeft"":2,""ArrowUp,ArrowRight"":11,""ArrowDown,ArrowLeft"":8,""ArrowDown,ArrowRight"":27}","true","ArrowDown,ArrowRight","","","","revaluation","1","6","","",""
"html-keyboard-response","224","1018485","0.0-4.0-4.0-1.3","spark_pilot_2","7419","8","17","Female","","","","","","","null","<div style=""font-size:60px;"">+</div>","null","fixation","","","","","","","","","","","7","","",""
"revaluation","225","1022492","0.0-4.0-4.0-0.4","spark_pilot_2","7419","8","17","Female","","false","","","","","[469.40000009536743]","./assets/img/canyon/animals/giraffe.jpg","[""ArrowRight""]","revaluation","canyon","11","{""ArrowUp,ArrowLeft"":2,""ArrowUp,ArrowRight"":11,""ArrowDown,ArrowLeft"":8,""ArrowDown,ArrowRight"":27}","true","ArrowUp,ArrowRight","","","","revaluation","1","8","","",""
"html-keyboard-response","226","1022997","0.0-4.0-4.0-1.4","spark_pilot_2","7419","8","17","Female","","","","","","","null","<div style=""font-size:60px;"">+</div>","null","fixation","","","","","","","","","","","9","","",""
"revaluation","227","1027005","0.0-4.0-4.0-0.5","spark_pilot_2","7419","8","17","Female","","false","","","","","[311.09999990463257]","./assets/img/canyon/animals/lion.jpg","[""ArrowRight""]","revaluation","canyon","27","{""ArrowUp,ArrowLeft"":2,""ArrowUp,ArrowRight"":11,""ArrowDown,ArrowLeft"":8,""ArrowDown,ArrowRight"":27}","true","ArrowDown,ArrowRight","","","","revaluation","1","10","","",""
"html-keyboard-response","228","1027509","0.0-4.0-4.0-1.5","spark_pilot_2","7419","8","17","Female","","","","","","","null","<div style=""font-size:60px;"">+</div>","null","fixation","","","","","","","","","","","11","","",""
"revaluation","229","1031517","0.0-4.0-4.0-0.6","spark_pilot_2","7419","8","17","Female","","false","","","","","[333.39999985694885]","./assets/img/canyon/animals/giraffe.jpg","[""ArrowRight""]","revaluation","canyon","11","{""ArrowUp,ArrowLeft"":2,""ArrowUp,ArrowRight"":11,""ArrowDown,ArrowLeft"":8,""ArrowDown,ArrowRight"":27}","true","ArrowUp,ArrowRight","","","","revaluation","1","12","","",""
"html-keyboard-response","230","1032021","0.0-4.0-4.0-1.6","spark_pilot_2","7419","8","17","Female","","","","","","","null","<div style=""font-size:60px;"">+</div>","null","fixation","","","","","","","","","","","13","","",""
"revaluation","231","1036028","0.0-4.0-4.0-0.7","spark_pilot_2","7419","8","17","Female","","false","","","","","[319]","./assets/img/canyon/animals/lion.jpg","[""ArrowRight""]","revaluation","canyon","27","{""ArrowUp,ArrowLeft"":2,""ArrowUp,ArrowRight"":11,""ArrowDown,ArrowLeft"":8,""ArrowDown,ArrowRight"":27}","true","ArrowDown,ArrowRight","","","","revaluation","1","14","","",""
"html-keyboard-response","232","1036532","0.0-4.0-4.0-1.7","spark_pilot_2","7419","8","17","Female","","","","","","","null","<div style=""font-size:60px;"">+</div>","null","fixation","","","","","","","","","","","15","","",""
"revaluation","233","1040537","0.0-4.0-4.0-0.8","spark_pilot_2","7419","8","17","Female","","false","","","","","[373.39999985694885]","./assets/img/canyon/animals/lion.jpg","[""ArrowRight""]","revaluation","canyon","27","{""ArrowUp,ArrowLeft"":2,""ArrowUp,ArrowRight"":11,""ArrowDown,ArrowLeft"":8,""ArrowDown,ArrowRight"":27}","true","ArrowDown,ArrowRight","","","","revaluation","1","16","","",""
"html-keyboard-response","234","1041040","0.0-4.0-4.0-1.8","spark_pilot_2","7419","8","17","Female","","","","","","","null","<div style=""font-size:60px;"">+</div>","null","fixation","","","","","","","","","","","17","","",""
"revaluation","235","1045048","0.0-4.0-4.0-0.9","spark_pilot_2","7419","8","17","Female","","false","","","","","[347.39999985694885]","./assets/img/canyon/animals/giraffe.jpg","[""ArrowRight""]","revaluation","canyon","11","{""ArrowUp,ArrowLeft"":2,""ArrowUp,ArrowRight"":11,""ArrowDown,ArrowLeft"":8,""ArrowDown,ArrowRight"":27}","true","ArrowUp,ArrowRight","","","","revaluation","1","18","","",""
"html-keyboard-response","236","1045549","0.0-4.0-4.0-1.9","spark_pilot_2","7419","8","17","Female","","","","","","","null","<div style=""font-size:60px;"">+</div>","null","fixation","","","","","","","","","","","19","","",""
"revaluation","237","1049557","0.0-4.0-4.0-0.10","spark_pilot_2","7419","8","17","Female","","false","","","","","[427.2000000476837]","./assets/img/canyon/animals/giraffe.jpg","[""ArrowRight""]","revaluation","canyon","11","{""ArrowUp,ArrowLeft"":2,""ArrowUp,ArrowRight"":11,""ArrowDown,ArrowLeft"":8,""ArrowDown,ArrowRight"":27}","true","ArrowUp,ArrowRight","","","","revaluation","1","20","","",""
"html-keyboard-response","238","1050060","0.0-4.0-4.0-1.10","spark_pilot_2","7419","8","17","Female","","","","","","","null","<div style=""font-size:60px;"">+</div>","null","fixation","","","","","","","","","","","21","","",""
"revaluation","239","1054068","0.0-4.0-4.0-0.11","spark_pilot_2","7419","8","17","Female","","false","","","","","[331.59999990463257]","./assets/img/canyon/animals/lion.jpg","[""ArrowRight""]","revaluation","canyon","27","{""ArrowUp,ArrowLeft"":2,""ArrowUp,ArrowRight"":11,""ArrowDown,ArrowLeft"":8,""ArrowDown,ArrowRight"":27}","true","ArrowDown,ArrowRight","","","","revaluation","1","22","","",""
"html-keyboard-response","240","1054572","0.0-4.0-4.0-1.11","spark_pilot_2","7419","8","17","Female","","","","","","","null","<div style=""font-size:60px;"">+</div>","null","fixation","","","","","","","","","","","23","","",""
"revaluation","241","1058577","0.0-4.0-4.0-0.12","spark_pilot_2","7419","8","17","Female","","false","","","","","[317.5]","./assets/img/canyon/animals/lion.jpg","[""ArrowRight""]","revaluation","canyon","27","{""ArrowUp,ArrowLeft"":2,""ArrowUp,ArrowRight"":11,""ArrowDown,ArrowLeft"":8,""ArrowDown,ArrowRight"":27}","true","ArrowDown,ArrowRight","","","","revaluation","1","24","","",""
"html-keyboard-response","242","1059080","0.0-4.0-4.0-1.12","spark_pilot_2","7419","8","17","Female","","","","","","","null","<div style=""font-size:60px;"">+</div>","null","fixation","","","","","","","","","","","25","","",""
"revaluation","243","1063088","0.0-4.0-4.0-0.13","spark_pilot_2","7419","8","17","Female","","false","","","","","[361.90000009536743]","./assets/img/canyon/animals/giraffe.jpg","[""ArrowRight""]","revaluation","canyon","11","{""ArrowUp,ArrowLeft"":2,""ArrowUp,ArrowRight"":11,""ArrowDown,ArrowLeft"":8,""ArrowDown,ArrowRight"":27}","true","ArrowUp,ArrowRight","","","","revaluation","1","26","","",""
"html-keyboard-response","244","1063592","0.0-4.0-4.0-1.13","spark_pilot_2","7419","8","17","Female","","","","","","","null","<div style=""font-size:60px;"">+</div>","null","fixation","","","","","","","","","","","27","","",""
"revaluation","245","1067597","0.0-4.0-4.0-0.14","spark_pilot_2","7419","8","17","Female","","false","","","","","[133.39999985694885]","./assets/img/canyon/animals/giraffe.jpg","[""ArrowRight""]","revaluation","canyon","11","{""ArrowUp,ArrowLeft"":2,""ArrowUp,ArrowRight"":11,""ArrowDown,ArrowLeft"":8,""ArrowDown,ArrowRight"":27}","true","ArrowUp,ArrowRight","","","","revaluation","1","28","","",""
"html-keyboard-response","246","1068100","0.0-4.0-4.0-1.14","spark_pilot_2","7419","8","17","Female","","","","","","","null","<div style=""font-size:60px;"">+</div>","null","fixation","","","","","","","","","","","29","","",""
"revaluation","247","1072108","0.0-4.0-4.0-0.15","spark_pilot_2","7419","8","17","Female","","false","","","","","[33.59999990463257]","./assets/img/canyon/animals/lion.jpg","[""ArrowRight""]","revaluation","canyon","27","{""ArrowUp,ArrowLeft"":2,""ArrowUp,ArrowRight"":11,""ArrowDown,ArrowLeft"":8,""ArrowDown,ArrowRight"":27}","true","ArrowDown,ArrowRight","","","","revaluation","1","30","","",""
"html-keyboard-response","248","1072612","0.0-4.0-4.0-1.15","spark_pilot_2","7419","8","17","Female","","","","","","","null","<div style=""font-size:60px;"">+</div>","null","fixation","","","","","","","","","","","31","","",""
"revaluation","249","1076620","0.0-4.0-4.0-0.16","spark_pilot_2","7419","8","17","Female","","false","","","","","[9]","./assets/img/canyon/animals/lion.jpg","[""ArrowRight""]","revaluation","canyon","27","{""ArrowUp,ArrowLeft"":2,""ArrowUp,ArrowRight"":11,""ArrowDown,ArrowLeft"":8,""ArrowDown,ArrowRight"":27}","true","ArrowDown,ArrowRight","","","","revaluation","1","32","","",""
"html-keyboard-response","250","1077124","0.0-4.0-4.0-1.16","spark_pilot_2","7419","8","17","Female","","","","","","","null","<div style=""font-size:60px;"">+</div>","null","fixation","","","","","","","","","","","33","","",""
"revaluation","251","1081128","0.0-4.0-4.0-0.17","spark_pilot_2","7419","8","17","Female","","false","","","","","[9.700000047683716]","./assets/img/canyon/animals/giraffe.jpg","[""ArrowRight""]","revaluation","canyon","11","{""ArrowUp,ArrowLeft"":2,""ArrowUp,ArrowRight"":11,""ArrowDown,ArrowLeft"":8,""ArrowDown,ArrowRight"":27}","true","ArrowUp,ArrowRight","","","","revaluation","1","34","","",""
"html-keyboard-response","252","1081632","0.0-4.0-4.0-1.17","spark_pilot_2","7419","8","17","Female","","","","","","","null","<div style=""font-size:60px;"">+</div>","null","fixation","","","","","","","","","","","35","","",""
"learning-instructions","253","1094860","0.0-4.0-5.0-0.0","spark_pilot_2","7419","8","17","Female","","","","","","","1445.0999999046326","<p> Time to play the dot game! </p>
            <p> For one minute, click the red dots on the following screen as they appear. </p>
            <p><b> Don't look away, as you will earn bonus for clicking dots</b>. </p>","","instructions","","","","","","","","","","","","","",""
"revaluation","254","1154866","0.0-4.0-6.0-0.0","spark_pilot_2","7419","8","17","Female","","","","","","","[58,74,120,80,87,64]","","","rest","","60","","","","","0","60000","","","","","",""
"learning-instructions","255","1161676","0.0-4.0-7.0-0.0","spark_pilot_2","7419","8","17","Female","","","","","","","681.5999999046326","<p> You have almost finished this part of the game! </p>
            <p> We are going to ask you to make a few more choices. </p>","","instructions","","","","","","","","","","","","","",""
"learning-instructions","256","1176452","0.0-4.0-7.0-0.1","spark_pilot_2","7419","8","17","Female","","","","","","","807.5999999046326","<p> First, you need to decide whether to go up or down. When you see each picture, use the arrow keys to make your choice. </p>
            <p><b>You will not see which animal you found, but try to get to the one that will give you the most treasure.</b></p>","","instructions","","","","","","","","","","","","","",""
"revaluation","257","1177396","0.0-4.0-8.0-0.0","spark_pilot_2","7419","8","17","Female","","false","","","","","[942.2000000476837]","./assets/img/canyon/test/3.jpg","[""ArrowUp""]","first stage test","canyon","0","{""ArrowUp,ArrowLeft"":2,""ArrowUp,ArrowRight"":11,""ArrowDown,ArrowLeft"":8,""ArrowDown,ArrowRight"":27}","false","ArrowUp","false","","","revaluation","1","","","",""
"html-keyboard-response","258","1177900","0.0-4.0-8.0-1.0","spark_pilot_2","7419","8","17","Female","","","","","","","null","<div style=""font-size:60px;"">+</div>","null","fixation","","","","","","","","","","","","","",""
"revaluation","259","1179190","0.0-4.0-8.0-0.1","spark_pilot_2","7419","8","17","Female","","false","","","","","[1288.0999999046326]","./assets/img/canyon/test/1.jpg","[""ArrowUp""]","first stage test","canyon","0","{""ArrowUp,ArrowLeft"":2,""ArrowUp,ArrowRight"":11,""ArrowDown,ArrowLeft"":8,""ArrowDown,ArrowRight"":27}","false","ArrowUp","false","","","revaluation","1","","","",""
"html-keyboard-response","260","1179693","0.0-4.0-8.0-1.1","spark_pilot_2","7419","8","17","Female","","","","","","","null","<div style=""font-size:60px;"">+</div>","null","fixation","","","","","","","","","","","","","",""
"revaluation","261","1180879","0.0-4.0-8.0-0.2","spark_pilot_2","7419","8","17","Female","","false","","","","","[1184.3000001907349]","./assets/img/canyon/test/2.jpg","[""ArrowUp""]","first stage test","canyon","0","{""ArrowUp,ArrowLeft"":2,""ArrowUp,ArrowRight"":11,""ArrowDown,ArrowLeft"":8,""ArrowDown,ArrowRight"":27}","false","ArrowUp","false","","","revaluation","1","","","",""
"html-keyboard-response","262","1181380","0.0-4.0-8.0-1.2","spark_pilot_2","7419","8","17","Female","","","","","","","null","<div style=""font-size:60px;"">+</div>","null","fixation","","","","","","","","","","","","","",""
"revaluation","263","1182419","0.0-4.0-8.0-0.3","spark_pilot_2","7419","8","17","Female","","false","","","","","[1037.2000000476837]","./assets/img/canyon/test/0.jpg","[""ArrowUp""]","first stage test","canyon","0","{""ArrowUp,ArrowLeft"":2,""ArrowUp,ArrowRight"":11,""ArrowDown,ArrowLeft"":8,""ArrowDown,ArrowRight"":27}","false","ArrowUp","false","","","revaluation","1","","","",""
"html-keyboard-response","264","1182921","0.0-4.0-8.0-1.3","spark_pilot_2","7419","8","17","Female","","","","","","","null","<div style=""font-size:60px;"">+</div>","null","fixation","","","","","","","","","","","","","",""
"learning-instructions","265","1194900","0.0-4.0-9.0-0.0","spark_pilot_2","7419","8","17","Female","","","","","","","645.7000000476837","<p> Now you will see the animals again and can search their chests for treasure. </p>
            <p> This time, you will not see how much treasure you earned, but you will earn more bonus money for making better choices. </p>","","instructions","","","","","","","","","","","","","",""
"revaluation","266","1196139","0.0-4.0-10.0-0.0","spark_pilot_2","7419","8","17","Female","","false","","","","","[1237.4000000953674]","./assets/img/canyon/animals/giraffe.jpg","[""ArrowLeft""]","second stage test","canyon","0","{""ArrowUp,ArrowLeft"":2,""ArrowUp,ArrowRight"":11,""ArrowDown,ArrowLeft"":8,""ArrowDown,ArrowRight"":27}","false","ArrowUp,ArrowLeft","","","","revaluation","1","","","",""
"html-keyboard-response","267","1196640","0.0-4.0-10.0-1.0","spark_pilot_2","7419","8","17","Female","","","","","","","null","<div style=""font-size:60px;"">+</div>","null","fixation","","","","","","","","","","","","","",""
"revaluation","268","1197172","0.0-4.0-10.0-0.1","spark_pilot_2","7419","8","17","Female","","false","","","","","[530]","./assets/img/canyon/animals/giraffe.jpg","[""ArrowLeft""]","second stage test","canyon","0","{""ArrowUp,ArrowLeft"":2,""ArrowUp,ArrowRight"":11,""ArrowDown,ArrowLeft"":8,""ArrowDown,ArrowRight"":27}","false","ArrowUp,ArrowLeft","","","","revaluation","1","","","",""
"html-keyboard-response","269","1197677","0.0-4.0-10.0-1.1","spark_pilot_2","7419","8","17","Female","","","","","","","null","<div style=""font-size:60px;"">+</div>","null","fixation","","","","","","","","","","","","","",""
"revaluation","270","1198117","0.0-4.0-10.0-0.2","spark_pilot_2","7419","8","17","Female","","false","","","","","[438.10000014305115]","./assets/img/canyon/animals/giraffe.jpg","[""ArrowLeft""]","second stage test","canyon","0","{""ArrowUp,ArrowLeft"":2,""ArrowUp,ArrowRight"":11,""ArrowDown,ArrowLeft"":8,""ArrowDown,ArrowRight"":27}","false","ArrowUp,ArrowLeft","","","","revaluation","1","","","",""
"html-keyboard-response","271","1198621","0.0-4.0-10.0-1.2","spark_pilot_2","7419","8","17","Female","","","","","","","null","<div style=""font-size:60px;"">+</div>","null","fixation","","","","","","","","","","","","","",""
"revaluation","272","1199013","0.0-4.0-10.0-0.3","spark_pilot_2","7419","8","17","Female","","false","","","","","[390.5]","./assets/img/canyon/animals/giraffe.jpg","[""ArrowLeft""]","second stage test","canyon","0","{""ArrowUp,ArrowLeft"":2,""ArrowUp,ArrowRight"":11,""ArrowDown,ArrowLeft"":8,""ArrowDown,ArrowRight"":27}","false","ArrowUp,ArrowLeft","","","","revaluation","1","","","",""
"html-keyboard-response","273","1199516","0.0-4.0-10.0-1.3","spark_pilot_2","7419","8","17","Female","","","","","","","null","<div style=""font-size:60px;"">+</div>","null","fixation","","","","","","","","","","","","","",""
"revaluation","274","1199845","0.0-4.0-10.0-0.4","spark_pilot_2","7419","8","17","Female","","false","","","","","[327.09999990463257]","./assets/img/canyon/animals/lion.jpg","[""ArrowLeft""]","second stage test","canyon","0","{""ArrowUp,ArrowLeft"":2,""ArrowUp,ArrowRight"":11,""ArrowDown,ArrowLeft"":8,""ArrowDown,ArrowRight"":27}","false","ArrowDown,ArrowLeft","","","","revaluation","1","","","",""
"html-keyboard-response","275","1200349","0.0-4.0-10.0-1.4","spark_pilot_2","7419","8","17","Female","","","","","","","null","<div style=""font-size:60px;"">+</div>","null","fixation","","","","","","","","","","","","","",""
"revaluation","276","1200989","0.0-4.0-10.0-0.5","spark_pilot_2","7419","8","17","Female","","false","","","","","[638.2999999523163]","./assets/img/canyon/animals/lion.jpg","[""ArrowRight""]","second stage test","canyon","0","{""ArrowUp,ArrowLeft"":2,""ArrowUp,ArrowRight"":11,""ArrowDown,ArrowLeft"":8,""ArrowDown,ArrowRight"":27}","true","ArrowDown,ArrowRight","","","","revaluation","1","","","",""
"html-keyboard-response","277","1201493","0.0-4.0-10.0-1.5","spark_pilot_2","7419","8","17","Female","","","","","","","null","<div style=""font-size:60px;"">+</div>","null","fixation","","","","","","","","","","","","","",""
"revaluation","278","1201890","0.0-4.0-10.0-0.6","spark_pilot_2","7419","8","17","Female","","false","","","","","[396.2999999523163]","./assets/img/canyon/animals/lion.jpg","[""ArrowRight""]","second stage test","canyon","0","{""ArrowUp,ArrowLeft"":2,""ArrowUp,ArrowRight"":11,""ArrowDown,ArrowLeft"":8,""ArrowDown,ArrowRight"":27}","true","ArrowDown,ArrowRight","","","","revaluation","1","","","",""
"html-keyboard-response","279","1202392","0.0-4.0-10.0-1.6","spark_pilot_2","7419","8","17","Female","","","","","","","null","<div style=""font-size:60px;"">+</div>","null","fixation","","","","","","","","","","","","","",""
"revaluation","280","1202761","0.0-4.0-10.0-0.7","spark_pilot_2","7419","8","17","Female","","false","","","","","[367.30000019073486]","./assets/img/canyon/animals/lion.jpg","[""ArrowRight""]","second stage test","canyon","0","{""ArrowUp,ArrowLeft"":2,""ArrowUp,ArrowRight"":11,""ArrowDown,ArrowLeft"":8,""ArrowDown,ArrowRight"":27}","true","ArrowDown,ArrowRight","","","","revaluation","1","","","",""
"html-keyboard-response","281","1203265","0.0-4.0-10.0-1.7","spark_pilot_2","7419","8","17","Female","","","","","","","null","<div style=""font-size:60px;"">+</div>","null","fixation","","","","","","","","","","","","","",""
"learning-instructions","282","1207364","0.0-4.0-0.1-0.2","spark_pilot_2","7419","8","17","Female","","","","","","","1399.7999999523163","<p> This time you are searching for treasure in the <b>ocean</b>.</p>","","instructions","","","","","","","","","","","","","",""
"learning-instructions","283","1245660","0.0-4.0-0.1-0.3","spark_pilot_2","7419","8","17","Female","","","","","","","21045.700000047684","<p><b>New</b> animals with <b>new</b> treasure chests live here. You need to explore to discover where the animal with the best treasure chest is.</p>
                    <p> Like before, once you figure out which animal has the chest with the most treasure, you should try to get to that animal and select that chest! </p>","","instructions","","","","","","","","","","","","","",""
"learning-instructions","284","1261243","0.0-4.0-1.1-0.1","spark_pilot_2","7419","8","17","Female","","","","","","","850","<p> Remember, when you see a picture of the place, use the up and down keys to <b>find an animal</b>.</p>
            <p> When you encounter an animal, you should use the left and right keys to <b>select a treasure chest</b>.</p>
            <p> Don't forget to look out for the robber! </p>","","instructions","","","","","","","","","","","","","",""
"revaluation","285","1267251","0.0-4.0-2.1-0.50","spark_pilot_2","7419","8","17","Female","","false","","","","","[1245.3999998569489,732.7000000476837]","./assets/img/ocean/memory/23.jpg","[""ArrowUp"",""ArrowLeft""]","value training","ocean","23","{""ArrowUp,ArrowLeft"":23,""ArrowUp,ArrowRight"":10,""ArrowDown,ArrowLeft"":8,""ArrowDown,ArrowRight"":30}","false","ArrowUp,ArrowLeft","false","","","original","2","0","","",""
"html-keyboard-response","286","1267752","0.0-4.0-2.1-1.50","spark_pilot_2","7419","8","17","Female","","","","","","","null","<div style=""font-size:60px;"">+</div>","null","fixation","","","","","","","","","","","1","","",""
"revaluation","287","1273760","0.0-4.0-2.1-0.51","spark_pilot_2","7419","8","17","Female","","false","","","","","[563.7000000476837,766]","./assets/img/ocean/memory/12.jpg","[""ArrowDown"",""ArrowRight""]","value training","ocean","30","{""ArrowUp,ArrowLeft"":23,""ArrowUp,ArrowRight"":10,""ArrowDown,ArrowLeft"":8,""ArrowDown,ArrowRight"":30}","true","ArrowDown,ArrowRight","false","","","original","2","2","","",""
"html-keyboard-response","288","1274265","0.0-4.0-2.1-1.51","spark_pilot_2","7419","8","17","Female","","","","","","","null","<div style=""font-size:60px;"">+</div>","null","fixation","","","","","","","","","","","3","","",""
"revaluation","289","1280271","0.0-4.0-2.1-0.52","spark_pilot_2","7419","8","17","Female","","false","","","","","[695.5,305.89999985694885]","./assets/img/ocean/memory/29.jpg","[""ArrowUp"",""ArrowRight""]","value training","ocean","10","{""ArrowUp,ArrowLeft"":23,""ArrowUp,ArrowRight"":10,""ArrowDown,ArrowLeft"":8,""ArrowDown,ArrowRight"":30}","false","ArrowUp,ArrowRight","false","","","original","2","4","","",""
"html-keyboard-response","290","1280772","0.0-4.0-2.1-1.52","spark_pilot_2","7419","8","17","Female","","","","","","","null","<div style=""font-size:60px;"">+</div>","null","fixation","","","","","","","","","","","5","","",""
"revaluation","291","1284776","0.0-4.0-2.1-0.53","spark_pilot_2","7419","8","17","Female","","false","","","","","[721.7999999523163]","./assets/img/ocean/catch/2.jpg","[""ArrowDown""]","value training","ocean","-10","{""ArrowUp,ArrowLeft"":23,""ArrowUp,ArrowRight"":10,""ArrowDown,ArrowLeft"":8,""ArrowDown,ArrowRight"":30}","false","ArrowDown","true","","","original","2","6","","",""
"html-keyboard-response","292","1285280","0.0-4.0-2.1-1.53","spark_pilot_2","7419","8","17","Female","","","","","","","null","<div style=""font-size:60px;"">+</div>","null","fixation","","","","","","","","","","","7","","",""
"revaluation","293","1291288","0.0-4.0-2.1-0.54","spark_pilot_2","7419","8","17","Female","","false","","","","","[628.7000000476837,461.10000014305115]","./assets/img/ocean/memory/0.jpg","[""ArrowDown"",""ArrowLeft""]","value training","ocean","8","{""ArrowUp,ArrowLeft"":23,""ArrowUp,ArrowRight"":10,""ArrowDown,ArrowLeft"":8,""ArrowDown,ArrowRight"":30}","false","ArrowDown,ArrowLeft","false","","","original","2","8","","",""
"html-keyboard-response","294","1291792","0.0-4.0-2.1-1.54","spark_pilot_2","7419","8","17","Female","","","","","","","null","<div style=""font-size:60px;"">+</div>","null","fixation","","","","","","","","","","","9","","",""
"revaluation","295","1297796","0.0-4.0-2.1-0.55","spark_pilot_2","7419","8","17","Female","","false","","","","","[706.3999998569489,354.60000014305115]","./assets/img/ocean/memory/31.jpg","[""ArrowDown"",""ArrowRight""]","value training","ocean","30","{""ArrowUp,ArrowLeft"":23,""ArrowUp,ArrowRight"":10,""ArrowDown,ArrowLeft"":8,""ArrowDown,ArrowRight"":30}","true","ArrowDown,ArrowRight","false","","","original","2","10","","",""
"html-keyboard-response","296","1298300","0.0-4.0-2.1-1.55","spark_pilot_2","7419","8","17","Female","","","","","","","null","<div style=""font-size:60px;"">+</div>","null","fixation","","","","","","","","","","","11","","",""
"revaluation","297","1304308","0.0-4.0-2.1-0.56","spark_pilot_2","7419","8","17","Female","","false","","","","","[777.5,357.7999999523163]","./assets/img/ocean/memory/20.jpg","[""ArrowDown"",""ArrowRight""]","value training","ocean","30","{""ArrowUp,ArrowLeft"":23,""ArrowUp,ArrowRight"":10,""ArrowDown,ArrowLeft"":8,""ArrowDown,ArrowRight"":30}","true","ArrowDown,ArrowRight","false","","","original","2","12","","",""
"html-keyboard-response","298","1304811","0.0-4.0-2.1-1.56","spark_pilot_2","7419","8","17","Female","","","","","","","null","<div style=""font-size:60px;"">+</div>","null","fixation","","","","","","","","","","","13","","",""
"revaluation","299","1310821","0.0-4.0-2.1-0.57","spark_pilot_2","7419","8","17","Female","","false","","","","","[667.1000001430511,320]","./assets/img/ocean/memory/33.jpg","[""ArrowDown"",""ArrowRight""]","value training","ocean","30","{""ArrowUp,ArrowLeft"":23,""ArrowUp,ArrowRight"":10,""ArrowDown,ArrowLeft"":8,""ArrowDown,ArrowRight"":30}","true","ArrowDown,ArrowRight","false","","","original","2","14","","",""
"html-keyboard-response","300","1311323","0.0-4.0-2.1-1.57","spark_pilot_2","7419","8","17","Female","","","","","","","null","<div style=""font-size:60px;"">+</div>","null","fixation","","","","","","","","","","","15","","",""
"revaluation","301","1317328","0.0-4.0-2.1-0.58","spark_pilot_2","7419","8","17","Female","","false","","","","","[571,286.39999985694885]","./assets/img/ocean/memory/23.jpg","[""ArrowDown"",""ArrowRight""]","value training","ocean","30","{""ArrowUp,ArrowLeft"":23,""ArrowUp,ArrowRight"":10,""ArrowDown,ArrowLeft"":8,""ArrowDown,ArrowRight"":30}","true","ArrowDown,ArrowRight","false","","","original","2","16","","",""
"html-keyboard-response","302","1317832","0.0-4.0-2.1-1.58","spark_pilot_2","7419","8","17","Female","","","","","","","null","<div style=""font-size:60px;"">+</div>","null","fixation","","","","","","","","","","","17","","",""
"revaluation","303","1323841","0.0-4.0-2.1-0.59","spark_pilot_2","7419","8","17","Female","","false","","","","","[770.5,359.7999999523163]","./assets/img/ocean/memory/40.jpg","[""ArrowDown"",""ArrowRight""]","value training","ocean","30","{""ArrowUp,ArrowLeft"":23,""ArrowUp,ArrowRight"":10,""ArrowDown,ArrowLeft"":8,""ArrowDown,ArrowRight"":30}","true","ArrowDown,ArrowRight","false","","","original","2","18","","",""
"html-keyboard-response","304","1324345","0.0-4.0-2.1-1.59","spark_pilot_2","7419","8","17","Female","","","","","","","null","<div style=""font-size:60px;"">+</div>","null","fixation","","","","","","","","","","","19","","",""
"revaluation","305","1330353","0.0-4.0-2.1-0.60","spark_pilot_2","7419","8","17","Female","","false","","","","","[702.6000001430511,290.2000000476837]","./assets/img/ocean/memory/22.jpg","[""ArrowDown"",""ArrowRight""]","value training","ocean","30","{""ArrowUp,ArrowLeft"":23,""ArrowUp,ArrowRight"":10,""ArrowDown,ArrowLeft"":8,""ArrowDown,ArrowRight"":30}","true","ArrowDown,ArrowRight","false","","","original","2","20","","",""
