"trial_type","trial_index","time_elapsed","internal_node_id","task_version","subject_id","assigned_condition","age","gender","success","timeout","failed_images","failed_audio","failed_video","browser_interaction","rt","stimulus","response","task_part","environment","score","rewardMap","correct","fullState","isCatch","numberMissed","duration","condition","order","trial_num","key_press","ground_truth","bonus"
"pavlovia","0","1403","0.0-0.0","spark_pilot_2","7416","4","17","Female","","","","","","","","","","","","","","","","","","","","","","","",""
"preload","1","11269","0.0-1.0","spark_pilot_2","7416","4","17","Female","true","false","[]","[]","[]","[{""event"":""blur"",""trial"":2,""time"":17673},{""event"":""focus"",""trial"":2,""time"":24680},{""event"":""fullscreenenter"",""trial"":2,""time"":25481}]","","","","","","","","","","","","","","","","","",""
"fullscreen","2","26447","0.0-2.0","spark_pilot_2","7416","4","17","Female","true","","","","","","","","","","","","","","","","","","","","","","",""
"audio-button-response","3","28977","0.0-3.0-0.0-0.0","spark_pilot_2","7416","4","17","Female","","","","","","","2400","./assets/audio/audiotest/turtle.mp3","2","audio_test","","","","","","","","","","","","","",""
"learning-instructions","4","37361","0.0-3.0-1.0-0.0","spark_pilot_2","7416","4","17","Female","","","","","","","1385.5999999940395","<p> Welcome! Please remember to stay in fullscreen mode and don't click away from the experiment. </p>","","instructions","","","","","","","","","","","","","",""
"learning-instructions","5","47103","0.0-3.0-1.0-0.1","spark_pilot_2","7416","4","17","Female","","","","","","","1317.199999988079","<p> Today you will be playing a game to earn treasure. </p>
            <p> At the end of the experiment, you will earn a bonus based on how much treasure you find. </p>
            <img src='./assets/img/instructions/treasure.jpg' class='instructions-image'>","","instructions","","","","","","","","","","","","","",""
"learning-instructions","6","56230","0.0-3.0-1.0-0.2","spark_pilot_2","7416","4","17","Female","","","","","","","835.0999999940395","<p> Animals have hidden treasure in treasure chests. </p>
            <p> You need to first find an animal and then choose which of their treasure chests to search. </p>
            <img src='./assets/img/space/animals/cat.jpg' class='instructions-image'>","","instructions","","","","","","","","","","","","","",""
"learning-instructions","7","70220","0.0-3.0-1.0-0.3","spark_pilot_2","7416","4","17","Female","","","","","","","783.7000000178814","<p> In each round, you will search for treasure in a different place. In the real game, there will be two rounds. </p>
            <p> You will begin with a separate, practice round where you will search for treasure in outer space. </p>
            <img src='./assets/img/space/0.jpg' class='instructions-image'>","","instructions","","","","","","","","","","","","","",""
"learning-instructions","8","82381","0.0-3.0-1.0-0.4","spark_pilot_2","7416","4","17","Female","","","","","","","717.2000000178814","<p> On every turn, you will see a picture of the place that you are in, but the specific image may be different each time. </p>
            <p> For example, both of these images mean you are in outer space. </p>
            <img src='./assets/img/instructions/outerspace.jpg' class='instructions-image'>","","instructions","","","","","","","","","","","","","",""
"learning-instructions","9","90737","0.0-3.0-1.0-0.5","spark_pilot_2","7416","4","17","Female","","","","","","","511.19999998807907","<p> You need to decide which direction to travel in. </p>
            <p> You can choose between going <b>up or down</b> by using the arrow keys. </p>
            <img src='./assets/img/instructions/updown.jpg' class='instructions-image'>","","instructions","","","","","","","","","","","","","",""
"learning-instructions","10","100316","0.0-3.0-1.0-0.6","spark_pilot_2","7416","4","17","Female","","","","","","","731.0999999940395","<p> You will have <b>2 seconds</b> to make your choice. </p>
            <p> If you do not make a choice within 2 seconds, you will not find an animal or earn treasure. </p>
            <img src='./assets/img/instructions/2seconds.jpg' class='instructions-image'>","","instructions","","","","","","","","","","","","","",""
"learning-instructions","11","108685","0.0-3.0-1.0-0.7","spark_pilot_2","7416","4","17","Female","","","","","","","1310.2000000178814","<p> Let’s try practicing that now! </p>
            <p> When you see a picture of the place you are in, press the <b>up</b> key to travel up. </p>
            <img src='./assets/img/instructions/pressUp.jpg' class='instructions-image'>","","instructions","","","","","","","","","","","","","",""
"revaluation","12","112745","0.0-3.0-2.0-0.0","spark_pilot_2","7416","4","17","Female","","false","","","","","[751.0999999940395]","./assets/img/space/0.jpg","[""ArrowUp""]","first stage practice","space","0","null","null","ArrowUp","false","","","","","","","",""
"html-keyboard-response","13","113251","0.0-3.0-2.0-1.0","spark_pilot_2","7416","4","17","Female","","","","","","","null","<div style=""font-size:60px;"">+</div>","null","fixation","","","","","","","","","","","","","",""
"revaluation","14","117267","0.0-3.0-2.0-0.1","spark_pilot_2","7416","4","17","Female","","false","","","","","[1984]","./assets/img/space/1.jpg","[""ArrowUp""]","first stage practice","space","0","null","null","ArrowUp","false","","","","","","","",""
"html-keyboard-response","15","117782","0.0-3.0-2.0-1.1","spark_pilot_2","7416","4","17","Female","","","","","","","null","<div style=""font-size:60px;"">+</div>","null","fixation","","","","","","","","","","","","","",""
"revaluation","16","121804","0.0-3.0-2.0-0.2","spark_pilot_2","7416","4","17","Female","","false","","","","","[656.6000000238419]","./assets/img/space/2.jpg","[""ArrowUp""]","first stage practice","space","0","null","null","ArrowUp","false","","","","","","","",""
"html-keyboard-response","17","122322","0.0-3.0-2.0-1.2","spark_pilot_2","7416","4","17","Female","","","","","","","null","<div style=""font-size:60px;"">+</div>","null","fixation","","","","","","","","","","","","","",""
"learning-instructions","18","127839","0.0-3.0-3.0-0.0","spark_pilot_2","7416","4","17","Female","","","","","","","782.3000000119209","<p> Great job! Now try pressing the <b>down</b> key to travel down. </p>
            <img src='./assets/img/instructions/pressDown.jpg' class='instructions-image'>","","instructions","","","","","","","","","","","","","",""
"revaluation","19","131853","0.0-3.0-4.0-0.0","spark_pilot_2","7416","4","17","Female","","false","","","","","[679]","./assets/img/space/3.jpg","[""ArrowDown""]","first stage practice","space","0","null","null","ArrowDown","false","","","","","","","",""
"html-keyboard-response","20","132356","0.0-3.0-4.0-1.0","spark_pilot_2","7416","4","17","Female","","","","","","","null","<div style=""font-size:60px;"">+</div>","null","fixation","","","","","","","","","","","","","",""
"revaluation","21","136370","0.0-3.0-4.0-0.1","spark_pilot_2","7416","4","17","Female","","false","","","","","[608.2000000178814]","./assets/img/space/4.jpg","[""ArrowDown""]","first stage practice","space","0","null","null","ArrowDown","false","","","","","","","",""
"html-keyboard-response","22","136874","0.0-3.0-4.0-1.1","spark_pilot_2","7416","4","17","Female","","","","","","","null","<div style=""font-size:60px;"">+</div>","null","fixation","","","","","","","","","","","","","",""
"revaluation","23","140886","0.0-3.0-4.0-0.2","spark_pilot_2","7416","4","17","Female","","false","","","","","[540.0999999940395]","./assets/img/space/5.jpg","[""ArrowDown""]","first stage practice","space","0","null","null","ArrowDown","false","","","","","","","",""
"html-keyboard-response","24","141388","0.0-3.0-4.0-1.2","spark_pilot_2","7416","4","17","Female","","","","","","","null","<div style=""font-size:60px;"">+</div>","null","fixation","","","","","","","","","","","","","",""
"learning-instructions","25","152443","0.0-3.0-5.0-0.0","spark_pilot_2","7416","4","17","Female","","","","","","","1167.0999999940395","<p> The animals don’t move, so the animal in the upper part of a place will stay in the upper part of a place, and the animal in the lower part of a place will stay in the lower part of a place. </p>","","instructions","","","","","","","","","","","","","",""
"learning-instructions","26","162804","0.0-3.0-5.0-0.1","spark_pilot_2","7416","4","17","Female","","","","","","","1138","<p> Each animal has two treasure chests for you to choose from. </p>
            <p> The amount of treasure in each chest can range from <b> 0 to 40 pieces.</b></p>","","instructions","","","","","","","","","","","","","",""
"learning-instructions","27","174904","0.0-3.0-5.0-0.2","spark_pilot_2","7416","4","17","Female","","","","","","","868.7999999821186","<p> You should decide which chest to search for treasure by using the <b>left</b> and <b>right</b> arrow keys. </p>
            <p><b> Pay attention to which animal is on the screen, as the animals have different treasure chests. </b></p>
            <img src='./assets/img/instructions/leftright.jpg' class='instructions-image'>","","instructions","","","","","","","","","","","","","",""
"learning-instructions","28","182446","0.0-3.0-5.0-0.3","spark_pilot_2","7416","4","17","Female","","","","","","","1151.1000000238419","<p> Let’s try practicing that now. </p>
            <p> When you see an animal, choose which chest to search for treasure. </p>
            <img src='./assets/img/instructions/chooseChest.jpg' class='instructions-image'>","","instructions","","","","","","","","","","","","","",""
"revaluation","29","186488","0.0-3.0-6.0-0.0","spark_pilot_2","7416","4","17","Female","","false","","","","","[464]","./assets/img/space/animals/rabbit.jpg","[""ArrowRight""]","second stage practice","space","23","{""ArrowUp,ArrowLeft"":3,""ArrowUp,ArrowRight"":36,""ArrowDown,ArrowLeft"":15,""ArrowDown,ArrowRight"":23}","true","ArrowDown,ArrowRight","","","","","","","","",""
"html-keyboard-response","30","186992","0.0-3.0-6.0-1.0","spark_pilot_2","7416","4","17","Female","","","","","","","null","<div style=""font-size:60px;"">+</div>","null","fixation","","","","","","","","","","","","","",""
"revaluation","31","191022","0.0-3.0-6.0-0.1","spark_pilot_2","7416","4","17","Female","","false","","","","","[438.7999999821186]","./assets/img/space/animals/cat.jpg","[""ArrowLeft""]","second stage practice","space","3","{""ArrowUp,ArrowLeft"":3,""ArrowUp,ArrowRight"":36,""ArrowDown,ArrowLeft"":15,""ArrowDown,ArrowRight"":23}","false","ArrowUp,ArrowLeft","","","","","","","","",""
"html-keyboard-response","32","191541","0.0-3.0-6.0-1.1","spark_pilot_2","7416","4","17","Female","","","","","","","null","<div style=""font-size:60px;"">+</div>","null","fixation","","","","","","","","","","","","","",""
"revaluation","33","195568","0.0-3.0-6.0-0.2","spark_pilot_2","7416","4","17","Female","","false","","","","","[657]","./assets/img/space/animals/cat.jpg","[""ArrowRight""]","second stage practice","space","36","{""ArrowUp,ArrowLeft"":3,""ArrowUp,ArrowRight"":36,""ArrowDown,ArrowLeft"":15,""ArrowDown,ArrowRight"":23}","true","ArrowUp,ArrowRight","","","","","","","","",""
"html-keyboard-response","34","196082","0.0-3.0-6.0-1.2","spark_pilot_2","7416","4","17","Female","","","","","","","null","<div style=""font-size:60px;"">+</div>","null","fixation","","","","","","","","","","","","","",""
"revaluation","35","200112","0.0-3.0-6.0-0.3","spark_pilot_2","7416","4","17","Female","","false","","","","","[489.30000001192093]","./assets/img/space/animals/rabbit.jpg","[""ArrowLeft""]","second stage practice","space","15","{""ArrowUp,ArrowLeft"":3,""ArrowUp,ArrowRight"":36,""ArrowDown,ArrowLeft"":15,""ArrowDown,ArrowRight"":23}","false","ArrowDown,ArrowLeft","","","","","","","","",""
"html-keyboard-response","36","200631","0.0-3.0-6.0-1.3","spark_pilot_2","7416","4","17","Female","","","","","","","null","<div style=""font-size:60px;"">+</div>","null","fixation","","","","","","","","","","","","","",""
"learning-instructions","37","218775","0.0-3.0-7.0-0.0","spark_pilot_2","7416","4","17","Female","","","","","","","1259.6000000238419","<p> Great job. Now let’s try putting it together. </p>
            <p> On each turn, you will first see a picture to remind you of the place you are in, and you need to choose whether to go up or down. </p>
            <p> Then you will see an animal and choose which of its chests to search for treasure. </p>","","instructions","","","","","","","","","","","","","",""
"learning-instructions","38","230165","0.0-3.0-7.0-0.1","spark_pilot_2","7416","4","17","Female","","","","","","","3089.5","<p> When you choose whether to go up or down, try to go to the animal with the chest with the most treasure. </p>
            <p> Try practicing that now! </p>","","instructions","","","","","","","","","","","","","",""
"revaluation","39","236212","0.0-3.0-8.0-0.0","spark_pilot_2","7416","4","17","Female","","false","","","","","[276.09999999403954,486.60000002384186]","./assets/img/space/6.jpg","[""ArrowUp"",""ArrowRight""]","full practice","space","36","{""ArrowUp,ArrowLeft"":3,""ArrowUp,ArrowRight"":36,""ArrowDown,ArrowLeft"":15,""ArrowDown,ArrowRight"":23}","true","ArrowUp,ArrowRight","false","","","","","","","",""
"html-keyboard-response","40","236731","0.0-3.0-8.0-1.0","spark_pilot_2","7416","4","17","Female","","","","","","","null","<div style=""font-size:60px;"">+</div>","null","fixation","","","","","","","","","","","","","",""
"revaluation","41","242772","0.0-3.0-8.0-0.1","spark_pilot_2","7416","4","17","Female","","false","","","","","[739.7000000178814,525.2000000178814]","./assets/img/space/7.jpg","[""ArrowUp"",""ArrowRight""]","full practice","space","36","{""ArrowUp,ArrowLeft"":3,""ArrowUp,ArrowRight"":36,""ArrowDown,ArrowLeft"":15,""ArrowDown,ArrowRight"":23}","true","ArrowUp,ArrowRight","false","","","","","","","",""
"html-keyboard-response","42","243291","0.0-3.0-8.0-1.1","spark_pilot_2","7416","4","17","Female","","","","","","","null","<div style=""font-size:60px;"">+</div>","null","fixation","","","","","","","","","","","","","",""
"revaluation","43","249332","0.0-3.0-8.0-0.2","spark_pilot_2","7416","4","17","Female","","false","","","","","[324.69999998807907,403.09999999403954]","./assets/img/space/8.jpg","[""ArrowDown"",""ArrowRight""]","full practice","space","23","{""ArrowUp,ArrowLeft"":3,""ArrowUp,ArrowRight"":36,""ArrowDown,ArrowLeft"":15,""ArrowDown,ArrowRight"":23}","false","ArrowDown,ArrowRight","false","","","","","","","",""
"html-keyboard-response","44","249851","0.0-3.0-8.0-1.2","spark_pilot_2","7416","4","17","Female","","","","","","","null","<div style=""font-size:60px;"">+</div>","null","fixation","","","","","","","","","","","","","",""
"revaluation","45","255892","0.0-3.0-8.0-0.3","spark_pilot_2","7416","4","17","Female","","false","","","","","[497.09999999403954,423.30000001192093]","./assets/img/space/9.jpg","[""ArrowUp"",""ArrowRight""]","full practice","space","36","{""ArrowUp,ArrowLeft"":3,""ArrowUp,ArrowRight"":36,""ArrowDown,ArrowLeft"":15,""ArrowDown,ArrowRight"":23}","true","ArrowUp,ArrowRight","false","","","","","","","",""
"html-keyboard-response","46","256411","0.0-3.0-8.0-1.3","spark_pilot_2","7416","4","17","Female","","","","","","","null","<div style=""font-size:60px;"">+</div>","null","fixation","","","","","","","","","","","","","",""
"revaluation","47","262422","0.0-3.0-8.0-0.4","spark_pilot_2","7416","4","17","Female","","false","","","","","[435.90000000596046,362.59999999403954]","./assets/img/space/10.jpg","[""ArrowDown"",""ArrowRight""]","full practice","space","23","{""ArrowUp,ArrowLeft"":3,""ArrowUp,ArrowRight"":36,""ArrowDown,ArrowLeft"":15,""ArrowDown,ArrowRight"":23}","false","ArrowDown,ArrowRight","false","","","","","","","",""
"html-keyboard-response","48","262925","0.0-3.0-8.0-1.4","spark_pilot_2","7416","4","17","Female","","","","","","","null","<div style=""font-size:60px;"">+</div>","null","fixation","","","","","","","","","","","","","",""
"learning-instructions","49","275765","0.0-3.0-9.0-0.0","spark_pilot_2","7416","4","17","Female","","","","","","","1760.199999988079","<p> One last thing: sometimes, you will see a robber. The robber can be anywhere in the picture. </p>
            <p> If you do not stop them, you will lose treasure. </p>
            <img src='./assets/img/instructions/robber.jpg' class='instructions-image'>","","instructions","","","","","","","","","","","","","",""
"learning-instructions","50","283907","0.0-3.0-9.0-0.1","spark_pilot_2","7416","4","17","Female","","","","","","","952.4000000059605","<p> If you see the robber, you should <b>press the space bar</b> rather than using the arrow keys. </p>
            <p> Try practicing that now! </p>","","instructions","","","","","","","","","","","","","",""
"revaluation","51","287951","0.0-3.0-10.0-0.0","spark_pilot_2","7416","4","17","Female","","false","","","","","[775.5]","./assets/img/space/catch/0.jpg","[""spaceBar""]","catch practice","space","0","{""ArrowUp,ArrowLeft"":3,""ArrowUp,ArrowRight"":36,""ArrowDown,ArrowLeft"":15,""ArrowDown,ArrowRight"":23}","true","spaceBar","true","","","","","","","",""
"html-keyboard-response","52","288460","0.0-3.0-10.0-1.0","spark_pilot_2","7416","4","17","Female","","","","","","","null","<div style=""font-size:60px;"">+</div>","null","fixation","","","","","","","","","","","","","",""
"revaluation","53","292491","0.0-3.0-10.0-0.1","spark_pilot_2","7416","4","17","Female","","false","","","","","[416.5]","./assets/img/space/catch/1.jpg","[""spaceBar""]","catch practice","space","0","{""ArrowUp,ArrowLeft"":3,""ArrowUp,ArrowRight"":36,""ArrowDown,ArrowLeft"":15,""ArrowDown,ArrowRight"":23}","true","spaceBar","true","","","","","","","",""
"html-keyboard-response","54","293010","0.0-3.0-10.0-1.1","spark_pilot_2","7416","4","17","Female","","","","","","","null","<div style=""font-size:60px;"">+</div>","null","fixation","","","","","","","","","","","","","",""
"revaluation","55","297036","0.0-3.0-10.0-0.2","spark_pilot_2","7416","4","17","Female","","false","","","","","[304.80000001192093]","./assets/img/space/catch/2.jpg","[""spaceBar""]","catch practice","space","0","{""ArrowUp,ArrowLeft"":3,""ArrowUp,ArrowRight"":36,""ArrowDown,ArrowLeft"":15,""ArrowDown,ArrowRight"":23}","true","spaceBar","true","","","","","","","",""
"html-keyboard-response","56","297551","0.0-3.0-10.0-1.2","spark_pilot_2","7416","4","17","Female","","","","","","","null","<div style=""font-size:60px;"">+</div>","null","fixation","","","","","","","","","","","","","",""
"learning-instructions","57","313361","0.0-3.0-11.0-0.0","spark_pilot_2","7416","4","17","Female","","","","","","","1495.5","<p> After you explore a place to find treasure, it will be time to play a different game. </p>
            <p> During this game, red dots will appear on the screen and fall down slowly. </p>
            <p><b> You must click on them before they reach the bottom. </b></p>
            <img src='./assets/img/instructions/dotGame.jpg' class='instructions-image'>","","instructions","","","","","","","","","","","","","",""
"learning-instructions","58","320016","0.0-3.0-11.0-0.1","spark_pilot_2","7416","4","17","Female","","","","","","","941.2999999821186","<p> For every dot you click, you will earn additional treasure. </p>
            <p> Let’s try practicing that now. </p>","","instructions","","","","","","","","","","","","","",""
"revaluation","59","335042","0.0-3.0-12.0-0.0","spark_pilot_2","7416","4","17","Female","","","","","","","[92]","","","rest practice","","10","","","","","0","15000","","","","","",""
"learning-instructions","60","343204","0.0-3.0-13.0-0.0-0.0","spark_pilot_2","7416","4","17","Female","","","","","","","2880.100000023842","<p> Now, you will practice a shortened version of the game to get a sense of how it all fits together. </p>","","instructions","","","","","","","","","","","","","",""
"learning-instructions","61","347464","0.0-3.0-13.0-0.0-0.1","spark_pilot_2","7416","4","17","Female","","","","","","","1060.5999999940395","<p>This time you are searching for treasure in outer space.</p>","","instructions","","","","","","","","","","","","","",""
"learning-instructions","62","363265","0.0-3.0-13.0-1.0-0.0","spark_pilot_2","7416","4","17","Female","","","","","","","999.0999999940395","<p> Remember, when you see a picture of the place, use the up and down keys to <b>find an animal</b>.</p>
            <p> When you encounter an animal, you should use the left and right keys to <b>select a treasure chest</b>.</p>
            <p> Don't forget to look out for the robber! </p>","","instructions","","","","","","","","","","","","","",""
"revaluation","63","369292","0.0-3.0-13.0-2.0-0.0","spark_pilot_2","7416","4","17","Female","","false","","","","","[781.6000000238419,405.59999999403954]","./assets/img/space/11.jpg","[""ArrowUp"",""ArrowRight""]","practice block","space","36","{""ArrowUp,ArrowLeft"":3,""ArrowUp,ArrowRight"":36,""ArrowDown,ArrowLeft"":15,""ArrowDown,ArrowRight"":23}","true","ArrowUp,ArrowRight","false","","","","","","","",""
"html-keyboard-response","64","369812","0.0-3.0-13.0-2.0-1.0","spark_pilot_2","7416","4","17","Female","","","","","","","null","<div style=""font-size:60px;"">+</div>","null","fixation","","","","","","","","","","","","","",""
"revaluation","65","375852","0.0-3.0-13.0-2.0-0.1","spark_pilot_2","7416","4","17","Female","","false","","","","","[492.09999999403954,367.80000001192093]","./assets/img/space/12.jpg","[""ArrowUp"",""ArrowRight""]","practice block","space","36","{""ArrowUp,ArrowLeft"":3,""ArrowUp,ArrowRight"":36,""ArrowDown,ArrowLeft"":15,""ArrowDown,ArrowRight"":23}","true","ArrowUp,ArrowRight","false","","","","","","","",""
"html-keyboard-response","66","376371","0.0-3.0-13.0-2.0-1.1","spark_pilot_2","7416","4","17","Female","","","","","","","null","<div style=""font-size:60px;"">+</div>","null","fixation","","","","","","","","","","","","","",""
"revaluation","67","382421","0.0-3.0-13.0-2.0-0.2","spark_pilot_2","7416","4","17","Female","","false","","","","","[459.7000000178814,417.2999999821186]","./assets/img/space/13.jpg","[""ArrowUp"",""ArrowRight""]","practice block","space","36","{""ArrowUp,ArrowLeft"":3,""ArrowUp,ArrowRight"":36,""ArrowDown,ArrowLeft"":15,""ArrowDown,ArrowRight"":23}","true","ArrowUp,ArrowRight","false","","","","","","","",""
"html-keyboard-response","68","382931","0.0-3.0-13.0-2.0-1.2","spark_pilot_2","7416","4","17","Female","","","","","","","null","<div style=""font-size:60px;"">+</div>","null","fixation","","","","","","","","","","","","","",""
"revaluation","69","388982","0.0-3.0-13.0-2.0-0.3","spark_pilot_2","7416","4","17","Female","","false","","","","","[670.3000000119209,323.5]","./assets/img/space/14.jpg","[""ArrowUp"",""ArrowRight""]","practice block","space","36","{""ArrowUp,ArrowLeft"":3,""ArrowUp,ArrowRight"":36,""ArrowDown,ArrowLeft"":15,""ArrowDown,ArrowRight"":23}","true","ArrowUp,ArrowRight","false","","","","","","","",""
"html-keyboard-response","70","389502","0.0-3.0-13.0-2.0-1.3","spark_pilot_2","7416","4","17","Female","","","","","","","null","<div style=""font-size:60px;"">+</div>","null","fixation","","","","","","","","","","","","","",""
"revaluation","71","395524","0.0-3.0-13.0-2.0-0.4","spark_pilot_2","7416","4","17","Female","","false","","","","","[636,546.7999999821186]","./assets/img/space/11.jpg","[""ArrowUp"",""ArrowRight""]","practice block","space","36","{""ArrowUp,ArrowLeft"":3,""ArrowUp,ArrowRight"":36,""ArrowDown,ArrowLeft"":15,""ArrowDown,ArrowRight"":23}","true","ArrowUp,ArrowRight","false","","","","","","","",""
"html-keyboard-response","72","396027","0.0-3.0-13.0-2.0-1.4","spark_pilot_2","7416","4","17","Female","","","","","","","null","<div style=""font-size:60px;"">+</div>","null","fixation","","","","","","","","","","","","","",""
"revaluation","73","402044","0.0-3.0-13.0-2.0-0.5","spark_pilot_2","7416","4","17","Female","","false","","","","","[571.9000000059605,385.30000001192093]","./assets/img/space/12.jpg","[""ArrowUp"",""ArrowRight""]","practice block","space","36","{""ArrowUp,ArrowLeft"":3,""ArrowUp,ArrowRight"":36,""ArrowDown,ArrowLeft"":15,""ArrowDown,ArrowRight"":23}","true","ArrowUp,ArrowRight","false","","","","","","","",""
"html-keyboard-response","74","402547","0.0-3.0-13.0-2.0-1.5","spark_pilot_2","7416","4","17","Female","","","","","","","null","<div style=""font-size:60px;"">+</div>","null","fixation","","","","","","","","","","","","","",""
"revaluation","75","408559","0.0-3.0-13.0-2.0-0.6","spark_pilot_2","7416","4","17","Female","","false","","","","","[691.0999999940395,365.59999999403954]","./assets/img/space/13.jpg","[""ArrowUp"",""ArrowRight""]","practice block","space","36","{""ArrowUp,ArrowLeft"":3,""ArrowUp,ArrowRight"":36,""ArrowDown,ArrowLeft"":15,""ArrowDown,ArrowRight"":23}","true","ArrowUp,ArrowRight","false","","","","","","","",""
"html-keyboard-response","76","409061","0.0-3.0-13.0-2.0-1.6","spark_pilot_2","7416","4","17","Female","","","","","","","null","<div style=""font-size:60px;"">+</div>","null","fixation","","","","","","","","","","","","","",""
"revaluation","77","415072","0.0-3.0-13.0-2.0-0.7","spark_pilot_2","7416","4","17","Female","","false","","","","","[578,318]","./assets/img/space/14.jpg","[""ArrowUp"",""ArrowRight""]","practice block","space","36","{""ArrowUp,ArrowLeft"":3,""ArrowUp,ArrowRight"":36,""ArrowDown,ArrowLeft"":15,""ArrowDown,ArrowRight"":23}","true","ArrowUp,ArrowRight","false","","","","","","","",""
"html-keyboard-response","78","415574","0.0-3.0-13.0-2.0-1.7","spark_pilot_2","7416","4","17","Female","","","","","","","null","<div style=""font-size:60px;"">+</div>","null","fixation","","","","","","","","","","","","","",""
"revaluation","79","419584","0.0-3.0-13.0-2.0-0.8","spark_pilot_2","7416","4","17","Female","","false","","","","","[494.59999999403954]","./assets/img/space/catch/3.jpg","[""spaceBar""]","practice block","space","0","{""ArrowUp,ArrowLeft"":3,""ArrowUp,ArrowRight"":36,""ArrowDown,ArrowLeft"":15,""ArrowDown,ArrowRight"":23}","true","spaceBar","true","","","","","","","",""
"html-keyboard-response","80","420086","0.0-3.0-13.0-2.0-1.8","spark_pilot_2","7416","4","17","Female","","","","","","","null","<div style=""font-size:60px;"">+</div>","null","fixation","","","","","","","","","","","","","",""
"learning-instructions","81","435223","0.0-3.0-13.0-3.0-0.0","spark_pilot_2","7416","4","17","Female","","","","","","","1439.9000000059605","<p> Now, you will travel with a friend who will choose whether you go up or down first. </p>
            <p> On these turns, you will just see the animal that they found. You will still get to choose which chest to search for treasure.</p>","","instructions","","","","","","","","","","","","","",""
"revaluation","82","439250","0.0-3.0-13.0-4.0-0.0","spark_pilot_2","7416","4","17","Female","","false","","","","","[707.7000000178814]","./assets/img/space/animals/rabbit.jpg","[""ArrowRight""]","practice block","space","23","{""ArrowUp,ArrowLeft"":3,""ArrowUp,ArrowRight"":36,""ArrowDown,ArrowLeft"":15,""ArrowDown,ArrowRight"":23}","true","ArrowDown,ArrowRight","","","","","","","","",""
"html-keyboard-response","83","439770","0.0-3.0-13.0-4.0-1.0","spark_pilot_2","7416","4","17","Female","","","","","","","null","<div style=""font-size:60px;"">+</div>","null","fixation","","","","","","","","","","","","","",""
"revaluation","84","443805","0.0-3.0-13.0-4.0-0.1","spark_pilot_2","7416","4","17","Female","","false","","","","","[474.19999998807907]","./assets/img/space/animals/cat.jpg","[""ArrowRight""]","practice block","space","36","{""ArrowUp,ArrowLeft"":3,""ArrowUp,ArrowRight"":36,""ArrowDown,ArrowLeft"":15,""ArrowDown,ArrowRight"":23}","true","ArrowUp,ArrowRight","","","","","","","","",""
"html-keyboard-response","85","444320","0.0-3.0-13.0-4.0-1.1","spark_pilot_2","7416","4","17","Female","","","","","","","null","<div style=""font-size:60px;"">+</div>","null","fixation","","","","","","","","","","","","","",""
"revaluation","86","448351","0.0-3.0-13.0-4.0-0.2","spark_pilot_2","7416","4","17","Female","","false","","","","","[412]","./assets/img/space/animals/rabbit.jpg","[""ArrowRight""]","practice block","space","23","{""ArrowUp,ArrowLeft"":3,""ArrowUp,ArrowRight"":36,""ArrowDown,ArrowLeft"":15,""ArrowDown,ArrowRight"":23}","true","ArrowDown,ArrowRight","","","","","","","","",""
"html-keyboard-response","87","448870","0.0-3.0-13.0-4.0-1.2","spark_pilot_2","7416","4","17","Female","","","","","","","null","<div style=""font-size:60px;"">+</div>","null","fixation","","","","","","","","","","","","","",""
"revaluation","88","452900","0.0-3.0-13.0-4.0-0.3","spark_pilot_2","7416","4","17","Female","","false","","","","","[431.10000002384186]","./assets/img/space/animals/cat.jpg","[""ArrowRight""]","practice block","space","36","{""ArrowUp,ArrowLeft"":3,""ArrowUp,ArrowRight"":36,""ArrowDown,ArrowLeft"":15,""ArrowDown,ArrowRight"":23}","true","ArrowUp,ArrowRight","","","","","","","","",""
"html-keyboard-response","89","453410","0.0-3.0-13.0-4.0-1.3","spark_pilot_2","7416","4","17","Female","","","","","","","null","<div style=""font-size:60px;"">+</div>","null","fixation","","","","","","","","","","","","","",""
"learning-instructions","90","462123","0.0-3.0-13.0-5.0-0.0","spark_pilot_2","7416","4","17","Female","","","","","","","1300.199999988079","<p> Time to play the dot game! </p>
            <p> For 15 seconds, click the red dots on the following screen as they appear. </p>","","instructions","","","","","","","","","","","","","",""
"revaluation","91","477128","0.0-3.0-13.0-6.0-0.0","spark_pilot_2","7416","4","17","Female","","","","","","","[65]","","","rest practice","","10","","","","","0","15000","","","","","",""
"learning-instructions","92","485563","0.0-3.0-13.0-7.0-0.0","spark_pilot_2","7416","4","17","Female","","","","","","","2290.2999999821186","<p> You have almost finished this part of the game! </p>
            <p> We are going to ask you to make a few more choices. </p>","","instructions","","","","","","","","","","","","","",""
"learning-instructions","93","501442","0.0-3.0-13.0-7.0-0.1","spark_pilot_2","7416","4","17","Female","","","","","","","1819.4000000059605","<p> First, you need to decide whether to go up or down. When you see each picture, use the arrow keys to make your choice. </p>
            <p><b>You will not see which animal you found, but try to get to the one that will give you the most treasure.</b></p>","","instructions","","","","","","","","","","","","","",""
"revaluation","94","502071","0.0-3.0-13.0-8.0","spark_pilot_2","7416","4","17","Female","","false","","","","","[622.7999999821186]","./assets/img/space/15.jpg","[""ArrowUp""]","practice block","space","0","{""ArrowUp,ArrowLeft"":3,""ArrowUp,ArrowRight"":36,""ArrowDown,ArrowLeft"":15,""ArrowDown,ArrowRight"":23}","true","ArrowUp","false","","","","","","","",""
"html-keyboard-response","95","502590","0.0-3.0-13.0-9.0","spark_pilot_2","7416","4","17","Female","","","","","","","null","<div style=""font-size:60px;"">+</div>","null","fixation","","","","","","","","","","","","","",""
"learning-instructions","96","515023","0.0-3.0-13.0-10.0-0.0","spark_pilot_2","7416","4","17","Female","","","","","","","1030.5","<p> Now you will see the animals again and can search their chests for treasure. </p>
            <p> This time, you will not see how much treasure you earned, but you will earn more bonus money for making better choices. </p>","","instructions","","","","","","","","","","","","","",""
"revaluation","97","515758","0.0-3.0-13.0-11.0-0.0","spark_pilot_2","7416","4","17","Female","","false","","","","","[729.0999999940395]","./assets/img/space/animals/cat.jpg","[""ArrowRight""]","practice block","space","0","{""ArrowUp,ArrowLeft"":3,""ArrowUp,ArrowRight"":36,""ArrowDown,ArrowLeft"":15,""ArrowDown,ArrowRight"":23}","true","ArrowUp,ArrowRight","","","","","","","","",""
"html-keyboard-response","98","516279","0.0-3.0-13.0-11.0-1.0","spark_pilot_2","7416","4","17","Female","","","","","","","null","<div style=""font-size:60px;"">+</div>","null","fixation","","","","","","","","","","","","","",""
"revaluation","99","516872","0.0-3.0-13.0-11.0-0.1","spark_pilot_2","7416","4","17","Female","","false","","","","","[584.9000000059605]","./assets/img/space/animals/rabbit.jpg","[""ArrowLeft""]","practice block","space","0","{""ArrowUp,ArrowLeft"":3,""ArrowUp,ArrowRight"":36,""ArrowDown,ArrowLeft"":15,""ArrowDown,ArrowRight"":23}","false","ArrowDown,ArrowLeft","","","","","","","","",""
"html-keyboard-response","100","517389","0.0-3.0-13.0-11.0-1.1","spark_pilot_2","7416","4","17","Female","","","","","","","null","<div style=""font-size:60px;"">+</div>","null","fixation","","","","","","","","","","","","","",""
"learning-instructions","101","523402","0.0-3.0-14.0-0.0","spark_pilot_2","7416","4","17","Female","","","","","","","1399.5","<p> Before you start, we're going to ask you a few questions about how the game works. </p>","","instructions","","","","","","","","","","","","","",""
"comp-q","102","530384","0.0-3.0-15.0-0.0-0.0","spark_pilot_2","7416","4","17","Female","","","","","","","1351.800000011921","<p> <b> True or False? </b> </p>
            <p> There can be 50 pieces of treasure in a given animal's chest. </p>","1","comp_question","","","","true","","","","","","","","","",""
"comp-q","103","538343","0.0-3.0-15.0-0.0-1.0","spark_pilot_2","7416","4","17","Female","","","","","","","1260.5","<p> <b> That's right! </b> The amount of treasure in each chest can range from 0 to 40 pieces. </p>","0","comp_answer","","","","","","","","","","","","","",""
"comp-q","104","546263","0.0-3.0-15.0-0.1-0.1","spark_pilot_2","7416","4","17","Female","","","","","","","761.5999999940395","<p> <b> True or False? </b> </p><p> In this game, all animals have the same amount of treasure in their left and right chests. </p>","1","comp_question","","","","true","","","","","","","","","",""
"comp-q","105","553123","0.0-3.0-15.0-0.1-1.1","spark_pilot_2","7416","4","17","Female","","","","","","","1619.699999988079","<p> <b> That's right! </b> Animals have different amounts of treasure in their treasure chests. </p>","0","comp_answer","","","","","","","","","","","","","",""
"comp-q","106","561143","0.0-3.0-15.0-0.2-0.2","spark_pilot_2","7416","4","17","Female","","","","","","","2140.4000000059605","<p> <b> True or False? </b> </p><p> The same animal will always be there if you go up in the same place. </p>","0","comp_question","","","","true","","","","","","","","","",""
"comp-q","107","569103","0.0-3.0-15.0-0.2-1.2","spark_pilot_2","7416","4","17","Female","","","","","","","1479.199999988079","<p> <b> That's right! </b> One animal lives in the upper part and one lives in the lower part of every place. </p>","0","comp_answer","","","","","","","","","","","","","",""
"comp-q","108","575573","0.0-3.0-15.0-0.3-0.3","spark_pilot_2","7416","4","17","Female","","","","","","","929.1999999880791","<p> <b> True or False? </b> </p><p> If you see a different picture, it means you are in a new place. </p>","1","comp_question","","","","true","","","","","","","","","",""
"comp-q","109","588393","0.0-3.0-15.0-0.3-1.3","spark_pilot_2","7416","4","17","Female","","","","","","","1550.4000000059605","<p> <b> That's right! </b> Lots of different images may show the same place. For example,  you may see three different images that all remind you that you are in outer space. </p>","0","comp_answer","","","","","","","","","","","","","",""
"learning-instructions","110","599323","0.0-3.0-16.0-0.0","spark_pilot_2","7416","4","17","Female","","","","","","","1049.9000000059605","<p> Good job. Remember to do your best because the amount of treasure you earn will be converted into bonus money. </p>
            <p> It’s time to start the real game! </p>","","instructions","","","","","","","","","","","","","",""
"learning-instructions","111","604812","0.0-4.0-0.0-0.0","spark_pilot_2","7416","4","17","Female","","","","","","","1859.9000000059605","<p> This time you are searching for treasure in the <b>ocean</b>.</p>","","instructions","","","","","","","","","","","","","",""
"learning-instructions","112","623853","0.0-4.0-0.0-0.1","spark_pilot_2","7416","4","17","Female","","","","","","","1699.4000000059605","<p><b>New</b> animals with <b>new</b> treasure chests live here. You need to explore to discover where the animal with the best treasure chest is.</p>
                    <p> Like before, once you figure out which animal has the chest with the most treasure, you should try to get to that animal and select that chest! </p>","","instructions","","","","","","","","","","","","","",""
"learning-instructions","113","640633","0.0-4.0-1.0-0.0","spark_pilot_2","7416","4","17","Female","","","","","","","2050.5999999940395","<p> Remember, when you see a picture of the place, use the up and down keys to <b>find an animal</b>.</p>
            <p> When you encounter an animal, you should use the left and right keys to <b>select a treasure chest</b>.</p>
            <p> Don't forget to look out for the robber! </p>","","instructions","","","","","","","","","","","","","",""
"revaluation","114","646670","0.0-4.0-2.0-0.0","spark_pilot_2","7416","4","17","Female","","false","","","","","[543.5,517.5]","./assets/img/ocean/memory/7.jpg","[""ArrowUp"",""ArrowRight""]","value training","ocean","10","{""ArrowUp,ArrowLeft"":26,""ArrowUp,ArrowRight"":10,""ArrowDown,ArrowLeft"":5,""ArrowDown,ArrowRight"":17}","false","ArrowUp,ArrowRight","false","","","revaluation","1","0","","",""
"html-keyboard-response","115","647196","0.0-4.0-2.0-1.0","spark_pilot_2","7416","4","17","Female","","","","","","","null","<div style=""font-size:60px;"">+</div>","null","fixation","","","","","","","","","","","1","","",""
"revaluation","116","651220","0.0-4.0-2.0-0.1","spark_pilot_2","7416","4","17","Female","","false","","","","","[588.1999999880791]","./assets/img/ocean/catch/2.jpg","[""spaceBar""]","value training","ocean","0","{""ArrowUp,ArrowLeft"":26,""ArrowUp,ArrowRight"":10,""ArrowDown,ArrowLeft"":5,""ArrowDown,ArrowRight"":17}","true","spaceBar","true","","","revaluation","1","2","","",""
"html-keyboard-response","117","651739","0.0-4.0-2.0-1.1","spark_pilot_2","7416","4","17","Female","","","","","","","null","<div style=""font-size:60px;"">+</div>","null","fixation","","","","","","","","","","","3","","",""
"revaluation","118","655771","0.0-4.0-2.0-0.2","spark_pilot_2","7416","4","17","Female","","false","","","","","[343.59999999403954]","./assets/img/ocean/catch/4.jpg","[""ArrowDown""]","value training","ocean","-10","{""ArrowUp,ArrowLeft"":26,""ArrowUp,ArrowRight"":10,""ArrowDown,ArrowLeft"":5,""ArrowDown,ArrowRight"":17}","false","ArrowDown","true","","","revaluation","1","4","","",""
"html-keyboard-response","119","656290","0.0-4.0-2.0-1.2","spark_pilot_2","7416","4","17","Female","","","","","","","null","<div style=""font-size:60px;"">+</div>","null","fixation","","","","","","","","","","","5","","",""
"revaluation","120","662331","0.0-4.0-2.0-0.3","spark_pilot_2","7416","4","17","Female","","false","","","","","[919.5999999940395,409.5]","./assets/img/ocean/memory/41.jpg","[""ArrowUp"",""ArrowLeft""]","value training","ocean","26","{""ArrowUp,ArrowLeft"":26,""ArrowUp,ArrowRight"":10,""ArrowDown,ArrowLeft"":5,""ArrowDown,ArrowRight"":17}","true","ArrowUp,ArrowLeft","false","","","revaluation","1","6","","",""
"html-keyboard-response","121","662850","0.0-4.0-2.0-1.3","spark_pilot_2","7416","4","17","Female","","","","","","","null","<div style=""font-size:60px;"">+</div>","null","fixation","","","","","","","","","","","7","","",""
"revaluation","122","668882","0.0-4.0-2.0-0.4","spark_pilot_2","7416","4","17","Female","","false","","","","","[639.5999999940395,501.30000001192093]","./assets/img/ocean/memory/13.jpg","[""ArrowDown"",""ArrowLeft""]","value training","ocean","5","{""ArrowUp,ArrowLeft"":26,""ArrowUp,ArrowRight"":10,""ArrowDown,ArrowLeft"":5,""ArrowDown,ArrowRight"":17}","false","ArrowDown,ArrowLeft","false","","","revaluation","1","8","","",""
"html-keyboard-response","123","669384","0.0-4.0-2.0-1.4","spark_pilot_2","7416","4","17","Female","","","","","","","null","<div style=""font-size:60px;"">+</div>","null","fixation","","","","","","","","","","","9","","",""
"revaluation","124","675397","0.0-4.0-2.0-0.5","spark_pilot_2","7416","4","17","Female","","false","","","","","[635.5999999940395,378.19999998807907]","./assets/img/ocean/memory/41.jpg","[""ArrowDown"",""ArrowRight""]","value training","ocean","17","{""ArrowUp,ArrowLeft"":26,""ArrowUp,ArrowRight"":10,""ArrowDown,ArrowLeft"":5,""ArrowDown,ArrowRight"":17}","false","ArrowDown,ArrowRight","false","","","revaluation","1","10","","",""
"html-keyboard-response","125","675900","0.0-4.0-2.0-1.5","spark_pilot_2","7416","4","17","Female","","","","","","","null","<div style=""font-size:60px;"">+</div>","null","fixation","","","","","","","","","","","11","","",""
"revaluation","126","679910","0.0-4.0-2.0-0.6","spark_pilot_2","7416","4","17","Female","","false","","","","","[489.09999999403954]","./assets/img/ocean/catch/6.jpg","[""spaceBar""]","value training","ocean","0","{""ArrowUp,ArrowLeft"":26,""ArrowUp,ArrowRight"":10,""ArrowDown,ArrowLeft"":5,""ArrowDown,ArrowRight"":17}","true","spaceBar","true","","","revaluation","1","12","","",""
"html-keyboard-response","127","680414","0.0-4.0-2.0-1.6","spark_pilot_2","7416","4","17","Female","","","","","","","null","<div style=""font-size:60px;"">+</div>","null","fixation","","","","","","","","","","","13","","",""
"revaluation","128","686424","0.0-4.0-2.0-0.7","spark_pilot_2","7416","4","17","Female","","false","","","","","[552.6999999880791,489.2999999821186]","./assets/img/ocean/memory/6.jpg","[""ArrowUp"",""ArrowRight""]","value training","ocean","10","{""ArrowUp,ArrowLeft"":26,""ArrowUp,ArrowRight"":10,""ArrowDown,ArrowLeft"":5,""ArrowDown,ArrowRight"":17}","false","ArrowUp,ArrowRight","false","","","revaluation","1","14","","",""
"html-keyboard-response","129","686926","0.0-4.0-2.0-1.7","spark_pilot_2","7416","4","17","Female","","","","","","","null","<div style=""font-size:60px;"">+</div>","null","fixation","","","","","","","","","","","15","","",""
"revaluation","130","692936","0.0-4.0-2.0-0.8","spark_pilot_2","7416","4","17","Female","","false","","","","","[761.7999999821186,393.5]","./assets/img/ocean/memory/33.jpg","[""ArrowUp"",""ArrowLeft""]","value training","ocean","26","{""ArrowUp,ArrowLeft"":26,""ArrowUp,ArrowRight"":10,""ArrowDown,ArrowLeft"":5,""ArrowDown,ArrowRight"":17}","true","ArrowUp,ArrowLeft","false","","","revaluation","1","16","","",""
"html-keyboard-response","131","693440","0.0-4.0-2.0-1.8","spark_pilot_2","7416","4","17","Female","","","","","","","null","<div style=""font-size:60px;"">+</div>","null","fixation","","","","","","","","","","","17","","",""
"revaluation","132","699451","0.0-4.0-2.0-0.9","spark_pilot_2","7416","4","17","Female","","false","","","","","[543.8000000119209,266.39999997615814]","./assets/img/ocean/memory/11.jpg","[""ArrowUp"",""ArrowLeft""]","value training","ocean","26","{""ArrowUp,ArrowLeft"":26,""ArrowUp,ArrowRight"":10,""ArrowDown,ArrowLeft"":5,""ArrowDown,ArrowRight"":17}","true","ArrowUp,ArrowLeft","false","","","revaluation","1","18","","",""
"html-keyboard-response","133","699954","0.0-4.0-2.0-1.9","spark_pilot_2","7416","4","17","Female","","","","","","","null","<div style=""font-size:60px;"">+</div>","null","fixation","","","","","","","","","","","19","","",""
"revaluation","134","705963","0.0-4.0-2.0-0.10","spark_pilot_2","7416","4","17","Female","","false","","","","","[442.30000001192093,369.69999998807907]","./assets/img/ocean/memory/1.jpg","[""ArrowUp"",""ArrowLeft""]","value training","ocean","26","{""ArrowUp,ArrowLeft"":26,""ArrowUp,ArrowRight"":10,""ArrowDown,ArrowLeft"":5,""ArrowDown,ArrowRight"":17}","true","ArrowUp,ArrowLeft","false","","","revaluation","1","20","","",""
"html-keyboard-response","135","706466","0.0-4.0-2.0-1.10","spark_pilot_2","7416","4","17","Female","","","","","","","null","<div style=""font-size:60px;"">+</div>","null","fixation","","","","","","","","","","","21","","",""
"revaluation","136","710477","0.0-4.0-2.0-0.11","spark_pilot_2","7416","4","17","Female","","false","","","","","[629.2999999821186]","./assets/img/ocean/catch/3.jpg","[""spaceBar""]","value training","ocean","0","{""ArrowUp,ArrowLeft"":26,""ArrowUp,ArrowRight"":10,""ArrowDown,ArrowLeft"":5,""ArrowDown,ArrowRight"":17}","true","spaceBar","true","","","revaluation","1","22","","",""
"html-keyboard-response","137","710979","0.0-4.0-2.0-1.11","spark_pilot_2","7416","4","17","Female","","","","","","","null","<div style=""font-size:60px;"">+</div>","null","fixation","","","","","","","","","","","23","","",""
"revaluation","138","716990","0.0-4.0-2.0-0.12","spark_pilot_2","7416","4","17","Female","","false","","","","","[664.4000000059605,607.0999999940395]","./assets/img/ocean/memory/36.jpg","[""ArrowDown"",""ArrowLeft""]","value training","ocean","5","{""ArrowUp,ArrowLeft"":26,""ArrowUp,ArrowRight"":10,""ArrowDown,ArrowLeft"":5,""ArrowDown,ArrowRight"":17}","false","ArrowDown,ArrowLeft","false","","","revaluation","1","24","","",""
"html-keyboard-response","139","717493","0.0-4.0-2.0-1.12","spark_pilot_2","7416","4","17","Female","","","","","","","null","<div style=""font-size:60px;"">+</div>","null","fixation","","","","","","","","","","","25","","",""
"revaluation","140","723505","0.0-4.0-2.0-0.13","spark_pilot_2","7416","4","17","Female","","false","","","","","[468.69999998807907,313]","./assets/img/ocean/memory/1.jpg","[""ArrowDown"",""ArrowRight""]","value training","ocean","17","{""ArrowUp,ArrowLeft"":26,""ArrowUp,ArrowRight"":10,""ArrowDown,ArrowLeft"":5,""ArrowDown,ArrowRight"":17}","false","ArrowDown,ArrowRight","false","","","revaluation","1","26","","",""
"html-keyboard-response","141","724008","0.0-4.0-2.0-1.13","spark_pilot_2","7416","4","17","Female","","","","","","","null","<div style=""font-size:60px;"">+</div>","null","fixation","","","","","","","","","","","27","","",""
"revaluation","142","730018","0.0-4.0-2.0-0.14","spark_pilot_2","7416","4","17","Female","","false","","","","","[762,401.7999999821186]","./assets/img/ocean/memory/9.jpg","[""ArrowUp"",""ArrowLeft""]","value training","ocean","26","{""ArrowUp,ArrowLeft"":26,""ArrowUp,ArrowRight"":10,""ArrowDown,ArrowLeft"":5,""ArrowDown,ArrowRight"":17}","true","ArrowUp,ArrowLeft","false","","","revaluation","1","28","","",""
"html-keyboard-response","143","730521","0.0-4.0-2.0-1.14","spark_pilot_2","7416","4","17","Female","","","","","","","null","<div style=""font-size:60px;"">+</div>","null","fixation","","","","","","","","","","","29","","",""
"revaluation","144","736531","0.0-4.0-2.0-0.15","spark_pilot_2","7416","4","17","Female","","false","","","","","[462.59999999403954,220.90000000596046]","./assets/img/ocean/memory/11.jpg","[""ArrowUp"",""ArrowLeft""]","value training","ocean","26","{""ArrowUp,ArrowLeft"":26,""ArrowUp,ArrowRight"":10,""ArrowDown,ArrowLeft"":5,""ArrowDown,ArrowRight"":17}","true","ArrowUp,ArrowLeft","false","","","revaluation","1","30","","",""
"html-keyboard-response","145","737033","0.0-4.0-2.0-1.15","spark_pilot_2","7416","4","17","Female","","","","","","","null","<div style=""font-size:60px;"">+</div>","null","fixation","","","","","","","","","","","31","","",""
"revaluation","146","743043","0.0-4.0-2.0-0.16","spark_pilot_2","7416","4","17","Female","","false","","","","","[567.5999999940395,296.7999999821186]","./assets/img/ocean/memory/19.jpg","[""ArrowUp"",""ArrowLeft""]","value training","ocean","26","{""ArrowUp,ArrowLeft"":26,""ArrowUp,ArrowRight"":10,""ArrowDown,ArrowLeft"":5,""ArrowDown,ArrowRight"":17}","true","ArrowUp,ArrowLeft","false","","","revaluation","1","32","","",""
"html-keyboard-response","147","743546","0.0-4.0-2.0-1.16","spark_pilot_2","7416","4","17","Female","","","","","","","null","<div style=""font-size:60px;"">+</div>","null","fixation","","","","","","","","","","","33","","",""
"revaluation","148","749556","0.0-4.0-2.0-0.17","spark_pilot_2","7416","4","17","Female","","false","","","","","[429,232.7000000178814]","./assets/img/ocean/memory/12.jpg","[""ArrowUp"",""ArrowLeft""]","value training","ocean","26","{""ArrowUp,ArrowLeft"":26,""ArrowUp,ArrowRight"":10,""ArrowDown,ArrowLeft"":5,""ArrowDown,ArrowRight"":17}","true","ArrowUp,ArrowLeft","false","","","revaluation","1","34","","",""
"html-keyboard-response","149","750058","0.0-4.0-2.0-1.17","spark_pilot_2","7416","4","17","Female","","","","","","","null","<div style=""font-size:60px;"">+</div>","null","fixation","","","","","","","","","","","35","","",""
"revaluation","150","756078","0.0-4.0-2.0-0.18","spark_pilot_2","7416","4","17","Female","","false","","","","","[520.6000000238419,360.2999999821186]","./assets/img/ocean/memory/26.jpg","[""ArrowUp"",""ArrowLeft""]","value training","ocean","26","{""ArrowUp,ArrowLeft"":26,""ArrowUp,ArrowRight"":10,""ArrowDown,ArrowLeft"":5,""ArrowDown,ArrowRight"":17}","true","ArrowUp,ArrowLeft","false","","","revaluation","1","36","","",""
"html-keyboard-response","151","756583","0.0-4.0-2.0-1.18","spark_pilot_2","7416","4","17","Female","","","","","","","null","<div style=""font-size:60px;"">+</div>","null","fixation","","","","","","","","","","","37","","",""
"revaluation","152","762593","0.0-4.0-2.0-0.19","spark_pilot_2","7416","4","17","Female","","false","","","","","[457.5,377.2999999821186]","./assets/img/ocean/memory/7.jpg","[""ArrowUp"",""ArrowLeft""]","value training","ocean","26","{""ArrowUp,ArrowLeft"":26,""ArrowUp,ArrowRight"":10,""ArrowDown,ArrowLeft"":5,""ArrowDown,ArrowRight"":17}","true","ArrowUp,ArrowLeft","false","","","revaluation","1","38","","",""
"html-keyboard-response","153","763096","0.0-4.0-2.0-1.19","spark_pilot_2","7416","4","17","Female","","","","","","","null","<div style=""font-size:60px;"">+</div>","null","fixation","","","","","","","","","","","39","","",""
"revaluation","154","769107","0.0-4.0-2.0-0.20","spark_pilot_2","7416","4","17","Female","","false","","","","","[403,415.40000000596046]","./assets/img/ocean/memory/18.jpg","[""ArrowUp"",""ArrowLeft""]","value training","ocean","26","{""ArrowUp,ArrowLeft"":26,""ArrowUp,ArrowRight"":10,""ArrowDown,ArrowLeft"":5,""ArrowDown,ArrowRight"":17}","true","ArrowUp,ArrowLeft","false","","","revaluation","1","40","","",""
"html-keyboard-response","155","769610","0.0-4.0-2.0-1.20","spark_pilot_2","7416","4","17","Female","","","","","","","null","<div style=""font-size:60px;"">+</div>","null","fixation","","","","","","","","","","","41","","",""
"revaluation","156","773619","0.0-4.0-2.0-0.21","spark_pilot_2","7416","4","17","Female","","false","","","","","[429.2999999821186]","./assets/img/ocean/catch/0.jpg","[""spaceBar""]","value training","ocean","0","{""ArrowUp,ArrowLeft"":26,""ArrowUp,ArrowRight"":10,""ArrowDown,ArrowLeft"":5,""ArrowDown,ArrowRight"":17}","true","spaceBar","true","","","revaluation","1","42","","",""
"html-keyboard-response","157","774127","0.0-4.0-2.0-1.21","spark_pilot_2","7416","4","17","Female","","","","","","","null","<div style=""font-size:60px;"">+</div>","null","fixation","","","","","","","","","","","43","","",""
"revaluation","158","780138","0.0-4.0-2.0-0.22","spark_pilot_2","7416","4","17","Female","","false","","","","","[463.5,321.69999998807907]","./assets/img/ocean/memory/37.jpg","[""ArrowUp"",""ArrowLeft""]","value training","ocean","26","{""ArrowUp,ArrowLeft"":26,""ArrowUp,ArrowRight"":10,""ArrowDown,ArrowLeft"":5,""ArrowDown,ArrowRight"":17}","true","ArrowUp,ArrowLeft","false","","","revaluation","1","44","","",""
"html-keyboard-response","159","780641","0.0-4.0-2.0-1.22","spark_pilot_2","7416","4","17","Female","","","","","","","null","<div style=""font-size:60px;"">+</div>","null","fixation","","","","","","","","","","","45","","",""
"revaluation","160","786652","0.0-4.0-2.0-0.23","spark_pilot_2","7416","4","17","Female","","false","","","","","[417.2000000178814,277.30000001192093]","./assets/img/ocean/memory/37.jpg","[""ArrowUp"",""ArrowLeft""]","value training","ocean","26","{""ArrowUp,ArrowLeft"":26,""ArrowUp,ArrowRight"":10,""ArrowDown,ArrowLeft"":5,""ArrowDown,ArrowRight"":17}","true","ArrowUp,ArrowLeft","false","","","revaluation","1","46","","",""
"html-keyboard-response","161","787155","0.0-4.0-2.0-1.23","spark_pilot_2","7416","4","17","Female","","","","","","","null","<div style=""font-size:60px;"">+</div>","null","fixation","","","","","","","","","","","47","","",""
"revaluation","162","793171","0.0-4.0-2.0-0.24","spark_pilot_2","7416","4","17","Female","","false","","","","","[605,396.09999999403954]","./assets/img/ocean/memory/31.jpg","[""ArrowUp"",""ArrowLeft""]","value training","ocean","26","{""ArrowUp,ArrowLeft"":26,""ArrowUp,ArrowRight"":10,""ArrowDown,ArrowLeft"":5,""ArrowDown,ArrowRight"":17}","true","ArrowUp,ArrowLeft","false","","","revaluation","1","48","","",""
"html-keyboard-response","163","793673","0.0-4.0-2.0-1.24","spark_pilot_2","7416","4","17","Female","","","","","","","null","<div style=""font-size:60px;"">+</div>","null","fixation","","","","","","","","","","","49","","",""
"revaluation","164","799683","0.0-4.0-2.0-0.25","spark_pilot_2","7416","4","17","Female","","false","","","","","[557.1000000238419,317.89999997615814]","./assets/img/ocean/memory/31.jpg","[""ArrowUp"",""ArrowLeft""]","value training","ocean","26","{""ArrowUp,ArrowLeft"":26,""ArrowUp,ArrowRight"":10,""ArrowDown,ArrowLeft"":5,""ArrowDown,ArrowRight"":17}","true","ArrowUp,ArrowLeft","false","","","revaluation","1","50","","",""
"html-keyboard-response","165","800185","0.0-4.0-2.0-1.25","spark_pilot_2","7416","4","17","Female","","","","","","","null","<div style=""font-size:60px;"">+</div>","null","fixation","","","","","","","","","","","51","","",""
"revaluation","166","806194","0.0-4.0-2.0-0.26","spark_pilot_2","7416","4","17","Female","","false","","","","","[495.7999999821186,412.89999997615814]","./assets/img/ocean/memory/23.jpg","[""ArrowUp"",""ArrowLeft""]","value training","ocean","26","{""ArrowUp,ArrowLeft"":26,""ArrowUp,ArrowRight"":10,""ArrowDown,ArrowLeft"":5,""ArrowDown,ArrowRight"":17}","true","ArrowUp,ArrowLeft","false","","","revaluation","1","52","","",""
"html-keyboard-response","167","806696","0.0-4.0-2.0-1.26","spark_pilot_2","7416","4","17","Female","","","","","","","null","<div style=""font-size:60px;"">+</div>","null","fixation","","","","","","","","","","","53","","",""
"revaluation","168","810701","0.0-4.0-2.0-0.27","spark_pilot_2","7416","4","17","Female","","false","","","","","[748.4000000059605]","./assets/img/ocean/catch/5.jpg","[""spaceBar""]","value training","ocean","0","{""ArrowUp,ArrowLeft"":26,""ArrowUp,ArrowRight"":10,""ArrowDown,ArrowLeft"":5,""ArrowDown,ArrowRight"":17}","true","spaceBar","true","","","revaluation","1","54","","",""
"html-keyboard-response","169","811202","0.0-4.0-2.0-1.27","spark_pilot_2","7416","4","17","Female","","","","","","","null","<div style=""font-size:60px;"">+</div>","null","fixation","","","","","","","","","","","55","","",""
"revaluation","170","817215","0.0-4.0-2.0-0.28","spark_pilot_2","7416","4","17","Female","","false","","","","","[468.7000000178814,397.30000001192093]","./assets/img/ocean/memory/0.jpg","[""ArrowUp"",""ArrowLeft""]","value training","ocean","26","{""ArrowUp,ArrowLeft"":26,""ArrowUp,ArrowRight"":10,""ArrowDown,ArrowLeft"":5,""ArrowDown,ArrowRight"":17}","true","ArrowUp,ArrowLeft","false","","","revaluation","1","56","","",""
"html-keyboard-response","171","817718","0.0-4.0-2.0-1.28","spark_pilot_2","7416","4","17","Female","","","","","","","null","<div style=""font-size:60px;"">+</div>","null","fixation","","","","","","","","","","","57","","",""
"revaluation","172","823742","0.0-4.0-2.0-0.29","spark_pilot_2","7416","4","17","Female","","false","","","","","[626,384.7000000178814]","./assets/img/ocean/memory/26.jpg","[""ArrowUp"",""ArrowLeft""]","value training","ocean","26","{""ArrowUp,ArrowLeft"":26,""ArrowUp,ArrowRight"":10,""ArrowDown,ArrowLeft"":5,""ArrowDown,ArrowRight"":17}","true","ArrowUp,ArrowLeft","false","","","revaluation","1","58","","",""
"html-keyboard-response","173","824245","0.0-4.0-2.0-1.29","spark_pilot_2","7416","4","17","Female","","","","","","","null","<div style=""font-size:60px;"">+</div>","null","fixation","","","","","","","","","","","59","","",""
"revaluation","174","830266","0.0-4.0-2.0-0.30","spark_pilot_2","7416","4","17","Female","","false","","","","","[568.9000000059605,496]","./assets/img/ocean/memory/32.jpg","[""ArrowUp"",""ArrowLeft""]","value training","ocean","26","{""ArrowUp,ArrowLeft"":26,""ArrowUp,ArrowRight"":10,""ArrowDown,ArrowLeft"":5,""ArrowDown,ArrowRight"":17}","true","ArrowUp,ArrowLeft","false","","","revaluation","1","60","","",""
"html-keyboard-response","175","830768","0.0-4.0-2.0-1.30","spark_pilot_2","7416","4","17","Female","","","","","","","null","<div style=""font-size:60px;"">+</div>","null","fixation","","","","","","","","","","","61","","",""
"revaluation","176","836782","0.0-4.0-2.0-0.31","spark_pilot_2","7416","4","17","Female","","false","","","","","[721.1000000238419,479.40000000596046]","./assets/img/ocean/memory/15.jpg","[""ArrowUp"",""ArrowLeft""]","value training","ocean","26","{""ArrowUp,ArrowLeft"":26,""ArrowUp,ArrowRight"":10,""ArrowDown,ArrowLeft"":5,""ArrowDown,ArrowRight"":17}","true","ArrowUp,ArrowLeft","false","","","revaluation","1","62","","",""
"html-keyboard-response","177","837285","0.0-4.0-2.0-1.31","spark_pilot_2","7416","4","17","Female","","","","","","","null","<div style=""font-size:60px;"">+</div>","null","fixation","","","","","","","","","","","63","","",""
"revaluation","178","841291","0.0-4.0-2.0-0.32","spark_pilot_2","7416","4","17","Female","","false","","","","","[588.2999999821186]","./assets/img/ocean/catch/1.jpg","[""spaceBar""]","value training","ocean","0","{""ArrowUp,ArrowLeft"":26,""ArrowUp,ArrowRight"":10,""ArrowDown,ArrowLeft"":5,""ArrowDown,ArrowRight"":17}","true","spaceBar","true","","","revaluation","1","64","","",""
"html-keyboard-response","179","841794","0.0-4.0-2.0-1.32","spark_pilot_2","7416","4","17","Female","","","","","","","null","<div style=""font-size:60px;"">+</div>","null","fixation","","","","","","","","","","","65","","",""
"revaluation","180","847803","0.0-4.0-2.0-0.33","spark_pilot_2","7416","4","17","Female","","false","","","","","[591.3999999761581,435.2000000178814]","./assets/img/ocean/memory/39.jpg","[""ArrowUp"",""ArrowLeft""]","value training","ocean","26","{""ArrowUp,ArrowLeft"":26,""ArrowUp,ArrowRight"":10,""ArrowDown,ArrowLeft"":5,""ArrowDown,ArrowRight"":17}","true","ArrowUp,ArrowLeft","false","","","revaluation","1","66","","",""
"html-keyboard-response","181","848305","0.0-4.0-2.0-1.33","spark_pilot_2","7416","4","17","Female","","","","","","","null","<div style=""font-size:60px;"">+</div>","null","fixation","","","","","","","","","","","67","","",""
"revaluation","182","854316","0.0-4.0-2.0-0.34","spark_pilot_2","7416","4","17","Female","","false","","","","","[574.7000000178814,579]","./assets/img/ocean/memory/6.jpg","[""ArrowUp"",""ArrowLeft""]","value training","ocean","26","{""ArrowUp,ArrowLeft"":26,""ArrowUp,ArrowRight"":10,""ArrowDown,ArrowLeft"":5,""ArrowDown,ArrowRight"":17}","true","ArrowUp,ArrowLeft","false","","","revaluation","1","68","","",""
"html-keyboard-response","183","854818","0.0-4.0-2.0-1.34","spark_pilot_2","7416","4","17","Female","","","","","","","null","<div style=""font-size:60px;"">+</div>","null","fixation","","","","","","","","","","","69","","",""
"revaluation","184","860834","0.0-4.0-2.0-0.35","spark_pilot_2","7416","4","17","Female","","false","","","","","[582.8000000119209,356.40000000596046]","./assets/img/ocean/memory/18.jpg","[""ArrowUp"",""ArrowLeft""]","value training","ocean","26","{""ArrowUp,ArrowLeft"":26,""ArrowUp,ArrowRight"":10,""ArrowDown,ArrowLeft"":5,""ArrowDown,ArrowRight"":17}","true","ArrowUp,ArrowLeft","false","","","revaluation","1","70","","",""
"html-keyboard-response","185","861336","0.0-4.0-2.0-1.35","spark_pilot_2","7416","4","17","Female","","","","","","","null","<div style=""font-size:60px;"">+</div>","null","fixation","","","","","","","","","","","71","","",""
"revaluation","186","867347","0.0-4.0-2.0-0.36","spark_pilot_2","7416","4","17","Female","","false","","","","","[577.3000000119209,363.5]","./assets/img/ocean/memory/9.jpg","[""ArrowUp"",""ArrowLeft""]","value training","ocean","26","{""ArrowUp,ArrowLeft"":26,""ArrowUp,ArrowRight"":10,""ArrowDown,ArrowLeft"":5,""ArrowDown,ArrowRight"":17}","true","ArrowUp,ArrowLeft","false","","","revaluation","1","72","","",""
"html-keyboard-response","187","867850","0.0-4.0-2.0-1.36","spark_pilot_2","7416","4","17","Female","","","","","","","null","<div style=""font-size:60px;"">+</div>","null","fixation","","","","","","","","","","","73","","",""
"revaluation","188","873861","0.0-4.0-2.0-0.37","spark_pilot_2","7416","4","17","Female","","false","","","","","[753.4000000059605,454.5]","./assets/img/ocean/memory/0.jpg","[""ArrowUp"",""ArrowLeft""]","value training","ocean","26","{""ArrowUp,ArrowLeft"":26,""ArrowUp,ArrowRight"":10,""ArrowDown,ArrowLeft"":5,""ArrowDown,ArrowRight"":17}","true","ArrowUp,ArrowLeft","false","","","revaluation","1","74","","",""
"html-keyboard-response","189","874364","0.0-4.0-2.0-1.37","spark_pilot_2","7416","4","17","Female","","","","","","","null","<div style=""font-size:60px;"">+</div>","null","fixation","","","","","","","","","","","75","","",""
"revaluation","190","880376","0.0-4.0-2.0-0.38","spark_pilot_2","7416","4","17","Female","","false","","","","","[485,217.90000000596046]","./assets/img/ocean/memory/36.jpg","[""ArrowUp"",""ArrowLeft""]","value training","ocean","26","{""ArrowUp,ArrowLeft"":26,""ArrowUp,ArrowRight"":10,""ArrowDown,ArrowLeft"":5,""ArrowDown,ArrowRight"":17}","true","ArrowUp,ArrowLeft","false","","","revaluation","1","76","","",""
"html-keyboard-response","191","880879","0.0-4.0-2.0-1.38","spark_pilot_2","7416","4","17","Female","","","","","","","null","<div style=""font-size:60px;"">+</div>","null","fixation","","","","","","","","","","","77","","",""
"revaluation","192","886888","0.0-4.0-2.0-0.39","spark_pilot_2","7416","4","17","Female","","false","","","","","[534.6999999880791,217.69999998807907]","./assets/img/ocean/memory/19.jpg","[""ArrowUp"",""ArrowLeft""]","value training","ocean","26","{""ArrowUp,ArrowLeft"":26,""ArrowUp,ArrowRight"":10,""ArrowDown,ArrowLeft"":5,""ArrowDown,ArrowRight"":17}","true","ArrowUp,ArrowLeft","false","","","revaluation","1","78","","",""
"html-keyboard-response","193","887390","0.0-4.0-2.0-1.39","spark_pilot_2","7416","4","17","Female","","","","","","","null","<div style=""font-size:60px;"">+</div>","null","fixation","","","","","","","","","","","79","","",""
"revaluation","194","893404","0.0-4.0-2.0-0.40","spark_pilot_2","7416","4","17","Female","","false","","","","","[552.0999999940395,318.10000002384186]","./assets/img/ocean/memory/35.jpg","[""ArrowUp"",""ArrowLeft""]","value training","ocean","26","{""ArrowUp,ArrowLeft"":26,""ArrowUp,ArrowRight"":10,""ArrowDown,ArrowLeft"":5,""ArrowDown,ArrowRight"":17}","true","ArrowUp,ArrowLeft","false","","","revaluation","1","80","","",""
"html-keyboard-response","195","893906","0.0-4.0-2.0-1.40","spark_pilot_2","7416","4","17","Female","","","","","","","null","<div style=""font-size:60px;"">+</div>","null","fixation","","","","","","","","","","","81","","",""
"revaluation","196","899930","0.0-4.0-2.0-0.41","spark_pilot_2","7416","4","17","Female","","false","","","","","[474.2000000178814,425.40000000596046]","./assets/img/ocean/memory/33.jpg","[""ArrowUp"",""ArrowLeft""]","value training","ocean","26","{""ArrowUp,ArrowLeft"":26,""ArrowUp,ArrowRight"":10,""ArrowDown,ArrowLeft"":5,""ArrowDown,ArrowRight"":17}","true","ArrowUp,ArrowLeft","false","","","revaluation","1","82","","",""
"html-keyboard-response","197","900432","0.0-4.0-2.0-1.41","spark_pilot_2","7416","4","17","Female","","","","","","","null","<div style=""font-size:60px;"">+</div>","null","fixation","","","","","","","","","","","83","","",""
"revaluation","198","904441","0.0-4.0-2.0-0.42","spark_pilot_2","7416","4","17","Female","","false","","","","","[548.9000000059605]","./assets/img/ocean/catch/7.jpg","[""spaceBar""]","value training","ocean","0","{""ArrowUp,ArrowLeft"":26,""ArrowUp,ArrowRight"":10,""ArrowDown,ArrowLeft"":5,""ArrowDown,ArrowRight"":17}","true","spaceBar","true","","","revaluation","1","84","","",""
"html-keyboard-response","199","904944","0.0-4.0-2.0-1.42","spark_pilot_2","7416","4","17","Female","","","","","","","null","<div style=""font-size:60px;"">+</div>","null","fixation","","","","","","","","","","","85","","",""
"revaluation","200","910956","0.0-4.0-2.0-0.43","spark_pilot_2","7416","4","17","Female","","false","","","","","[409.90000000596046,289.09999999403954]","./assets/img/ocean/memory/39.jpg","[""ArrowUp"",""ArrowLeft""]","value training","ocean","26","{""ArrowUp,ArrowLeft"":26,""ArrowUp,ArrowRight"":10,""ArrowDown,ArrowLeft"":5,""ArrowDown,ArrowRight"":17}","true","ArrowUp,ArrowLeft","false","","","revaluation","1","86","","",""
"html-keyboard-response","201","911458","0.0-4.0-2.0-1.43","spark_pilot_2","7416","4","17","Female","","","","","","","null","<div style=""font-size:60px;"">+</div>","null","fixation","","","","","","","","","","","87","","",""
"revaluation","202","917468","0.0-4.0-2.0-0.44","spark_pilot_2","7416","4","17","Female","","false","","","","","[534.4000000059605,317.69999998807907]","./assets/img/ocean/memory/15.jpg","[""ArrowUp"",""ArrowLeft""]","value training","ocean","26","{""ArrowUp,ArrowLeft"":26,""ArrowUp,ArrowRight"":10,""ArrowDown,ArrowLeft"":5,""ArrowDown,ArrowRight"":17}","true","ArrowUp,ArrowLeft","false","","","revaluation","1","88","","",""
"html-keyboard-response","203","917977","0.0-4.0-2.0-1.44","spark_pilot_2","7416","4","17","Female","","","","","","","null","<div style=""font-size:60px;"">+</div>","null","fixation","","","","","","","","","","","89","","",""
"revaluation","204","923986","0.0-4.0-2.0-0.45","spark_pilot_2","7416","4","17","Female","","false","","","","","[517.2999999821186,302.90000000596046]","./assets/img/ocean/memory/35.jpg","[""ArrowUp"",""ArrowLeft""]","value training","ocean","26","{""ArrowUp,ArrowLeft"":26,""ArrowUp,ArrowRight"":10,""ArrowDown,ArrowLeft"":5,""ArrowDown,ArrowRight"":17}","true","ArrowUp,ArrowLeft","false","","","revaluation","1","90","","",""
"html-keyboard-response","205","924490","0.0-4.0-2.0-1.45","spark_pilot_2","7416","4","17","Female","","","","","","","null","<div style=""font-size:60px;"">+</div>","null","fixation","","","","","","","","","","","91","","",""
"revaluation","206","930501","0.0-4.0-2.0-0.46","spark_pilot_2","7416","4","17","Female","","false","","","","","[576.8000000119209,412.59999999403954]","./assets/img/ocean/memory/32.jpg","[""ArrowUp"",""ArrowLeft""]","value training","ocean","26","{""ArrowUp,ArrowLeft"":26,""ArrowUp,ArrowRight"":10,""ArrowDown,ArrowLeft"":5,""ArrowDown,ArrowRight"":17}","true","ArrowUp,ArrowLeft","false","","","revaluation","1","92","","",""
"html-keyboard-response","207","931004","0.0-4.0-2.0-1.46","spark_pilot_2","7416","4","17","Female","","","","","","","null","<div style=""font-size:60px;"">+</div>","null","fixation","","","","","","","","","","","93","","",""
"revaluation","208","937016","0.0-4.0-2.0-0.47","spark_pilot_2","7416","4","17","Female","","false","","","","","[486.5,393.30000001192093]","./assets/img/ocean/memory/23.jpg","[""ArrowUp"",""ArrowLeft""]","value training","ocean","26","{""ArrowUp,ArrowLeft"":26,""ArrowUp,ArrowRight"":10,""ArrowDown,ArrowLeft"":5,""ArrowDown,ArrowRight"":17}","true","ArrowUp,ArrowLeft","false","","","revaluation","1","94","","",""
"html-keyboard-response","209","937518","0.0-4.0-2.0-1.47","spark_pilot_2","7416","4","17","Female","","","","","","","null","<div style=""font-size:60px;"">+</div>","null","fixation","","","","","","","","","","","95","","",""
"revaluation","210","943529","0.0-4.0-2.0-0.48","spark_pilot_2","7416","4","17","Female","","false","","","","","[476.30000001192093,348.19999998807907]","./assets/img/ocean/memory/12.jpg","[""ArrowUp"",""ArrowLeft""]","value training","ocean","26","{""ArrowUp,ArrowLeft"":26,""ArrowUp,ArrowRight"":10,""ArrowDown,ArrowLeft"":5,""ArrowDown,ArrowRight"":17}","true","ArrowUp,ArrowLeft","false","","","revaluation","1","96","","",""
"html-keyboard-response","211","944040","0.0-4.0-2.0-1.48","spark_pilot_2","7416","4","17","Female","","","","","","","null","<div style=""font-size:60px;"">+</div>","null","fixation","","","","","","","","","","","97","","",""
"revaluation","212","950050","0.0-4.0-2.0-0.49","spark_pilot_2","7416","4","17","Female","","false","","","","","[466,336.90000000596046]","./assets/img/ocean/memory/13.jpg","[""ArrowUp"",""ArrowLeft""]","value training","ocean","26","{""ArrowUp,ArrowLeft"":26,""ArrowUp,ArrowRight"":10,""ArrowDown,ArrowLeft"":5,""ArrowDown,ArrowRight"":17}","true","ArrowUp,ArrowLeft","false","","","revaluation","1","98","","",""
"html-keyboard-response","213","950553","0.0-4.0-2.0-1.49","spark_pilot_2","7416","4","17","Female","","","","","","","null","<div style=""font-size:60px;"">+</div>","null","fixation","","","","","","","","","","","99","","",""
"learning-instructions","214","965633","0.0-4.0-3.0-0.0","spark_pilot_2","7416","4","17","Female","","","","","","","1490.0999999940395","<p> Now, you will travel with a friend who will choose whether you go up or down first. </p>
            <p> On these turns, you will just see the animal that they found. You will still get to choose which chest to search for treasure.</p>","","instructions","","","","","","","","","","","","","",""
"revaluation","215","969661","0.0-4.0-4.0-0.0","spark_pilot_2","7416","4","17","Female","","false","","","","","[650.9000000059605]","./assets/img/ocean/animals/octopus.jpg","[""ArrowLeft""]","revaluation","ocean","2","{""ArrowUp,ArrowLeft"":2,""ArrowUp,ArrowRight"":11,""ArrowDown,ArrowLeft"":8,""ArrowDown,ArrowRight"":27}","false","ArrowUp,ArrowLeft","","","","revaluation","1","0","","",""
"html-keyboard-response","216","970190","0.0-4.0-4.0-1.0","spark_pilot_2","7416","4","17","Female","","","","","","","null","<div style=""font-size:60px;"">+</div>","null","fixation","","","","","","","","","","","1","","",""
"revaluation","217","974224","0.0-4.0-4.0-0.1","spark_pilot_2","7416","4","17","Female","","false","","","","","[910.6999999880791]","./assets/img/ocean/animals/seahorse.jpg","[""ArrowLeft""]","revaluation","ocean","8","{""ArrowUp,ArrowLeft"":2,""ArrowUp,ArrowRight"":11,""ArrowDown,ArrowLeft"":8,""ArrowDown,ArrowRight"":27}","false","ArrowDown,ArrowLeft","","","","revaluation","1","2","","",""
"html-keyboard-response","218","974730","0.0-4.0-4.0-1.1","spark_pilot_2","7416","4","17","Female","","","","","","","null","<div style=""font-size:60px;"">+</div>","null","fixation","","","","","","","","","","","3","","",""
"revaluation","219","978751","0.0-4.0-4.0-0.2","spark_pilot_2","7416","4","17","Female","","false","","","","","[979.1000000238419]","./assets/img/ocean/animals/seahorse.jpg","[""ArrowRight""]","revaluation","ocean","27","{""ArrowUp,ArrowLeft"":2,""ArrowUp,ArrowRight"":11,""ArrowDown,ArrowLeft"":8,""ArrowDown,ArrowRight"":27}","true","ArrowDown,ArrowRight","","","","revaluation","1","4","","",""
"html-keyboard-response","220","979270","0.0-4.0-4.0-1.2","spark_pilot_2","7416","4","17","Female","","","","","","","null","<div style=""font-size:60px;"">+</div>","null","fixation","","","","","","","","","","","5","","",""
"revaluation","221","983301","0.0-4.0-4.0-0.3","spark_pilot_2","7416","4","17","Female","","false","","","","","[536.2000000178814]","./assets/img/ocean/animals/seahorse.jpg","[""ArrowRight""]","revaluation","ocean","27","{""ArrowUp,ArrowLeft"":2,""ArrowUp,ArrowRight"":11,""ArrowDown,ArrowLeft"":8,""ArrowDown,ArrowRight"":27}","true","ArrowDown,ArrowRight","","","","revaluation","1","6","","",""
"html-keyboard-response","222","983819","0.0-4.0-4.0-1.3","spark_pilot_2","7416","4","17","Female","","","","","","","null","<div style=""font-size:60px;"">+</div>","null","fixation","","","","","","","","","","","7","","",""
"revaluation","223","987843","0.0-4.0-4.0-0.4","spark_pilot_2","7416","4","17","Female","","false","","","","","[585]","./assets/img/ocean/animals/seahorse.jpg","[""ArrowRight""]","revaluation","ocean","27","{""ArrowUp,ArrowLeft"":2,""ArrowUp,ArrowRight"":11,""ArrowDown,ArrowLeft"":8,""ArrowDown,ArrowRight"":27}","true","ArrowDown,ArrowRight","","","","revaluation","1","8","","",""
"html-keyboard-response","224","988350","0.0-4.0-4.0-1.4","spark_pilot_2","7416","4","17","Female","","","","","","","null","<div style=""font-size:60px;"">+</div>","null","fixation","","","","","","","","","","","9","","",""
"revaluation","225","992371","0.0-4.0-4.0-0.5","spark_pilot_2","7416","4","17","Female","","false","","","","","[580.6000000238419]","./assets/img/ocean/animals/octopus.jpg","[""ArrowRight""]","revaluation","ocean","11","{""ArrowUp,ArrowLeft"":2,""ArrowUp,ArrowRight"":11,""ArrowDown,ArrowLeft"":8,""ArrowDown,ArrowRight"":27}","true","ArrowUp,ArrowRight","","","","revaluation","1","10","","",""
"html-keyboard-response","226","992880","0.0-4.0-4.0-1.5","spark_pilot_2","7416","4","17","Female","","","","","","","null","<div style=""font-size:60px;"">+</div>","null","fixation","","","","","","","","","","","11","","",""
"revaluation","227","996891","0.0-4.0-4.0-0.6","spark_pilot_2","7416","4","17","Female","","false","","","","","[497.80000001192093]","./assets/img/ocean/animals/seahorse.jpg","[""ArrowRight""]","revaluation","ocean","27","{""ArrowUp,ArrowLeft"":2,""ArrowUp,ArrowRight"":11,""ArrowDown,ArrowLeft"":8,""ArrowDown,ArrowRight"":27}","true","ArrowDown,ArrowRight","","","","revaluation","1","12","","",""
"html-keyboard-response","228","997394","0.0-4.0-4.0-1.6","spark_pilot_2","7416","4","17","Female","","","","","","","null","<div style=""font-size:60px;"">+</div>","null","fixation","","","","","","","","","","","13","","",""
"revaluation","229","1001404","0.0-4.0-4.0-0.7","spark_pilot_2","7416","4","17","Female","","false","","","","","[527.5999999940395]","./assets/img/ocean/animals/seahorse.jpg","[""ArrowRight""]","revaluation","ocean","27","{""ArrowUp,ArrowLeft"":2,""ArrowUp,ArrowRight"":11,""ArrowDown,ArrowLeft"":8,""ArrowDown,ArrowRight"":27}","true","ArrowDown,ArrowRight","","","","revaluation","1","14","","",""
"html-keyboard-response","230","1001907","0.0-4.0-4.0-1.7","spark_pilot_2","7416","4","17","Female","","","","","","","null","<div style=""font-size:60px;"">+</div>","null","fixation","","","","","","","","","","","15","","",""
"revaluation","231","1005916","0.0-4.0-4.0-0.8","spark_pilot_2","7416","4","17","Female","","false","","","","","[726.4000000059605]","./assets/img/ocean/animals/octopus.jpg","[""ArrowRight""]","revaluation","ocean","11","{""ArrowUp,ArrowLeft"":2,""ArrowUp,ArrowRight"":11,""ArrowDown,ArrowLeft"":8,""ArrowDown,ArrowRight"":27}","true","ArrowUp,ArrowRight","","","","revaluation","1","16","","",""
"html-keyboard-response","232","1006419","0.0-4.0-4.0-1.8","spark_pilot_2","7416","4","17","Female","","","","","","","null","<div style=""font-size:60px;"">+</div>","null","fixation","","","","","","","","","","","17","","",""
"revaluation","233","1010428","0.0-4.0-4.0-0.9","spark_pilot_2","7416","4","17","Female","","false","","","","","[511.40000000596046]","./assets/img/ocean/animals/octopus.jpg","[""ArrowRight""]","revaluation","ocean","11","{""ArrowUp,ArrowLeft"":2,""ArrowUp,ArrowRight"":11,""ArrowDown,ArrowLeft"":8,""ArrowDown,ArrowRight"":27}","true","ArrowUp,ArrowRight","","","","revaluation","1","18","","",""
"html-keyboard-response","234","1010931","0.0-4.0-4.0-1.9","spark_pilot_2","7416","4","17","Female","","","","","","","null","<div style=""font-size:60px;"">+</div>","null","fixation","","","","","","","","","","","19","","",""
"revaluation","235","1014941","0.0-4.0-4.0-0.10","spark_pilot_2","7416","4","17","Female","","false","","","","","[416.40000000596046]","./assets/img/ocean/animals/octopus.jpg","[""ArrowRight""]","revaluation","ocean","11","{""ArrowUp,ArrowLeft"":2,""ArrowUp,ArrowRight"":11,""ArrowDown,ArrowLeft"":8,""ArrowDown,ArrowRight"":27}","true","ArrowUp,ArrowRight","","","","revaluation","1","20","","",""
"html-keyboard-response","236","1015445","0.0-4.0-4.0-1.10","spark_pilot_2","7416","4","17","Female","","","","","","","null","<div style=""font-size:60px;"">+</div>","null","fixation","","","","","","","","","","","21","","",""
"revaluation","237","1019454","0.0-4.0-4.0-0.11","spark_pilot_2","7416","4","17","Female","","false","","","","","[484.59999999403954]","./assets/img/ocean/animals/seahorse.jpg","[""ArrowRight""]","revaluation","ocean","27","{""ArrowUp,ArrowLeft"":2,""ArrowUp,ArrowRight"":11,""ArrowDown,ArrowLeft"":8,""ArrowDown,ArrowRight"":27}","true","ArrowDown,ArrowRight","","","","revaluation","1","22","","",""
"html-keyboard-response","238","1019957","0.0-4.0-4.0-1.11","spark_pilot_2","7416","4","17","Female","","","","","","","null","<div style=""font-size:60px;"">+</div>","null","fixation","","","","","","","","","","","23","","",""
"revaluation","239","1023968","0.0-4.0-4.0-0.12","spark_pilot_2","7416","4","17","Female","","false","","","","","[624.5]","./assets/img/ocean/animals/seahorse.jpg","[""ArrowRight""]","revaluation","ocean","27","{""ArrowUp,ArrowLeft"":2,""ArrowUp,ArrowRight"":11,""ArrowDown,ArrowLeft"":8,""ArrowDown,ArrowRight"":27}","true","ArrowDown,ArrowRight","","","","revaluation","1","24","","",""
"html-keyboard-response","240","1024471","0.0-4.0-4.0-1.12","spark_pilot_2","7416","4","17","Female","","","","","","","null","<div style=""font-size:60px;"">+</div>","null","fixation","","","","","","","","","","","25","","",""
"revaluation","241","1028480","0.0-4.0-4.0-0.13","spark_pilot_2","7416","4","17","Female","","false","","","","","[494]","./assets/img/ocean/animals/octopus.jpg","[""ArrowRight""]","revaluation","ocean","11","{""ArrowUp,ArrowLeft"":2,""ArrowUp,ArrowRight"":11,""ArrowDown,ArrowLeft"":8,""ArrowDown,ArrowRight"":27}","true","ArrowUp,ArrowRight","","","","revaluation","1","26","","",""
"html-keyboard-response","242","1028996","0.0-4.0-4.0-1.13","spark_pilot_2","7416","4","17","Female","","","","","","","null","<div style=""font-size:60px;"">+</div>","null","fixation","","","","","","","","","","","27","","",""
"revaluation","243","1033006","0.0-4.0-4.0-0.14","spark_pilot_2","7416","4","17","Female","","false","","","","","[331]","./assets/img/ocean/animals/seahorse.jpg","[""ArrowRight""]","revaluation","ocean","27","{""ArrowUp,ArrowLeft"":2,""ArrowUp,ArrowRight"":11,""ArrowDown,ArrowLeft"":8,""ArrowDown,ArrowRight"":27}","true","ArrowDown,ArrowRight","","","","revaluation","1","28","","",""
"html-keyboard-response","244","1033509","0.0-4.0-4.0-1.14","spark_pilot_2","7416","4","17","Female","","","","","","","null","<div style=""font-size:60px;"">+</div>","null","fixation","","","","","","","","","","","29","","",""
"revaluation","245","1037520","0.0-4.0-4.0-0.15","spark_pilot_2","7416","4","17","Female","","false","","","","","[568.2999999821186]","./assets/img/ocean/animals/octopus.jpg","[""ArrowRight""]","revaluation","ocean","11","{""ArrowUp,ArrowLeft"":2,""ArrowUp,ArrowRight"":11,""ArrowDown,ArrowLeft"":8,""ArrowDown,ArrowRight"":27}","true","ArrowUp,ArrowRight","","","","revaluation","1","30","","",""
"html-keyboard-response","246","1038031","0.0-4.0-4.0-1.15","spark_pilot_2","7416","4","17","Female","","","","","","","null","<div style=""font-size:60px;"">+</div>","null","fixation","","","","","","","","","","","31","","",""
"revaluation","247","1042040","0.0-4.0-4.0-0.16","spark_pilot_2","7416","4","17","Female","","false","","","","","[565.8999999761581]","./assets/img/ocean/animals/octopus.jpg","[""ArrowRight""]","revaluation","ocean","11","{""ArrowUp,ArrowLeft"":2,""ArrowUp,ArrowRight"":11,""ArrowDown,ArrowLeft"":8,""ArrowDown,ArrowRight"":27}","true","ArrowUp,ArrowRight","","","","revaluation","1","32","","",""
"html-keyboard-response","248","1042547","0.0-4.0-4.0-1.16","spark_pilot_2","7416","4","17","Female","","","","","","","null","<div style=""font-size:60px;"">+</div>","null","fixation","","","","","","","","","","","33","","",""
"revaluation","249","1046556","0.0-4.0-4.0-0.17","spark_pilot_2","7416","4","17","Female","","false","","","","","[418.5]","./assets/img/ocean/animals/octopus.jpg","[""ArrowRight""]","revaluation","ocean","11","{""ArrowUp,ArrowLeft"":2,""ArrowUp,ArrowRight"":11,""ArrowDown,ArrowLeft"":8,""ArrowDown,ArrowRight"":27}","true","ArrowUp,ArrowRight","","","","revaluation","1","34","","",""
"html-keyboard-response","250","1047059","0.0-4.0-4.0-1.17","spark_pilot_2","7416","4","17","Female","","","","","","","null","<div style=""font-size:60px;"">+</div>","null","fixation","","","","","","","","","","","35","","",""
"learning-instructions","251","1060618","0.0-4.0-5.0-0.0","spark_pilot_2","7416","4","17","Female","","","","","","","759.5","<p> Time to play the dot game! </p>
            <p> For one minute, click the red dots on the following screen as they appear. </p>
            <p><b> Don't look away, as you will earn bonus for clicking dots</b>. </p>","","instructions","","","","","","","","","","","","","",""
"revaluation","252","1120622","0.0-4.0-6.0-0.0","spark_pilot_2","7416","4","17","Female","","","","","","","[69,64,60,59,44,65]","","","rest","","60","","","","","0","60000","","","","","",""
"learning-instructions","253","1128801","0.0-4.0-7.0-0.0","spark_pilot_2","7416","4","17","Female","","","","","","","1359.2999999821186","<p> You have almost finished this part of the game! </p>
            <p> We are going to ask you to make a few more choices. </p>","","instructions","","","","","","","","","","","","","",""
"learning-instructions","254","1143318","0.0-4.0-7.0-0.1","spark_pilot_2","7416","4","17","Female","","","","","","","544.4000000059605","<p> First, you need to decide whether to go up or down. When you see each picture, use the arrow keys to make your choice. </p>
            <p><b>You will not see which animal you found, but try to get to the one that will give you the most treasure.</b></p>","","instructions","","","","","","","","","","","","","",""
"revaluation","255","1143799","0.0-4.0-8.0-0.0","spark_pilot_2","7416","4","17","Female","","false","","","","","[474.40000000596046]","./assets/img/ocean/test/3.jpg","[""ArrowUp""]","first stage test","ocean","0","{""ArrowUp,ArrowLeft"":2,""ArrowUp,ArrowRight"":11,""ArrowDown,ArrowLeft"":8,""ArrowDown,ArrowRight"":27}","false","ArrowUp","false","","","revaluation","1","","","",""
"html-keyboard-response","256","1144321","0.0-4.0-8.0-1.0","spark_pilot_2","7416","4","17","Female","","","","","","","null","<div style=""font-size:60px;"">+</div>","null","fixation","","","","","","","","","","","","","",""
"revaluation","257","1145130","0.0-4.0-8.0-0.1","spark_pilot_2","7416","4","17","Female","","false","","","","","[809.3000000119209]","./assets/img/ocean/test/0.jpg","[""ArrowDown""]","first stage test","ocean","0","{""ArrowUp,ArrowLeft"":2,""ArrowUp,ArrowRight"":11,""ArrowDown,ArrowLeft"":8,""ArrowDown,ArrowRight"":27}","true","ArrowDown","false","","","revaluation","1","","","",""
"html-keyboard-response","258","1145633","0.0-4.0-8.0-1.1","spark_pilot_2","7416","4","17","Female","","","","","","","null","<div style=""font-size:60px;"">+</div>","null","fixation","","","","","","","","","","","","","",""
"revaluation","259","1146308","0.0-4.0-8.0-0.2","spark_pilot_2","7416","4","17","Female","","false","","","","","[668.1999999880791]","./assets/img/ocean/test/1.jpg","[""ArrowUp""]","first stage test","ocean","0","{""ArrowUp,ArrowLeft"":2,""ArrowUp,ArrowRight"":11,""ArrowDown,ArrowLeft"":8,""ArrowDown,ArrowRight"":27}","false","ArrowUp","false","","","revaluation","1","","","",""
"html-keyboard-response","260","1146813","0.0-4.0-8.0-1.2","spark_pilot_2","7416","4","17","Female","","","","","","","null","<div style=""font-size:60px;"">+</div>","null","fixation","","","","","","","","","","","","","",""
"revaluation","261","1147400","0.0-4.0-8.0-0.3","spark_pilot_2","7416","4","17","Female","","false","","","","","[580.1999999880791]","./assets/img/ocean/test/2.jpg","[""ArrowUp""]","first stage test","ocean","0","{""ArrowUp,ArrowLeft"":2,""ArrowUp,ArrowRight"":11,""ArrowDown,ArrowLeft"":8,""ArrowDown,ArrowRight"":27}","false","ArrowUp","false","","","revaluation","1","","","",""
"html-keyboard-response","262","1147903","0.0-4.0-8.0-1.3","spark_pilot_2","7416","4","17","Female","","","","","","","null","<div style=""font-size:60px;"">+</div>","null","fixation","","","","","","","","","","","","","",""
"learning-instructions","263","1160426","0.0-4.0-9.0-0.0","spark_pilot_2","7416","4","17","Female","","","","","","","1180.4000000059605","<p> Now you will see the animals again and can search their chests for treasure. </p>
            <p> This time, you will not see how much treasure you earned, but you will earn more bonus money for making better choices. </p>","","instructions","","","","","","","","","","","","","",""
"revaluation","264","1161437","0.0-4.0-10.0-0.0","spark_pilot_2","7416","4","17","Female","","false","","","","","[1004.7000000178814]","./assets/img/ocean/animals/octopus.jpg","[""ArrowRight""]","second stage test","ocean","0","{""ArrowUp,ArrowLeft"":2,""ArrowUp,ArrowRight"":11,""ArrowDown,ArrowLeft"":8,""ArrowDown,ArrowRight"":27}","true","ArrowUp,ArrowRight","","","","revaluation","1","","","",""
"html-keyboard-response","265","1161953","0.0-4.0-10.0-1.0","spark_pilot_2","7416","4","17","Female","","","","","","","null","<div style=""font-size:60px;"">+</div>","null","fixation","","","","","","","","","","","","","",""
"revaluation","266","1162808","0.0-4.0-10.0-0.1","spark_pilot_2","7416","4","17","Female","","false","","","","","[848.1000000238419]","./assets/img/ocean/animals/octopus.jpg","[""ArrowLeft""]","second stage test","ocean","0","{""ArrowUp,ArrowLeft"":2,""ArrowUp,ArrowRight"":11,""ArrowDown,ArrowLeft"":8,""ArrowDown,ArrowRight"":27}","false","ArrowUp,ArrowLeft","","","","revaluation","1","","","",""
"html-keyboard-response","267","1163313","0.0-4.0-10.0-1.1","spark_pilot_2","7416","4","17","Female","","","","","","","null","<div style=""font-size:60px;"">+</div>","null","fixation","","","","","","","","","","","","","",""
"revaluation","268","1163775","0.0-4.0-10.0-0.2","spark_pilot_2","7416","4","17","Female","","false","","","","","[455.39999997615814]","./assets/img/ocean/animals/octopus.jpg","[""ArrowLeft""]","second stage test","ocean","0","{""ArrowUp,ArrowLeft"":2,""ArrowUp,ArrowRight"":11,""ArrowDown,ArrowLeft"":8,""ArrowDown,ArrowRight"":27}","false","ArrowUp,ArrowLeft","","","","revaluation","1","","","",""
"html-keyboard-response","269","1164294","0.0-4.0-10.0-1.2","spark_pilot_2","7416","4","17","Female","","","","","","","null","<div style=""font-size:60px;"">+</div>","null","fixation","","","","","","","","","","","","","",""
"revaluation","270","1164678","0.0-4.0-10.0-0.3","spark_pilot_2","7416","4","17","Female","","false","","","","","[378.5]","./assets/img/ocean/animals/octopus.jpg","[""ArrowLeft""]","second stage test","ocean","0","{""ArrowUp,ArrowLeft"":2,""ArrowUp,ArrowRight"":11,""ArrowDown,ArrowLeft"":8,""ArrowDown,ArrowRight"":27}","false","ArrowUp,ArrowLeft","","","","revaluation","1","","","",""
"html-keyboard-response","271","1165194","0.0-4.0-10.0-1.3","spark_pilot_2","7416","4","17","Female","","","","","","","null","<div style=""font-size:60px;"">+</div>","null","fixation","","","","","","","","","","","","","",""
"revaluation","272","1166033","0.0-4.0-10.0-0.4","spark_pilot_2","7416","4","17","Female","","false","","","","","[831.8000000119209]","./assets/img/ocean/animals/seahorse.jpg","[""ArrowRight""]","second stage test","ocean","0","{""ArrowUp,ArrowLeft"":2,""ArrowUp,ArrowRight"":11,""ArrowDown,ArrowLeft"":8,""ArrowDown,ArrowRight"":27}","true","ArrowDown,ArrowRight","","","","revaluation","1","","","",""
"html-keyboard-response","273","1166553","0.0-4.0-10.0-1.4","spark_pilot_2","7416","4","17","Female","","","","","","","null","<div style=""font-size:60px;"">+</div>","null","fixation","","","","","","","","","","","","","",""
"revaluation","274","1167000","0.0-4.0-10.0-0.5","spark_pilot_2","7416","4","17","Female","","false","","","","","[436.5]","./assets/img/ocean/animals/seahorse.jpg","[""ArrowRight""]","second stage test","ocean","0","{""ArrowUp,ArrowLeft"":2,""ArrowUp,ArrowRight"":11,""ArrowDown,ArrowLeft"":8,""ArrowDown,ArrowRight"":27}","true","ArrowDown,ArrowRight","","","","revaluation","1","","","",""
"html-keyboard-response","275","1167503","0.0-4.0-10.0-1.5","spark_pilot_2","7416","4","17","Female","","","","","","","null","<div style=""font-size:60px;"">+</div>","null","fixation","","","","","","","","","","","","","",""
"revaluation","276","1167908","0.0-4.0-10.0-0.6","spark_pilot_2","7416","4","17","Female","","false","","","","","[398.5]","./assets/img/ocean/animals/seahorse.jpg","[""ArrowRight""]","second stage test","ocean","0","{""ArrowUp,ArrowLeft"":2,""ArrowUp,ArrowRight"":11,""ArrowDown,ArrowLeft"":8,""ArrowDown,ArrowRight"":27}","true","ArrowDown,ArrowRight","","","","revaluation","1","","","",""
"html-keyboard-response","277","1168423","0.0-4.0-10.0-1.6","spark_pilot_2","7416","4","17","Female","","","","","","","null","<div style=""font-size:60px;"">+</div>","null","fixation","","","","","","","","","","","","","",""
"revaluation","278","1169226","0.0-4.0-10.0-0.7","spark_pilot_2","7416","4","17","Female","","false","","","","","[792.5]","./assets/img/ocean/animals/seahorse.jpg","[""ArrowLeft""]","second stage test","ocean","0","{""ArrowUp,ArrowLeft"":2,""ArrowUp,ArrowRight"":11,""ArrowDown,ArrowLeft"":8,""ArrowDown,ArrowRight"":27}","false","ArrowDown,ArrowLeft","","","","revaluation","1","","","",""
"html-keyboard-response","279","1169743","0.0-4.0-10.0-1.7","spark_pilot_2","7416","4","17","Female","","","","","","","null","<div style=""font-size:60px;"">+</div>","null","fixation","","","","","","","","","","","","","",""
"learning-instructions","280","1174006","0.0-4.0-0.1-0.2","spark_pilot_2","7416","4","17","Female","","","","","","","1430.4000000059605","<p> This time you are searching for treasure in the <b>canyon</b>.</p>","","instructions","","","","","","","","","","","","","",""
"learning-instructions","281","1192202","0.0-4.0-0.1-0.3","spark_pilot_2","7416","4","17","Female","","","","","","","945.5","<p><b>New</b> animals with <b>new</b> treasure chests live here. You need to explore to discover where the animal with the best treasure chest is.</p>
                    <p> Like before, once you figure out which animal has the chest with the most treasure, you should try to get to that animal and select that chest! </p>","","instructions","","","","","","","","","","","","","",""
"learning-instructions","282","1207511","0.0-4.0-1.1-0.1","spark_pilot_2","7416","4","17","Female","","","","","","","579.7999999821186","<p> Remember, when you see a picture of the place, use the up and down keys to <b>find an animal</b>.</p>
            <p> When you encounter an animal, you should use the left and right keys to <b>select a treasure chest</b>.</p>
            <p> Don't forget to look out for the robber! </p>","","instructions","","","","","","","","","","","","","",""
"revaluation","283","1213548","0.0-4.0-2.1-0.50","spark_pilot_2","7416","4","17","Female","","false","","","","","[586.4000000059605,501.5]","./assets/img/canyon/memory/23.jpg","[""ArrowUp"",""ArrowLeft""]","value training","canyon","23","{""ArrowUp,ArrowLeft"":23,""ArrowUp,ArrowRight"":10,""ArrowDown,ArrowLeft"":8,""ArrowDown,ArrowRight"":30}","false","ArrowUp,ArrowLeft","false","","","original","2","0","","",""
"html-keyboard-response","284","1214057","0.0-4.0-2.1-1.50","spark_pilot_2","7416","4","17","Female","","","","","","","null","<div style=""font-size:60px;"">+</div>","null","fixation","","","","","","","","","","","1","","",""
"revaluation","285","1220118","0.0-4.0-2.1-0.51","spark_pilot_2","7416","4","17","Female","","false","","","","","[310.40000000596046,452.90000000596046]","./assets/img/canyon/memory/15.jpg","[""ArrowDown"",""ArrowLeft""]","value training","canyon","8","{""ArrowUp,ArrowLeft"":23,""ArrowUp,ArrowRight"":10,""ArrowDown,ArrowLeft"":8,""ArrowDown,ArrowRight"":30}","false","ArrowDown,ArrowLeft","false","","","original","2","2","","",""
"html-keyboard-response","286","1220638","0.0-4.0-2.1-1.51","spark_pilot_2","7416","4","17","Female","","","","","","","null","<div style=""font-size:60px;"">+</div>","null","fixation","","","","","","","","","","","3","","",""
"revaluation","287","1226679","0.0-4.0-2.1-0.52","spark_pilot_2","7416","4","17","Female","","false","","","","","[303.69999998807907,619.9000000059605]","./assets/img/canyon/memory/33.jpg","[""ArrowUp"",""ArrowLeft""]","value training","canyon","23","{""ArrowUp,ArrowLeft"":23,""ArrowUp,ArrowRight"":10,""ArrowDown,ArrowLeft"":8,""ArrowDown,ArrowRight"":30}","false","ArrowUp,ArrowLeft","false","","","original","2","4","","",""
"html-keyboard-response","288","1227198","0.0-4.0-2.1-1.52","spark_pilot_2","7416","4","17","Female","","","","","","","null","<div style=""font-size:60px;"">+</div>","null","fixation","","","","","","","","","","","5","","",""
"revaluation","289","1233238","0.0-4.0-2.1-0.53","spark_pilot_2","7416","4","17","Female","","false","","","","","[710.3000000119209,292.30000001192093]","./assets/img/canyon/memory/6.jpg","[""ArrowDown"",""ArrowRight""]","value training","canyon","30","{""ArrowUp,ArrowLeft"":23,""ArrowUp,ArrowRight"":10,""ArrowDown,ArrowLeft"":8,""ArrowDown,ArrowRight"":30}","true","ArrowDown,ArrowRight","false","","","original","2","6","","",""
"html-keyboard-response","290","1233758","0.0-4.0-2.1-1.53","spark_pilot_2","7416","4","17","Female","","","","","","","null","<div style=""font-size:60px;"">+</div>","null","fixation","","","","","","","","","","","7","","",""
"revaluation","291","1237769","0.0-4.0-2.1-0.54","spark_pilot_2","7416","4","17","Female","","false","","","","","[524.4000000059605]","./assets/img/canyon/catch/1.jpg","[""ArrowDown""]","value training","canyon","-10","{""ArrowUp,ArrowLeft"":23,""ArrowUp,ArrowRight"":10,""ArrowDown,ArrowLeft"":8,""ArrowDown,ArrowRight"":30}","false","ArrowDown","true","","","original","2","8","","",""
"html-keyboard-response","292","1238272","0.0-4.0-2.1-1.54","spark_pilot_2","7416","4","17","Female","","","","","","","null","<div style=""font-size:60px;"">+</div>","null","fixation","","","","","","","","","","","9","","",""
"revaluation","293","1244282","0.0-4.0-2.1-0.55","spark_pilot_2","7416","4","17","Female","","false","","","","","[461,459.09999999403954]","./assets/img/canyon/memory/35.jpg","[""ArrowDown"",""ArrowRight""]","value training","canyon","30","{""ArrowUp,ArrowLeft"":23,""ArrowUp,ArrowRight"":10,""ArrowDown,ArrowLeft"":8,""ArrowDown,ArrowRight"":30}","true","ArrowDown,ArrowRight","false","","","original","2","10","","",""
"html-keyboard-response","294","1244785","0.0-4.0-2.1-1.55","spark_pilot_2","7416","4","17","Female","","","","","","","null","<div style=""font-size:60px;"">+</div>","null","fixation","","","","","","","","","","","11","","",""
"revaluation","295","1250797","0.0-4.0-2.1-0.56","spark_pilot_2","7416","4","17","Female","","false","","","","","[451.2999999821186,347.69999998807907]","./assets/img/canyon/memory/13.jpg","[""ArrowDown"",""ArrowRight""]","value training","canyon","30","{""ArrowUp,ArrowLeft"":23,""ArrowUp,ArrowRight"":10,""ArrowDown,ArrowLeft"":8,""ArrowDown,ArrowRight"":30}","true","ArrowDown,ArrowRight","false","","","original","2","12","","",""
"html-keyboard-response","296","1251300","0.0-4.0-2.1-1.56","spark_pilot_2","7416","4","17","Female","","","","","","","null","<div style=""font-size:60px;"">+</div>","null","fixation","","","","","","","","","","","13","","",""
"revaluation","297","1255310","0.0-4.0-2.1-0.57","spark_pilot_2","7416","4","17","Female","","false","","","","","[346.5]","./assets/img/canyon/catch/2.jpg","[""ArrowDown""]","value training","canyon","-10","{""ArrowUp,ArrowLeft"":23,""ArrowUp,ArrowRight"":10,""ArrowDown,ArrowLeft"":8,""ArrowDown,ArrowRight"":30}","false","ArrowDown","true","","","original","2","14","","",""
"html-keyboard-response","298","1255812","0.0-4.0-2.1-1.57","spark_pilot_2","7416","4","17","Female","","","","","","","null","<div style=""font-size:60px;"">+</div>","null","fixation","","","","","","","","","","","15","","",""
"revaluation","299","1261822","0.0-4.0-2.1-0.58","spark_pilot_2","7416","4","17","Female","","false","","","","","[919.5999999940395,414.7999999821186]","./assets/img/canyon/memory/26.jpg","[""ArrowDown"",""ArrowRight""]","value training","canyon","30","{""ArrowUp,ArrowLeft"":23,""ArrowUp,ArrowRight"":10,""ArrowDown,ArrowLeft"":8,""ArrowDown,ArrowRight"":30}","true","ArrowDown,ArrowRight","false","","","original","2","16","","",""
"html-keyboard-response","300","1262325","0.0-4.0-2.1-1.58","spark_pilot_2","7416","4","17","Female","","","","","","","null","<div style=""font-size:60px;"">+</div>","null","fixation","","","","","","","","","","","17","","",""
"revaluation","301","1268338","0.0-4.0-2.1-0.59","spark_pilot_2","7416","4","17","Female","","false","","","","","[658.1999999880791,335.39999997615814]","./assets/img/canyon/memory/35.jpg","[""ArrowDown"",""ArrowRight""]","value training","canyon","30","{""ArrowUp,ArrowLeft"":23,""ArrowUp,ArrowRight"":10,""ArrowDown,ArrowLeft"":8,""ArrowDown,ArrowRight"":30}","true","ArrowDown,ArrowRight","false","","","original","2","18","","",""
"html-keyboard-response","302","1268842","0.0-4.0-2.1-1.59","spark_pilot_2","7416","4","17","Female","","","","","","","null","<div style=""font-size:60px;"">+</div>","null","fixation","","","","","","","","","","","19","","",""
"revaluation","303","1274852","0.0-4.0-2.1-0.60","spark_pilot_2","7416","4","17","Female","","false","","","","","[575.1999999880791,350]","./assets/img/canyon/memory/0.jpg","[""ArrowDown"",""ArrowRight""]","value training","canyon","30","{""ArrowUp,ArrowLeft"":23,""ArrowUp,ArrowRight"":10,""ArrowDown,ArrowLeft"":8,""ArrowDown,ArrowRight"":30}","true","ArrowDown,ArrowRight","false","","","original","2","20","","",""
"html-keyboard-response","304","1275356","0.0-4.0-2.1-1.60","spark_pilot_2","7416","4","17","Female","","","","","","","null","<div style=""font-size:60px;"">+</div>","null","fixation","","","","","","","","","","","21","","",""
"revaluation","305","1281368","0.0-4.0-2.1-0.61","spark_pilot_2","7416","4","17","Female","","false","","","","","[517,346]","./assets/img/canyon/memory/31.jpg","[""ArrowDown"",""ArrowRight""]","value training","canyon","30","{""ArrowUp,ArrowLeft"":23,""ArrowUp,ArrowRight"":10,""ArrowDown,ArrowLeft"":8,""ArrowDown,ArrowRight"":30}","true","ArrowDown,ArrowRight","false","","","original","2","22","","",""
