"trial_type","trial_index","time_elapsed","internal_node_id","task_version","subject_id","assigned_condition","age","gender","success","timeout","failed_images","failed_audio","failed_video","browser_interaction","rt","stimulus","response","task_part","environment","score","rewardMap","correct","fullState","isCatch","numberMissed","duration","condition","order","trial_num","key_press","ground_truth","bonus"
"pavlovia","0","1050","0.0-0.0","spark_pilot_2","7336","7","13","Male","","","","","","","","","","","","","","","","","","","","","","","",""
"preload","1","33972","0.0-1.0","spark_pilot_2","7336","7","13","Male","true","false","[]","[]","[]","[{""event"":""fullscreenenter"",""trial"":2,""time"":41084},{""event"":""blur"",""trial"":3,""time"":43924},{""event"":""focus"",""trial"":3,""time"":44150}]","","","","","","","","","","","","","","","","","",""
"fullscreen","2","42048","0.0-2.0","spark_pilot_2","7336","7","13","Male","true","","","","","[{""event"":""fullscreenenter"",""trial"":2,""time"":41084},{""event"":""blur"",""trial"":3,""time"":43924},{""event"":""focus"",""trial"":3,""time"":44150}]","","","","","","","","","","","","","","","","","",""
"audio-button-response","3","46948","0.0-3.0-0.0-0.0","spark_pilot_2","7336","7","13","Male","","","","","","","4221","./assets/audio/audiotest/turtle.mp3","2","audio_test","","","","","","","","","","","","","",""
"learning-instructions","4","63473","0.0-3.0-1.0-0.0","spark_pilot_2","7336","7","13","Male","","","","","","","9534.299999999814","<p> Welcome! Please remember to stay in fullscreen mode and don't click away from the experiment. </p>","","instructions","","","","","","","","","","","","","",""
"learning-instructions","5","77668","0.0-3.0-1.0-0.1","spark_pilot_2","7336","7","13","Male","","","","","","","5759.899999999907","<p> Today you will be playing a game to earn treasure. </p>
            <p> At the end of the experiment, you will earn a bonus based on how much treasure you find. </p>
            <img src='./assets/img/instructions/treasure.jpg' class='instructions-image'>","","instructions","","","","","","","","","","","","","",""
"learning-instructions","6","101065","0.0-3.0-1.0-0.2","spark_pilot_2","7336","7","13","Male","","","","","","","15119.799999999814","<p> Animals have hidden treasure in treasure chests. </p>
            <p> You need to first find an animal and then choose which of their treasure chests to search. </p>
            <img src='./assets/img/space/animals/cat.jpg' class='instructions-image'>","","instructions","","","","","","","","","","","","","",""
"learning-instructions","7","118528","0.0-3.0-1.0-0.3","spark_pilot_2","7336","7","13","Male","","","","","","","4269.5","<p> In each round, you will search for treasure in a different place. In the real game, there will be two rounds. </p>
            <p> You will begin with a separate, practice round where you will search for treasure in outer space. </p>
            <img src='./assets/img/space/0.jpg' class='instructions-image'>","","instructions","","","","","","","","","","","","","",""
"learning-instructions","8","135288","0.0-3.0-1.0-0.4","spark_pilot_2","7336","7","13","Male","","","","","","","5310.200000000186","<p> On every turn, you will see a picture of the place that you are in, but the specific image may be different each time. </p>
            <p> For example, both of these images mean you are in outer space. </p>
            <img src='./assets/img/instructions/outerspace.jpg' class='instructions-image'>","","instructions","","","","","","","","","","","","","",""
"learning-instructions","9","148593","0.0-3.0-1.0-0.5","spark_pilot_2","7336","7","13","Male","","","","","","","5454.299999999814","<p> You need to decide which direction to travel in. </p>
            <p> You can choose between going <b>up or down</b> by using the arrow keys. </p>
            <img src='./assets/img/instructions/updown.jpg' class='instructions-image'>","","instructions","","","","","","","","","","","","","",""
"learning-instructions","10","158419","0.0-3.0-1.0-0.6","spark_pilot_2","7336","7","13","Male","","","","","","","990.5999999996275","<p> You will have <b>2 seconds</b> to make your choice. </p>
            <p> If you do not make a choice within 2 seconds, you will not find an animal or earn treasure. </p>
            <img src='./assets/img/instructions/2seconds.jpg' class='instructions-image'>","","instructions","","","","","","","","","","","","","",""
"learning-instructions","11","168448","0.0-3.0-1.0-0.7","spark_pilot_2","7336","7","13","Male","","","","","","","2960.5","<p> Let’s try practicing that now! </p>
            <p> When you see a picture of the place you are in, press the <b>up</b> key to travel up. </p>
            <img src='./assets/img/instructions/pressUp.jpg' class='instructions-image'>","","instructions","","","","","","","","","","","","","",""
"revaluation","12","172478","0.0-3.0-2.0-0.0","spark_pilot_2","7336","7","13","Male","","true","","","","","[]","./assets/img/space/0.jpg","[]","first stage practice","space","-5","null","null","","false","","","","","","","",""
"html-keyboard-response","13","172984","0.0-3.0-2.0-1.0","spark_pilot_2","7336","7","13","Male","","","","","","","null","<div style=""font-size:60px;"">+</div>","null","fixation","","","","","","","","","","","","","",""
"revaluation","14","177037","0.0-3.0-2.0-0.1","spark_pilot_2","7336","7","13","Male","","true","","","","","[]","./assets/img/space/1.jpg","[]","first stage practice","space","-5","null","null","","false","","","","","","","",""
"html-keyboard-response","15","177552","0.0-3.0-2.0-1.1","spark_pilot_2","7336","7","13","Male","","","","","","","null","<div style=""font-size:60px;"">+</div>","null","fixation","","","","","","","","","","","","","",""
"revaluation","16","181567","0.0-3.0-2.0-0.2","spark_pilot_2","7336","7","13","Male","","true","","","","","[]","./assets/img/space/2.jpg","[]","first stage practice","space","-5","null","null","","false","","","","","","","",""
"html-keyboard-response","17","182071","0.0-3.0-2.0-1.2","spark_pilot_2","7336","7","13","Male","","","","","","","null","<div style=""font-size:60px;"">+</div>","null","fixation","","","","","","","","","","","","","",""
"learning-instructions","18","189823","0.0-3.0-3.0-0.0","spark_pilot_2","7336","7","13","Male","","","","","","","3053.600000000093","<p> Great job! Now try pressing the <b>down</b> key to travel down. </p>
            <img src='./assets/img/instructions/pressDown.jpg' class='instructions-image'>","","instructions","","","","","","","","","","","","","",""
"revaluation","19","193847","0.0-3.0-4.0-0.0","spark_pilot_2","7336","7","13","Male","","false","","","","","[1041.6999999997206]","./assets/img/space/3.jpg","[""ArrowDown""]","first stage practice","space","0","null","null","ArrowDown","false","","","","","","","",""
"html-keyboard-response","20","194366","0.0-3.0-4.0-1.0","spark_pilot_2","7336","7","13","Male","","","","","","","null","<div style=""font-size:60px;"">+</div>","null","fixation","","","","","","","","","","","","","",""
"revaluation","21","198386","0.0-3.0-4.0-0.1","spark_pilot_2","7336","7","13","Male","","false","","","","","[536]","./assets/img/space/4.jpg","[""ArrowDown""]","first stage practice","space","0","null","null","ArrowDown","false","","","","","","","",""
"html-keyboard-response","22","198902","0.0-3.0-4.0-1.1","spark_pilot_2","7336","7","13","Male","","","","","","","null","<div style=""font-size:60px;"">+</div>","null","fixation","","","","","","","","","","","","","",""
"revaluation","23","202937","0.0-3.0-4.0-0.2","spark_pilot_2","7336","7","13","Male","","false","","","","","[502.6999999997206]","./assets/img/space/5.jpg","[""ArrowDown""]","first stage practice","space","0","null","null","ArrowDown","false","","","","","","","",""
"html-keyboard-response","24","203446","0.0-3.0-4.0-1.2","spark_pilot_2","7336","7","13","Male","","","","","","","null","<div style=""font-size:60px;"">+</div>","null","fixation","","","","","","","","","","","","","",""
"learning-instructions","25","214787","0.0-3.0-5.0-0.0","spark_pilot_2","7336","7","13","Male","","","","","","","1489.2000000001863","<p> The animals don’t move, so the animal in the upper part of a place will stay in the upper part of a place, and the animal in the lower part of a place will stay in the lower part of a place. </p>","","instructions","","","","","","","","","","","","","",""
"learning-instructions","26","227470","0.0-3.0-5.0-0.1","spark_pilot_2","7336","7","13","Male","","","","","","","3541.7999999998137","<p> Each animal has two treasure chests for you to choose from. </p>
            <p> The amount of treasure in each chest can range from <b> 0 to 40 pieces.</b></p>","","instructions","","","","","","","","","","","","","",""
"learning-instructions","27","244436","0.0-3.0-5.0-0.2","spark_pilot_2","7336","7","13","Male","","","","","","","5777.0999999996275","<p> You should decide which chest to search for treasure by using the <b>left</b> and <b>right</b> arrow keys. </p>
            <p><b> Pay attention to which animal is on the screen, as the animals have different treasure chests. </b></p>
            <img src='./assets/img/instructions/leftright.jpg' class='instructions-image'>","","instructions","","","","","","","","","","","","","",""
"learning-instructions","28","254845","0.0-3.0-5.0-0.3","spark_pilot_2","7336","7","13","Male","","","","","","","4036.899999999907","<p> Let’s try practicing that now. </p>
            <p> When you see an animal, choose which chest to search for treasure. </p>
            <img src='./assets/img/instructions/chooseChest.jpg' class='instructions-image'>","","instructions","","","","","","","","","","","","","",""
"revaluation","29","258872","0.0-3.0-6.0-0.0","spark_pilot_2","7336","7","13","Male","","false","","","","","[1053.3000000002794]","./assets/img/space/animals/cat.jpg","[""ArrowRight""]","second stage practice","space","36","{""ArrowUp,ArrowLeft"":3,""ArrowUp,ArrowRight"":36,""ArrowDown,ArrowLeft"":15,""ArrowDown,ArrowRight"":23}","true","ArrowUp,ArrowRight","","","","","","","","",""
"html-keyboard-response","30","259387","0.0-3.0-6.0-1.0","spark_pilot_2","7336","7","13","Male","","","","","","","null","<div style=""font-size:60px;"">+</div>","null","fixation","","","","","","","","","","","","","",""
"revaluation","31","263427","0.0-3.0-6.0-0.1","spark_pilot_2","7336","7","13","Male","","false","","","","","[822.1999999997206]","./assets/img/space/animals/rabbit.jpg","[""ArrowLeft""]","second stage practice","space","15","{""ArrowUp,ArrowLeft"":3,""ArrowUp,ArrowRight"":36,""ArrowDown,ArrowLeft"":15,""ArrowDown,ArrowRight"":23}","false","ArrowDown,ArrowLeft","","","","","","","","",""
"html-keyboard-response","32","263937","0.0-3.0-6.0-1.1","spark_pilot_2","7336","7","13","Male","","","","","","","null","<div style=""font-size:60px;"">+</div>","null","fixation","","","","","","","","","","","","","",""
"revaluation","33","267966","0.0-3.0-6.0-0.2","spark_pilot_2","7336","7","13","Male","","false","","","","","[403.1999999997206]","./assets/img/space/animals/cat.jpg","[""ArrowRight""]","second stage practice","space","36","{""ArrowUp,ArrowLeft"":3,""ArrowUp,ArrowRight"":36,""ArrowDown,ArrowLeft"":15,""ArrowDown,ArrowRight"":23}","true","ArrowUp,ArrowRight","","","","","","","","",""
"html-keyboard-response","34","268486","0.0-3.0-6.0-1.2","spark_pilot_2","7336","7","13","Male","","","","","","","null","<div style=""font-size:60px;"">+</div>","null","fixation","","","","","","","","","","","","","",""
"revaluation","35","272506","0.0-3.0-6.0-0.3","spark_pilot_2","7336","7","13","Male","","false","","","","","[317.60000000009313]","./assets/img/space/animals/rabbit.jpg","[""ArrowLeft""]","second stage practice","space","15","{""ArrowUp,ArrowLeft"":3,""ArrowUp,ArrowRight"":36,""ArrowDown,ArrowLeft"":15,""ArrowDown,ArrowRight"":23}","false","ArrowDown,ArrowLeft","","","","","","","","",""
"html-keyboard-response","36","273016","0.0-3.0-6.0-1.3","spark_pilot_2","7336","7","13","Male","","","","","","","null","<div style=""font-size:60px;"">+</div>","null","fixation","","","","","","","","","","","","","",""
"learning-instructions","37","294182","0.0-3.0-7.0-0.0","spark_pilot_2","7336","7","13","Male","","","","","","","4354.199999999721","<p> Great job. Now let’s try putting it together. </p>
            <p> On each turn, you will first see a picture to remind you of the place you are in, and you need to choose whether to go up or down. </p>
            <p> Then you will see an animal and choose which of its chests to search for treasure. </p>","","instructions","","","","","","","","","","","","","",""
"learning-instructions","38","304622","0.0-3.0-7.0-0.1","spark_pilot_2","7336","7","13","Male","","","","","","","2174","<p> When you choose whether to go up or down, try to go to the animal with the chest with the most treasure. </p>
            <p> Try practicing that now! </p>","","instructions","","","","","","","","","","","","","",""
"revaluation","39","310657","0.0-3.0-8.0-0.0","spark_pilot_2","7336","7","13","Male","","false","","","","","[1059.1000000000931,834.6000000000931]","./assets/img/space/6.jpg","[""ArrowDown"",""ArrowRight""]","full practice","space","23","{""ArrowUp,ArrowLeft"":3,""ArrowUp,ArrowRight"":36,""ArrowDown,ArrowLeft"":15,""ArrowDown,ArrowRight"":23}","false","ArrowDown,ArrowRight","false","","","","","","","",""
"html-keyboard-response","40","311167","0.0-3.0-8.0-1.0","spark_pilot_2","7336","7","13","Male","","","","","","","null","<div style=""font-size:60px;"">+</div>","null","fixation","","","","","","","","","","","","","",""
"revaluation","41","317202","0.0-3.0-8.0-0.1","spark_pilot_2","7336","7","13","Male","","false","","","","","[710.3000000002794,791.7000000001863]","./assets/img/space/7.jpg","[""ArrowUp"",""ArrowLeft""]","full practice","space","3","{""ArrowUp,ArrowLeft"":3,""ArrowUp,ArrowRight"":36,""ArrowDown,ArrowLeft"":15,""ArrowDown,ArrowRight"":23}","false","ArrowUp,ArrowLeft","false","","","","","","","",""
"html-keyboard-response","42","317716","0.0-3.0-8.0-1.1","spark_pilot_2","7336","7","13","Male","","","","","","","null","<div style=""font-size:60px;"">+</div>","null","fixation","","","","","","","","","","","","","",""
"revaluation","43","323767","0.0-3.0-8.0-0.2","spark_pilot_2","7336","7","13","Male","","false","","","","","[899,984.2999999998137]","./assets/img/space/8.jpg","[""ArrowDown"",""ArrowRight""]","full practice","space","23","{""ArrowUp,ArrowLeft"":3,""ArrowUp,ArrowRight"":36,""ArrowDown,ArrowLeft"":15,""ArrowDown,ArrowRight"":23}","false","ArrowDown,ArrowRight","false","","","","","","","",""
"html-keyboard-response","44","324287","0.0-3.0-8.0-1.2","spark_pilot_2","7336","7","13","Male","","","","","","","null","<div style=""font-size:60px;"">+</div>","null","fixation","","","","","","","","","","","","","",""
"revaluation","45","330317","0.0-3.0-8.0-0.3","spark_pilot_2","7336","7","13","Male","","false","","","","","[1187.2999999998137,1294.7000000001863]","./assets/img/space/9.jpg","[""ArrowUp"",""ArrowRight""]","full practice","space","36","{""ArrowUp,ArrowLeft"":3,""ArrowUp,ArrowRight"":36,""ArrowDown,ArrowLeft"":15,""ArrowDown,ArrowRight"":23}","true","ArrowUp,ArrowRight","false","","","","","","","",""
"html-keyboard-response","46","330827","0.0-3.0-8.0-1.3","spark_pilot_2","7336","7","13","Male","","","","","","","null","<div style=""font-size:60px;"">+</div>","null","fixation","","","","","","","","","","","","","",""
"revaluation","47","336831","0.0-3.0-8.0-0.4","spark_pilot_2","7336","7","13","Male","","false","","","","","[897.3000000002794,937.7999999998137]","./assets/img/space/10.jpg","[""ArrowDown"",""ArrowLeft""]","full practice","space","15","{""ArrowUp,ArrowLeft"":3,""ArrowUp,ArrowRight"":36,""ArrowDown,ArrowLeft"":15,""ArrowDown,ArrowRight"":23}","false","ArrowDown,ArrowLeft","false","","","","","","","",""
"html-keyboard-response","48","337332","0.0-3.0-8.0-1.4","spark_pilot_2","7336","7","13","Male","","","","","","","null","<div style=""font-size:60px;"">+</div>","null","fixation","","","","","","","","","","","","","",""
"learning-instructions","49","349711","0.0-3.0-9.0-0.0","spark_pilot_2","7336","7","13","Male","","","","","","","2050.1999999997206","<p> One last thing: sometimes, you will see a robber. The robber can be anywhere in the picture. </p>
            <p> If you do not stop them, you will lose treasure. </p>
            <img src='./assets/img/instructions/robber.jpg' class='instructions-image'>","","instructions","","","","","","","","","","","","","",""
"learning-instructions","50","359840","0.0-3.0-9.0-0.1","spark_pilot_2","7336","7","13","Male","","","","","","","2968.5","<p> If you see the robber, you should <b>press the space bar</b> rather than using the arrow keys. </p>
            <p> Try practicing that now! </p>","","instructions","","","","","","","","","","","","","",""
"revaluation","51","363865","0.0-3.0-10.0-0.0","spark_pilot_2","7336","7","13","Male","","false","","","","","[756.7999999998137]","./assets/img/space/catch/0.jpg","[""ArrowDown""]","catch practice","space","-10","{""ArrowUp,ArrowLeft"":3,""ArrowUp,ArrowRight"":36,""ArrowDown,ArrowLeft"":15,""ArrowDown,ArrowRight"":23}","false","ArrowDown","true","","","","","","","",""
"html-keyboard-response","52","364370","0.0-3.0-10.0-1.0","spark_pilot_2","7336","7","13","Male","","","","","","","null","<div style=""font-size:60px;"">+</div>","null","fixation","","","","","","","","","","","","","",""
"revaluation","53","368396","0.0-3.0-10.0-0.1","spark_pilot_2","7336","7","13","Male","","false","","","","","[701.8999999999069]","./assets/img/space/catch/1.jpg","[""spaceBar""]","catch practice","space","0","{""ArrowUp,ArrowLeft"":3,""ArrowUp,ArrowRight"":36,""ArrowDown,ArrowLeft"":15,""ArrowDown,ArrowRight"":23}","true","spaceBar","true","","","","","","","",""
"html-keyboard-response","54","368900","0.0-3.0-10.0-1.1","spark_pilot_2","7336","7","13","Male","","","","","","","null","<div style=""font-size:60px;"">+</div>","null","fixation","","","","","","","","","","","","","",""
"revaluation","55","372910","0.0-3.0-10.0-0.2","spark_pilot_2","7336","7","13","Male","","false","","","","","[730.6000000000931]","./assets/img/space/catch/2.jpg","[""spaceBar""]","catch practice","space","0","{""ArrowUp,ArrowLeft"":3,""ArrowUp,ArrowRight"":36,""ArrowDown,ArrowLeft"":15,""ArrowDown,ArrowRight"":23}","true","spaceBar","true","","","","","","","",""
"html-keyboard-response","56","373415","0.0-3.0-10.0-1.2","spark_pilot_2","7336","7","13","Male","","","","","","","null","<div style=""font-size:60px;"">+</div>","null","fixation","","","","","","","","","","","","","",""
"learning-instructions","57","388261","0.0-3.0-11.0-0.0","spark_pilot_2","7336","7","13","Male","","","","","","","1248.5","<p> After you explore a place to find treasure, it will be time to play a different game. </p>
            <p> During this game, red dots will appear on the screen and fall down slowly. </p>
            <p><b> You must click on them before they reach the bottom. </b></p>
            <img src='./assets/img/instructions/dotGame.jpg' class='instructions-image'>","","instructions","","","","","","","","","","","","","",""
"learning-instructions","58","394935","0.0-3.0-11.0-0.1","spark_pilot_2","7336","7","13","Male","","","","","","","1003.1999999997206","<p> For every dot you click, you will earn additional treasure. </p>
            <p> Let’s try practicing that now. </p>","","instructions","","","","","","","","","","","","","",""
"revaluation","59","409945","0.0-3.0-12.0-0.0","spark_pilot_2","7336","7","13","Male","","","","","","","[84,77]","","","rest practice","","20","","","","","0","15000","","","","","",""
"learning-instructions","60","417267","0.0-3.0-13.0-0.0-0.0","spark_pilot_2","7336","7","13","Male","","","","","","","2075.6999999997206","<p> Now, you will practice a shortened version of the game to get a sense of how it all fits together. </p>","","instructions","","","","","","","","","","","","","",""
"learning-instructions","61","421508","0.0-3.0-13.0-0.0-0.1","spark_pilot_2","7336","7","13","Male","","","","","","","1055.8999999999069","<p>This time you are searching for treasure in outer space.</p>","","instructions","","","","","","","","","","","","","",""
"learning-instructions","62","437793","0.0-3.0-13.0-1.0-0.0","spark_pilot_2","7336","7","13","Male","","","","","","","1520.7999999998137","<p> Remember, when you see a picture of the place, use the up and down keys to <b>find an animal</b>.</p>
            <p> When you encounter an animal, you should use the left and right keys to <b>select a treasure chest</b>.</p>
            <p> Don't forget to look out for the robber! </p>","","instructions","","","","","","","","","","","","","",""
"revaluation","63","443840","0.0-3.0-13.0-2.0-0.0","spark_pilot_2","7336","7","13","Male","","false","","","","","[937.3999999999069,825.7999999998137]","./assets/img/space/11.jpg","[""ArrowDown"",""ArrowRight""]","practice block","space","23","{""ArrowUp,ArrowLeft"":3,""ArrowUp,ArrowRight"":36,""ArrowDown,ArrowLeft"":15,""ArrowDown,ArrowRight"":23}","false","ArrowDown,ArrowRight","false","","","","","","","",""
"html-keyboard-response","64","444349","0.0-3.0-13.0-2.0-1.0","spark_pilot_2","7336","7","13","Male","","","","","","","null","<div style=""font-size:60px;"">+</div>","null","fixation","","","","","","","","","","","","","",""
"revaluation","65","450380","0.0-3.0-13.0-2.0-0.1","spark_pilot_2","7336","7","13","Male","","false","","","","","[1136.1000000000931,1189.7000000001863]","./assets/img/space/12.jpg","[""ArrowUp"",""ArrowRight""]","practice block","space","36","{""ArrowUp,ArrowLeft"":3,""ArrowUp,ArrowRight"":36,""ArrowDown,ArrowLeft"":15,""ArrowDown,ArrowRight"":23}","true","ArrowUp,ArrowRight","false","","","","","","","",""
"html-keyboard-response","66","450900","0.0-3.0-13.0-2.0-1.1","spark_pilot_2","7336","7","13","Male","","","","","","","null","<div style=""font-size:60px;"">+</div>","null","fixation","","","","","","","","","","","","","",""
"revaluation","67","456920","0.0-3.0-13.0-2.0-0.2","spark_pilot_2","7336","7","13","Male","","false","","","","","[1261.8999999999069,765.5]","./assets/img/space/13.jpg","[""ArrowDown"",""ArrowRight""]","practice block","space","23","{""ArrowUp,ArrowLeft"":3,""ArrowUp,ArrowRight"":36,""ArrowDown,ArrowLeft"":15,""ArrowDown,ArrowRight"":23}","false","ArrowDown,ArrowRight","false","","","","","","","",""
"html-keyboard-response","68","457440","0.0-3.0-13.0-2.0-1.2","spark_pilot_2","7336","7","13","Male","","","","","","","null","<div style=""font-size:60px;"">+</div>","null","fixation","","","","","","","","","","","","","",""
"revaluation","69","463470","0.0-3.0-13.0-2.0-0.3","spark_pilot_2","7336","7","13","Male","","false","","","","","[1057.6999999997206,807.7999999998137]","./assets/img/space/14.jpg","[""ArrowUp"",""ArrowRight""]","practice block","space","36","{""ArrowUp,ArrowLeft"":3,""ArrowUp,ArrowRight"":36,""ArrowDown,ArrowLeft"":15,""ArrowDown,ArrowRight"":23}","true","ArrowUp,ArrowRight","false","","","","","","","",""
"html-keyboard-response","70","463974","0.0-3.0-13.0-2.0-1.3","spark_pilot_2","7336","7","13","Male","","","","","","","null","<div style=""font-size:60px;"">+</div>","null","fixation","","","","","","","","","","","","","",""
"revaluation","71","469989","0.0-3.0-13.0-2.0-0.4","spark_pilot_2","7336","7","13","Male","","false","","","","","[1512.3999999999069,639.6999999997206]","./assets/img/space/11.jpg","[""ArrowDown"",""ArrowRight""]","practice block","space","23","{""ArrowUp,ArrowLeft"":3,""ArrowUp,ArrowRight"":36,""ArrowDown,ArrowLeft"":15,""ArrowDown,ArrowRight"":23}","false","ArrowDown,ArrowRight","false","","","","","","","",""
"html-keyboard-response","72","470491","0.0-3.0-13.0-2.0-1.4","spark_pilot_2","7336","7","13","Male","","","","","","","null","<div style=""font-size:60px;"">+</div>","null","fixation","","","","","","","","","","","","","",""
"revaluation","73","476495","0.0-3.0-13.0-2.0-0.5","spark_pilot_2","7336","7","13","Male","","false","","","","","[1047.1000000000931,698.8000000002794]","./assets/img/space/12.jpg","[""ArrowUp"",""ArrowRight""]","practice block","space","36","{""ArrowUp,ArrowLeft"":3,""ArrowUp,ArrowRight"":36,""ArrowDown,ArrowLeft"":15,""ArrowDown,ArrowRight"":23}","true","ArrowUp,ArrowRight","false","","","","","","","",""
"html-keyboard-response","74","476996","0.0-3.0-13.0-2.0-1.5","spark_pilot_2","7336","7","13","Male","","","","","","","null","<div style=""font-size:60px;"">+</div>","null","fixation","","","","","","","","","","","","","",""
"revaluation","75","483000","0.0-3.0-13.0-2.0-0.6","spark_pilot_2","7336","7","13","Male","","false","","","","","[661.1000000000931,351.1999999997206]","./assets/img/space/13.jpg","[""ArrowUp"",""ArrowRight""]","practice block","space","36","{""ArrowUp,ArrowLeft"":3,""ArrowUp,ArrowRight"":36,""ArrowDown,ArrowLeft"":15,""ArrowDown,ArrowRight"":23}","true","ArrowUp,ArrowRight","false","","","","","","","",""
"html-keyboard-response","76","483502","0.0-3.0-13.0-2.0-1.6","spark_pilot_2","7336","7","13","Male","","","","","","","null","<div style=""font-size:60px;"">+</div>","null","fixation","","","","","","","","","","","","","",""
"revaluation","77","489506","0.0-3.0-13.0-2.0-0.7","spark_pilot_2","7336","7","13","Male","","false","","","","","[531.8000000002794,443.39999999990687]","./assets/img/space/14.jpg","[""ArrowUp"",""ArrowRight""]","practice block","space","36","{""ArrowUp,ArrowLeft"":3,""ArrowUp,ArrowRight"":36,""ArrowDown,ArrowLeft"":15,""ArrowDown,ArrowRight"":23}","true","ArrowUp,ArrowRight","false","","","","","","","",""
"html-keyboard-response","78","490008","0.0-3.0-13.0-2.0-1.7","spark_pilot_2","7336","7","13","Male","","","","","","","null","<div style=""font-size:60px;"">+</div>","null","fixation","","","","","","","","","","","","","",""
"revaluation","79","494013","0.0-3.0-13.0-2.0-0.8","spark_pilot_2","7336","7","13","Male","","false","","","","","[1104.6999999997206]","./assets/img/space/catch/3.jpg","[""spaceBar""]","practice block","space","0","{""ArrowUp,ArrowLeft"":3,""ArrowUp,ArrowRight"":36,""ArrowDown,ArrowLeft"":15,""ArrowDown,ArrowRight"":23}","true","spaceBar","true","","","","","","","",""
"html-keyboard-response","80","494514","0.0-3.0-13.0-2.0-1.8","spark_pilot_2","7336","7","13","Male","","","","","","","null","<div style=""font-size:60px;"">+</div>","null","fixation","","","","","","","","","","","","","",""
"learning-instructions","81","509275","0.0-3.0-13.0-3.0-0.0","spark_pilot_2","7336","7","13","Male","","","","","","","1302.8999999999069","<p> Now, you will travel with a friend who will choose whether you go up or down first. </p>
            <p> On these turns, you will just see the animal that they found. You will still get to choose which chest to search for treasure.</p>","","instructions","","","","","","","","","","","","","",""
"revaluation","82","513321","0.0-3.0-13.0-4.0-0.0","spark_pilot_2","7336","7","13","Male","","false","","","","","[1570.6000000000931]","./assets/img/space/animals/rabbit.jpg","[""ArrowRight""]","practice block","space","23","{""ArrowUp,ArrowLeft"":3,""ArrowUp,ArrowRight"":36,""ArrowDown,ArrowLeft"":15,""ArrowDown,ArrowRight"":23}","true","ArrowDown,ArrowRight","","","","","","","","",""
"html-keyboard-response","83","513840","0.0-3.0-13.0-4.0-1.0","spark_pilot_2","7336","7","13","Male","","","","","","","null","<div style=""font-size:60px;"">+</div>","null","fixation","","","","","","","","","","","","","",""
"revaluation","84","517871","0.0-3.0-13.0-4.0-0.1","spark_pilot_2","7336","7","13","Male","","false","","","","","[341.5]","./assets/img/space/animals/cat.jpg","[""ArrowRight""]","practice block","space","36","{""ArrowUp,ArrowLeft"":3,""ArrowUp,ArrowRight"":36,""ArrowDown,ArrowLeft"":15,""ArrowDown,ArrowRight"":23}","true","ArrowUp,ArrowRight","","","","","","","","",""
"html-keyboard-response","85","518384","0.0-3.0-13.0-4.0-1.1","spark_pilot_2","7336","7","13","Male","","","","","","","null","<div style=""font-size:60px;"">+</div>","null","fixation","","","","","","","","","","","","","",""
"revaluation","86","522401","0.0-3.0-13.0-4.0-0.2","spark_pilot_2","7336","7","13","Male","","false","","","","","[401.10000000009313]","./assets/img/space/animals/rabbit.jpg","[""ArrowRight""]","practice block","space","23","{""ArrowUp,ArrowLeft"":3,""ArrowUp,ArrowRight"":36,""ArrowDown,ArrowLeft"":15,""ArrowDown,ArrowRight"":23}","true","ArrowDown,ArrowRight","","","","","","","","",""
"html-keyboard-response","87","522910","0.0-3.0-13.0-4.0-1.2","spark_pilot_2","7336","7","13","Male","","","","","","","null","<div style=""font-size:60px;"">+</div>","null","fixation","","","","","","","","","","","","","",""
"revaluation","88","526950","0.0-3.0-13.0-4.0-0.3","spark_pilot_2","7336","7","13","Male","","false","","","","","[610.3999999999069]","./assets/img/space/animals/cat.jpg","[""ArrowRight""]","practice block","space","36","{""ArrowUp,ArrowLeft"":3,""ArrowUp,ArrowRight"":36,""ArrowDown,ArrowLeft"":15,""ArrowDown,ArrowRight"":23}","true","ArrowUp,ArrowRight","","","","","","","","",""
"html-keyboard-response","89","527464","0.0-3.0-13.0-4.0-1.3","spark_pilot_2","7336","7","13","Male","","","","","","","null","<div style=""font-size:60px;"">+</div>","null","fixation","","","","","","","","","","","","","",""
"learning-instructions","90","536417","0.0-3.0-13.0-5.0-0.0","spark_pilot_2","7336","7","13","Male","","","","","","","1584.8999999999069","<p> Time to play the dot game! </p>
            <p> For 15 seconds, click the red dots on the following screen as they appear. </p>","","instructions","","","","","","","","","","","","","",""
"revaluation","91","551419","0.0-3.0-13.0-6.0-0.0","spark_pilot_2","7336","7","13","Male","","","","","","","[89]","","","rest practice","","10","","","","","0","15000","","","","","",""
"learning-instructions","92","559040","0.0-3.0-13.0-7.0-0.0","spark_pilot_2","7336","7","13","Male","","","","","","","1487.5","<p> You have almost finished this part of the game! </p>
            <p> We are going to ask you to make a few more choices. </p>","","instructions","","","","","","","","","","","","","",""
"learning-instructions","93","574800","0.0-3.0-13.0-7.0-0.1","spark_pilot_2","7336","7","13","Male","","","","","","","1737.7999999998137","<p> First, you need to decide whether to go up or down. When you see each picture, use the arrow keys to make your choice. </p>
            <p><b>You will not see which animal you found, but try to get to the one that will give you the most treasure.</b></p>","","instructions","","","","","","","","","","","","","",""
"revaluation","94","575828","0.0-3.0-13.0-8.0","spark_pilot_2","7336","7","13","Male","","false","","","","","[1025.0999999996275]","./assets/img/space/15.jpg","[""ArrowDown""]","practice block","space","0","{""ArrowUp,ArrowLeft"":3,""ArrowUp,ArrowRight"":36,""ArrowDown,ArrowLeft"":15,""ArrowDown,ArrowRight"":23}","false","ArrowDown","false","","","","","","","",""
"html-keyboard-response","95","576331","0.0-3.0-13.0-9.0","spark_pilot_2","7336","7","13","Male","","","","","","","null","<div style=""font-size:60px;"">+</div>","null","fixation","","","","","","","","","","","","","",""
"learning-instructions","96","590241","0.0-3.0-13.0-10.0-0.0","spark_pilot_2","7336","7","13","Male","","","","","","","2529.100000000093","<p> Now you will see the animals again and can search their chests for treasure. </p>
            <p> This time, you will not see how much treasure you earned, but you will earn more bonus money for making better choices. </p>","","instructions","","","","","","","","","","","","","",""
"revaluation","97","591208","0.0-3.0-13.0-11.0-0.0","spark_pilot_2","7336","7","13","Male","","false","","","","","[964.5]","./assets/img/space/animals/cat.jpg","[""ArrowRight""]","practice block","space","0","{""ArrowUp,ArrowLeft"":3,""ArrowUp,ArrowRight"":36,""ArrowDown,ArrowLeft"":15,""ArrowDown,ArrowRight"":23}","true","ArrowUp,ArrowRight","","","","","","","","",""
"html-keyboard-response","98","591711","0.0-3.0-13.0-11.0-1.0","spark_pilot_2","7336","7","13","Male","","","","","","","null","<div style=""font-size:60px;"">+</div>","null","fixation","","","","","","","","","","","","","",""
"revaluation","99","592383","0.0-3.0-13.0-11.0-0.1","spark_pilot_2","7336","7","13","Male","","false","","","","","[669.6999999997206]","./assets/img/space/animals/rabbit.jpg","[""ArrowRight""]","practice block","space","0","{""ArrowUp,ArrowLeft"":3,""ArrowUp,ArrowRight"":36,""ArrowDown,ArrowLeft"":15,""ArrowDown,ArrowRight"":23}","true","ArrowDown,ArrowRight","","","","","","","","",""
"html-keyboard-response","100","592891","0.0-3.0-13.0-11.0-1.1","spark_pilot_2","7336","7","13","Male","","","","","","","null","<div style=""font-size:60px;"">+</div>","null","fixation","","","","","","","","","","","","","",""
"learning-instructions","101","599176","0.0-3.0-14.0-0.0","spark_pilot_2","7336","7","13","Male","","","","","","","1703.7000000001863","<p> Before you start, we're going to ask you a few questions about how the game works. </p>","","instructions","","","","","","","","","","","","","",""
"comp-q","102","607132","0.0-3.0-15.0-0.0-0.0","spark_pilot_2","7336","7","13","Male","","","","","","","2365.4000000003725","<p> <b> True or False? </b> </p>
            <p> There can be 50 pieces of treasure in a given animal's chest. </p>","0","comp_question","","","","false","","","","","","","","","",""
"comp-q","103","615496","0.0-3.0-15.0-0.0-1.0","spark_pilot_2","7336","7","13","Male","","","","","","","1833.3999999999069","<p> <b>Incorrect.</b> The amount of treasure in each chest can range from 0 to 40 pieces. </p>","0","comp_answer","","","","","","","","","","","","","",""
"comp-q","104","621986","0.0-3.0-15.0-0.1-0.1","spark_pilot_2","7336","7","13","Male","","","","","","","933.2999999998137","<p> <b> True or False? </b> </p>
            <p> There can be 50 pieces of treasure in a given animal's chest. </p>","1","comp_question","","","","true","","","","","","","","","",""
"comp-q","105","630447","0.0-3.0-15.0-0.1-1.1","spark_pilot_2","7336","7","13","Male","","","","","","","1804.0999999996275","<p> <b> That's right! </b> The amount of treasure in each chest can range from 0 to 40 pieces. </p>","0","comp_answer","","","","","","","","","","","","","",""
"comp-q","106","638556","0.0-3.0-15.0-0.2-0.2","spark_pilot_2","7336","7","13","Male","","","","","","","993","<p> <b> True or False? </b> </p><p> In this game, all animals have the same amount of treasure in their left and right chests. </p>","1","comp_question","","","","true","","","","","","","","","",""
"comp-q","107","645466","0.0-3.0-15.0-0.2-1.2","spark_pilot_2","7336","7","13","Male","","","","","","","1683.1999999997206","<p> <b> That's right! </b> Animals have different amounts of treasure in their treasure chests. </p>","0","comp_answer","","","","","","","","","","","","","",""
"comp-q","108","652613","0.0-3.0-15.0-0.3-0.3","spark_pilot_2","7336","7","13","Male","","","","","","","1299.8999999999069","<p> <b> True or False? </b> </p><p> The same animal will always be there if you go up in the same place. </p>","0","comp_question","","","","true","","","","","","","","","",""
"comp-q","109","660654","0.0-3.0-15.0-0.3-1.3","spark_pilot_2","7336","7","13","Male","","","","","","","1581.2000000001863","<p> <b> That's right! </b> One animal lives in the upper part and one lives in the lower part of every place. </p>","0","comp_answer","","","","","","","","","","","","","",""
"comp-q","110","666913","0.0-3.0-15.0-0.4-0.4","spark_pilot_2","7336","7","13","Male","","","","","","","730.3999999999069","<p> <b> True or False? </b> </p><p> If you see a different picture, it means you are in a new place. </p>","1","comp_question","","","","true","","","","","","","","","",""
"comp-q","111","680083","0.0-3.0-15.0-0.4-1.4","spark_pilot_2","7336","7","13","Male","","","","","","","1940","<p> <b> That's right! </b> Lots of different images may show the same place. For example,  you may see three different images that all remind you that you are in outer space. </p>","0","comp_answer","","","","","","","","","","","","","",""
"learning-instructions","112","691871","0.0-3.0-16.0-0.0","spark_pilot_2","7336","7","13","Male","","","","","","","1928.1999999997206","<p> Good job. Remember to do your best because the amount of treasure you earn will be converted into bonus money. </p>
            <p> It’s time to start the real game! </p>","","instructions","","","","","","","","","","","","","",""
"learning-instructions","113","695701","0.0-4.0-0.0-0.0","spark_pilot_2","7336","7","13","Male","","","","","","","1058.1000000000931","<p> This time you are searching for treasure in the <b>canyon</b>.</p>","","instructions","","","","","","","","","","","","","",""
"learning-instructions","114","714615","0.0-4.0-0.0-0.1","spark_pilot_2","7336","7","13","Male","","","","","","","1622.1000000000931","<p><b>New</b> animals with <b>new</b> treasure chests live here. You need to explore to discover where the animal with the best treasure chest is.</p>
                    <p> Like before, once you figure out which animal has the chest with the most treasure, you should try to get to that animal and select that chest! </p>","","instructions","","","","","","","","","","","","","",""
"learning-instructions","115","732970","0.0-4.0-1.0-0.0","spark_pilot_2","7336","7","13","Male","","","","","","","3627.399999999907","<p> Remember, when you see a picture of the place, use the up and down keys to <b>find an animal</b>.</p>
            <p> When you encounter an animal, you should use the left and right keys to <b>select a treasure chest</b>.</p>
            <p> Don't forget to look out for the robber! </p>","","instructions","","","","","","","","","","","","","",""
"revaluation","116","739016","0.0-4.0-2.0-0.0","spark_pilot_2","7336","7","13","Male","","false","","","","","[1310.2000000001863,874.8999999999069]","./assets/img/canyon/memory/39.jpg","[""ArrowDown"",""ArrowRight""]","value training","canyon","30","{""ArrowUp,ArrowLeft"":23,""ArrowUp,ArrowRight"":10,""ArrowDown,ArrowLeft"":8,""ArrowDown,ArrowRight"":30}","true","ArrowDown,ArrowRight","false","","","original","1","0","","",""
"html-keyboard-response","117","739540","0.0-4.0-2.0-1.0","spark_pilot_2","7336","7","13","Male","","","","","","","null","<div style=""font-size:60px;"">+</div>","null","fixation","","","","","","","","","","","1","","",""
"revaluation","118","745571","0.0-4.0-2.0-0.1","spark_pilot_2","7336","7","13","Male","","false","","","","","[642.2999999998137,795.1000000000931]","./assets/img/canyon/memory/14.jpg","[""ArrowDown"",""ArrowRight""]","value training","canyon","30","{""ArrowUp,ArrowLeft"":23,""ArrowUp,ArrowRight"":10,""ArrowDown,ArrowLeft"":8,""ArrowDown,ArrowRight"":30}","true","ArrowDown,ArrowRight","false","","","original","1","2","","",""
"html-keyboard-response","119","746084","0.0-4.0-2.0-1.1","spark_pilot_2","7336","7","13","Male","","","","","","","null","<div style=""font-size:60px;"">+</div>","null","fixation","","","","","","","","","","","3","","",""
"revaluation","120","752111","0.0-4.0-2.0-0.2","spark_pilot_2","7336","7","13","Male","","false","","","","","[330.79999999981374,790.8999999999069]","./assets/img/canyon/memory/31.jpg","[""ArrowDown"",""ArrowLeft""]","value training","canyon","8","{""ArrowUp,ArrowLeft"":23,""ArrowUp,ArrowRight"":10,""ArrowDown,ArrowLeft"":8,""ArrowDown,ArrowRight"":30}","false","ArrowDown,ArrowLeft","false","","","original","1","4","","",""
"html-keyboard-response","121","752631","0.0-4.0-2.0-1.2","spark_pilot_2","7336","7","13","Male","","","","","","","null","<div style=""font-size:60px;"">+</div>","null","fixation","","","","","","","","","","","5","","",""
"revaluation","122","756662","0.0-4.0-2.0-0.3","spark_pilot_2","7336","7","13","Male","","false","","","","","[696.3000000002794]","./assets/img/canyon/catch/5.jpg","[""ArrowUp""]","value training","canyon","-10","{""ArrowUp,ArrowLeft"":23,""ArrowUp,ArrowRight"":10,""ArrowDown,ArrowLeft"":8,""ArrowDown,ArrowRight"":30}","false","ArrowUp","true","","","original","1","6","","",""
"html-keyboard-response","123","757172","0.0-4.0-2.0-1.3","spark_pilot_2","7336","7","13","Male","","","","","","","null","<div style=""font-size:60px;"">+</div>","null","fixation","","","","","","","","","","","7","","",""
"revaluation","124","763192","0.0-4.0-2.0-0.4","spark_pilot_2","7336","7","13","Male","","false","","","","","[891.5,1095.7999999998137]","./assets/img/canyon/memory/27.jpg","[""ArrowUp"",""ArrowRight""]","value training","canyon","10","{""ArrowUp,ArrowLeft"":23,""ArrowUp,ArrowRight"":10,""ArrowDown,ArrowLeft"":8,""ArrowDown,ArrowRight"":30}","false","ArrowUp,ArrowRight","false","","","original","1","8","","",""
"html-keyboard-response","125","763693","0.0-4.0-2.0-1.4","spark_pilot_2","7336","7","13","Male","","","","","","","null","<div style=""font-size:60px;"">+</div>","null","fixation","","","","","","","","","","","9","","",""
"revaluation","126","769698","0.0-4.0-2.0-0.5","spark_pilot_2","7336","7","13","Male","","false","","","","","[422.40000000037253,647.5]","./assets/img/canyon/memory/38.jpg","[""ArrowUp"",""ArrowLeft""]","value training","canyon","23","{""ArrowUp,ArrowLeft"":23,""ArrowUp,ArrowRight"":10,""ArrowDown,ArrowLeft"":8,""ArrowDown,ArrowRight"":30}","false","ArrowUp,ArrowLeft","false","","","original","1","10","","",""
"html-keyboard-response","127","770199","0.0-4.0-2.0-1.5","spark_pilot_2","7336","7","13","Male","","","","","","","null","<div style=""font-size:60px;"">+</div>","null","fixation","","","","","","","","","","","11","","",""
"revaluation","128","776204","0.0-4.0-2.0-0.6","spark_pilot_2","7336","7","13","Male","","false","","","","","[884.8999999999069,481.70000000018626]","./assets/img/canyon/memory/39.jpg","[""ArrowDown"",""ArrowRight""]","value training","canyon","30","{""ArrowUp,ArrowLeft"":23,""ArrowUp,ArrowRight"":10,""ArrowDown,ArrowLeft"":8,""ArrowDown,ArrowRight"":30}","true","ArrowDown,ArrowRight","false","","","original","1","12","","",""
"html-keyboard-response","129","776705","0.0-4.0-2.0-1.6","spark_pilot_2","7336","7","13","Male","","","","","","","null","<div style=""font-size:60px;"">+</div>","null","fixation","","","","","","","","","","","13","","",""
"revaluation","130","782710","0.0-4.0-2.0-0.7","spark_pilot_2","7336","7","13","Male","","false","","","","","[637,811.6999999997206]","./assets/img/canyon/memory/7.jpg","[""ArrowUp"",""ArrowRight""]","value training","canyon","10","{""ArrowUp,ArrowLeft"":23,""ArrowUp,ArrowRight"":10,""ArrowDown,ArrowLeft"":8,""ArrowDown,ArrowRight"":30}","false","ArrowUp,ArrowRight","false","","","original","1","14","","",""
"html-keyboard-response","131","783212","0.0-4.0-2.0-1.7","spark_pilot_2","7336","7","13","Male","","","","","","","null","<div style=""font-size:60px;"">+</div>","null","fixation","","","","","","","","","","","15","","",""
"revaluation","132","787215","0.0-4.0-2.0-0.8","spark_pilot_2","7336","7","13","Male","","false","","","","","[759.8999999999069]","./assets/img/canyon/catch/1.jpg","[""spaceBar""]","value training","canyon","0","{""ArrowUp,ArrowLeft"":23,""ArrowUp,ArrowRight"":10,""ArrowDown,ArrowLeft"":8,""ArrowDown,ArrowRight"":30}","true","spaceBar","true","","","original","1","16","","",""
"html-keyboard-response","133","787717","0.0-4.0-2.0-1.8","spark_pilot_2","7336","7","13","Male","","","","","","","null","<div style=""font-size:60px;"">+</div>","null","fixation","","","","","","","","","","","17","","",""
"revaluation","134","793723","0.0-4.0-2.0-0.9","spark_pilot_2","7336","7","13","Male","","false","","","","","[468.5,293]","./assets/img/canyon/memory/9.jpg","[""ArrowDown"",""ArrowRight""]","value training","canyon","30","{""ArrowUp,ArrowLeft"":23,""ArrowUp,ArrowRight"":10,""ArrowDown,ArrowLeft"":8,""ArrowDown,ArrowRight"":30}","true","ArrowDown,ArrowRight","false","","","original","1","18","","",""
"html-keyboard-response","135","794224","0.0-4.0-2.0-1.9","spark_pilot_2","7336","7","13","Male","","","","","","","null","<div style=""font-size:60px;"">+</div>","null","fixation","","","","","","","","","","","19","","",""
"revaluation","136","800229","0.0-4.0-2.0-0.10","spark_pilot_2","7336","7","13","Male","","false","","","","","[726,322.5]","./assets/img/canyon/memory/29.jpg","[""ArrowUp"",""ArrowLeft""]","value training","canyon","23","{""ArrowUp,ArrowLeft"":23,""ArrowUp,ArrowRight"":10,""ArrowDown,ArrowLeft"":8,""ArrowDown,ArrowRight"":30}","false","ArrowUp,ArrowLeft","false","","","original","1","20","","",""
"html-keyboard-response","137","800730","0.0-4.0-2.0-1.10","spark_pilot_2","7336","7","13","Male","","","","","","","null","<div style=""font-size:60px;"">+</div>","null","fixation","","","","","","","","","","","21","","",""
"revaluation","138","806736","0.0-4.0-2.0-0.11","spark_pilot_2","7336","7","13","Male","","false","","","","","[720.2999999998137,350.6999999997206]","./assets/img/canyon/memory/9.jpg","[""ArrowDown"",""ArrowRight""]","value training","canyon","30","{""ArrowUp,ArrowLeft"":23,""ArrowUp,ArrowRight"":10,""ArrowDown,ArrowLeft"":8,""ArrowDown,ArrowRight"":30}","true","ArrowDown,ArrowRight","false","","","original","1","22","","",""
"html-keyboard-response","139","807237","0.0-4.0-2.0-1.11","spark_pilot_2","7336","7","13","Male","","","","","","","null","<div style=""font-size:60px;"">+</div>","null","fixation","","","","","","","","","","","23","","",""
"revaluation","140","811240","0.0-4.0-2.0-0.12","spark_pilot_2","7336","7","13","Male","","false","","","","","[823]","./assets/img/canyon/catch/4.jpg","[""spaceBar""]","value training","canyon","0","{""ArrowUp,ArrowLeft"":23,""ArrowUp,ArrowRight"":10,""ArrowDown,ArrowLeft"":8,""ArrowDown,ArrowRight"":30}","true","spaceBar","true","","","original","1","24","","",""
"html-keyboard-response","141","811741","0.0-4.0-2.0-1.12","spark_pilot_2","7336","7","13","Male","","","","","","","null","<div style=""font-size:60px;"">+</div>","null","fixation","","","","","","","","","","","25","","",""
"revaluation","142","817757","0.0-4.0-2.0-0.13","spark_pilot_2","7336","7","13","Male","","false","","","","","[641.5999999996275,401.20000000018626]","./assets/img/canyon/memory/17.jpg","[""ArrowDown"",""ArrowRight""]","value training","canyon","30","{""ArrowUp,ArrowLeft"":23,""ArrowUp,ArrowRight"":10,""ArrowDown,ArrowLeft"":8,""ArrowDown,ArrowRight"":30}","true","ArrowDown,ArrowRight","false","","","original","1","26","","",""
"html-keyboard-response","143","818258","0.0-4.0-2.0-1.13","spark_pilot_2","7336","7","13","Male","","","","","","","null","<div style=""font-size:60px;"">+</div>","null","fixation","","","","","","","","","","","27","","",""
"revaluation","144","824261","0.0-4.0-2.0-0.14","spark_pilot_2","7336","7","13","Male","","false","","","","","[819.6000000005588,665.1000000005588]","./assets/img/canyon/memory/13.jpg","[""ArrowDown"",""ArrowRight""]","value training","canyon","30","{""ArrowUp,ArrowLeft"":23,""ArrowUp,ArrowRight"":10,""ArrowDown,ArrowLeft"":8,""ArrowDown,ArrowRight"":30}","true","ArrowDown,ArrowRight","false","","","original","1","28","","",""
"html-keyboard-response","145","824763","0.0-4.0-2.0-1.14","spark_pilot_2","7336","7","13","Male","","","","","","","null","<div style=""font-size:60px;"">+</div>","null","fixation","","","","","","","","","","","29","","",""
"revaluation","146","830769","0.0-4.0-2.0-0.15","spark_pilot_2","7336","7","13","Male","","false","","","","","[1279.0999999996275,1009.5]","./assets/img/canyon/memory/35.jpg","[""ArrowDown"",""ArrowRight""]","value training","canyon","30","{""ArrowUp,ArrowLeft"":23,""ArrowUp,ArrowRight"":10,""ArrowDown,ArrowLeft"":8,""ArrowDown,ArrowRight"":30}","true","ArrowDown,ArrowRight","false","","","original","1","30","","",""
"html-keyboard-response","147","831270","0.0-4.0-2.0-1.15","spark_pilot_2","7336","7","13","Male","","","","","","","null","<div style=""font-size:60px;"">+</div>","null","fixation","","","","","","","","","","","31","","",""
"revaluation","148","837273","0.0-4.0-2.0-0.16","spark_pilot_2","7336","7","13","Male","","false","","","","","[448.79999999981374,283]","./assets/img/canyon/memory/13.jpg","[""ArrowDown"",""ArrowRight""]","value training","canyon","30","{""ArrowUp,ArrowLeft"":23,""ArrowUp,ArrowRight"":10,""ArrowDown,ArrowLeft"":8,""ArrowDown,ArrowRight"":30}","true","ArrowDown,ArrowRight","false","","","original","1","32","","",""
"html-keyboard-response","149","837774","0.0-4.0-2.0-1.16","spark_pilot_2","7336","7","13","Male","","","","","","","null","<div style=""font-size:60px;"">+</div>","null","fixation","","","","","","","","","","","33","","",""
"revaluation","150","843779","0.0-4.0-2.0-0.17","spark_pilot_2","7336","7","13","Male","","false","","","","","[1178.0999999996275,379]","./assets/img/canyon/memory/8.jpg","[""ArrowDown"",""ArrowRight""]","value training","canyon","30","{""ArrowUp,ArrowLeft"":23,""ArrowUp,ArrowRight"":10,""ArrowDown,ArrowLeft"":8,""ArrowDown,ArrowRight"":30}","true","ArrowDown,ArrowRight","false","","","original","1","34","","",""
"html-keyboard-response","151","844281","0.0-4.0-2.0-1.17","spark_pilot_2","7336","7","13","Male","","","","","","","null","<div style=""font-size:60px;"">+</div>","null","fixation","","","","","","","","","","","35","","",""
"revaluation","152","850293","0.0-4.0-2.0-0.18","spark_pilot_2","7336","7","13","Male","","false","","","","","[478.20000000018626,320.09999999962747]","./assets/img/canyon/memory/23.jpg","[""ArrowDown"",""ArrowRight""]","value training","canyon","30","{""ArrowUp,ArrowLeft"":23,""ArrowUp,ArrowRight"":10,""ArrowDown,ArrowLeft"":8,""ArrowDown,ArrowRight"":30}","true","ArrowDown,ArrowRight","false","","","original","1","36","","",""
"html-keyboard-response","153","850794","0.0-4.0-2.0-1.18","spark_pilot_2","7336","7","13","Male","","","","","","","null","<div style=""font-size:60px;"">+</div>","null","fixation","","","","","","","","","","","37","","",""
"revaluation","154","856800","0.0-4.0-2.0-0.19","spark_pilot_2","7336","7","13","Male","","false","","","","","[709.4000000003725,335.79999999981374]","./assets/img/canyon/memory/8.jpg","[""ArrowDown"",""ArrowRight""]","value training","canyon","30","{""ArrowUp,ArrowLeft"":23,""ArrowUp,ArrowRight"":10,""ArrowDown,ArrowLeft"":8,""ArrowDown,ArrowRight"":30}","true","ArrowDown,ArrowRight","false","","","original","1","38","","",""
"html-keyboard-response","155","857301","0.0-4.0-2.0-1.19","spark_pilot_2","7336","7","13","Male","","","","","","","null","<div style=""font-size:60px;"">+</div>","null","fixation","","","","","","","","","","","39","","",""
"revaluation","156","863305","0.0-4.0-2.0-0.20","spark_pilot_2","7336","7","13","Male","","false","","","","","[1031,1898.6000000005588]","./assets/img/canyon/memory/31.jpg","[""ArrowDown"",""ArrowRight""]","value training","canyon","30","{""ArrowUp,ArrowLeft"":23,""ArrowUp,ArrowRight"":10,""ArrowDown,ArrowLeft"":8,""ArrowDown,ArrowRight"":30}","true","ArrowDown,ArrowRight","false","","","original","1","40","","",""
"html-keyboard-response","157","863806","0.0-4.0-2.0-1.20","spark_pilot_2","7336","7","13","Male","","","","","","","null","<div style=""font-size:60px;"">+</div>","null","fixation","","","","","","","","","","","41","","",""
"revaluation","158","869812","0.0-4.0-2.0-0.21","spark_pilot_2","7336","7","13","Male","","false","","","","","[1143.2999999998137,806.7999999998137]","./assets/img/canyon/memory/12.jpg","[""ArrowDown"",""ArrowRight""]","value training","canyon","30","{""ArrowUp,ArrowLeft"":23,""ArrowUp,ArrowRight"":10,""ArrowDown,ArrowLeft"":8,""ArrowDown,ArrowRight"":30}","true","ArrowDown,ArrowRight","false","","","original","1","42","","",""
"html-keyboard-response","159","870313","0.0-4.0-2.0-1.21","spark_pilot_2","7336","7","13","Male","","","","","","","null","<div style=""font-size:60px;"">+</div>","null","fixation","","","","","","","","","","","43","","",""
"revaluation","160","876319","0.0-4.0-2.0-0.22","spark_pilot_2","7336","7","13","Male","","false","","","","","[1057.5,355.70000000018626]","./assets/img/canyon/memory/40.jpg","[""ArrowDown"",""ArrowRight""]","value training","canyon","30","{""ArrowUp,ArrowLeft"":23,""ArrowUp,ArrowRight"":10,""ArrowDown,ArrowLeft"":8,""ArrowDown,ArrowRight"":30}","true","ArrowDown,ArrowRight","false","","","original","1","44","","",""
"html-keyboard-response","161","876820","0.0-4.0-2.0-1.22","spark_pilot_2","7336","7","13","Male","","","","","","","null","<div style=""font-size:60px;"">+</div>","null","fixation","","","","","","","","","","","45","","",""
"revaluation","162","882826","0.0-4.0-2.0-0.23","spark_pilot_2","7336","7","13","Male","","false","","","","","[1176.7999999998137,377.40000000037253]","./assets/img/canyon/memory/23.jpg","[""ArrowDown"",""ArrowRight""]","value training","canyon","30","{""ArrowUp,ArrowLeft"":23,""ArrowUp,ArrowRight"":10,""ArrowDown,ArrowLeft"":8,""ArrowDown,ArrowRight"":30}","true","ArrowDown,ArrowRight","false","","","original","1","46","","",""
"html-keyboard-response","163","883328","0.0-4.0-2.0-1.23","spark_pilot_2","7336","7","13","Male","","","","","","","null","<div style=""font-size:60px;"">+</div>","null","fixation","","","","","","","","","","","47","","",""
"revaluation","164","889333","0.0-4.0-2.0-0.24","spark_pilot_2","7336","7","13","Male","","false","","","","","[560.5,509.3999999994412]","./assets/img/canyon/memory/2.jpg","[""ArrowDown"",""ArrowRight""]","value training","canyon","30","{""ArrowUp,ArrowLeft"":23,""ArrowUp,ArrowRight"":10,""ArrowDown,ArrowLeft"":8,""ArrowDown,ArrowRight"":30}","true","ArrowDown,ArrowRight","false","","","original","1","48","","",""
"html-keyboard-response","165","889834","0.0-4.0-2.0-1.24","spark_pilot_2","7336","7","13","Male","","","","","","","null","<div style=""font-size:60px;"">+</div>","null","fixation","","","","","","","","","","","49","","",""
"revaluation","166","895838","0.0-4.0-2.0-0.25","spark_pilot_2","7336","7","13","Male","","false","","","","","[651.9000000003725,387.1000000005588]","./assets/img/canyon/memory/40.jpg","[""ArrowDown"",""ArrowRight""]","value training","canyon","30","{""ArrowUp,ArrowLeft"":23,""ArrowUp,ArrowRight"":10,""ArrowDown,ArrowLeft"":8,""ArrowDown,ArrowRight"":30}","true","ArrowDown,ArrowRight","false","","","original","1","50","","",""
"html-keyboard-response","167","896339","0.0-4.0-2.0-1.25","spark_pilot_2","7336","7","13","Male","","","","","","","null","<div style=""font-size:60px;"">+</div>","null","fixation","","","","","","","","","","","51","","",""
"revaluation","168","902344","0.0-4.0-2.0-0.26","spark_pilot_2","7336","7","13","Male","","false","","","","","[779.3999999994412,411.70000000018626]","./assets/img/canyon/memory/36.jpg","[""ArrowDown"",""ArrowRight""]","value training","canyon","30","{""ArrowUp,ArrowLeft"":23,""ArrowUp,ArrowRight"":10,""ArrowDown,ArrowLeft"":8,""ArrowDown,ArrowRight"":30}","true","ArrowDown,ArrowRight","false","","","original","1","52","","",""
"html-keyboard-response","169","902846","0.0-4.0-2.0-1.26","spark_pilot_2","7336","7","13","Male","","","","","","","null","<div style=""font-size:60px;"">+</div>","null","fixation","","","","","","","","","","","53","","",""
"revaluation","170","908861","0.0-4.0-2.0-0.27","spark_pilot_2","7336","7","13","Male","","false","","","","","[1151.1000000005588,724.3000000007451]","./assets/img/canyon/memory/27.jpg","[""ArrowDown"",""ArrowRight""]","value training","canyon","30","{""ArrowUp,ArrowLeft"":23,""ArrowUp,ArrowRight"":10,""ArrowDown,ArrowLeft"":8,""ArrowDown,ArrowRight"":30}","true","ArrowDown,ArrowRight","false","","","original","1","54","","",""
"html-keyboard-response","171","909375","0.0-4.0-2.0-1.27","spark_pilot_2","7336","7","13","Male","","","","","","","null","<div style=""font-size:60px;"">+</div>","null","fixation","","","","","","","","","","","55","","",""
"revaluation","172","913380","0.0-4.0-2.0-0.28","spark_pilot_2","7336","7","13","Male","","false","","","","","[968.1000000005588]","./assets/img/canyon/catch/7.jpg","[""spaceBar""]","value training","canyon","0","{""ArrowUp,ArrowLeft"":23,""ArrowUp,ArrowRight"":10,""ArrowDown,ArrowLeft"":8,""ArrowDown,ArrowRight"":30}","true","spaceBar","true","","","original","1","56","","",""
"html-keyboard-response","173","913882","0.0-4.0-2.0-1.28","spark_pilot_2","7336","7","13","Male","","","","","","","null","<div style=""font-size:60px;"">+</div>","null","fixation","","","","","","","","","","","57","","",""
"revaluation","174","919886","0.0-4.0-2.0-0.29","spark_pilot_2","7336","7","13","Male","","false","","","","","[1223.3999999994412,851.9000000003725]","./assets/img/canyon/memory/38.jpg","[""ArrowDown"",""ArrowRight""]","value training","canyon","30","{""ArrowUp,ArrowLeft"":23,""ArrowUp,ArrowRight"":10,""ArrowDown,ArrowLeft"":8,""ArrowDown,ArrowRight"":30}","true","ArrowDown,ArrowRight","false","","","original","1","58","","",""
"html-keyboard-response","175","920388","0.0-4.0-2.0-1.29","spark_pilot_2","7336","7","13","Male","","","","","","","null","<div style=""font-size:60px;"">+</div>","null","fixation","","","","","","","","","","","59","","",""
"revaluation","176","926392","0.0-4.0-2.0-0.30","spark_pilot_2","7336","7","13","Male","","false","","","","","[1134.199999999255,485.79999999981374]","./assets/img/canyon/memory/2.jpg","[""ArrowDown"",""ArrowRight""]","value training","canyon","30","{""ArrowUp,ArrowLeft"":23,""ArrowUp,ArrowRight"":10,""ArrowDown,ArrowLeft"":8,""ArrowDown,ArrowRight"":30}","true","ArrowDown,ArrowRight","false","","","original","1","60","","",""
"html-keyboard-response","177","926895","0.0-4.0-2.0-1.30","spark_pilot_2","7336","7","13","Male","","","","","","","null","<div style=""font-size:60px;"">+</div>","null","fixation","","","","","","","","","","","61","","",""
"revaluation","178","932899","0.0-4.0-2.0-0.31","spark_pilot_2","7336","7","13","Male","","false","","","","","[1088.2000000001863,470.5]","./assets/img/canyon/memory/36.jpg","[""ArrowDown"",""ArrowRight""]","value training","canyon","30","{""ArrowUp,ArrowLeft"":23,""ArrowUp,ArrowRight"":10,""ArrowDown,ArrowLeft"":8,""ArrowDown,ArrowRight"":30}","true","ArrowDown,ArrowRight","false","","","original","1","62","","",""
"html-keyboard-response","179","933400","0.0-4.0-2.0-1.31","spark_pilot_2","7336","7","13","Male","","","","","","","null","<div style=""font-size:60px;"">+</div>","null","fixation","","","","","","","","","","","63","","",""
"revaluation","180","939404","0.0-4.0-2.0-0.32","spark_pilot_2","7336","7","13","Male","","false","","","","","[1117.1000000005588,529.2999999998137]","./assets/img/canyon/memory/33.jpg","[""ArrowDown"",""ArrowRight""]","value training","canyon","30","{""ArrowUp,ArrowLeft"":23,""ArrowUp,ArrowRight"":10,""ArrowDown,ArrowLeft"":8,""ArrowDown,ArrowRight"":30}","true","ArrowDown,ArrowRight","false","","","original","1","64","","",""
"html-keyboard-response","181","939906","0.0-4.0-2.0-1.32","spark_pilot_2","7336","7","13","Male","","","","","","","null","<div style=""font-size:60px;"">+</div>","null","fixation","","","","","","","","","","","65","","",""
"revaluation","182","943909","0.0-4.0-2.0-0.33","spark_pilot_2","7336","7","13","Male","","false","","","","","[989]","./assets/img/canyon/catch/2.jpg","[""spaceBar""]","value training","canyon","0","{""ArrowUp,ArrowLeft"":23,""ArrowUp,ArrowRight"":10,""ArrowDown,ArrowLeft"":8,""ArrowDown,ArrowRight"":30}","true","spaceBar","true","","","original","1","66","","",""
"html-keyboard-response","183","944409","0.0-4.0-2.0-1.33","spark_pilot_2","7336","7","13","Male","","","","","","","null","<div style=""font-size:60px;"">+</div>","null","fixation","","","","","","","","","","","67","","",""
"revaluation","184","950415","0.0-4.0-2.0-0.34","spark_pilot_2","7336","7","13","Male","","false","","","","","[886.7000000001863,360.70000000018626]","./assets/img/canyon/memory/17.jpg","[""ArrowDown"",""ArrowRight""]","value training","canyon","30","{""ArrowUp,ArrowLeft"":23,""ArrowUp,ArrowRight"":10,""ArrowDown,ArrowLeft"":8,""ArrowDown,ArrowRight"":30}","true","ArrowDown,ArrowRight","false","","","original","1","68","","",""
"html-keyboard-response","185","950916","0.0-4.0-2.0-1.34","spark_pilot_2","7336","7","13","Male","","","","","","","null","<div style=""font-size:60px;"">+</div>","null","fixation","","","","","","","","","","","69","","",""
"revaluation","186","956921","0.0-4.0-2.0-0.35","spark_pilot_2","7336","7","13","Male","","false","","","","","[1130.9000000003725,386.29999999981374]","./assets/img/canyon/memory/21.jpg","[""ArrowDown"",""ArrowRight""]","value training","canyon","30","{""ArrowUp,ArrowLeft"":23,""ArrowUp,ArrowRight"":10,""ArrowDown,ArrowLeft"":8,""ArrowDown,ArrowRight"":30}","true","ArrowDown,ArrowRight","false","","","original","1","70","","",""
"html-keyboard-response","187","957423","0.0-4.0-2.0-1.35","spark_pilot_2","7336","7","13","Male","","","","","","","null","<div style=""font-size:60px;"">+</div>","null","fixation","","","","","","","","","","","71","","",""
"revaluation","188","961427","0.0-4.0-2.0-0.36","spark_pilot_2","7336","7","13","Male","","false","","","","","[908.9000000003725]","./assets/img/canyon/catch/6.jpg","[""spaceBar""]","value training","canyon","0","{""ArrowUp,ArrowLeft"":23,""ArrowUp,ArrowRight"":10,""ArrowDown,ArrowLeft"":8,""ArrowDown,ArrowRight"":30}","true","spaceBar","true","","","original","1","72","","",""
"html-keyboard-response","189","961928","0.0-4.0-2.0-1.36","spark_pilot_2","7336","7","13","Male","","","","","","","null","<div style=""font-size:60px;"">+</div>","null","fixation","","","","","","","","","","","73","","",""
"revaluation","190","967934","0.0-4.0-2.0-0.37","spark_pilot_2","7336","7","13","Male","","false","","","","","[720.9000000003725,539.8999999994412]","./assets/img/canyon/memory/35.jpg","[""ArrowDown"",""ArrowRight""]","value training","canyon","30","{""ArrowUp,ArrowLeft"":23,""ArrowUp,ArrowRight"":10,""ArrowDown,ArrowLeft"":8,""ArrowDown,ArrowRight"":30}","true","ArrowDown,ArrowRight","false","","","original","1","74","","",""
"html-keyboard-response","191","968435","0.0-4.0-2.0-1.37","spark_pilot_2","7336","7","13","Male","","","","","","","null","<div style=""font-size:60px;"">+</div>","null","fixation","","","","","","","","","","","75","","",""
"revaluation","192","974439","0.0-4.0-2.0-0.38","spark_pilot_2","7336","7","13","Male","","false","","","","","[538.7000000001863,457.3999999994412]","./assets/img/canyon/memory/16.jpg","[""ArrowDown"",""ArrowRight""]","value training","canyon","30","{""ArrowUp,ArrowLeft"":23,""ArrowUp,ArrowRight"":10,""ArrowDown,ArrowLeft"":8,""ArrowDown,ArrowRight"":30}","true","ArrowDown,ArrowRight","false","","","original","1","76","","",""
"html-keyboard-response","193","974941","0.0-4.0-2.0-1.38","spark_pilot_2","7336","7","13","Male","","","","","","","null","<div style=""font-size:60px;"">+</div>","null","fixation","","","","","","","","","","","77","","",""
"revaluation","194","980946","0.0-4.0-2.0-0.39","spark_pilot_2","7336","7","13","Male","","false","","","","","[842.8000000007451,425.70000000018626]","./assets/img/canyon/memory/16.jpg","[""ArrowDown"",""ArrowRight""]","value training","canyon","30","{""ArrowUp,ArrowLeft"":23,""ArrowUp,ArrowRight"":10,""ArrowDown,ArrowLeft"":8,""ArrowDown,ArrowRight"":30}","true","ArrowDown,ArrowRight","false","","","original","1","78","","",""
"html-keyboard-response","195","981447","0.0-4.0-2.0-1.39","spark_pilot_2","7336","7","13","Male","","","","","","","null","<div style=""font-size:60px;"">+</div>","null","fixation","","","","","","","","","","","79","","",""
"revaluation","196","987451","0.0-4.0-2.0-0.40","spark_pilot_2","7336","7","13","Male","","false","","","","","[1093.7000000001863,498.5]","./assets/img/canyon/memory/33.jpg","[""ArrowDown"",""ArrowRight""]","value training","canyon","30","{""ArrowUp,ArrowLeft"":23,""ArrowUp,ArrowRight"":10,""ArrowDown,ArrowLeft"":8,""ArrowDown,ArrowRight"":30}","true","ArrowDown,ArrowRight","false","","","original","1","80","","",""
"html-keyboard-response","197","987952","0.0-4.0-2.0-1.40","spark_pilot_2","7336","7","13","Male","","","","","","","null","<div style=""font-size:60px;"">+</div>","null","fixation","","","","","","","","","","","81","","",""
"revaluation","198","991955","0.0-4.0-2.0-0.41","spark_pilot_2","7336","7","13","Male","","false","","","","","[914.5999999996275]","./assets/img/canyon/catch/3.jpg","[""spaceBar""]","value training","canyon","0","{""ArrowUp,ArrowLeft"":23,""ArrowUp,ArrowRight"":10,""ArrowDown,ArrowLeft"":8,""ArrowDown,ArrowRight"":30}","true","spaceBar","true","","","original","1","82","","",""
"html-keyboard-response","199","992456","0.0-4.0-2.0-1.41","spark_pilot_2","7336","7","13","Male","","","","","","","null","<div style=""font-size:60px;"">+</div>","null","fixation","","","","","","","","","","","83","","",""
"revaluation","200","998461","0.0-4.0-2.0-0.42","spark_pilot_2","7336","7","13","Male","","false","","","","","[1093.4000000003725,940.1000000005588]","./assets/img/canyon/memory/12.jpg","[""ArrowDown"",""ArrowRight""]","value training","canyon","30","{""ArrowUp,ArrowLeft"":23,""ArrowUp,ArrowRight"":10,""ArrowDown,ArrowLeft"":8,""ArrowDown,ArrowRight"":30}","true","ArrowDown,ArrowRight","false","","","original","1","84","","",""
"html-keyboard-response","201","998962","0.0-4.0-2.0-1.42","spark_pilot_2","7336","7","13","Male","","","","","","","null","<div style=""font-size:60px;"">+</div>","null","fixation","","","","","","","","","","","85","","",""
"revaluation","202","1004968","0.0-4.0-2.0-0.43","spark_pilot_2","7336","7","13","Male","","false","","","","","[1100.4000000003725,1190.5]","./assets/img/canyon/memory/11.jpg","[""ArrowDown"",""ArrowRight""]","value training","canyon","30","{""ArrowUp,ArrowLeft"":23,""ArrowUp,ArrowRight"":10,""ArrowDown,ArrowLeft"":8,""ArrowDown,ArrowRight"":30}","true","ArrowDown,ArrowRight","false","","","original","1","86","","",""
"html-keyboard-response","203","1005470","0.0-4.0-2.0-1.43","spark_pilot_2","7336","7","13","Male","","","","","","","null","<div style=""font-size:60px;"">+</div>","null","fixation","","","","","","","","","","","87","","",""
"revaluation","204","1011476","0.0-4.0-2.0-0.44","spark_pilot_2","7336","7","13","Male","","false","","","","","[1104.300000000745,1030.3999999994412]","./assets/img/canyon/memory/11.jpg","[""ArrowDown"",""ArrowRight""]","value training","canyon","30","{""ArrowUp,ArrowLeft"":23,""ArrowUp,ArrowRight"":10,""ArrowDown,ArrowLeft"":8,""ArrowDown,ArrowRight"":30}","true","ArrowDown,ArrowRight","false","","","original","1","88","","",""
"html-keyboard-response","205","1011977","0.0-4.0-2.0-1.44","spark_pilot_2","7336","7","13","Male","","","","","","","null","<div style=""font-size:60px;"">+</div>","null","fixation","","","","","","","","","","","89","","",""
"revaluation","206","1017981","0.0-4.0-2.0-0.45","spark_pilot_2","7336","7","13","Male","","false","","","","","[1238.2999999998137,1220.300000000745]","./assets/img/canyon/memory/21.jpg","[""ArrowDown"",""ArrowRight""]","value training","canyon","30","{""ArrowUp,ArrowLeft"":23,""ArrowUp,ArrowRight"":10,""ArrowDown,ArrowLeft"":8,""ArrowDown,ArrowRight"":30}","true","ArrowDown,ArrowRight","false","","","original","1","90","","",""
"html-keyboard-response","207","1018484","0.0-4.0-2.0-1.45","spark_pilot_2","7336","7","13","Male","","","","","","","null","<div style=""font-size:60px;"">+</div>","null","fixation","","","","","","","","","","","91","","",""
"revaluation","208","1022489","0.0-4.0-2.0-0.46","spark_pilot_2","7336","7","13","Male","","false","","","","","[1013.2000000001863]","./assets/img/canyon/catch/0.jpg","[""spaceBar""]","value training","canyon","0","{""ArrowUp,ArrowLeft"":23,""ArrowUp,ArrowRight"":10,""ArrowDown,ArrowLeft"":8,""ArrowDown,ArrowRight"":30}","true","spaceBar","true","","","original","1","92","","",""
"html-keyboard-response","209","1022990","0.0-4.0-2.0-1.46","spark_pilot_2","7336","7","13","Male","","","","","","","null","<div style=""font-size:60px;"">+</div>","null","fixation","","","","","","","","","","","93","","",""
"revaluation","210","1028995","0.0-4.0-2.0-0.47","spark_pilot_2","7336","7","13","Male","","false","","","","","[1142.2999999998137,1013.7999999998137]","./assets/img/canyon/memory/14.jpg","[""ArrowDown"",""ArrowRight""]","value training","canyon","30","{""ArrowUp,ArrowLeft"":23,""ArrowUp,ArrowRight"":10,""ArrowDown,ArrowLeft"":8,""ArrowDown,ArrowRight"":30}","true","ArrowDown,ArrowRight","false","","","original","1","94","","",""
"html-keyboard-response","211","1029497","0.0-4.0-2.0-1.47","spark_pilot_2","7336","7","13","Male","","","","","","","null","<div style=""font-size:60px;"">+</div>","null","fixation","","","","","","","","","","","95","","",""
"revaluation","212","1035502","0.0-4.0-2.0-0.48","spark_pilot_2","7336","7","13","Male","","false","","","","","[1041.2000000001863,1250.7000000001863]","./assets/img/canyon/memory/7.jpg","[""ArrowDown"",""ArrowRight""]","value training","canyon","30","{""ArrowUp,ArrowLeft"":23,""ArrowUp,ArrowRight"":10,""ArrowDown,ArrowLeft"":8,""ArrowDown,ArrowRight"":30}","true","ArrowDown,ArrowRight","false","","","original","1","96","","",""
"html-keyboard-response","213","1036003","0.0-4.0-2.0-1.48","spark_pilot_2","7336","7","13","Male","","","","","","","null","<div style=""font-size:60px;"">+</div>","null","fixation","","","","","","","","","","","97","","",""
"revaluation","214","1040007","0.0-4.0-2.0-0.49","spark_pilot_2","7336","7","13","Male","","true","","","","","[]","./assets/img/canyon/memory/29.jpg","[]","value training","canyon","-5","{""ArrowUp,ArrowLeft"":23,""ArrowUp,ArrowRight"":10,""ArrowDown,ArrowLeft"":8,""ArrowDown,ArrowRight"":30}","false","","false","","","original","1","98","","",""
"html-keyboard-response","215","1040509","0.0-4.0-2.0-1.49","spark_pilot_2","7336","7","13","Male","","","","","","","null","<div style=""font-size:60px;"">+</div>","null","fixation","","","","","","","","","","","99","","",""
"learning-instructions","216","1055754","0.0-4.0-3.0-0.0","spark_pilot_2","7336","7","13","Male","","","","","","","1809.3999999994412","<p> Now, you will travel with a friend who will choose whether you go up or down first. </p>
            <p> On these turns, you will just see the animal that they found. You will still get to choose which chest to search for treasure.</p>","","instructions","","","","","","","","","","","","","",""
"revaluation","217","1059783","0.0-4.0-4.0-0.0","spark_pilot_2","7336","7","13","Male","","false","","","","","[690.2000000001863]","./assets/img/canyon/animals/lion.jpg","[""ArrowRight""]","revaluation","canyon","10","{""ArrowUp,ArrowLeft"":23,""ArrowUp,ArrowRight"":10,""ArrowDown,ArrowLeft"":8,""ArrowDown,ArrowRight"":30}","false","ArrowUp,ArrowRight","","","","original","1","0","","",""
"html-keyboard-response","218","1060289","0.0-4.0-4.0-1.0","spark_pilot_2","7336","7","13","Male","","","","","","","null","<div style=""font-size:60px;"">+</div>","null","fixation","","","","","","","","","","","1","","",""
"revaluation","219","1064334","0.0-4.0-4.0-0.1","spark_pilot_2","7336","7","13","Male","","false","","","","","[523.5]","./assets/img/canyon/animals/lion.jpg","[""ArrowLeft""]","revaluation","canyon","23","{""ArrowUp,ArrowLeft"":23,""ArrowUp,ArrowRight"":10,""ArrowDown,ArrowLeft"":8,""ArrowDown,ArrowRight"":30}","true","ArrowUp,ArrowLeft","","","","original","1","2","","",""
"html-keyboard-response","220","1064882","0.0-4.0-4.0-1.1","spark_pilot_2","7336","7","13","Male","","","","","","","null","<div style=""font-size:60px;"">+</div>","null","fixation","","","","","","","","","","","3","","",""
"revaluation","221","1068923","0.0-4.0-4.0-0.2","spark_pilot_2","7336","7","13","Male","","false","","","","","[934.9000000003725]","./assets/img/canyon/animals/giraffe.jpg","[""ArrowRight""]","revaluation","canyon","30","{""ArrowUp,ArrowLeft"":23,""ArrowUp,ArrowRight"":10,""ArrowDown,ArrowLeft"":8,""ArrowDown,ArrowRight"":30}","true","ArrowDown,ArrowRight","","","","original","1","4","","",""
"html-keyboard-response","222","1069443","0.0-4.0-4.0-1.2","spark_pilot_2","7336","7","13","Male","","","","","","","null","<div style=""font-size:60px;"">+</div>","null","fixation","","","","","","","","","","","5","","",""
"revaluation","223","1073473","0.0-4.0-4.0-0.3","spark_pilot_2","7336","7","13","Male","","false","","","","","[723.9000000003725]","./assets/img/canyon/animals/giraffe.jpg","[""ArrowRight""]","revaluation","canyon","30","{""ArrowUp,ArrowLeft"":23,""ArrowUp,ArrowRight"":10,""ArrowDown,ArrowLeft"":8,""ArrowDown,ArrowRight"":30}","true","ArrowDown,ArrowRight","","","","original","1","6","","",""
"html-keyboard-response","224","1073992","0.0-4.0-4.0-1.3","spark_pilot_2","7336","7","13","Male","","","","","","","null","<div style=""font-size:60px;"">+</div>","null","fixation","","","","","","","","","","","7","","",""
"revaluation","225","1078010","0.0-4.0-4.0-0.4","spark_pilot_2","7336","7","13","Male","","false","","","","","[665.3999999994412]","./assets/img/canyon/animals/lion.jpg","[""ArrowLeft""]","revaluation","canyon","23","{""ArrowUp,ArrowLeft"":23,""ArrowUp,ArrowRight"":10,""ArrowDown,ArrowLeft"":8,""ArrowDown,ArrowRight"":30}","true","ArrowUp,ArrowLeft","","","","original","1","8","","",""
"html-keyboard-response","226","1078518","0.0-4.0-4.0-1.4","spark_pilot_2","7336","7","13","Male","","","","","","","null","<div style=""font-size:60px;"">+</div>","null","fixation","","","","","","","","","","","9","","",""
"revaluation","227","1082543","0.0-4.0-4.0-0.5","spark_pilot_2","7336","7","13","Male","","false","","","","","[634.4000000003725]","./assets/img/canyon/animals/lion.jpg","[""ArrowLeft""]","revaluation","canyon","23","{""ArrowUp,ArrowLeft"":23,""ArrowUp,ArrowRight"":10,""ArrowDown,ArrowLeft"":8,""ArrowDown,ArrowRight"":30}","true","ArrowUp,ArrowLeft","","","","original","1","10","","",""
"html-keyboard-response","228","1083063","0.0-4.0-4.0-1.5","spark_pilot_2","7336","7","13","Male","","","","","","","null","<div style=""font-size:60px;"">+</div>","null","fixation","","","","","","","","","","","11","","",""
"revaluation","229","1087066","0.0-4.0-4.0-0.6","spark_pilot_2","7336","7","13","Male","","false","","","","","[696.7999999998137]","./assets/img/canyon/animals/lion.jpg","[""ArrowLeft""]","revaluation","canyon","23","{""ArrowUp,ArrowLeft"":23,""ArrowUp,ArrowRight"":10,""ArrowDown,ArrowLeft"":8,""ArrowDown,ArrowRight"":30}","true","ArrowUp,ArrowLeft","","","","original","1","12","","",""
"html-keyboard-response","230","1087567","0.0-4.0-4.0-1.6","spark_pilot_2","7336","7","13","Male","","","","","","","null","<div style=""font-size:60px;"">+</div>","null","fixation","","","","","","","","","","","13","","",""
"revaluation","231","1091571","0.0-4.0-4.0-0.7","spark_pilot_2","7336","7","13","Male","","false","","","","","[573.3999999994412]","./assets/img/canyon/animals/giraffe.jpg","[""ArrowRight""]","revaluation","canyon","30","{""ArrowUp,ArrowLeft"":23,""ArrowUp,ArrowRight"":10,""ArrowDown,ArrowLeft"":8,""ArrowDown,ArrowRight"":30}","true","ArrowDown,ArrowRight","","","","original","1","14","","",""
"html-keyboard-response","232","1092072","0.0-4.0-4.0-1.7","spark_pilot_2","7336","7","13","Male","","","","","","","null","<div style=""font-size:60px;"">+</div>","null","fixation","","","","","","","","","","","15","","",""
"revaluation","233","1096077","0.0-4.0-4.0-0.8","spark_pilot_2","7336","7","13","Male","","false","","","","","[617.1000000005588]","./assets/img/canyon/animals/giraffe.jpg","[""ArrowRight""]","revaluation","canyon","30","{""ArrowUp,ArrowLeft"":23,""ArrowUp,ArrowRight"":10,""ArrowDown,ArrowLeft"":8,""ArrowDown,ArrowRight"":30}","true","ArrowDown,ArrowRight","","","","original","1","16","","",""
"html-keyboard-response","234","1096578","0.0-4.0-4.0-1.8","spark_pilot_2","7336","7","13","Male","","","","","","","null","<div style=""font-size:60px;"">+</div>","null","fixation","","","","","","","","","","","17","","",""
"revaluation","235","1100583","0.0-4.0-4.0-0.9","spark_pilot_2","7336","7","13","Male","","false","","","","","[927.6999999992549]","./assets/img/canyon/animals/giraffe.jpg","[""ArrowRight""]","revaluation","canyon","30","{""ArrowUp,ArrowLeft"":23,""ArrowUp,ArrowRight"":10,""ArrowDown,ArrowLeft"":8,""ArrowDown,ArrowRight"":30}","true","ArrowDown,ArrowRight","","","","original","1","18","","",""
"html-keyboard-response","236","1101091","0.0-4.0-4.0-1.9","spark_pilot_2","7336","7","13","Male","","","","","","","null","<div style=""font-size:60px;"">+</div>","null","fixation","","","","","","","","","","","19","","",""
"revaluation","237","1105094","0.0-4.0-4.0-0.10","spark_pilot_2","7336","7","13","Male","","false","","","","","[959.9000000003725]","./assets/img/canyon/animals/lion.jpg","[""ArrowRight""]","revaluation","canyon","10","{""ArrowUp,ArrowLeft"":23,""ArrowUp,ArrowRight"":10,""ArrowDown,ArrowLeft"":8,""ArrowDown,ArrowRight"":30}","false","ArrowUp,ArrowRight","","","","original","1","20","","",""
"html-keyboard-response","238","1105596","0.0-4.0-4.0-1.10","spark_pilot_2","7336","7","13","Male","","","","","","","null","<div style=""font-size:60px;"">+</div>","null","fixation","","","","","","","","","","","21","","",""
"revaluation","239","1109600","0.0-4.0-4.0-0.11","spark_pilot_2","7336","7","13","Male","","false","","","","","[870]","./assets/img/canyon/animals/lion.jpg","[""ArrowLeft""]","revaluation","canyon","23","{""ArrowUp,ArrowLeft"":23,""ArrowUp,ArrowRight"":10,""ArrowDown,ArrowLeft"":8,""ArrowDown,ArrowRight"":30}","true","ArrowUp,ArrowLeft","","","","original","1","22","","",""
"html-keyboard-response","240","1110101","0.0-4.0-4.0-1.11","spark_pilot_2","7336","7","13","Male","","","","","","","null","<div style=""font-size:60px;"">+</div>","null","fixation","","","","","","","","","","","23","","",""
"revaluation","241","1114104","0.0-4.0-4.0-0.12","spark_pilot_2","7336","7","13","Male","","false","","","","","[1081]","./assets/img/canyon/animals/giraffe.jpg","[""ArrowRight""]","revaluation","canyon","30","{""ArrowUp,ArrowLeft"":23,""ArrowUp,ArrowRight"":10,""ArrowDown,ArrowLeft"":8,""ArrowDown,ArrowRight"":30}","true","ArrowDown,ArrowRight","","","","original","1","24","","",""
"html-keyboard-response","242","1114605","0.0-4.0-4.0-1.12","spark_pilot_2","7336","7","13","Male","","","","","","","null","<div style=""font-size:60px;"">+</div>","null","fixation","","","","","","","","","","","25","","",""
"revaluation","243","1118609","0.0-4.0-4.0-0.13","spark_pilot_2","7336","7","13","Male","","false","","","","","[1078.9000000003725]","./assets/img/canyon/animals/giraffe.jpg","[""ArrowRight""]","revaluation","canyon","30","{""ArrowUp,ArrowLeft"":23,""ArrowUp,ArrowRight"":10,""ArrowDown,ArrowLeft"":8,""ArrowDown,ArrowRight"":30}","true","ArrowDown,ArrowRight","","","","original","1","26","","",""
"html-keyboard-response","244","1119110","0.0-4.0-4.0-1.13","spark_pilot_2","7336","7","13","Male","","","","","","","null","<div style=""font-size:60px;"">+</div>","null","fixation","","","","","","","","","","","27","","",""
"revaluation","245","1123128","0.0-4.0-4.0-0.14","spark_pilot_2","7336","7","13","Male","","false","","","","","[1121.3999999994412]","./assets/img/canyon/animals/giraffe.jpg","[""ArrowRight""]","revaluation","canyon","30","{""ArrowUp,ArrowLeft"":23,""ArrowUp,ArrowRight"":10,""ArrowDown,ArrowLeft"":8,""ArrowDown,ArrowRight"":30}","true","ArrowDown,ArrowRight","","","","original","1","28","","",""
"html-keyboard-response","246","1123638","0.0-4.0-4.0-1.14","spark_pilot_2","7336","7","13","Male","","","","","","","null","<div style=""font-size:60px;"">+</div>","null","fixation","","","","","","","","","","","29","","",""
"revaluation","247","1127651","0.0-4.0-4.0-0.15","spark_pilot_2","7336","7","13","Male","","false","","","","","[1263.2999999998137]","./assets/img/canyon/animals/lion.jpg","[""ArrowLeft""]","revaluation","canyon","23","{""ArrowUp,ArrowLeft"":23,""ArrowUp,ArrowRight"":10,""ArrowDown,ArrowLeft"":8,""ArrowDown,ArrowRight"":30}","true","ArrowUp,ArrowLeft","","","","original","1","30","","",""
"html-keyboard-response","248","1128152","0.0-4.0-4.0-1.15","spark_pilot_2","7336","7","13","Male","","","","","","","null","<div style=""font-size:60px;"">+</div>","null","fixation","","","","","","","","","","","31","","",""
"revaluation","249","1132157","0.0-4.0-4.0-0.16","spark_pilot_2","7336","7","13","Male","","false","","","","","[1735.7999999998137]","./assets/img/canyon/animals/giraffe.jpg","[""ArrowRight""]","revaluation","canyon","30","{""ArrowUp,ArrowLeft"":23,""ArrowUp,ArrowRight"":10,""ArrowDown,ArrowLeft"":8,""ArrowDown,ArrowRight"":30}","true","ArrowDown,ArrowRight","","","","original","1","32","","",""
"html-keyboard-response","250","1132658","0.0-4.0-4.0-1.16","spark_pilot_2","7336","7","13","Male","","","","","","","null","<div style=""font-size:60px;"">+</div>","null","fixation","","","","","","","","","","","33","","",""
"revaluation","251","1136661","0.0-4.0-4.0-0.17","spark_pilot_2","7336","7","13","Male","","false","","","","","[1338.9000000003725]","./assets/img/canyon/animals/lion.jpg","[""ArrowLeft""]","revaluation","canyon","23","{""ArrowUp,ArrowLeft"":23,""ArrowUp,ArrowRight"":10,""ArrowDown,ArrowLeft"":8,""ArrowDown,ArrowRight"":30}","true","ArrowUp,ArrowLeft","","","","original","1","34","","",""
"html-keyboard-response","252","1137164","0.0-4.0-4.0-1.17","spark_pilot_2","7336","7","13","Male","","","","","","","null","<div style=""font-size:60px;"">+</div>","null","fixation","","","","","","","","","","","35","","",""
"learning-instructions","253","1150788","0.0-4.0-5.0-0.0","spark_pilot_2","7336","7","13","Male","","","","","","","1746.3999999994412","<p> Time to play the dot game! </p>
            <p> For one minute, click the red dots on the following screen as they appear. </p>
            <p><b> Don't look away, as you will earn bonus for clicking dots</b>. </p>","","instructions","","","","","","","","","","","","","",""
"revaluation","254","1210791","0.0-4.0-6.0-0.0","spark_pilot_2","7336","7","13","Male","","","","","","","[77,85,73,52,138,110,113]","","","rest","","70","","","","","0","60000","","","","","",""
"learning-instructions","255","1220116","0.0-4.0-7.0-0.0","spark_pilot_2","7336","7","13","Male","","","","","","","2700.5999999996275","<p> You have almost finished this part of the game! </p>
            <p> We are going to ask you to make a few more choices. </p>","","instructions","","","","","","","","","","","","","",""
"learning-instructions","256","1235818","0.0-4.0-7.0-0.1","spark_pilot_2","7336","7","13","Male","","","","","","","1732.7999999998137","<p> First, you need to decide whether to go up or down. When you see each picture, use the arrow keys to make your choice. </p>
            <p><b>You will not see which animal you found, but try to get to the one that will give you the most treasure.</b></p>","","instructions","","","","","","","","","","","","","",""
"revaluation","257","1237104","0.0-4.0-8.0-0.0","spark_pilot_2","7336","7","13","Male","","false","","","","","[1284.0999999996275]","./assets/img/canyon/test/1.jpg","[""ArrowDown""]","first stage test","canyon","0","{""ArrowUp,ArrowLeft"":23,""ArrowUp,ArrowRight"":10,""ArrowDown,ArrowLeft"":8,""ArrowDown,ArrowRight"":30}","true","ArrowDown","false","","","original","1","","","",""
"html-keyboard-response","258","1237617","0.0-4.0-8.0-1.0","spark_pilot_2","7336","7","13","Male","","","","","","","null","<div style=""font-size:60px;"">+</div>","null","fixation","","","","","","","","","","","","","",""
"revaluation","259","1238738","0.0-4.0-8.0-0.1","spark_pilot_2","7336","7","13","Male","","false","","","","","[1118]","./assets/img/canyon/test/3.jpg","[""ArrowDown""]","first stage test","canyon","0","{""ArrowUp,ArrowLeft"":23,""ArrowUp,ArrowRight"":10,""ArrowDown,ArrowLeft"":8,""ArrowDown,ArrowRight"":30}","true","ArrowDown","false","","","original","1","","","",""
"html-keyboard-response","260","1239243","0.0-4.0-8.0-1.1","spark_pilot_2","7336","7","13","Male","","","","","","","null","<div style=""font-size:60px;"">+</div>","null","fixation","","","","","","","","","","","","","",""
"revaluation","261","1240250","0.0-4.0-8.0-0.2","spark_pilot_2","7336","7","13","Male","","false","","","","","[1003.0999999996275]","./assets/img/canyon/test/2.jpg","[""ArrowDown""]","first stage test","canyon","0","{""ArrowUp,ArrowLeft"":23,""ArrowUp,ArrowRight"":10,""ArrowDown,ArrowLeft"":8,""ArrowDown,ArrowRight"":30}","true","ArrowDown","false","","","original","1","","","",""
"html-keyboard-response","262","1240754","0.0-4.0-8.0-1.2","spark_pilot_2","7336","7","13","Male","","","","","","","null","<div style=""font-size:60px;"">+</div>","null","fixation","","","","","","","","","","","","","",""
"revaluation","263","1241661","0.0-4.0-8.0-0.3","spark_pilot_2","7336","7","13","Male","","false","","","","","[906.0999999996275]","./assets/img/canyon/test/0.jpg","[""ArrowDown""]","first stage test","canyon","0","{""ArrowUp,ArrowLeft"":23,""ArrowUp,ArrowRight"":10,""ArrowDown,ArrowLeft"":8,""ArrowDown,ArrowRight"":30}","true","ArrowDown","false","","","original","1","","","",""
"html-keyboard-response","264","1242163","0.0-4.0-8.0-1.3","spark_pilot_2","7336","7","13","Male","","","","","","","null","<div style=""font-size:60px;"">+</div>","null","fixation","","","","","","","","","","","","","",""
"learning-instructions","265","1254691","0.0-4.0-9.0-0.0","spark_pilot_2","7336","7","13","Male","","","","","","","1195.9000000003725","<p> Now you will see the animals again and can search their chests for treasure. </p>
            <p> This time, you will not see how much treasure you earned, but you will earn more bonus money for making better choices. </p>","","instructions","","","","","","","","","","","","","",""
"revaluation","266","1255669","0.0-4.0-10.0-0.0","spark_pilot_2","7336","7","13","Male","","false","","","","","[975.2000000001863]","./assets/img/canyon/animals/lion.jpg","[""ArrowLeft""]","second stage test","canyon","0","{""ArrowUp,ArrowLeft"":23,""ArrowUp,ArrowRight"":10,""ArrowDown,ArrowLeft"":8,""ArrowDown,ArrowRight"":30}","true","ArrowUp,ArrowLeft","","","","original","1","","","",""
"html-keyboard-response","267","1256173","0.0-4.0-10.0-1.0","spark_pilot_2","7336","7","13","Male","","","","","","","null","<div style=""font-size:60px;"">+</div>","null","fixation","","","","","","","","","","","","","",""
"revaluation","268","1256864","0.0-4.0-10.0-0.1","spark_pilot_2","7336","7","13","Male","","false","","","","","[688.7000000001863]","./assets/img/canyon/animals/lion.jpg","[""ArrowLeft""]","second stage test","canyon","0","{""ArrowUp,ArrowLeft"":23,""ArrowUp,ArrowRight"":10,""ArrowDown,ArrowLeft"":8,""ArrowDown,ArrowRight"":30}","true","ArrowUp,ArrowLeft","","","","original","1","","","",""
"html-keyboard-response","269","1257383","0.0-4.0-10.0-1.1","spark_pilot_2","7336","7","13","Male","","","","","","","null","<div style=""font-size:60px;"">+</div>","null","fixation","","","","","","","","","","","","","",""
"revaluation","270","1257962","0.0-4.0-10.0-0.2","spark_pilot_2","7336","7","13","Male","","false","","","","","[575.6000000005588]","./assets/img/canyon/animals/lion.jpg","[""ArrowLeft""]","second stage test","canyon","0","{""ArrowUp,ArrowLeft"":23,""ArrowUp,ArrowRight"":10,""ArrowDown,ArrowLeft"":8,""ArrowDown,ArrowRight"":30}","true","ArrowUp,ArrowLeft","","","","original","1","","","",""
"html-keyboard-response","271","1258463","0.0-4.0-10.0-1.2","spark_pilot_2","7336","7","13","Male","","","","","","","null","<div style=""font-size:60px;"">+</div>","null","fixation","","","","","","","","","","","","","",""
"revaluation","272","1258825","0.0-4.0-10.0-0.3","spark_pilot_2","7336","7","13","Male","","false","","","","","[359]","./assets/img/canyon/animals/lion.jpg","[""ArrowLeft""]","second stage test","canyon","0","{""ArrowUp,ArrowLeft"":23,""ArrowUp,ArrowRight"":10,""ArrowDown,ArrowLeft"":8,""ArrowDown,ArrowRight"":30}","true","ArrowUp,ArrowLeft","","","","original","1","","","",""
"html-keyboard-response","273","1259333","0.0-4.0-10.0-1.3","spark_pilot_2","7336","7","13","Male","","","","","","","null","<div style=""font-size:60px;"">+</div>","null","fixation","","","","","","","","","","","","","",""
"revaluation","274","1260184","0.0-4.0-10.0-0.4","spark_pilot_2","7336","7","13","Male","","false","","","","","[847.7999999998137]","./assets/img/canyon/animals/giraffe.jpg","[""ArrowRight""]","second stage test","canyon","0","{""ArrowUp,ArrowLeft"":23,""ArrowUp,ArrowRight"":10,""ArrowDown,ArrowLeft"":8,""ArrowDown,ArrowRight"":30}","true","ArrowDown,ArrowRight","","","","original","1","","","",""
"html-keyboard-response","275","1260691","0.0-4.0-10.0-1.4","spark_pilot_2","7336","7","13","Male","","","","","","","null","<div style=""font-size:60px;"">+</div>","null","fixation","","","","","","","","","","","","","",""
"revaluation","276","1260961","0.0-4.0-10.0-0.5","spark_pilot_2","7336","7","13","Male","","false","","","","","[267.5]","./assets/img/canyon/animals/giraffe.jpg","[""ArrowRight""]","second stage test","canyon","0","{""ArrowUp,ArrowLeft"":23,""ArrowUp,ArrowRight"":10,""ArrowDown,ArrowLeft"":8,""ArrowDown,ArrowRight"":30}","true","ArrowDown,ArrowRight","","","","original","1","","","",""
"html-keyboard-response","277","1261463","0.0-4.0-10.0-1.5","spark_pilot_2","7336","7","13","Male","","","","","","","null","<div style=""font-size:60px;"">+</div>","null","fixation","","","","","","","","","","","","","",""
"revaluation","278","1261733","0.0-4.0-10.0-0.6","spark_pilot_2","7336","7","13","Male","","false","","","","","[266.80000000074506]","./assets/img/canyon/animals/giraffe.jpg","[""ArrowRight""]","second stage test","canyon","0","{""ArrowUp,ArrowLeft"":23,""ArrowUp,ArrowRight"":10,""ArrowDown,ArrowLeft"":8,""ArrowDown,ArrowRight"":30}","true","ArrowDown,ArrowRight","","","","original","1","","","",""
"html-keyboard-response","279","1262244","0.0-4.0-10.0-1.6","spark_pilot_2","7336","7","13","Male","","","","","","","null","<div style=""font-size:60px;"">+</div>","null","fixation","","","","","","","","","","","","","",""
"revaluation","280","1262674","0.0-4.0-10.0-0.7","spark_pilot_2","7336","7","13","Male","","false","","","","","[427.09999999962747]","./assets/img/canyon/animals/giraffe.jpg","[""ArrowRight""]","second stage test","canyon","0","{""ArrowUp,ArrowLeft"":23,""ArrowUp,ArrowRight"":10,""ArrowDown,ArrowLeft"":8,""ArrowDown,ArrowRight"":30}","true","ArrowDown,ArrowRight","","","","original","1","","","",""
"html-keyboard-response","281","1263192","0.0-4.0-10.0-1.7","spark_pilot_2","7336","7","13","Male","","","","","","","null","<div style=""font-size:60px;"">+</div>","null","fixation","","","","","","","","","","","","","",""
"learning-instructions","282","1267427","0.0-4.0-0.1-0.2","spark_pilot_2","7336","7","13","Male","","","","","","","1531.9000000003725","<p> This time you are searching for treasure in the <b>ocean</b>.</p>","","instructions","","","","","","","","","","","","","",""
"learning-instructions","283","1286626","0.0-4.0-0.1-0.3","spark_pilot_2","7336","7","13","Male","","","","","","","1940.5","<p><b>New</b> animals with <b>new</b> treasure chests live here. You need to explore to discover where the animal with the best treasure chest is.</p>
                    <p> Like before, once you figure out which animal has the chest with the most treasure, you should try to get to that animal and select that chest! </p>","","instructions","","","","","","","","","","","","","",""
"learning-instructions","284","1303149","0.0-4.0-1.1-0.1","spark_pilot_2","7336","7","13","Male","","","","","","","1783.7000000001863","<p> Remember, when you see a picture of the place, use the up and down keys to <b>find an animal</b>.</p>
            <p> When you encounter an animal, you should use the left and right keys to <b>select a treasure chest</b>.</p>
            <p> Don't forget to look out for the robber! </p>","","instructions","","","","","","","","","","","","","",""
"revaluation","285","1307161","0.0-4.0-2.1-0.50","spark_pilot_2","7336","7","13","Male","","true","","","","","[]","./assets/img/ocean/catch/4.jpg","[]","value training","ocean","-5","{""ArrowUp,ArrowLeft"":26,""ArrowUp,ArrowRight"":10,""ArrowDown,ArrowLeft"":5,""ArrowDown,ArrowRight"":17}","false","","true","","","revaluation","2","0","","",""
"html-keyboard-response","286","1307664","0.0-4.0-2.1-1.50","spark_pilot_2","7336","7","13","Male","","","","","","","null","<div style=""font-size:60px;"">+</div>","null","fixation","","","","","","","","","","","1","","",""
"revaluation","287","1313693","0.0-4.0-2.1-0.51","spark_pilot_2","7336","7","13","Male","","false","","","","","[420.80000000074506,529.0999999996275]","./assets/img/ocean/memory/13.jpg","[""ArrowDown"",""ArrowRight""]","value training","ocean","17","{""ArrowUp,ArrowLeft"":26,""ArrowUp,ArrowRight"":10,""ArrowDown,ArrowLeft"":5,""ArrowDown,ArrowRight"":17}","false","ArrowDown,ArrowRight","false","","","revaluation","2","2","","",""
"html-keyboard-response","288","1314203","0.0-4.0-2.1-1.51","spark_pilot_2","7336","7","13","Male","","","","","","","null","<div style=""font-size:60px;"">+</div>","null","fixation","","","","","","","","","","","3","","",""
"revaluation","289","1320243","0.0-4.0-2.1-0.52","spark_pilot_2","7336","7","13","Male","","false","","","","","[315,302.09999999962747]","./assets/img/ocean/memory/21.jpg","[""ArrowDown"",""ArrowLeft""]","value training","ocean","5","{""ArrowUp,ArrowLeft"":26,""ArrowUp,ArrowRight"":10,""ArrowDown,ArrowLeft"":5,""ArrowDown,ArrowRight"":17}","false","ArrowDown,ArrowLeft","false","","","revaluation","2","4","","",""
"html-keyboard-response","290","1320753","0.0-4.0-2.1-1.52","spark_pilot_2","7336","7","13","Male","","","","","","","null","<div style=""font-size:60px;"">+</div>","null","fixation","","","","","","","","","","","5","","",""
"revaluation","291","1326803","0.0-4.0-2.1-0.53","spark_pilot_2","7336","7","13","Male","","false","","","","","[563.0999999996275,1185.699999999255]","./assets/img/ocean/memory/29.jpg","[""ArrowUp"",""ArrowLeft""]","value training","ocean","26","{""ArrowUp,ArrowLeft"":26,""ArrowUp,ArrowRight"":10,""ArrowDown,ArrowLeft"":5,""ArrowDown,ArrowRight"":17}","true","ArrowUp,ArrowLeft","false","","","revaluation","2","6","","",""
"html-keyboard-response","292","1327324","0.0-4.0-2.1-1.53","spark_pilot_2","7336","7","13","Male","","","","","","","null","<div style=""font-size:60px;"">+</div>","null","fixation","","","","","","","","","","","7","","",""
"revaluation","293","1333355","0.0-4.0-2.1-0.54","spark_pilot_2","7336","7","13","Male","","false","","","","","[666.6000000005588,747.1999999992549]","./assets/img/ocean/memory/31.jpg","[""ArrowUp"",""ArrowRight""]","value training","ocean","10","{""ArrowUp,ArrowLeft"":26,""ArrowUp,ArrowRight"":10,""ArrowDown,ArrowLeft"":5,""ArrowDown,ArrowRight"":17}","false","ArrowUp,ArrowRight","false","","","revaluation","2","8","","",""
"html-keyboard-response","294","1333857","0.0-4.0-2.1-1.54","spark_pilot_2","7336","7","13","Male","","","","","","","null","<div style=""font-size:60px;"">+</div>","null","fixation","","","","","","","","","","","9","","",""
"revaluation","295","1339862","0.0-4.0-2.1-0.55","spark_pilot_2","7336","7","13","Male","","false","","","","","[936.8999999994412,311.6000000005588]","./assets/img/ocean/memory/16.jpg","[""ArrowDown"",""ArrowRight""]","value training","ocean","17","{""ArrowUp,ArrowLeft"":26,""ArrowUp,ArrowRight"":10,""ArrowDown,ArrowLeft"":5,""ArrowDown,ArrowRight"":17}","false","ArrowDown,ArrowRight","false","","","revaluation","2","10","","",""
"html-keyboard-response","296","1340364","0.0-4.0-2.1-1.55","spark_pilot_2","7336","7","13","Male","","","","","","","null","<div style=""font-size:60px;"">+</div>","null","fixation","","","","","","","","","","","11","","",""
"revaluation","297","1344369","0.0-4.0-2.1-0.56","spark_pilot_2","7336","7","13","Male","","false","","","","","[379.3999999994412]","./assets/img/ocean/catch/2.jpg","[""ArrowUp""]","value training","ocean","-10","{""ArrowUp,ArrowLeft"":26,""ArrowUp,ArrowRight"":10,""ArrowDown,ArrowLeft"":5,""ArrowDown,ArrowRight"":17}","false","ArrowUp","true","","","revaluation","2","12","","",""
"html-keyboard-response","298","1344870","0.0-4.0-2.1-1.56","spark_pilot_2","7336","7","13","Male","","","","","","","null","<div style=""font-size:60px;"">+</div>","null","fixation","","","","","","","","","","","13","","",""
"revaluation","299","1350875","0.0-4.0-2.1-0.57","spark_pilot_2","7336","7","13","Male","","false","","","","","[1047.9000000003725,342.59999999962747]","./assets/img/ocean/memory/7.jpg","[""ArrowUp"",""ArrowLeft""]","value training","ocean","26","{""ArrowUp,ArrowLeft"":26,""ArrowUp,ArrowRight"":10,""ArrowDown,ArrowLeft"":5,""ArrowDown,ArrowRight"":17}","true","ArrowUp,ArrowLeft","false","","","revaluation","2","14","","",""
"html-keyboard-response","300","1351386","0.0-4.0-2.1-1.57","spark_pilot_2","7336","7","13","Male","","","","","","","null","<div style=""font-size:60px;"">+</div>","null","fixation","","","","","","","","","","","15","","",""
"revaluation","301","1355390","0.0-4.0-2.1-0.58","spark_pilot_2","7336","7","13","Male","","false","","","","","[859.6000000005588]","./assets/img/ocean/catch/0.jpg","[""spaceBar""]","value training","ocean","0","{""ArrowUp,ArrowLeft"":26,""ArrowUp,ArrowRight"":10,""ArrowDown,ArrowLeft"":5,""ArrowDown,ArrowRight"":17}","true","spaceBar","true","","","revaluation","2","16","","",""
"html-keyboard-response","302","1355891","0.0-4.0-2.1-1.58","spark_pilot_2","7336","7","13","Male","","","","","","","null","<div style=""font-size:60px;"">+</div>","null","fixation","","","","","","","","","","","17","","",""
"revaluation","303","1361900","0.0-4.0-2.1-0.59","spark_pilot_2","7336","7","13","Male","","false","","","","","[298.20000000018626,394.59999999962747]","./assets/img/ocean/memory/38.jpg","[""ArrowUp"",""ArrowLeft""]","value training","ocean","26","{""ArrowUp,ArrowLeft"":26,""ArrowUp,ArrowRight"":10,""ArrowDown,ArrowLeft"":5,""ArrowDown,ArrowRight"":17}","true","ArrowUp,ArrowLeft","false","","","revaluation","2","18","","",""
"html-keyboard-response","304","1362401","0.0-4.0-2.1-1.59","spark_pilot_2","7336","7","13","Male","","","","","","","null","<div style=""font-size:60px;"">+</div>","null","fixation","","","","","","","","","","","19","","",""
"revaluation","305","1368404","0.0-4.0-2.1-0.60","spark_pilot_2","7336","7","13","Male","","false","","","","","[475.6000000005588,454.5]","./assets/img/ocean/memory/23.jpg","[""ArrowUp"",""ArrowLeft""]","value training","ocean","26","{""ArrowUp,ArrowLeft"":26,""ArrowUp,ArrowRight"":10,""ArrowDown,ArrowLeft"":5,""ArrowDown,ArrowRight"":17}","true","ArrowUp,ArrowLeft","false","","","revaluation","2","20","","",""
"html-keyboard-response","306","1368908","0.0-4.0-2.1-1.60","spark_pilot_2","7336","7","13","Male","","","","","","","null","<div style=""font-size:60px;"">+</div>","null","fixation","","","","","","","","","","","21","","",""
