"trial_type","trial_index","time_elapsed","internal_node_id","task_version","subject_id","assigned_condition","age","gender","success","timeout","failed_images","failed_audio","failed_video","browser_interaction","rt","stimulus","response","task_part","environment","score","rewardMap","correct","fullState","isCatch","numberMissed","duration","condition","order","trial_num","key_press","ground_truth","bonus"
"pavlovia","0","1036","0.0-0.0","spark_pilot_2","7480","4","21","Male","","","","","","","","","","","","","","","","","","","","","","","",""
"preload","1","9055","0.0-1.0","spark_pilot_2","7480","4","21","Male","true","false","[]","[]","[]","[{""event"":""fullscreenenter"",""trial"":2,""time"":14230}]","","","","","","","","","","","","","","","","","",""
"fullscreen","2","15199","0.0-2.0","spark_pilot_2","7480","4","21","Male","true","","","","","","","","","","","","","","","","","","","","","","",""
"audio-button-response","3","18005","0.0-3.0-0.0-0.0","spark_pilot_2","7480","4","21","Male","","","","","","","2040","./assets/audio/audiotest/turtle.mp3","2","audio_test","","","","","","","","","","","","","",""
"learning-instructions","4","28079","0.0-3.0-1.0-0.0","spark_pilot_2","7480","4","21","Male","","","","","","","2993.099999964237","<p> Welcome! Please remember to stay in fullscreen mode and don't click away from the experiment. </p>","","instructions","","","","","","","","","","","","","",""
"learning-instructions","5","39176","0.0-3.0-1.0-0.1","spark_pilot_2","7480","4","21","Male","","","","","","","2550.399999976158","<p> Today you will be playing a game to earn treasure. </p>
            <p> At the end of the experiment, you will earn a bonus based on how much treasure you find. </p>
            <img src='./assets/img/instructions/treasure.jpg' class='instructions-image'>","","instructions","","","","","","","","","","","","","",""
"learning-instructions","6","50233","0.0-3.0-1.0-0.2","spark_pilot_2","7480","4","21","Male","","","","","","","2647","<p> Animals have hidden treasure in treasure chests. </p>
            <p> You need to first find an animal and then choose which of their treasure chests to search. </p>
            <img src='./assets/img/space/animals/cat.jpg' class='instructions-image'>","","instructions","","","","","","","","","","","","","",""
"learning-instructions","7","64866","0.0-3.0-1.0-0.3","spark_pilot_2","7480","4","21","Male","","","","","","","1290","<p> In each round, you will search for treasure in a different place. In the real game, there will be two rounds. </p>
            <p> You will begin with a separate, practice round where you will search for treasure in outer space. </p>
            <img src='./assets/img/space/0.jpg' class='instructions-image'>","","instructions","","","","","","","","","","","","","",""
"learning-instructions","8","77649","0.0-3.0-1.0-0.4","spark_pilot_2","7480","4","21","Male","","","","","","","1201","<p> On every turn, you will see a picture of the place that you are in, but the specific image may be different each time. </p>
            <p> For example, both of these images mean you are in outer space. </p>
            <img src='./assets/img/instructions/outerspace.jpg' class='instructions-image'>","","instructions","","","","","","","","","","","","","",""
"learning-instructions","9","88136","0.0-3.0-1.0-0.5","spark_pilot_2","7480","4","21","Male","","","","","","","2529.399999976158","<p> You need to decide which direction to travel in. </p>
            <p> You can choose between going <b>up or down</b> by using the arrow keys. </p>
            <img src='./assets/img/instructions/updown.jpg' class='instructions-image'>","","instructions","","","","","","","","","","","","","",""
"learning-instructions","10","99171","0.0-3.0-1.0-0.6","spark_pilot_2","7480","4","21","Male","","","","","","","2084.5","<p> You will have <b>2 seconds</b> to make your choice. </p>
            <p> If you do not make a choice within 2 seconds, you will not find an animal or earn treasure. </p>
            <img src='./assets/img/instructions/2seconds.jpg' class='instructions-image'>","","instructions","","","","","","","","","","","","","",""
"learning-instructions","11","107348","0.0-3.0-1.0-0.7","spark_pilot_2","7480","4","21","Male","","","","","","","1019.9000000357628","<p> Let’s try practicing that now! </p>
            <p> When you see a picture of the place you are in, press the <b>up</b> key to travel up. </p>
            <img src='./assets/img/instructions/pressUp.jpg' class='instructions-image'>","","instructions","","","","","","","","","","","","","",""
"revaluation","12","111413","0.0-3.0-2.0-0.0","spark_pilot_2","7480","4","21","Male","","false","","","","","[518.4000000357628]","./assets/img/space/0.jpg","[""ArrowUp""]","first stage practice","space","0","null","null","ArrowUp","false","","","","","","","",""
"html-keyboard-response","13","111915","0.0-3.0-2.0-1.0","spark_pilot_2","7480","4","21","Male","","","","","","","null","<div style=""font-size:60px;"">+</div>","null","fixation","","","","","","","","","","","","","",""
"revaluation","14","115948","0.0-3.0-2.0-0.1","spark_pilot_2","7480","4","21","Male","","false","","","","","[891.8999999761581]","./assets/img/space/1.jpg","[""ArrowUp""]","first stage practice","space","0","null","null","ArrowUp","false","","","","","","","",""
"html-keyboard-response","15","116462","0.0-3.0-2.0-1.1","spark_pilot_2","7480","4","21","Male","","","","","","","null","<div style=""font-size:60px;"">+</div>","null","fixation","","","","","","","","","","","","","",""
"revaluation","16","120485","0.0-3.0-2.0-0.2","spark_pilot_2","7480","4","21","Male","","false","","","","","[634.6999999880791]","./assets/img/space/2.jpg","[""ArrowUp""]","first stage practice","space","0","null","null","ArrowUp","false","","","","","","","",""
"html-keyboard-response","17","120995","0.0-3.0-2.0-1.2","spark_pilot_2","7480","4","21","Male","","","","","","","null","<div style=""font-size:60px;"">+</div>","null","fixation","","","","","","","","","","","","","",""
"learning-instructions","18","126325","0.0-3.0-3.0-0.0","spark_pilot_2","7480","4","21","Male","","","","","","","549.5999999642372","<p> Great job! Now try pressing the <b>down</b> key to travel down. </p>
            <img src='./assets/img/instructions/pressDown.jpg' class='instructions-image'>","","instructions","","","","","","","","","","","","","",""
"revaluation","19","130360","0.0-3.0-4.0-0.0","spark_pilot_2","7480","4","21","Male","","false","","","","","[464.5]","./assets/img/space/3.jpg","[""ArrowDown""]","first stage practice","space","0","null","null","ArrowDown","false","","","","","","","",""
"html-keyboard-response","20","130874","0.0-3.0-4.0-1.0","spark_pilot_2","7480","4","21","Male","","","","","","","null","<div style=""font-size:60px;"">+</div>","null","fixation","","","","","","","","","","","","","",""
"revaluation","21","134891","0.0-3.0-4.0-0.1","spark_pilot_2","7480","4","21","Male","","false","","","","","[332.30000001192093]","./assets/img/space/4.jpg","[""ArrowDown""]","first stage practice","space","0","null","null","ArrowDown","false","","","","","","","",""
"html-keyboard-response","22","135402","0.0-3.0-4.0-1.1","spark_pilot_2","7480","4","21","Male","","","","","","","null","<div style=""font-size:60px;"">+</div>","null","fixation","","","","","","","","","","","","","",""
"revaluation","23","139422","0.0-3.0-4.0-0.2","spark_pilot_2","7480","4","21","Male","","false","","","","","[322.80000001192093]","./assets/img/space/5.jpg","[""ArrowDown""]","first stage practice","space","0","null","null","ArrowDown","false","","","","","","","",""
"html-keyboard-response","24","139938","0.0-3.0-4.0-1.2","spark_pilot_2","7480","4","21","Male","","","","","","","null","<div style=""font-size:60px;"">+</div>","null","fixation","","","","","","","","","","","","","",""
"learning-instructions","25","151258","0.0-3.0-5.0-0.0","spark_pilot_2","7480","4","21","Male","","","","","","","1313.1000000238419","<p> The animals don’t move, so the animal in the upper part of a place will stay in the upper part of a place, and the animal in the lower part of a place will stay in the lower part of a place. </p>","","instructions","","","","","","","","","","","","","",""
"learning-instructions","26","162158","0.0-3.0-5.0-0.1","spark_pilot_2","7480","4","21","Male","","","","","","","1633.3999999761581","<p> Each animal has two treasure chests for you to choose from. </p>
            <p> The amount of treasure in each chest can range from <b> 0 to 40 pieces.</b></p>","","instructions","","","","","","","","","","","","","",""
"learning-instructions","27","175401","0.0-3.0-5.0-0.2","spark_pilot_2","7480","4","21","Male","","","","","","","1876.9000000357628","<p> You should decide which chest to search for treasure by using the <b>left</b> and <b>right</b> arrow keys. </p>
            <p><b> Pay attention to which animal is on the screen, as the animals have different treasure chests. </b></p>
            <img src='./assets/img/instructions/leftright.jpg' class='instructions-image'>","","instructions","","","","","","","","","","","","","",""
"learning-instructions","28","183160","0.0-3.0-5.0-0.3","spark_pilot_2","7480","4","21","Male","","","","","","","1284.5","<p> Let’s try practicing that now. </p>
            <p> When you see an animal, choose which chest to search for treasure. </p>
            <img src='./assets/img/instructions/chooseChest.jpg' class='instructions-image'>","","instructions","","","","","","","","","","","","","",""
"revaluation","29","187187","0.0-3.0-6.0-0.0","spark_pilot_2","7480","4","21","Male","","false","","","","","[1032.5]","./assets/img/space/animals/rabbit.jpg","[""ArrowLeft""]","second stage practice","space","15","{""ArrowUp,ArrowLeft"":3,""ArrowUp,ArrowRight"":36,""ArrowDown,ArrowLeft"":15,""ArrowDown,ArrowRight"":23}","false","ArrowDown,ArrowLeft","","","","","","","","",""
"html-keyboard-response","30","187689","0.0-3.0-6.0-1.0","spark_pilot_2","7480","4","21","Male","","","","","","","null","<div style=""font-size:60px;"">+</div>","null","fixation","","","","","","","","","","","","","",""
"revaluation","31","191722","0.0-3.0-6.0-0.1","spark_pilot_2","7480","4","21","Male","","false","","","","","[1333.7999999523163]","./assets/img/space/animals/cat.jpg","[""ArrowRight""]","second stage practice","space","36","{""ArrowUp,ArrowLeft"":3,""ArrowUp,ArrowRight"":36,""ArrowDown,ArrowLeft"":15,""ArrowDown,ArrowRight"":23}","true","ArrowUp,ArrowRight","","","","","","","","",""
"html-keyboard-response","32","192237","0.0-3.0-6.0-1.1","spark_pilot_2","7480","4","21","Male","","","","","","","null","<div style=""font-size:60px;"">+</div>","null","fixation","","","","","","","","","","","","","",""
"revaluation","33","196270","0.0-3.0-6.0-0.2","spark_pilot_2","7480","4","21","Male","","false","","","","","[451.39999997615814]","./assets/img/space/animals/cat.jpg","[""ArrowLeft""]","second stage practice","space","3","{""ArrowUp,ArrowLeft"":3,""ArrowUp,ArrowRight"":36,""ArrowDown,ArrowLeft"":15,""ArrowDown,ArrowRight"":23}","false","ArrowUp,ArrowLeft","","","","","","","","",""
"html-keyboard-response","34","196781","0.0-3.0-6.0-1.2","spark_pilot_2","7480","4","21","Male","","","","","","","null","<div style=""font-size:60px;"">+</div>","null","fixation","","","","","","","","","","","","","",""
"revaluation","35","200817","0.0-3.0-6.0-0.3","spark_pilot_2","7480","4","21","Male","","false","","","","","[901.3999999761581]","./assets/img/space/animals/rabbit.jpg","[""ArrowRight""]","second stage practice","space","23","{""ArrowUp,ArrowLeft"":3,""ArrowUp,ArrowRight"":36,""ArrowDown,ArrowLeft"":15,""ArrowDown,ArrowRight"":23}","true","ArrowDown,ArrowRight","","","","","","","","",""
"html-keyboard-response","36","201334","0.0-3.0-6.0-1.3","spark_pilot_2","7480","4","21","Male","","","","","","","null","<div style=""font-size:60px;"">+</div>","null","fixation","","","","","","","","","","","","","",""
"learning-instructions","37","220761","0.0-3.0-7.0-0.0","spark_pilot_2","7480","4","21","Male","","","","","","","2436.900000035763","<p> Great job. Now let’s try putting it together. </p>
            <p> On each turn, you will first see a picture to remind you of the place you are in, and you need to choose whether to go up or down. </p>
            <p> Then you will see an animal and choose which of its chests to search for treasure. </p>","","instructions","","","","","","","","","","","","","",""
"learning-instructions","38","230914","0.0-3.0-7.0-0.1","spark_pilot_2","7480","4","21","Male","","","","","","","1789.5","<p> When you choose whether to go up or down, try to go to the animal with the chest with the most treasure. </p>
            <p> Try practicing that now! </p>","","instructions","","","","","","","","","","","","","",""
"revaluation","39","236956","0.0-3.0-8.0-0.0","spark_pilot_2","7480","4","21","Male","","false","","","","","[705.1000000238419,869.6000000238419]","./assets/img/space/6.jpg","[""ArrowUp"",""ArrowRight""]","full practice","space","36","{""ArrowUp,ArrowLeft"":3,""ArrowUp,ArrowRight"":36,""ArrowDown,ArrowLeft"":15,""ArrowDown,ArrowRight"":23}","true","ArrowUp,ArrowRight","false","","","","","","","",""
"html-keyboard-response","40","237471","0.0-3.0-8.0-1.0","spark_pilot_2","7480","4","21","Male","","","","","","","null","<div style=""font-size:60px;"">+</div>","null","fixation","","","","","","","","","","","","","",""
"revaluation","41","243521","0.0-3.0-8.0-0.1","spark_pilot_2","7480","4","21","Male","","false","","","","","[1247.800000011921,497.69999998807907]","./assets/img/space/7.jpg","[""ArrowUp"",""ArrowRight""]","full practice","space","36","{""ArrowUp,ArrowLeft"":3,""ArrowUp,ArrowRight"":36,""ArrowDown,ArrowLeft"":15,""ArrowDown,ArrowRight"":23}","true","ArrowUp,ArrowRight","false","","","","","","","",""
"html-keyboard-response","42","244038","0.0-3.0-8.0-1.1","spark_pilot_2","7480","4","21","Male","","","","","","","null","<div style=""font-size:60px;"">+</div>","null","fixation","","","","","","","","","","","","","",""
"revaluation","43","250068","0.0-3.0-8.0-0.2","spark_pilot_2","7480","4","21","Male","","false","","","","","[708.2000000476837,427.7000000476837]","./assets/img/space/8.jpg","[""ArrowUp"",""ArrowRight""]","full practice","space","36","{""ArrowUp,ArrowLeft"":3,""ArrowUp,ArrowRight"":36,""ArrowDown,ArrowLeft"":15,""ArrowDown,ArrowRight"":23}","true","ArrowUp,ArrowRight","false","","","","","","","",""
"html-keyboard-response","44","250584","0.0-3.0-8.0-1.2","spark_pilot_2","7480","4","21","Male","","","","","","","null","<div style=""font-size:60px;"">+</div>","null","fixation","","","","","","","","","","","","","",""
"revaluation","45","256616","0.0-3.0-8.0-0.3","spark_pilot_2","7480","4","21","Male","","false","","","","","[750.5,537.6000000238419]","./assets/img/space/9.jpg","[""ArrowUp"",""ArrowRight""]","full practice","space","36","{""ArrowUp,ArrowLeft"":3,""ArrowUp,ArrowRight"":36,""ArrowDown,ArrowLeft"":15,""ArrowDown,ArrowRight"":23}","true","ArrowUp,ArrowRight","false","","","","","","","",""
"html-keyboard-response","46","257132","0.0-3.0-8.0-1.3","spark_pilot_2","7480","4","21","Male","","","","","","","null","<div style=""font-size:60px;"">+</div>","null","fixation","","","","","","","","","","","","","",""
"revaluation","47","263158","0.0-3.0-8.0-0.4","spark_pilot_2","7480","4","21","Male","","false","","","","","[460.89999997615814,405.5]","./assets/img/space/10.jpg","[""ArrowUp"",""ArrowRight""]","full practice","space","36","{""ArrowUp,ArrowLeft"":3,""ArrowUp,ArrowRight"":36,""ArrowDown,ArrowLeft"":15,""ArrowDown,ArrowRight"":23}","true","ArrowUp,ArrowRight","false","","","","","","","",""
"html-keyboard-response","48","263665","0.0-3.0-8.0-1.4","spark_pilot_2","7480","4","21","Male","","","","","","","null","<div style=""font-size:60px;"">+</div>","null","fixation","","","","","","","","","","","","","",""
"learning-instructions","49","276523","0.0-3.0-9.0-0.0","spark_pilot_2","7480","4","21","Male","","","","","","","2413.899999976158","<p> One last thing: sometimes, you will see a robber. The robber can be anywhere in the picture. </p>
            <p> If you do not stop them, you will lose treasure. </p>
            <img src='./assets/img/instructions/robber.jpg' class='instructions-image'>","","instructions","","","","","","","","","","","","","",""
"learning-instructions","50","284659","0.0-3.0-9.0-0.1","spark_pilot_2","7480","4","21","Male","","","","","","","861.4000000357628","<p> If you see the robber, you should <b>press the space bar</b> rather than using the arrow keys. </p>
            <p> Try practicing that now! </p>","","instructions","","","","","","","","","","","","","",""
"revaluation","51","288688","0.0-3.0-10.0-0.0","spark_pilot_2","7480","4","21","Male","","false","","","","","[826.1000000238419]","./assets/img/space/catch/0.jpg","[""spaceBar""]","catch practice","space","0","{""ArrowUp,ArrowLeft"":3,""ArrowUp,ArrowRight"":36,""ArrowDown,ArrowLeft"":15,""ArrowDown,ArrowRight"":23}","true","spaceBar","true","","","","","","","",""
"html-keyboard-response","52","289203","0.0-3.0-10.0-1.0","spark_pilot_2","7480","4","21","Male","","","","","","","null","<div style=""font-size:60px;"">+</div>","null","fixation","","","","","","","","","","","","","",""
"revaluation","53","293237","0.0-3.0-10.0-0.1","spark_pilot_2","7480","4","21","Male","","false","","","","","[707.1999999880791]","./assets/img/space/catch/1.jpg","[""spaceBar""]","catch practice","space","0","{""ArrowUp,ArrowLeft"":3,""ArrowUp,ArrowRight"":36,""ArrowDown,ArrowLeft"":15,""ArrowDown,ArrowRight"":23}","true","spaceBar","true","","","","","","","",""
"html-keyboard-response","54","293754","0.0-3.0-10.0-1.1","spark_pilot_2","7480","4","21","Male","","","","","","","null","<div style=""font-size:60px;"">+</div>","null","fixation","","","","","","","","","","","","","",""
"revaluation","55","297769","0.0-3.0-10.0-0.2","spark_pilot_2","7480","4","21","Male","","false","","","","","[600.3000000119209]","./assets/img/space/catch/2.jpg","[""spaceBar""]","catch practice","space","0","{""ArrowUp,ArrowLeft"":3,""ArrowUp,ArrowRight"":36,""ArrowDown,ArrowLeft"":15,""ArrowDown,ArrowRight"":23}","true","spaceBar","true","","","","","","","",""
"html-keyboard-response","56","298285","0.0-3.0-10.0-1.2","spark_pilot_2","7480","4","21","Male","","","","","","","null","<div style=""font-size:60px;"">+</div>","null","fixation","","","","","","","","","","","","","",""
"learning-instructions","57","313224","0.0-3.0-11.0-0.0","spark_pilot_2","7480","4","21","Male","","","","","","","1155.800000011921","<p> After you explore a place to find treasure, it will be time to play a different game. </p>
            <p> During this game, red dots will appear on the screen and fall down slowly. </p>
            <p><b> You must click on them before they reach the bottom. </b></p>
            <img src='./assets/img/instructions/dotGame.jpg' class='instructions-image'>","","instructions","","","","","","","","","","","","","",""
"learning-instructions","58","320782","0.0-3.0-11.0-0.1","spark_pilot_2","7480","4","21","Male","","","","","","","1793.6000000238419","<p> For every dot you click, you will earn additional treasure. </p>
            <p> Let’s try practicing that now. </p>","","instructions","","","","","","","","","","","","","",""
"revaluation","59","335800","0.0-3.0-12.0-0.0","spark_pilot_2","7480","4","21","Male","","","","","","","[93,93]","","","rest practice","","20","","","","","0","15000","","","","","",""
"learning-instructions","60","342876","0.0-3.0-13.0-0.0-0.0","spark_pilot_2","7480","4","21","Male","","","","","","","1788.199999988079","<p> Now, you will practice a shortened version of the game to get a sense of how it all fits together. </p>","","instructions","","","","","","","","","","","","","",""
"learning-instructions","61","347558","0.0-3.0-13.0-0.0-0.1","spark_pilot_2","7480","4","21","Male","","","","","","","1420","<p>This time you are searching for treasure in outer space.</p>","","instructions","","","","","","","","","","","","","",""
"learning-instructions","62","364422","0.0-3.0-13.0-1.0-0.0","spark_pilot_2","7480","4","21","Male","","","","","","","1913.300000011921","<p> Remember, when you see a picture of the place, use the up and down keys to <b>find an animal</b>.</p>
            <p> When you encounter an animal, you should use the left and right keys to <b>select a treasure chest</b>.</p>
            <p> Don't forget to look out for the robber! </p>","","instructions","","","","","","","","","","","","","",""
"revaluation","63","370462","0.0-3.0-13.0-2.0-0.0","spark_pilot_2","7480","4","21","Male","","false","","","","","[953.0999999642372,896.5]","./assets/img/space/11.jpg","[""ArrowUp"",""ArrowLeft""]","practice block","space","3","{""ArrowUp,ArrowLeft"":3,""ArrowUp,ArrowRight"":36,""ArrowDown,ArrowLeft"":15,""ArrowDown,ArrowRight"":23}","false","ArrowUp,ArrowLeft","false","","","","","","","",""
"html-keyboard-response","64","370977","0.0-3.0-13.0-2.0-1.0","spark_pilot_2","7480","4","21","Male","","","","","","","null","<div style=""font-size:60px;"">+</div>","null","fixation","","","","","","","","","","","","","",""
"revaluation","65","377026","0.0-3.0-13.0-2.0-0.1","spark_pilot_2","7480","4","21","Male","","false","","","","","[697.1999999880791,413.80000001192093]","./assets/img/space/12.jpg","[""ArrowUp"",""ArrowRight""]","practice block","space","36","{""ArrowUp,ArrowLeft"":3,""ArrowUp,ArrowRight"":36,""ArrowDown,ArrowLeft"":15,""ArrowDown,ArrowRight"":23}","true","ArrowUp,ArrowRight","false","","","","","","","",""
"html-keyboard-response","66","377540","0.0-3.0-13.0-2.0-1.1","spark_pilot_2","7480","4","21","Male","","","","","","","null","<div style=""font-size:60px;"">+</div>","null","fixation","","","","","","","","","","","","","",""
"revaluation","67","383574","0.0-3.0-13.0-2.0-0.2","spark_pilot_2","7480","4","21","Male","","false","","","","","[714.6000000238419,497.7999999523163]","./assets/img/space/13.jpg","[""ArrowUp"",""ArrowRight""]","practice block","space","36","{""ArrowUp,ArrowLeft"":3,""ArrowUp,ArrowRight"":36,""ArrowDown,ArrowLeft"":15,""ArrowDown,ArrowRight"":23}","true","ArrowUp,ArrowRight","false","","","","","","","",""
"html-keyboard-response","68","384090","0.0-3.0-13.0-2.0-1.2","spark_pilot_2","7480","4","21","Male","","","","","","","null","<div style=""font-size:60px;"">+</div>","null","fixation","","","","","","","","","","","","","",""
"revaluation","69","390121","0.0-3.0-13.0-2.0-0.3","spark_pilot_2","7480","4","21","Male","","false","","","","","[938.5,713.5]","./assets/img/space/14.jpg","[""ArrowUp"",""ArrowRight""]","practice block","space","36","{""ArrowUp,ArrowLeft"":3,""ArrowUp,ArrowRight"":36,""ArrowDown,ArrowLeft"":15,""ArrowDown,ArrowRight"":23}","true","ArrowUp,ArrowRight","false","","","","","","","",""
"html-keyboard-response","70","390625","0.0-3.0-13.0-2.0-1.3","spark_pilot_2","7480","4","21","Male","","","","","","","null","<div style=""font-size:60px;"">+</div>","null","fixation","","","","","","","","","","","","","",""
"revaluation","71","396645","0.0-3.0-13.0-2.0-0.4","spark_pilot_2","7480","4","21","Male","","false","","","","","[941.1000000238419,378.7999999523163]","./assets/img/space/11.jpg","[""ArrowUp"",""ArrowRight""]","practice block","space","36","{""ArrowUp,ArrowLeft"":3,""ArrowUp,ArrowRight"":36,""ArrowDown,ArrowLeft"":15,""ArrowDown,ArrowRight"":23}","true","ArrowUp,ArrowRight","false","","","","","","","",""
"html-keyboard-response","72","397152","0.0-3.0-13.0-2.0-1.4","spark_pilot_2","7480","4","21","Male","","","","","","","null","<div style=""font-size:60px;"">+</div>","null","fixation","","","","","","","","","","","","","",""
"revaluation","73","403177","0.0-3.0-13.0-2.0-0.5","spark_pilot_2","7480","4","21","Male","","false","","","","","[1058.699999988079,518]","./assets/img/space/12.jpg","[""ArrowUp"",""ArrowRight""]","practice block","space","36","{""ArrowUp,ArrowLeft"":3,""ArrowUp,ArrowRight"":36,""ArrowDown,ArrowLeft"":15,""ArrowDown,ArrowRight"":23}","true","ArrowUp,ArrowRight","false","","","","","","","",""
"html-keyboard-response","74","403693","0.0-3.0-13.0-2.0-1.5","spark_pilot_2","7480","4","21","Male","","","","","","","null","<div style=""font-size:60px;"">+</div>","null","fixation","","","","","","","","","","","","","",""
"revaluation","75","409716","0.0-3.0-13.0-2.0-0.6","spark_pilot_2","7480","4","21","Male","","false","","","","","[747.1000000238419,462.0999999642372]","./assets/img/space/13.jpg","[""ArrowUp"",""ArrowRight""]","practice block","space","36","{""ArrowUp,ArrowLeft"":3,""ArrowUp,ArrowRight"":36,""ArrowDown,ArrowLeft"":15,""ArrowDown,ArrowRight"":23}","true","ArrowUp,ArrowRight","false","","","","","","","",""
"html-keyboard-response","76","410224","0.0-3.0-13.0-2.0-1.6","spark_pilot_2","7480","4","21","Male","","","","","","","null","<div style=""font-size:60px;"">+</div>","null","fixation","","","","","","","","","","","","","",""
"revaluation","77","416247","0.0-3.0-13.0-2.0-0.7","spark_pilot_2","7480","4","21","Male","","false","","","","","[499,399]","./assets/img/space/14.jpg","[""ArrowUp"",""ArrowRight""]","practice block","space","36","{""ArrowUp,ArrowLeft"":3,""ArrowUp,ArrowRight"":36,""ArrowDown,ArrowLeft"":15,""ArrowDown,ArrowRight"":23}","true","ArrowUp,ArrowRight","false","","","","","","","",""
"html-keyboard-response","78","416755","0.0-3.0-13.0-2.0-1.7","spark_pilot_2","7480","4","21","Male","","","","","","","null","<div style=""font-size:60px;"">+</div>","null","fixation","","","","","","","","","","","","","",""
"revaluation","79","420762","0.0-3.0-13.0-2.0-0.8","spark_pilot_2","7480","4","21","Male","","false","","","","","[1058.199999988079]","./assets/img/space/catch/3.jpg","[""spaceBar""]","practice block","space","0","{""ArrowUp,ArrowLeft"":3,""ArrowUp,ArrowRight"":36,""ArrowDown,ArrowLeft"":15,""ArrowDown,ArrowRight"":23}","true","spaceBar","true","","","","","","","",""
"html-keyboard-response","80","421272","0.0-3.0-13.0-2.0-1.8","spark_pilot_2","7480","4","21","Male","","","","","","","null","<div style=""font-size:60px;"">+</div>","null","fixation","","","","","","","","","","","","","",""
"learning-instructions","81","436332","0.0-3.0-13.0-3.0-0.0","spark_pilot_2","7480","4","21","Male","","","","","","","1275.0999999642372","<p> Now, you will travel with a friend who will choose whether you go up or down first. </p>
            <p> On these turns, you will just see the animal that they found. You will still get to choose which chest to search for treasure.</p>","","instructions","","","","","","","","","","","","","",""
"revaluation","82","440364","0.0-3.0-13.0-4.0-0.0","spark_pilot_2","7480","4","21","Male","","false","","","","","[1633.2000000476837]","./assets/img/space/animals/rabbit.jpg","[""ArrowRight""]","practice block","space","23","{""ArrowUp,ArrowLeft"":3,""ArrowUp,ArrowRight"":36,""ArrowDown,ArrowLeft"":15,""ArrowDown,ArrowRight"":23}","true","ArrowDown,ArrowRight","","","","","","","","",""
"html-keyboard-response","83","440868","0.0-3.0-13.0-4.0-1.0","spark_pilot_2","7480","4","21","Male","","","","","","","null","<div style=""font-size:60px;"">+</div>","null","fixation","","","","","","","","","","","","","",""
"revaluation","84","444902","0.0-3.0-13.0-4.0-0.1","spark_pilot_2","7480","4","21","Male","","false","","","","","[830.4000000357628]","./assets/img/space/animals/cat.jpg","[""ArrowRight""]","practice block","space","36","{""ArrowUp,ArrowLeft"":3,""ArrowUp,ArrowRight"":36,""ArrowDown,ArrowLeft"":15,""ArrowDown,ArrowRight"":23}","true","ArrowUp,ArrowRight","","","","","","","","",""
"html-keyboard-response","85","445407","0.0-3.0-13.0-4.0-1.1","spark_pilot_2","7480","4","21","Male","","","","","","","null","<div style=""font-size:60px;"">+</div>","null","fixation","","","","","","","","","","","","","",""
"revaluation","86","449434","0.0-3.0-13.0-4.0-0.2","spark_pilot_2","7480","4","21","Male","","false","","","","","[354.19999998807907]","./assets/img/space/animals/cat.jpg","[""ArrowRight""]","practice block","space","36","{""ArrowUp,ArrowLeft"":3,""ArrowUp,ArrowRight"":36,""ArrowDown,ArrowLeft"":15,""ArrowDown,ArrowRight"":23}","true","ArrowUp,ArrowRight","","","","","","","","",""
"html-keyboard-response","87","449950","0.0-3.0-13.0-4.0-1.2","spark_pilot_2","7480","4","21","Male","","","","","","","null","<div style=""font-size:60px;"">+</div>","null","fixation","","","","","","","","","","","","","",""
"revaluation","88","453980","0.0-3.0-13.0-4.0-0.3","spark_pilot_2","7480","4","21","Male","","false","","","","","[431.30000001192093]","./assets/img/space/animals/rabbit.jpg","[""ArrowRight""]","practice block","space","23","{""ArrowUp,ArrowLeft"":3,""ArrowUp,ArrowRight"":36,""ArrowDown,ArrowLeft"":15,""ArrowDown,ArrowRight"":23}","true","ArrowDown,ArrowRight","","","","","","","","",""
"html-keyboard-response","89","454482","0.0-3.0-13.0-4.0-1.3","spark_pilot_2","7480","4","21","Male","","","","","","","null","<div style=""font-size:60px;"">+</div>","null","fixation","","","","","","","","","","","","","",""
"learning-instructions","90","464046","0.0-3.0-13.0-5.0-0.0","spark_pilot_2","7480","4","21","Male","","","","","","","2079.199999988079","<p> Time to play the dot game! </p>
            <p> For 15 seconds, click the red dots on the following screen as they appear. </p>","","instructions","","","","","","","","","","","","","",""
"revaluation","91","479054","0.0-3.0-13.0-6.0-0.0","spark_pilot_2","7480","4","21","Male","","","","","","","[87]","","","rest practice","","10","","","","","0","15000","","","","","",""
"learning-instructions","92","487146","0.0-3.0-13.0-7.0-0.0","spark_pilot_2","7480","4","21","Male","","","","","","","1849.300000011921","<p> You have almost finished this part of the game! </p>
            <p> We are going to ask you to make a few more choices. </p>","","instructions","","","","","","","","","","","","","",""
"learning-instructions","93","503297","0.0-3.0-13.0-7.0-0.1","spark_pilot_2","7480","4","21","Male","","","","","","","1950.699999988079","<p> First, you need to decide whether to go up or down. When you see each picture, use the arrow keys to make your choice. </p>
            <p><b>You will not see which animal you found, but try to get to the one that will give you the most treasure.</b></p>","","instructions","","","","","","","","","","","","","",""
"revaluation","94","504186","0.0-3.0-13.0-8.0","spark_pilot_2","7480","4","21","Male","","false","","","","","[883.8000000119209]","./assets/img/space/15.jpg","[""ArrowUp""]","practice block","space","0","{""ArrowUp,ArrowLeft"":3,""ArrowUp,ArrowRight"":36,""ArrowDown,ArrowLeft"":15,""ArrowDown,ArrowRight"":23}","true","ArrowUp","false","","","","","","","",""
"html-keyboard-response","95","504696","0.0-3.0-13.0-9.0","spark_pilot_2","7480","4","21","Male","","","","","","","null","<div style=""font-size:60px;"">+</div>","null","fixation","","","","","","","","","","","","","",""
"learning-instructions","96","517447","0.0-3.0-13.0-10.0-0.0","spark_pilot_2","7480","4","21","Male","","","","","","","1211.2000000476837","<p> Now you will see the animals again and can search their chests for treasure. </p>
            <p> This time, you will not see how much treasure you earned, but you will earn more bonus money for making better choices. </p>","","instructions","","","","","","","","","","","","","",""
"revaluation","97","518505","0.0-3.0-13.0-11.0-0.0","spark_pilot_2","7480","4","21","Male","","false","","","","","[1054.5]","./assets/img/space/animals/cat.jpg","[""ArrowRight""]","practice block","space","0","{""ArrowUp,ArrowLeft"":3,""ArrowUp,ArrowRight"":36,""ArrowDown,ArrowLeft"":15,""ArrowDown,ArrowRight"":23}","true","ArrowUp,ArrowRight","","","","","","","","",""
"html-keyboard-response","98","519010","0.0-3.0-13.0-11.0-1.0","spark_pilot_2","7480","4","21","Male","","","","","","","null","<div style=""font-size:60px;"">+</div>","null","fixation","","","","","","","","","","","","","",""
"revaluation","99","519597","0.0-3.0-13.0-11.0-0.1","spark_pilot_2","7480","4","21","Male","","false","","","","","[581.5999999642372]","./assets/img/space/animals/rabbit.jpg","[""ArrowRight""]","practice block","space","0","{""ArrowUp,ArrowLeft"":3,""ArrowUp,ArrowRight"":36,""ArrowDown,ArrowLeft"":15,""ArrowDown,ArrowRight"":23}","true","ArrowDown,ArrowRight","","","","","","","","",""
"html-keyboard-response","100","520109","0.0-3.0-13.0-11.0-1.1","spark_pilot_2","7480","4","21","Male","","","","","","","null","<div style=""font-size:60px;"">+</div>","null","fixation","","","","","","","","","","","","","",""
"learning-instructions","101","527138","0.0-3.0-14.0-0.0","spark_pilot_2","7480","4","21","Male","","","","","","","2358.399999976158","<p> Before you start, we're going to ask you a few questions about how the game works. </p>","","instructions","","","","","","","","","","","","","",""
"comp-q","102","533940","0.0-3.0-15.0-0.0-0.0","spark_pilot_2","7480","4","21","Male","","","","","","","1114.3999999761581","<p> <b> True or False? </b> </p>
            <p> There can be 50 pieces of treasure in a given animal's chest. </p>","1","comp_question","","","","true","","","","","","","","","",""
"comp-q","103","542079","0.0-3.0-15.0-0.0-1.0","spark_pilot_2","7480","4","21","Male","","","","","","","1361.5","<p> <b> That's right! </b> The amount of treasure in each chest can range from 0 to 40 pieces. </p>","0","comp_answer","","","","","","","","","","","","","",""
"comp-q","104","550262","0.0-3.0-15.0-0.1-0.1","spark_pilot_2","7480","4","21","Male","","","","","","","944.0999999642372","<p> <b> True or False? </b> </p><p> In this game, all animals have the same amount of treasure in their left and right chests. </p>","1","comp_question","","","","true","","","","","","","","","",""
"comp-q","105","557189","0.0-3.0-15.0-0.1-1.1","spark_pilot_2","7480","4","21","Male","","","","","","","1612.1000000238419","<p> <b> That's right! </b> Animals have different amounts of treasure in their treasure chests. </p>","0","comp_answer","","","","","","","","","","","","","",""
"comp-q","106","563886","0.0-3.0-15.0-0.2-0.2","spark_pilot_2","7480","4","21","Male","","","","","","","758.1999999880791","<p> <b> True or False? </b> </p><p> The same animal will always be there if you go up in the same place. </p>","0","comp_question","","","","true","","","","","","","","","",""
"comp-q","107","571519","0.0-3.0-15.0-0.2-1.2","spark_pilot_2","7480","4","21","Male","","","","","","","1081.3999999761581","<p> <b> That's right! </b> One animal lives in the upper part and one lives in the lower part of every place. </p>","0","comp_answer","","","","","","","","","","","","","",""
"comp-q","108","577934","0.0-3.0-15.0-0.3-0.3","spark_pilot_2","7480","4","21","Male","","","","","","","806.5","<p> <b> True or False? </b> </p><p> If you see a different picture, it means you are in a new place. </p>","0","comp_question","","","","false","","","","","","","","","",""
"comp-q","109","591905","0.0-3.0-15.0-0.3-1.3","spark_pilot_2","7480","4","21","Male","","","","","","","2708.099999964237","<p> <b>Incorrect.</b> Lots of different images may show the same place. For example,  you may see three different images that all remind you that you are in outer space. </p>","0","comp_answer","","","","","","","","","","","","","",""
"comp-q","110","598273","0.0-3.0-15.0-0.4-0.4","spark_pilot_2","7480","4","21","Male","","","","","","","865.5999999642372","<p> <b> True or False? </b> </p><p> If you see a different picture, it means you are in a new place. </p>","1","comp_question","","","","true","","","","","","","","","",""
"comp-q","111","610755","0.0-3.0-15.0-0.4-1.4","spark_pilot_2","7480","4","21","Male","","","","","","","1118","<p> <b> That's right! </b> Lots of different images may show the same place. For example,  you may see three different images that all remind you that you are in outer space. </p>","0","comp_answer","","","","","","","","","","","","","",""
"learning-instructions","112","622236","0.0-3.0-16.0-0.0","spark_pilot_2","7480","4","21","Male","","","","","","","1417.2000000476837","<p> Good job. Remember to do your best because the amount of treasure you earn will be converted into bonus money. </p>
            <p> It’s time to start the real game! </p>","","instructions","","","","","","","","","","","","","",""
"learning-instructions","113","628354","0.0-4.0-0.0-0.0","spark_pilot_2","7480","4","21","Male","","","","","","","3355.5","<p> This time you are searching for treasure in the <b>ocean</b>.</p>","","instructions","","","","","","","","","","","","","",""
"learning-instructions","114","647692","0.0-4.0-0.0-0.1","spark_pilot_2","7480","4","21","Male","","","","","","","1834.8999999761581","<p><b>New</b> animals with <b>new</b> treasure chests live here. You need to explore to discover where the animal with the best treasure chest is.</p>
                    <p> Like before, once you figure out which animal has the chest with the most treasure, you should try to get to that animal and select that chest! </p>","","instructions","","","","","","","","","","","","","",""
"learning-instructions","115","663543","0.0-4.0-1.0-0.0","spark_pilot_2","7480","4","21","Male","","","","","","","1126.699999988079","<p> Remember, when you see a picture of the place, use the up and down keys to <b>find an animal</b>.</p>
            <p> When you encounter an animal, you should use the left and right keys to <b>select a treasure chest</b>.</p>
            <p> Don't forget to look out for the robber! </p>","","instructions","","","","","","","","","","","","","",""
"revaluation","116","669582","0.0-4.0-2.0-0.0","spark_pilot_2","7480","4","21","Male","","false","","","","","[971.5,658.1000000238419]","./assets/img/ocean/memory/5.jpg","[""ArrowUp"",""ArrowLeft""]","value training","ocean","26","{""ArrowUp,ArrowLeft"":26,""ArrowUp,ArrowRight"":10,""ArrowDown,ArrowLeft"":5,""ArrowDown,ArrowRight"":17}","true","ArrowUp,ArrowLeft","false","","","revaluation","1","0","","",""
"html-keyboard-response","117","670093","0.0-4.0-2.0-1.0","spark_pilot_2","7480","4","21","Male","","","","","","","null","<div style=""font-size:60px;"">+</div>","null","fixation","","","","","","","","","","","1","","",""
"revaluation","118","676123","0.0-4.0-2.0-0.1","spark_pilot_2","7480","4","21","Male","","false","","","","","[895.8000000119209,631.1000000238419]","./assets/img/ocean/memory/17.jpg","[""ArrowUp"",""ArrowRight""]","value training","ocean","10","{""ArrowUp,ArrowLeft"":26,""ArrowUp,ArrowRight"":10,""ArrowDown,ArrowLeft"":5,""ArrowDown,ArrowRight"":17}","false","ArrowUp,ArrowRight","false","","","revaluation","1","2","","",""
"html-keyboard-response","119","676639","0.0-4.0-2.0-1.1","spark_pilot_2","7480","4","21","Male","","","","","","","null","<div style=""font-size:60px;"">+</div>","null","fixation","","","","","","","","","","","3","","",""
"revaluation","120","682675","0.0-4.0-2.0-0.2","spark_pilot_2","7480","4","21","Male","","false","","","","","[762.1999999880791,763.6000000238419]","./assets/img/ocean/memory/36.jpg","[""ArrowDown"",""ArrowLeft""]","value training","ocean","5","{""ArrowUp,ArrowLeft"":26,""ArrowUp,ArrowRight"":10,""ArrowDown,ArrowLeft"":5,""ArrowDown,ArrowRight"":17}","false","ArrowDown,ArrowLeft","false","","","revaluation","1","4","","",""
"html-keyboard-response","121","683188","0.0-4.0-2.0-1.2","spark_pilot_2","7480","4","21","Male","","","","","","","null","<div style=""font-size:60px;"">+</div>","null","fixation","","","","","","","","","","","5","","",""
"revaluation","122","689217","0.0-4.0-2.0-0.3","spark_pilot_2","7480","4","21","Male","","false","","","","","[872.0999999642372,472.39999997615814]","./assets/img/ocean/memory/27.jpg","[""ArrowDown"",""ArrowRight""]","value training","ocean","17","{""ArrowUp,ArrowLeft"":26,""ArrowUp,ArrowRight"":10,""ArrowDown,ArrowLeft"":5,""ArrowDown,ArrowRight"":17}","false","ArrowDown,ArrowRight","false","","","revaluation","1","6","","",""
"html-keyboard-response","123","689734","0.0-4.0-2.0-1.3","spark_pilot_2","7480","4","21","Male","","","","","","","null","<div style=""font-size:60px;"">+</div>","null","fixation","","","","","","","","","","","7","","",""
"revaluation","124","695779","0.0-4.0-2.0-0.4","spark_pilot_2","7480","4","21","Male","","false","","","","","[1421.6000000238419,589.8999999761581]","./assets/img/ocean/memory/36.jpg","[""ArrowUp"",""ArrowLeft""]","value training","ocean","26","{""ArrowUp,ArrowLeft"":26,""ArrowUp,ArrowRight"":10,""ArrowDown,ArrowLeft"":5,""ArrowDown,ArrowRight"":17}","true","ArrowUp,ArrowLeft","false","","","revaluation","1","8","","",""
"html-keyboard-response","125","696294","0.0-4.0-2.0-1.4","spark_pilot_2","7480","4","21","Male","","","","","","","null","<div style=""font-size:60px;"">+</div>","null","fixation","","","","","","","","","","","9","","",""
"revaluation","126","702325","0.0-4.0-2.0-0.5","spark_pilot_2","7480","4","21","Male","","false","","","","","[816.8000000119209,451.5]","./assets/img/ocean/memory/34.jpg","[""ArrowUp"",""ArrowLeft""]","value training","ocean","26","{""ArrowUp,ArrowLeft"":26,""ArrowUp,ArrowRight"":10,""ArrowDown,ArrowLeft"":5,""ArrowDown,ArrowRight"":17}","true","ArrowUp,ArrowLeft","false","","","revaluation","1","10","","",""
"html-keyboard-response","127","702833","0.0-4.0-2.0-1.5","spark_pilot_2","7480","4","21","Male","","","","","","","null","<div style=""font-size:60px;"">+</div>","null","fixation","","","","","","","","","","","11","","",""
"revaluation","128","706847","0.0-4.0-2.0-0.6","spark_pilot_2","7480","4","21","Male","","false","","","","","[700]","./assets/img/ocean/catch/1.jpg","[""ArrowUp""]","value training","ocean","-10","{""ArrowUp,ArrowLeft"":26,""ArrowUp,ArrowRight"":10,""ArrowDown,ArrowLeft"":5,""ArrowDown,ArrowRight"":17}","false","ArrowUp","true","","","revaluation","1","12","","",""
"html-keyboard-response","129","707358","0.0-4.0-2.0-1.6","spark_pilot_2","7480","4","21","Male","","","","","","","null","<div style=""font-size:60px;"">+</div>","null","fixation","","","","","","","","","","","13","","",""
"revaluation","130","713390","0.0-4.0-2.0-0.7","spark_pilot_2","7480","4","21","Male","","false","","","","","[1136,630.6999999880791]","./assets/img/ocean/memory/21.jpg","[""ArrowUp"",""ArrowLeft""]","value training","ocean","26","{""ArrowUp,ArrowLeft"":26,""ArrowUp,ArrowRight"":10,""ArrowDown,ArrowLeft"":5,""ArrowDown,ArrowRight"":17}","true","ArrowUp,ArrowLeft","false","","","revaluation","1","14","","",""
"html-keyboard-response","131","713896","0.0-4.0-2.0-1.7","spark_pilot_2","7480","4","21","Male","","","","","","","null","<div style=""font-size:60px;"">+</div>","null","fixation","","","","","","","","","","","15","","",""
"revaluation","132","719928","0.0-4.0-2.0-0.8","spark_pilot_2","7480","4","21","Male","","false","","","","","[823.1999999880791,597.1999999880791]","./assets/img/ocean/memory/7.jpg","[""ArrowUp"",""ArrowLeft""]","value training","ocean","26","{""ArrowUp,ArrowLeft"":26,""ArrowUp,ArrowRight"":10,""ArrowDown,ArrowLeft"":5,""ArrowDown,ArrowRight"":17}","true","ArrowUp,ArrowLeft","false","","","revaluation","1","16","","",""
"html-keyboard-response","133","720437","0.0-4.0-2.0-1.8","spark_pilot_2","7480","4","21","Male","","","","","","","null","<div style=""font-size:60px;"">+</div>","null","fixation","","","","","","","","","","","17","","",""
"revaluation","134","726467","0.0-4.0-2.0-0.9","spark_pilot_2","7480","4","21","Male","","false","","","","","[1100.5,423.60000002384186]","./assets/img/ocean/memory/29.jpg","[""ArrowUp"",""ArrowLeft""]","value training","ocean","26","{""ArrowUp,ArrowLeft"":26,""ArrowUp,ArrowRight"":10,""ArrowDown,ArrowLeft"":5,""ArrowDown,ArrowRight"":17}","true","ArrowUp,ArrowLeft","false","","","revaluation","1","18","","",""
"html-keyboard-response","135","726973","0.0-4.0-2.0-1.9","spark_pilot_2","7480","4","21","Male","","","","","","","null","<div style=""font-size:60px;"">+</div>","null","fixation","","","","","","","","","","","19","","",""
"revaluation","136","733006","0.0-4.0-2.0-0.10","spark_pilot_2","7480","4","21","Male","","false","","","","","[1215,423.5]","./assets/img/ocean/memory/10.jpg","[""ArrowUp"",""ArrowLeft""]","value training","ocean","26","{""ArrowUp,ArrowLeft"":26,""ArrowUp,ArrowRight"":10,""ArrowDown,ArrowLeft"":5,""ArrowDown,ArrowRight"":17}","true","ArrowUp,ArrowLeft","false","","","revaluation","1","20","","",""
"html-keyboard-response","137","733514","0.0-4.0-2.0-1.10","spark_pilot_2","7480","4","21","Male","","","","","","","null","<div style=""font-size:60px;"">+</div>","null","fixation","","","","","","","","","","","21","","",""
"revaluation","138","739537","0.0-4.0-2.0-0.11","spark_pilot_2","7480","4","21","Male","","false","","","","","[902.6999999880791,501.0999999642372]","./assets/img/ocean/memory/38.jpg","[""ArrowUp"",""ArrowLeft""]","value training","ocean","26","{""ArrowUp,ArrowLeft"":26,""ArrowUp,ArrowRight"":10,""ArrowDown,ArrowLeft"":5,""ArrowDown,ArrowRight"":17}","true","ArrowUp,ArrowLeft","false","","","revaluation","1","22","","",""
"html-keyboard-response","139","740043","0.0-4.0-2.0-1.11","spark_pilot_2","7480","4","21","Male","","","","","","","null","<div style=""font-size:60px;"">+</div>","null","fixation","","","","","","","","","","","23","","",""
"revaluation","140","746060","0.0-4.0-2.0-0.12","spark_pilot_2","7480","4","21","Male","","false","","","","","[1123.800000011921,507.39999997615814]","./assets/img/ocean/memory/16.jpg","[""ArrowUp"",""ArrowLeft""]","value training","ocean","26","{""ArrowUp,ArrowLeft"":26,""ArrowUp,ArrowRight"":10,""ArrowDown,ArrowLeft"":5,""ArrowDown,ArrowRight"":17}","true","ArrowUp,ArrowLeft","false","","","revaluation","1","24","","",""
"html-keyboard-response","141","746567","0.0-4.0-2.0-1.12","spark_pilot_2","7480","4","21","Male","","","","","","","null","<div style=""font-size:60px;"">+</div>","null","fixation","","","","","","","","","","","25","","",""
"revaluation","142","752592","0.0-4.0-2.0-0.13","spark_pilot_2","7480","4","21","Male","","false","","","","","[1168.3999999761581,455.5]","./assets/img/ocean/memory/34.jpg","[""ArrowUp"",""ArrowLeft""]","value training","ocean","26","{""ArrowUp,ArrowLeft"":26,""ArrowUp,ArrowRight"":10,""ArrowDown,ArrowLeft"":5,""ArrowDown,ArrowRight"":17}","true","ArrowUp,ArrowLeft","false","","","revaluation","1","26","","",""
"html-keyboard-response","143","753108","0.0-4.0-2.0-1.13","spark_pilot_2","7480","4","21","Male","","","","","","","null","<div style=""font-size:60px;"">+</div>","null","fixation","","","","","","","","","","","27","","",""
"revaluation","144","759127","0.0-4.0-2.0-0.14","spark_pilot_2","7480","4","21","Male","","false","","","","","[1082.3999999761581,435.10000002384186]","./assets/img/ocean/memory/17.jpg","[""ArrowUp"",""ArrowLeft""]","value training","ocean","26","{""ArrowUp,ArrowLeft"":26,""ArrowUp,ArrowRight"":10,""ArrowDown,ArrowLeft"":5,""ArrowDown,ArrowRight"":17}","true","ArrowUp,ArrowLeft","false","","","revaluation","1","28","","",""
"html-keyboard-response","145","759629","0.0-4.0-2.0-1.14","spark_pilot_2","7480","4","21","Male","","","","","","","null","<div style=""font-size:60px;"">+</div>","null","fixation","","","","","","","","","","","29","","",""
"revaluation","146","763646","0.0-4.0-2.0-0.15","spark_pilot_2","7480","4","21","Male","","false","","","","","[1044.6000000238419]","./assets/img/ocean/catch/7.jpg","[""spaceBar""]","value training","ocean","0","{""ArrowUp,ArrowLeft"":26,""ArrowUp,ArrowRight"":10,""ArrowDown,ArrowLeft"":5,""ArrowDown,ArrowRight"":17}","true","spaceBar","true","","","revaluation","1","30","","",""
"html-keyboard-response","147","764154","0.0-4.0-2.0-1.15","spark_pilot_2","7480","4","21","Male","","","","","","","null","<div style=""font-size:60px;"">+</div>","null","fixation","","","","","","","","","","","31","","",""
"revaluation","148","770176","0.0-4.0-2.0-0.16","spark_pilot_2","7480","4","21","Male","","false","","","","","[1256.199999988079,587.5]","./assets/img/ocean/memory/10.jpg","[""ArrowUp"",""ArrowLeft""]","value training","ocean","26","{""ArrowUp,ArrowLeft"":26,""ArrowUp,ArrowRight"":10,""ArrowDown,ArrowLeft"":5,""ArrowDown,ArrowRight"":17}","true","ArrowUp,ArrowLeft","false","","","revaluation","1","32","","",""
"html-keyboard-response","149","770688","0.0-4.0-2.0-1.16","spark_pilot_2","7480","4","21","Male","","","","","","","null","<div style=""font-size:60px;"">+</div>","null","fixation","","","","","","","","","","","33","","",""
"revaluation","150","774709","0.0-4.0-2.0-0.17","spark_pilot_2","7480","4","21","Male","","false","","","","","[1064.5]","./assets/img/ocean/catch/5.jpg","[""spaceBar""]","value training","ocean","0","{""ArrowUp,ArrowLeft"":26,""ArrowUp,ArrowRight"":10,""ArrowDown,ArrowLeft"":5,""ArrowDown,ArrowRight"":17}","true","spaceBar","true","","","revaluation","1","34","","",""
"html-keyboard-response","151","775215","0.0-4.0-2.0-1.17","spark_pilot_2","7480","4","21","Male","","","","","","","null","<div style=""font-size:60px;"">+</div>","null","fixation","","","","","","","","","","","35","","",""
"revaluation","152","781252","0.0-4.0-2.0-0.18","spark_pilot_2","7480","4","21","Male","","false","","","","","[1152.7999999523163,482.80000001192093]","./assets/img/ocean/memory/11.jpg","[""ArrowUp"",""ArrowLeft""]","value training","ocean","26","{""ArrowUp,ArrowLeft"":26,""ArrowUp,ArrowRight"":10,""ArrowDown,ArrowLeft"":5,""ArrowDown,ArrowRight"":17}","true","ArrowUp,ArrowLeft","false","","","revaluation","1","36","","",""
"html-keyboard-response","153","781765","0.0-4.0-2.0-1.18","spark_pilot_2","7480","4","21","Male","","","","","","","null","<div style=""font-size:60px;"">+</div>","null","fixation","","","","","","","","","","","37","","",""
"revaluation","154","787796","0.0-4.0-2.0-0.19","spark_pilot_2","7480","4","21","Male","","false","","","","","[866,511.60000002384186]","./assets/img/ocean/memory/5.jpg","[""ArrowUp"",""ArrowLeft""]","value training","ocean","26","{""ArrowUp,ArrowLeft"":26,""ArrowUp,ArrowRight"":10,""ArrowDown,ArrowLeft"":5,""ArrowDown,ArrowRight"":17}","true","ArrowUp,ArrowLeft","false","","","revaluation","1","38","","",""
"html-keyboard-response","155","788312","0.0-4.0-2.0-1.19","spark_pilot_2","7480","4","21","Male","","","","","","","null","<div style=""font-size:60px;"">+</div>","null","fixation","","","","","","","","","","","39","","",""
"revaluation","156","792331","0.0-4.0-2.0-0.20","spark_pilot_2","7480","4","21","Male","","false","","","","","[664.7999999523163]","./assets/img/ocean/catch/3.jpg","[""spaceBar""]","value training","ocean","0","{""ArrowUp,ArrowLeft"":26,""ArrowUp,ArrowRight"":10,""ArrowDown,ArrowLeft"":5,""ArrowDown,ArrowRight"":17}","true","spaceBar","true","","","revaluation","1","40","","",""
"html-keyboard-response","157","792834","0.0-4.0-2.0-1.20","spark_pilot_2","7480","4","21","Male","","","","","","","null","<div style=""font-size:60px;"">+</div>","null","fixation","","","","","","","","","","","41","","",""
"revaluation","158","798856","0.0-4.0-2.0-0.21","spark_pilot_2","7480","4","21","Male","","false","","","","","[1129.1000000238419,878.5]","./assets/img/ocean/memory/38.jpg","[""ArrowUp"",""ArrowLeft""]","value training","ocean","26","{""ArrowUp,ArrowLeft"":26,""ArrowUp,ArrowRight"":10,""ArrowDown,ArrowLeft"":5,""ArrowDown,ArrowRight"":17}","true","ArrowUp,ArrowLeft","false","","","revaluation","1","42","","",""
"html-keyboard-response","159","799365","0.0-4.0-2.0-1.21","spark_pilot_2","7480","4","21","Male","","","","","","","null","<div style=""font-size:60px;"">+</div>","null","fixation","","","","","","","","","","","43","","",""
"revaluation","160","805392","0.0-4.0-2.0-0.22","spark_pilot_2","7480","4","21","Male","","false","","","","","[1227.9000000357628,588.3000000119209]","./assets/img/ocean/memory/35.jpg","[""ArrowUp"",""ArrowLeft""]","value training","ocean","26","{""ArrowUp,ArrowLeft"":26,""ArrowUp,ArrowRight"":10,""ArrowDown,ArrowLeft"":5,""ArrowDown,ArrowRight"":17}","true","ArrowUp,ArrowLeft","false","","","revaluation","1","44","","",""
"html-keyboard-response","161","805896","0.0-4.0-2.0-1.22","spark_pilot_2","7480","4","21","Male","","","","","","","null","<div style=""font-size:60px;"">+</div>","null","fixation","","","","","","","","","","","45","","",""
"revaluation","162","811912","0.0-4.0-2.0-0.23","spark_pilot_2","7480","4","21","Male","","false","","","","","[1459.5,621]","./assets/img/ocean/memory/20.jpg","[""ArrowUp"",""ArrowLeft""]","value training","ocean","26","{""ArrowUp,ArrowLeft"":26,""ArrowUp,ArrowRight"":10,""ArrowDown,ArrowLeft"":5,""ArrowDown,ArrowRight"":17}","true","ArrowUp,ArrowLeft","false","","","revaluation","1","46","","",""
"html-keyboard-response","163","812419","0.0-4.0-2.0-1.23","spark_pilot_2","7480","4","21","Male","","","","","","","null","<div style=""font-size:60px;"">+</div>","null","fixation","","","","","","","","","","","47","","",""
"revaluation","164","818444","0.0-4.0-2.0-0.24","spark_pilot_2","7480","4","21","Male","","false","","","","","[1398.800000011921,693.5]","./assets/img/ocean/memory/37.jpg","[""ArrowUp"",""ArrowLeft""]","value training","ocean","26","{""ArrowUp,ArrowLeft"":26,""ArrowUp,ArrowRight"":10,""ArrowDown,ArrowLeft"":5,""ArrowDown,ArrowRight"":17}","true","ArrowUp,ArrowLeft","false","","","revaluation","1","48","","",""
"html-keyboard-response","165","818952","0.0-4.0-2.0-1.24","spark_pilot_2","7480","4","21","Male","","","","","","","null","<div style=""font-size:60px;"">+</div>","null","fixation","","","","","","","","","","","49","","",""
"revaluation","166","822974","0.0-4.0-2.0-0.25","spark_pilot_2","7480","4","21","Male","","false","","","","","[918.3000000119209]","./assets/img/ocean/catch/4.jpg","[""spaceBar""]","value training","ocean","0","{""ArrowUp,ArrowLeft"":26,""ArrowUp,ArrowRight"":10,""ArrowDown,ArrowLeft"":5,""ArrowDown,ArrowRight"":17}","true","spaceBar","true","","","revaluation","1","50","","",""
"html-keyboard-response","167","823484","0.0-4.0-2.0-1.25","spark_pilot_2","7480","4","21","Male","","","","","","","null","<div style=""font-size:60px;"">+</div>","null","fixation","","","","","","","","","","","51","","",""
"revaluation","168","829515","0.0-4.0-2.0-0.26","spark_pilot_2","7480","4","21","Male","","false","","","","","[1446.3999999761581,665.3999999761581]","./assets/img/ocean/memory/26.jpg","[""ArrowUp"",""ArrowLeft""]","value training","ocean","26","{""ArrowUp,ArrowLeft"":26,""ArrowUp,ArrowRight"":10,""ArrowDown,ArrowLeft"":5,""ArrowDown,ArrowRight"":17}","true","ArrowUp,ArrowLeft","false","","","revaluation","1","52","","",""
"html-keyboard-response","169","830023","0.0-4.0-2.0-1.26","spark_pilot_2","7480","4","21","Male","","","","","","","null","<div style=""font-size:60px;"">+</div>","null","fixation","","","","","","","","","","","53","","",""
"revaluation","170","836055","0.0-4.0-2.0-0.27","spark_pilot_2","7480","4","21","Male","","false","","","","","[1323.5,524.8000000119209]","./assets/img/ocean/memory/0.jpg","[""ArrowUp"",""ArrowLeft""]","value training","ocean","26","{""ArrowUp,ArrowLeft"":26,""ArrowUp,ArrowRight"":10,""ArrowDown,ArrowLeft"":5,""ArrowDown,ArrowRight"":17}","true","ArrowUp,ArrowLeft","false","","","revaluation","1","54","","",""
"html-keyboard-response","171","836563","0.0-4.0-2.0-1.27","spark_pilot_2","7480","4","21","Male","","","","","","","null","<div style=""font-size:60px;"">+</div>","null","fixation","","","","","","","","","","","55","","",""
"revaluation","172","840587","0.0-4.0-2.0-0.28","spark_pilot_2","7480","4","21","Male","","false","","","","","[703.5]","./assets/img/ocean/catch/2.jpg","[""spaceBar""]","value training","ocean","0","{""ArrowUp,ArrowLeft"":26,""ArrowUp,ArrowRight"":10,""ArrowDown,ArrowLeft"":5,""ArrowDown,ArrowRight"":17}","true","spaceBar","true","","","revaluation","1","56","","",""
"html-keyboard-response","173","841095","0.0-4.0-2.0-1.28","spark_pilot_2","7480","4","21","Male","","","","","","","null","<div style=""font-size:60px;"">+</div>","null","fixation","","","","","","","","","","","57","","",""
"revaluation","174","847116","0.0-4.0-2.0-0.29","spark_pilot_2","7480","4","21","Male","","false","","","","","[1394,541.8000000119209]","./assets/img/ocean/memory/20.jpg","[""ArrowUp"",""ArrowLeft""]","value training","ocean","26","{""ArrowUp,ArrowLeft"":26,""ArrowUp,ArrowRight"":10,""ArrowDown,ArrowLeft"":5,""ArrowDown,ArrowRight"":17}","true","ArrowUp,ArrowLeft","false","","","revaluation","1","58","","",""
"html-keyboard-response","175","847626","0.0-4.0-2.0-1.29","spark_pilot_2","7480","4","21","Male","","","","","","","null","<div style=""font-size:60px;"">+</div>","null","fixation","","","","","","","","","","","59","","",""
"revaluation","176","853659","0.0-4.0-2.0-0.30","spark_pilot_2","7480","4","21","Male","","false","","","","","[1175.0999999642372,459]","./assets/img/ocean/memory/16.jpg","[""ArrowUp"",""ArrowLeft""]","value training","ocean","26","{""ArrowUp,ArrowLeft"":26,""ArrowUp,ArrowRight"":10,""ArrowDown,ArrowLeft"":5,""ArrowDown,ArrowRight"":17}","true","ArrowUp,ArrowLeft","false","","","revaluation","1","60","","",""
"html-keyboard-response","177","854165","0.0-4.0-2.0-1.30","spark_pilot_2","7480","4","21","Male","","","","","","","null","<div style=""font-size:60px;"">+</div>","null","fixation","","","","","","","","","","","61","","",""
"revaluation","178","858181","0.0-4.0-2.0-0.31","spark_pilot_2","7480","4","21","Male","","false","","","","","[1374.7000000476837]","./assets/img/ocean/catch/6.jpg","[""spaceBar""]","value training","ocean","0","{""ArrowUp,ArrowLeft"":26,""ArrowUp,ArrowRight"":10,""ArrowDown,ArrowLeft"":5,""ArrowDown,ArrowRight"":17}","true","spaceBar","true","","","revaluation","1","62","","",""
"html-keyboard-response","179","858689","0.0-4.0-2.0-1.31","spark_pilot_2","7480","4","21","Male","","","","","","","null","<div style=""font-size:60px;"">+</div>","null","fixation","","","","","","","","","","","63","","",""
"revaluation","180","864708","0.0-4.0-2.0-0.32","spark_pilot_2","7480","4","21","Male","","false","","","","","[1044.1000000238419,621]","./assets/img/ocean/memory/19.jpg","[""ArrowUp"",""ArrowLeft""]","value training","ocean","26","{""ArrowUp,ArrowLeft"":26,""ArrowUp,ArrowRight"":10,""ArrowDown,ArrowLeft"":5,""ArrowDown,ArrowRight"":17}","true","ArrowUp,ArrowLeft","false","","","revaluation","1","64","","",""
"html-keyboard-response","181","865211","0.0-4.0-2.0-1.32","spark_pilot_2","7480","4","21","Male","","","","","","","null","<div style=""font-size:60px;"">+</div>","null","fixation","","","","","","","","","","","65","","",""
"revaluation","182","871227","0.0-4.0-2.0-0.33","spark_pilot_2","7480","4","21","Male","","false","","","","","[1142.6000000238419,560.8999999761581]","./assets/img/ocean/memory/37.jpg","[""ArrowUp"",""ArrowLeft""]","value training","ocean","26","{""ArrowUp,ArrowLeft"":26,""ArrowUp,ArrowRight"":10,""ArrowDown,ArrowLeft"":5,""ArrowDown,ArrowRight"":17}","true","ArrowUp,ArrowLeft","false","","","revaluation","1","66","","",""
"html-keyboard-response","183","871735","0.0-4.0-2.0-1.33","spark_pilot_2","7480","4","21","Male","","","","","","","null","<div style=""font-size:60px;"">+</div>","null","fixation","","","","","","","","","","","67","","",""
"revaluation","184","877761","0.0-4.0-2.0-0.34","spark_pilot_2","7480","4","21","Male","","false","","","","","[734,542.3999999761581]","./assets/img/ocean/memory/6.jpg","[""ArrowUp"",""ArrowLeft""]","value training","ocean","26","{""ArrowUp,ArrowLeft"":26,""ArrowUp,ArrowRight"":10,""ArrowDown,ArrowLeft"":5,""ArrowDown,ArrowRight"":17}","true","ArrowUp,ArrowLeft","false","","","revaluation","1","68","","",""
"html-keyboard-response","185","878266","0.0-4.0-2.0-1.34","spark_pilot_2","7480","4","21","Male","","","","","","","null","<div style=""font-size:60px;"">+</div>","null","fixation","","","","","","","","","","","69","","",""
"revaluation","186","884288","0.0-4.0-2.0-0.35","spark_pilot_2","7480","4","21","Male","","false","","","","","[1088.6000000238419,1056.1000000238419]","./assets/img/ocean/memory/27.jpg","[""ArrowUp"",""ArrowLeft""]","value training","ocean","26","{""ArrowUp,ArrowLeft"":26,""ArrowUp,ArrowRight"":10,""ArrowDown,ArrowLeft"":5,""ArrowDown,ArrowRight"":17}","true","ArrowUp,ArrowLeft","false","","","revaluation","1","70","","",""
"html-keyboard-response","187","884797","0.0-4.0-2.0-1.35","spark_pilot_2","7480","4","21","Male","","","","","","","null","<div style=""font-size:60px;"">+</div>","null","fixation","","","","","","","","","","","71","","",""
"revaluation","188","888813","0.0-4.0-2.0-0.36","spark_pilot_2","7480","4","21","Male","","false","","","","","[646]","./assets/img/ocean/catch/0.jpg","[""spaceBar""]","value training","ocean","0","{""ArrowUp,ArrowLeft"":26,""ArrowUp,ArrowRight"":10,""ArrowDown,ArrowLeft"":5,""ArrowDown,ArrowRight"":17}","true","spaceBar","true","","","revaluation","1","72","","",""
"html-keyboard-response","189","889318","0.0-4.0-2.0-1.36","spark_pilot_2","7480","4","21","Male","","","","","","","null","<div style=""font-size:60px;"">+</div>","null","fixation","","","","","","","","","","","73","","",""
"revaluation","190","895344","0.0-4.0-2.0-0.37","spark_pilot_2","7480","4","21","Male","","false","","","","","[1145.3999999761581,661.8000000119209]","./assets/img/ocean/memory/6.jpg","[""ArrowUp"",""ArrowLeft""]","value training","ocean","26","{""ArrowUp,ArrowLeft"":26,""ArrowUp,ArrowRight"":10,""ArrowDown,ArrowLeft"":5,""ArrowDown,ArrowRight"":17}","true","ArrowUp,ArrowLeft","false","","","revaluation","1","74","","",""
"html-keyboard-response","191","895860","0.0-4.0-2.0-1.37","spark_pilot_2","7480","4","21","Male","","","","","","","null","<div style=""font-size:60px;"">+</div>","null","fixation","","","","","","","","","","","75","","",""
"revaluation","192","901893","0.0-4.0-2.0-0.38","spark_pilot_2","7480","4","21","Male","","false","","","","","[1076,384.89999997615814]","./assets/img/ocean/memory/39.jpg","[""ArrowUp"",""ArrowLeft""]","value training","ocean","26","{""ArrowUp,ArrowLeft"":26,""ArrowUp,ArrowRight"":10,""ArrowDown,ArrowLeft"":5,""ArrowDown,ArrowRight"":17}","true","ArrowUp,ArrowLeft","false","","","revaluation","1","76","","",""
"html-keyboard-response","193","902398","0.0-4.0-2.0-1.38","spark_pilot_2","7480","4","21","Male","","","","","","","null","<div style=""font-size:60px;"">+</div>","null","fixation","","","","","","","","","","","77","","",""
"revaluation","194","908431","0.0-4.0-2.0-0.39","spark_pilot_2","7480","4","21","Male","","false","","","","","[939.3000000119209,379.39999997615814]","./assets/img/ocean/memory/35.jpg","[""ArrowUp"",""ArrowLeft""]","value training","ocean","26","{""ArrowUp,ArrowLeft"":26,""ArrowUp,ArrowRight"":10,""ArrowDown,ArrowLeft"":5,""ArrowDown,ArrowRight"":17}","true","ArrowUp,ArrowLeft","false","","","revaluation","1","78","","",""
"html-keyboard-response","195","908939","0.0-4.0-2.0-1.39","spark_pilot_2","7480","4","21","Male","","","","","","","null","<div style=""font-size:60px;"">+</div>","null","fixation","","","","","","","","","","","79","","",""
"revaluation","196","914955","0.0-4.0-2.0-0.40","spark_pilot_2","7480","4","21","Male","","false","","","","","[930.9000000357628,373.5]","./assets/img/ocean/memory/1.jpg","[""ArrowUp"",""ArrowLeft""]","value training","ocean","26","{""ArrowUp,ArrowLeft"":26,""ArrowUp,ArrowRight"":10,""ArrowDown,ArrowLeft"":5,""ArrowDown,ArrowRight"":17}","true","ArrowUp,ArrowLeft","false","","","revaluation","1","80","","",""
"html-keyboard-response","197","915470","0.0-4.0-2.0-1.40","spark_pilot_2","7480","4","21","Male","","","","","","","null","<div style=""font-size:60px;"">+</div>","null","fixation","","","","","","","","","","","81","","",""
"revaluation","198","921495","0.0-4.0-2.0-0.41","spark_pilot_2","7480","4","21","Male","","false","","","","","[1192.6000000238419,460.5]","./assets/img/ocean/memory/39.jpg","[""ArrowUp"",""ArrowLeft""]","value training","ocean","26","{""ArrowUp,ArrowLeft"":26,""ArrowUp,ArrowRight"":10,""ArrowDown,ArrowLeft"":5,""ArrowDown,ArrowRight"":17}","true","ArrowUp,ArrowLeft","false","","","revaluation","1","82","","",""
"html-keyboard-response","199","922004","0.0-4.0-2.0-1.41","spark_pilot_2","7480","4","21","Male","","","","","","","null","<div style=""font-size:60px;"">+</div>","null","fixation","","","","","","","","","","","83","","",""
"revaluation","200","928024","0.0-4.0-2.0-0.42","spark_pilot_2","7480","4","21","Male","","false","","","","","[1291.6000000238419,362]","./assets/img/ocean/memory/26.jpg","[""ArrowUp"",""ArrowLeft""]","value training","ocean","26","{""ArrowUp,ArrowLeft"":26,""ArrowUp,ArrowRight"":10,""ArrowDown,ArrowLeft"":5,""ArrowDown,ArrowRight"":17}","true","ArrowUp,ArrowLeft","false","","","revaluation","1","84","","",""
"html-keyboard-response","201","928532","0.0-4.0-2.0-1.42","spark_pilot_2","7480","4","21","Male","","","","","","","null","<div style=""font-size:60px;"">+</div>","null","fixation","","","","","","","","","","","85","","",""
"revaluation","202","934564","0.0-4.0-2.0-0.43","spark_pilot_2","7480","4","21","Male","","false","","","","","[1051.1000000238419,437.69999998807907]","./assets/img/ocean/memory/29.jpg","[""ArrowUp"",""ArrowLeft""]","value training","ocean","26","{""ArrowUp,ArrowLeft"":26,""ArrowUp,ArrowRight"":10,""ArrowDown,ArrowLeft"":5,""ArrowDown,ArrowRight"":17}","true","ArrowUp,ArrowLeft","false","","","revaluation","1","86","","",""
"html-keyboard-response","203","935071","0.0-4.0-2.0-1.43","spark_pilot_2","7480","4","21","Male","","","","","","","null","<div style=""font-size:60px;"">+</div>","null","fixation","","","","","","","","","","","87","","",""
"revaluation","204","941103","0.0-4.0-2.0-0.44","spark_pilot_2","7480","4","21","Male","","false","","","","","[993.8000000119209,349.5]","./assets/img/ocean/memory/0.jpg","[""ArrowUp"",""ArrowLeft""]","value training","ocean","26","{""ArrowUp,ArrowLeft"":26,""ArrowUp,ArrowRight"":10,""ArrowDown,ArrowLeft"":5,""ArrowDown,ArrowRight"":17}","true","ArrowUp,ArrowLeft","false","","","revaluation","1","88","","",""
"html-keyboard-response","205","941612","0.0-4.0-2.0-1.44","spark_pilot_2","7480","4","21","Male","","","","","","","null","<div style=""font-size:60px;"">+</div>","null","fixation","","","","","","","","","","","89","","",""
"revaluation","206","947645","0.0-4.0-2.0-0.45","spark_pilot_2","7480","4","21","Male","","false","","","","","[1062.800000011921,371]","./assets/img/ocean/memory/21.jpg","[""ArrowUp"",""ArrowLeft""]","value training","ocean","26","{""ArrowUp,ArrowLeft"":26,""ArrowUp,ArrowRight"":10,""ArrowDown,ArrowLeft"":5,""ArrowDown,ArrowRight"":17}","true","ArrowUp,ArrowLeft","false","","","revaluation","1","90","","",""
"html-keyboard-response","207","948150","0.0-4.0-2.0-1.45","spark_pilot_2","7480","4","21","Male","","","","","","","null","<div style=""font-size:60px;"">+</div>","null","fixation","","","","","","","","","","","91","","",""
"revaluation","208","954173","0.0-4.0-2.0-0.46","spark_pilot_2","7480","4","21","Male","","false","","","","","[792.2000000476837,407.9000000357628]","./assets/img/ocean/memory/19.jpg","[""ArrowUp"",""ArrowLeft""]","value training","ocean","26","{""ArrowUp,ArrowLeft"":26,""ArrowUp,ArrowRight"":10,""ArrowDown,ArrowLeft"":5,""ArrowDown,ArrowRight"":17}","true","ArrowUp,ArrowLeft","false","","","revaluation","1","92","","",""
"html-keyboard-response","209","954681","0.0-4.0-2.0-1.46","spark_pilot_2","7480","4","21","Male","","","","","","","null","<div style=""font-size:60px;"">+</div>","null","fixation","","","","","","","","","","","93","","",""
"revaluation","210","960705","0.0-4.0-2.0-0.47","spark_pilot_2","7480","4","21","Male","","false","","","","","[683.6999999880791,422.30000001192093]","./assets/img/ocean/memory/1.jpg","[""ArrowUp"",""ArrowLeft""]","value training","ocean","26","{""ArrowUp,ArrowLeft"":26,""ArrowUp,ArrowRight"":10,""ArrowDown,ArrowLeft"":5,""ArrowDown,ArrowRight"":17}","true","ArrowUp,ArrowLeft","false","","","revaluation","1","94","","",""
"html-keyboard-response","211","961212","0.0-4.0-2.0-1.47","spark_pilot_2","7480","4","21","Male","","","","","","","null","<div style=""font-size:60px;"">+</div>","null","fixation","","","","","","","","","","","95","","",""
"revaluation","212","967227","0.0-4.0-2.0-0.48","spark_pilot_2","7480","4","21","Male","","false","","","","","[772,514.8999999761581]","./assets/img/ocean/memory/11.jpg","[""ArrowUp"",""ArrowLeft""]","value training","ocean","26","{""ArrowUp,ArrowLeft"":26,""ArrowUp,ArrowRight"":10,""ArrowDown,ArrowLeft"":5,""ArrowDown,ArrowRight"":17}","true","ArrowUp,ArrowLeft","false","","","revaluation","1","96","","",""
"html-keyboard-response","213","967736","0.0-4.0-2.0-1.48","spark_pilot_2","7480","4","21","Male","","","","","","","null","<div style=""font-size:60px;"">+</div>","null","fixation","","","","","","","","","","","97","","",""
"revaluation","214","973767","0.0-4.0-2.0-0.49","spark_pilot_2","7480","4","21","Male","","false","","","","","[1218.1000000238419,448.10000002384186]","./assets/img/ocean/memory/7.jpg","[""ArrowUp"",""ArrowLeft""]","value training","ocean","26","{""ArrowUp,ArrowLeft"":26,""ArrowUp,ArrowRight"":10,""ArrowDown,ArrowLeft"":5,""ArrowDown,ArrowRight"":17}","true","ArrowUp,ArrowLeft","false","","","revaluation","1","98","","",""
"html-keyboard-response","215","974274","0.0-4.0-2.0-1.49","spark_pilot_2","7480","4","21","Male","","","","","","","null","<div style=""font-size:60px;"">+</div>","null","fixation","","","","","","","","","","","99","","",""
"learning-instructions","216","992295","0.0-4.0-3.0-0.0","spark_pilot_2","7480","4","21","Male","","","","","","","4112.800000011921","<p> Now, you will travel with a friend who will choose whether you go up or down first. </p>
            <p> On these turns, you will just see the animal that they found. You will still get to choose which chest to search for treasure.</p>","","instructions","","","","","","","","","","","","","",""
"revaluation","217","996333","0.0-4.0-4.0-0.0","spark_pilot_2","7480","4","21","Male","","false","","","","","[1213.7000000476837]","./assets/img/ocean/animals/seahorse.jpg","[""ArrowRight""]","revaluation","ocean","27","{""ArrowUp,ArrowLeft"":2,""ArrowUp,ArrowRight"":11,""ArrowDown,ArrowLeft"":8,""ArrowDown,ArrowRight"":27}","true","ArrowDown,ArrowRight","","","","revaluation","1","0","","",""
"html-keyboard-response","218","996855","0.0-4.0-4.0-1.0","spark_pilot_2","7480","4","21","Male","","","","","","","null","<div style=""font-size:60px;"">+</div>","null","fixation","","","","","","","","","","","1","","",""
"revaluation","219","1000881","0.0-4.0-4.0-0.1","spark_pilot_2","7480","4","21","Male","","false","","","","","[567.5]","./assets/img/ocean/animals/seahorse.jpg","[""ArrowRight""]","revaluation","ocean","27","{""ArrowUp,ArrowLeft"":2,""ArrowUp,ArrowRight"":11,""ArrowDown,ArrowLeft"":8,""ArrowDown,ArrowRight"":27}","true","ArrowDown,ArrowRight","","","","revaluation","1","2","","",""
"html-keyboard-response","220","1001398","0.0-4.0-4.0-1.1","spark_pilot_2","7480","4","21","Male","","","","","","","null","<div style=""font-size:60px;"">+</div>","null","fixation","","","","","","","","","","","3","","",""
"revaluation","221","1005412","0.0-4.0-4.0-0.2","spark_pilot_2","7480","4","21","Male","","false","","","","","[1042.3999999761581]","./assets/img/ocean/animals/octopus.jpg","[""ArrowLeft""]","revaluation","ocean","2","{""ArrowUp,ArrowLeft"":2,""ArrowUp,ArrowRight"":11,""ArrowDown,ArrowLeft"":8,""ArrowDown,ArrowRight"":27}","false","ArrowUp,ArrowLeft","","","","revaluation","1","4","","",""
"html-keyboard-response","222","1005929","0.0-4.0-4.0-1.2","spark_pilot_2","7480","4","21","Male","","","","","","","null","<div style=""font-size:60px;"">+</div>","null","fixation","","","","","","","","","","","5","","",""
"revaluation","223","1009962","0.0-4.0-4.0-0.3","spark_pilot_2","7480","4","21","Male","","false","","","","","[552.6000000238419]","./assets/img/ocean/animals/octopus.jpg","[""ArrowRight""]","revaluation","ocean","11","{""ArrowUp,ArrowLeft"":2,""ArrowUp,ArrowRight"":11,""ArrowDown,ArrowLeft"":8,""ArrowDown,ArrowRight"":27}","true","ArrowUp,ArrowRight","","","","revaluation","1","6","","",""
"html-keyboard-response","224","1010468","0.0-4.0-4.0-1.3","spark_pilot_2","7480","4","21","Male","","","","","","","null","<div style=""font-size:60px;"">+</div>","null","fixation","","","","","","","","","","","7","","",""
"revaluation","225","1014494","0.0-4.0-4.0-0.4","spark_pilot_2","7480","4","21","Male","","false","","","","","[615]","./assets/img/ocean/animals/octopus.jpg","[""ArrowRight""]","revaluation","ocean","11","{""ArrowUp,ArrowLeft"":2,""ArrowUp,ArrowRight"":11,""ArrowDown,ArrowLeft"":8,""ArrowDown,ArrowRight"":27}","true","ArrowUp,ArrowRight","","","","revaluation","1","8","","",""
"html-keyboard-response","226","1015009","0.0-4.0-4.0-1.4","spark_pilot_2","7480","4","21","Male","","","","","","","null","<div style=""font-size:60px;"">+</div>","null","fixation","","","","","","","","","","","9","","",""
"revaluation","227","1019019","0.0-4.0-4.0-0.5","spark_pilot_2","7480","4","21","Male","","false","","","","","[1114.4000000357628]","./assets/img/ocean/animals/octopus.jpg","[""ArrowRight""]","revaluation","ocean","11","{""ArrowUp,ArrowLeft"":2,""ArrowUp,ArrowRight"":11,""ArrowDown,ArrowLeft"":8,""ArrowDown,ArrowRight"":27}","true","ArrowUp,ArrowRight","","","","revaluation","1","10","","",""
"html-keyboard-response","228","1019535","0.0-4.0-4.0-1.5","spark_pilot_2","7480","4","21","Male","","","","","","","null","<div style=""font-size:60px;"">+</div>","null","fixation","","","","","","","","","","","11","","",""
"revaluation","229","1023567","0.0-4.0-4.0-0.6","spark_pilot_2","7480","4","21","Male","","false","","","","","[906.3999999761581]","./assets/img/ocean/animals/seahorse.jpg","[""ArrowRight""]","revaluation","ocean","27","{""ArrowUp,ArrowLeft"":2,""ArrowUp,ArrowRight"":11,""ArrowDown,ArrowLeft"":8,""ArrowDown,ArrowRight"":27}","true","ArrowDown,ArrowRight","","","","revaluation","1","12","","",""
"html-keyboard-response","230","1024083","0.0-4.0-4.0-1.6","spark_pilot_2","7480","4","21","Male","","","","","","","null","<div style=""font-size:60px;"">+</div>","null","fixation","","","","","","","","","","","13","","",""
"revaluation","231","1028101","0.0-4.0-4.0-0.7","spark_pilot_2","7480","4","21","Male","","false","","","","","[514.8000000119209]","./assets/img/ocean/animals/seahorse.jpg","[""ArrowLeft""]","revaluation","ocean","8","{""ArrowUp,ArrowLeft"":2,""ArrowUp,ArrowRight"":11,""ArrowDown,ArrowLeft"":8,""ArrowDown,ArrowRight"":27}","false","ArrowDown,ArrowLeft","","","","revaluation","1","14","","",""
"html-keyboard-response","232","1028616","0.0-4.0-4.0-1.7","spark_pilot_2","7480","4","21","Male","","","","","","","null","<div style=""font-size:60px;"">+</div>","null","fixation","","","","","","","","","","","15","","",""
"revaluation","233","1032631","0.0-4.0-4.0-0.8","spark_pilot_2","7480","4","21","Male","","false","","","","","[521.3000000119209]","./assets/img/ocean/animals/octopus.jpg","[""ArrowRight""]","revaluation","ocean","11","{""ArrowUp,ArrowLeft"":2,""ArrowUp,ArrowRight"":11,""ArrowDown,ArrowLeft"":8,""ArrowDown,ArrowRight"":27}","true","ArrowUp,ArrowRight","","","","revaluation","1","16","","",""
"html-keyboard-response","234","1033138","0.0-4.0-4.0-1.8","spark_pilot_2","7480","4","21","Male","","","","","","","null","<div style=""font-size:60px;"">+</div>","null","fixation","","","","","","","","","","","17","","",""
"revaluation","235","1037154","0.0-4.0-4.0-0.9","spark_pilot_2","7480","4","21","Male","","false","","","","","[380.69999998807907]","./assets/img/ocean/animals/octopus.jpg","[""ArrowRight""]","revaluation","ocean","11","{""ArrowUp,ArrowLeft"":2,""ArrowUp,ArrowRight"":11,""ArrowDown,ArrowLeft"":8,""ArrowDown,ArrowRight"":27}","true","ArrowUp,ArrowRight","","","","revaluation","1","18","","",""
"html-keyboard-response","236","1037662","0.0-4.0-4.0-1.9","spark_pilot_2","7480","4","21","Male","","","","","","","null","<div style=""font-size:60px;"">+</div>","null","fixation","","","","","","","","","","","19","","",""
"revaluation","237","1041679","0.0-4.0-4.0-0.10","spark_pilot_2","7480","4","21","Male","","false","","","","","[403]","./assets/img/ocean/animals/seahorse.jpg","[""ArrowRight""]","revaluation","ocean","27","{""ArrowUp,ArrowLeft"":2,""ArrowUp,ArrowRight"":11,""ArrowDown,ArrowLeft"":8,""ArrowDown,ArrowRight"":27}","true","ArrowDown,ArrowRight","","","","revaluation","1","20","","",""
"html-keyboard-response","238","1042194","0.0-4.0-4.0-1.10","spark_pilot_2","7480","4","21","Male","","","","","","","null","<div style=""font-size:60px;"">+</div>","null","fixation","","","","","","","","","","","21","","",""
"revaluation","239","1046209","0.0-4.0-4.0-0.11","spark_pilot_2","7480","4","21","Male","","false","","","","","[859.6000000238419]","./assets/img/ocean/animals/octopus.jpg","[""ArrowRight""]","revaluation","ocean","11","{""ArrowUp,ArrowLeft"":2,""ArrowUp,ArrowRight"":11,""ArrowDown,ArrowLeft"":8,""ArrowDown,ArrowRight"":27}","true","ArrowUp,ArrowRight","","","","revaluation","1","22","","",""
"html-keyboard-response","240","1046726","0.0-4.0-4.0-1.11","spark_pilot_2","7480","4","21","Male","","","","","","","null","<div style=""font-size:60px;"">+</div>","null","fixation","","","","","","","","","","","23","","",""
"revaluation","241","1050749","0.0-4.0-4.0-0.12","spark_pilot_2","7480","4","21","Male","","false","","","","","[359.19999998807907]","./assets/img/ocean/animals/seahorse.jpg","[""ArrowRight""]","revaluation","ocean","27","{""ArrowUp,ArrowLeft"":2,""ArrowUp,ArrowRight"":11,""ArrowDown,ArrowLeft"":8,""ArrowDown,ArrowRight"":27}","true","ArrowDown,ArrowRight","","","","revaluation","1","24","","",""
"html-keyboard-response","242","1051259","0.0-4.0-4.0-1.12","spark_pilot_2","7480","4","21","Male","","","","","","","null","<div style=""font-size:60px;"">+</div>","null","fixation","","","","","","","","","","","25","","",""
"revaluation","243","1055281","0.0-4.0-4.0-0.13","spark_pilot_2","7480","4","21","Male","","false","","","","","[312.0999999642372]","./assets/img/ocean/animals/seahorse.jpg","[""ArrowRight""]","revaluation","ocean","27","{""ArrowUp,ArrowLeft"":2,""ArrowUp,ArrowRight"":11,""ArrowDown,ArrowLeft"":8,""ArrowDown,ArrowRight"":27}","true","ArrowDown,ArrowRight","","","","revaluation","1","26","","",""
"html-keyboard-response","244","1055789","0.0-4.0-4.0-1.13","spark_pilot_2","7480","4","21","Male","","","","","","","null","<div style=""font-size:60px;"">+</div>","null","fixation","","","","","","","","","","","27","","",""
"revaluation","245","1059805","0.0-4.0-4.0-0.14","spark_pilot_2","7480","4","21","Male","","false","","","","","[77.39999997615814]","./assets/img/ocean/animals/octopus.jpg","[""ArrowRight""]","revaluation","ocean","11","{""ArrowUp,ArrowLeft"":2,""ArrowUp,ArrowRight"":11,""ArrowDown,ArrowLeft"":8,""ArrowDown,ArrowRight"":27}","true","ArrowUp,ArrowRight","","","","revaluation","1","28","","",""
"html-keyboard-response","246","1060312","0.0-4.0-4.0-1.14","spark_pilot_2","7480","4","21","Male","","","","","","","null","<div style=""font-size:60px;"">+</div>","null","fixation","","","","","","","","","","","29","","",""
"revaluation","247","1064328","0.0-4.0-4.0-0.15","spark_pilot_2","7480","4","21","Male","","false","","","","","[351.5]","./assets/img/ocean/animals/seahorse.jpg","[""ArrowRight""]","revaluation","ocean","27","{""ArrowUp,ArrowLeft"":2,""ArrowUp,ArrowRight"":11,""ArrowDown,ArrowLeft"":8,""ArrowDown,ArrowRight"":27}","true","ArrowDown,ArrowRight","","","","revaluation","1","30","","",""
"html-keyboard-response","248","1064838","0.0-4.0-4.0-1.15","spark_pilot_2","7480","4","21","Male","","","","","","","null","<div style=""font-size:60px;"">+</div>","null","fixation","","","","","","","","","","","31","","",""
"revaluation","249","1068859","0.0-4.0-4.0-0.16","spark_pilot_2","7480","4","21","Male","","false","","","","","[568.6999999880791]","./assets/img/ocean/animals/octopus.jpg","[""ArrowRight""]","revaluation","ocean","11","{""ArrowUp,ArrowLeft"":2,""ArrowUp,ArrowRight"":11,""ArrowDown,ArrowLeft"":8,""ArrowDown,ArrowRight"":27}","true","ArrowUp,ArrowRight","","","","revaluation","1","32","","",""
"html-keyboard-response","250","1069370","0.0-4.0-4.0-1.16","spark_pilot_2","7480","4","21","Male","","","","","","","null","<div style=""font-size:60px;"">+</div>","null","fixation","","","","","","","","","","","33","","",""
"revaluation","251","1073389","0.0-4.0-4.0-0.17","spark_pilot_2","7480","4","21","Male","","false","","","","","[557.1000000238419]","./assets/img/ocean/animals/seahorse.jpg","[""ArrowRight""]","revaluation","ocean","27","{""ArrowUp,ArrowLeft"":2,""ArrowUp,ArrowRight"":11,""ArrowDown,ArrowLeft"":8,""ArrowDown,ArrowRight"":27}","true","ArrowDown,ArrowRight","","","","revaluation","1","34","","",""
"html-keyboard-response","252","1073898","0.0-4.0-4.0-1.17","spark_pilot_2","7480","4","21","Male","","","","","","","null","<div style=""font-size:60px;"">+</div>","null","fixation","","","","","","","","","","","35","","",""
"learning-instructions","253","1087274","0.0-4.0-5.0-0.0","spark_pilot_2","7480","4","21","Male","","","","","","","1442.9000000357628","<p> Time to play the dot game! </p>
            <p> For one minute, click the red dots on the following screen as they appear. </p>
            <p><b> Don't look away, as you will earn bonus for clicking dots</b>. </p>","","instructions","","","","","","","","","","","","","",""
"revaluation","254","1147279","0.0-4.0-6.0-0.0","spark_pilot_2","7480","4","21","Male","","","","","","","[101,109,84,187,88,101]","","","rest","","60","","","","","0","60000","","","","","",""
"learning-instructions","255","1156412","0.0-4.0-7.0-0.0","spark_pilot_2","7480","4","21","Male","","","","","","","1956.199999988079","<p> You have almost finished this part of the game! </p>
            <p> We are going to ask you to make a few more choices. </p>","","instructions","","","","","","","","","","","","","",""
"learning-instructions","256","1172057","0.0-4.0-7.0-0.1","spark_pilot_2","7480","4","21","Male","","","","","","","1682.1000000238419","<p> First, you need to decide whether to go up or down. When you see each picture, use the arrow keys to make your choice. </p>
            <p><b>You will not see which animal you found, but try to get to the one that will give you the most treasure.</b></p>","","instructions","","","","","","","","","","","","","",""
"revaluation","257","1172833","0.0-4.0-8.0-0.0","spark_pilot_2","7480","4","21","Male","","false","","","","","[770.8000000119209]","./assets/img/ocean/test/0.jpg","[""ArrowUp""]","first stage test","ocean","0","{""ArrowUp,ArrowLeft"":2,""ArrowUp,ArrowRight"":11,""ArrowDown,ArrowLeft"":8,""ArrowDown,ArrowRight"":27}","false","ArrowUp","false","","","revaluation","1","","","",""
"html-keyboard-response","258","1173338","0.0-4.0-8.0-1.0","spark_pilot_2","7480","4","21","Male","","","","","","","null","<div style=""font-size:60px;"">+</div>","null","fixation","","","","","","","","","","","","","",""
"revaluation","259","1173758","0.0-4.0-8.0-0.1","spark_pilot_2","7480","4","21","Male","","false","","","","","[413.2000000476837]","./assets/img/ocean/test/1.jpg","[""ArrowUp""]","first stage test","ocean","0","{""ArrowUp,ArrowLeft"":2,""ArrowUp,ArrowRight"":11,""ArrowDown,ArrowLeft"":8,""ArrowDown,ArrowRight"":27}","false","ArrowUp","false","","","revaluation","1","","","",""
"html-keyboard-response","260","1174271","0.0-4.0-8.0-1.1","spark_pilot_2","7480","4","21","Male","","","","","","","null","<div style=""font-size:60px;"">+</div>","null","fixation","","","","","","","","","","","","","",""
"revaluation","261","1174690","0.0-4.0-8.0-0.2","spark_pilot_2","7480","4","21","Male","","false","","","","","[413.19999998807907]","./assets/img/ocean/test/2.jpg","[""ArrowUp""]","first stage test","ocean","0","{""ArrowUp,ArrowLeft"":2,""ArrowUp,ArrowRight"":11,""ArrowDown,ArrowLeft"":8,""ArrowDown,ArrowRight"":27}","false","ArrowUp","false","","","revaluation","1","","","",""
"html-keyboard-response","262","1175202","0.0-4.0-8.0-1.2","spark_pilot_2","7480","4","21","Male","","","","","","","null","<div style=""font-size:60px;"">+</div>","null","fixation","","","","","","","","","","","","","",""
"revaluation","263","1175547","0.0-4.0-8.0-0.3","spark_pilot_2","7480","4","21","Male","","false","","","","","[339.89999997615814]","./assets/img/ocean/test/3.jpg","[""ArrowUp""]","first stage test","ocean","0","{""ArrowUp,ArrowLeft"":2,""ArrowUp,ArrowRight"":11,""ArrowDown,ArrowLeft"":8,""ArrowDown,ArrowRight"":27}","false","ArrowUp","false","","","revaluation","1","","","",""
"html-keyboard-response","264","1176054","0.0-4.0-8.0-1.3","spark_pilot_2","7480","4","21","Male","","","","","","","null","<div style=""font-size:60px;"">+</div>","null","fixation","","","","","","","","","","","","","",""
"learning-instructions","265","1189066","0.0-4.0-9.0-0.0","spark_pilot_2","7480","4","21","Male","","","","","","","1681.199999988079","<p> Now you will see the animals again and can search their chests for treasure. </p>
            <p> This time, you will not see how much treasure you earned, but you will earn more bonus money for making better choices. </p>","","instructions","","","","","","","","","","","","","",""
"revaluation","266","1190287","0.0-4.0-10.0-0.0","spark_pilot_2","7480","4","21","Male","","false","","","","","[1216.199999988079]","./assets/img/ocean/animals/octopus.jpg","[""ArrowLeft""]","second stage test","ocean","0","{""ArrowUp,ArrowLeft"":2,""ArrowUp,ArrowRight"":11,""ArrowDown,ArrowLeft"":8,""ArrowDown,ArrowRight"":27}","false","ArrowUp,ArrowLeft","","","","revaluation","1","","","",""
"html-keyboard-response","267","1190799","0.0-4.0-10.0-1.0","spark_pilot_2","7480","4","21","Male","","","","","","","null","<div style=""font-size:60px;"">+</div>","null","fixation","","","","","","","","","","","","","",""
"revaluation","268","1191357","0.0-4.0-10.0-0.1","spark_pilot_2","7480","4","21","Male","","false","","","","","[552.1000000238419]","./assets/img/ocean/animals/octopus.jpg","[""ArrowLeft""]","second stage test","ocean","0","{""ArrowUp,ArrowLeft"":2,""ArrowUp,ArrowRight"":11,""ArrowDown,ArrowLeft"":8,""ArrowDown,ArrowRight"":27}","false","ArrowUp,ArrowLeft","","","","revaluation","1","","","",""
"html-keyboard-response","269","1191865","0.0-4.0-10.0-1.1","spark_pilot_2","7480","4","21","Male","","","","","","","null","<div style=""font-size:60px;"">+</div>","null","fixation","","","","","","","","","","","","","",""
"revaluation","270","1192405","0.0-4.0-10.0-0.2","spark_pilot_2","7480","4","21","Male","","false","","","","","[535.1000000238419]","./assets/img/ocean/animals/octopus.jpg","[""ArrowLeft""]","second stage test","ocean","0","{""ArrowUp,ArrowLeft"":2,""ArrowUp,ArrowRight"":11,""ArrowDown,ArrowLeft"":8,""ArrowDown,ArrowRight"":27}","false","ArrowUp,ArrowLeft","","","","revaluation","1","","","",""
"html-keyboard-response","271","1192914","0.0-4.0-10.0-1.2","spark_pilot_2","7480","4","21","Male","","","","","","","null","<div style=""font-size:60px;"">+</div>","null","fixation","","","","","","","","","","","","","",""
"revaluation","272","1193443","0.0-4.0-10.0-0.3","spark_pilot_2","7480","4","21","Male","","false","","","","","[523.3000000119209]","./assets/img/ocean/animals/octopus.jpg","[""ArrowLeft""]","second stage test","ocean","0","{""ArrowUp,ArrowLeft"":2,""ArrowUp,ArrowRight"":11,""ArrowDown,ArrowLeft"":8,""ArrowDown,ArrowRight"":27}","false","ArrowUp,ArrowLeft","","","","revaluation","1","","","",""
"html-keyboard-response","273","1193947","0.0-4.0-10.0-1.3","spark_pilot_2","7480","4","21","Male","","","","","","","null","<div style=""font-size:60px;"">+</div>","null","fixation","","","","","","","","","","","","","",""
"revaluation","274","1194620","0.0-4.0-10.0-0.4","spark_pilot_2","7480","4","21","Male","","false","","","","","[668.1999999880791]","./assets/img/ocean/animals/seahorse.jpg","[""ArrowRight""]","second stage test","ocean","0","{""ArrowUp,ArrowLeft"":2,""ArrowUp,ArrowRight"":11,""ArrowDown,ArrowLeft"":8,""ArrowDown,ArrowRight"":27}","true","ArrowDown,ArrowRight","","","","revaluation","1","","","",""
"html-keyboard-response","275","1195132","0.0-4.0-10.0-1.4","spark_pilot_2","7480","4","21","Male","","","","","","","null","<div style=""font-size:60px;"">+</div>","null","fixation","","","","","","","","","","","","","",""
"revaluation","276","1195466","0.0-4.0-10.0-0.5","spark_pilot_2","7480","4","21","Male","","false","","","","","[329.80000001192093]","./assets/img/ocean/animals/seahorse.jpg","[""ArrowRight""]","second stage test","ocean","0","{""ArrowUp,ArrowLeft"":2,""ArrowUp,ArrowRight"":11,""ArrowDown,ArrowLeft"":8,""ArrowDown,ArrowRight"":27}","true","ArrowDown,ArrowRight","","","","revaluation","1","","","",""
"html-keyboard-response","277","1195981","0.0-4.0-10.0-1.5","spark_pilot_2","7480","4","21","Male","","","","","","","null","<div style=""font-size:60px;"">+</div>","null","fixation","","","","","","","","","","","","","",""
"revaluation","278","1196328","0.0-4.0-10.0-0.6","spark_pilot_2","7480","4","21","Male","","false","","","","","[341.4000000357628]","./assets/img/ocean/animals/seahorse.jpg","[""ArrowRight""]","second stage test","ocean","0","{""ArrowUp,ArrowLeft"":2,""ArrowUp,ArrowRight"":11,""ArrowDown,ArrowLeft"":8,""ArrowDown,ArrowRight"":27}","true","ArrowDown,ArrowRight","","","","revaluation","1","","","",""
"html-keyboard-response","279","1196831","0.0-4.0-10.0-1.6","spark_pilot_2","7480","4","21","Male","","","","","","","null","<div style=""font-size:60px;"">+</div>","null","fixation","","","","","","","","","","","","","",""
"revaluation","280","1197156","0.0-4.0-10.0-0.7","spark_pilot_2","7480","4","21","Male","","false","","","","","[321]","./assets/img/ocean/animals/seahorse.jpg","[""ArrowRight""]","second stage test","ocean","0","{""ArrowUp,ArrowLeft"":2,""ArrowUp,ArrowRight"":11,""ArrowDown,ArrowLeft"":8,""ArrowDown,ArrowRight"":27}","true","ArrowDown,ArrowRight","","","","revaluation","1","","","",""
"html-keyboard-response","281","1197663","0.0-4.0-10.0-1.7","spark_pilot_2","7480","4","21","Male","","","","","","","null","<div style=""font-size:60px;"">+</div>","null","fixation","","","","","","","","","","","","","",""
"learning-instructions","282","1201783","0.0-4.0-0.1-0.2","spark_pilot_2","7480","4","21","Male","","","","","","","1286.199999988079","<p> This time you are searching for treasure in the <b>canyon</b>.</p>","","instructions","","","","","","","","","","","","","",""
"learning-instructions","283","1220535","0.0-4.0-0.1-0.3","spark_pilot_2","7480","4","21","Male","","","","","","","1490.2000000476837","<p><b>New</b> animals with <b>new</b> treasure chests live here. You need to explore to discover where the animal with the best treasure chest is.</p>
                    <p> Like before, once you figure out which animal has the chest with the most treasure, you should try to get to that animal and select that chest! </p>","","instructions","","","","","","","","","","","","","",""
"learning-instructions","284","1237015","0.0-4.0-1.1-0.1","spark_pilot_2","7480","4","21","Male","","","","","","","1748.5","<p> Remember, when you see a picture of the place, use the up and down keys to <b>find an animal</b>.</p>
            <p> When you encounter an animal, you should use the left and right keys to <b>select a treasure chest</b>.</p>
            <p> Don't forget to look out for the robber! </p>","","instructions","","","","","","","","","","","","","",""
"revaluation","285","1243049","0.0-4.0-2.1-0.50","spark_pilot_2","7480","4","21","Male","","false","","","","","[1859.800000011921,752.3000000119209]","./assets/img/canyon/memory/29.jpg","[""ArrowUp"",""ArrowLeft""]","value training","canyon","23","{""ArrowUp,ArrowLeft"":23,""ArrowUp,ArrowRight"":10,""ArrowDown,ArrowLeft"":8,""ArrowDown,ArrowRight"":30}","false","ArrowUp,ArrowLeft","false","","","original","2","0","","",""
"html-keyboard-response","286","1243564","0.0-4.0-2.1-1.50","spark_pilot_2","7480","4","21","Male","","","","","","","null","<div style=""font-size:60px;"">+</div>","null","fixation","","","","","","","","","","","1","","",""
"revaluation","287","1249613","0.0-4.0-2.1-0.51","spark_pilot_2","7480","4","21","Male","","false","","","","","[508.39999997615814,381.9000000357628]","./assets/img/canyon/memory/11.jpg","[""ArrowUp"",""ArrowRight""]","value training","canyon","10","{""ArrowUp,ArrowLeft"":23,""ArrowUp,ArrowRight"":10,""ArrowDown,ArrowLeft"":8,""ArrowDown,ArrowRight"":30}","false","ArrowUp,ArrowRight","false","","","original","2","2","","",""
"html-keyboard-response","288","1250130","0.0-4.0-2.1-1.51","spark_pilot_2","7480","4","21","Male","","","","","","","null","<div style=""font-size:60px;"">+</div>","null","fixation","","","","","","","","","","","3","","",""
"revaluation","289","1256162","0.0-4.0-2.1-0.52","spark_pilot_2","7480","4","21","Male","","false","","","","","[487.5,559.2000000476837]","./assets/img/canyon/memory/20.jpg","[""ArrowDown"",""ArrowLeft""]","value training","canyon","8","{""ArrowUp,ArrowLeft"":23,""ArrowUp,ArrowRight"":10,""ArrowDown,ArrowLeft"":8,""ArrowDown,ArrowRight"":30}","false","ArrowDown,ArrowLeft","false","","","original","2","4","","",""
"html-keyboard-response","290","1256677","0.0-4.0-2.1-1.52","spark_pilot_2","7480","4","21","Male","","","","","","","null","<div style=""font-size:60px;"">+</div>","null","fixation","","","","","","","","","","","5","","",""
"revaluation","291","1262709","0.0-4.0-2.1-0.53","spark_pilot_2","7480","4","21","Male","","false","","","","","[751.3999999761581,530.1000000238419]","./assets/img/canyon/memory/21.jpg","[""ArrowDown"",""ArrowRight""]","value training","canyon","30","{""ArrowUp,ArrowLeft"":23,""ArrowUp,ArrowRight"":10,""ArrowDown,ArrowLeft"":8,""ArrowDown,ArrowRight"":30}","true","ArrowDown,ArrowRight","false","","","original","2","6","","",""
"html-keyboard-response","292","1263224","0.0-4.0-2.1-1.53","spark_pilot_2","7480","4","21","Male","","","","","","","null","<div style=""font-size:60px;"">+</div>","null","fixation","","","","","","","","","","","7","","",""
"revaluation","293","1269260","0.0-4.0-2.1-0.54","spark_pilot_2","7480","4","21","Male","","false","","","","","[1052.4000000357628,415]","./assets/img/canyon/memory/36.jpg","[""ArrowDown"",""ArrowRight""]","value training","canyon","30","{""ArrowUp,ArrowLeft"":23,""ArrowUp,ArrowRight"":10,""ArrowDown,ArrowLeft"":8,""ArrowDown,ArrowRight"":30}","true","ArrowDown,ArrowRight","false","","","original","2","8","","",""
"html-keyboard-response","294","1269769","0.0-4.0-2.1-1.54","spark_pilot_2","7480","4","21","Male","","","","","","","null","<div style=""font-size:60px;"">+</div>","null","fixation","","","","","","","","","","","9","","",""
"revaluation","295","1275783","0.0-4.0-2.1-0.55","spark_pilot_2","7480","4","21","Male","","false","","","","","[1000.1999999880791,434.0999999642372]","./assets/img/canyon/memory/26.jpg","[""ArrowDown"",""ArrowRight""]","value training","canyon","30","{""ArrowUp,ArrowLeft"":23,""ArrowUp,ArrowRight"":10,""ArrowDown,ArrowLeft"":8,""ArrowDown,ArrowRight"":30}","true","ArrowDown,ArrowRight","false","","","original","2","10","","",""
"html-keyboard-response","296","1276289","0.0-4.0-2.1-1.55","spark_pilot_2","7480","4","21","Male","","","","","","","null","<div style=""font-size:60px;"">+</div>","null","fixation","","","","","","","","","","","11","","",""
"revaluation","297","1282308","0.0-4.0-2.1-0.56","spark_pilot_2","7480","4","21","Male","","false","","","","","[636.5,417.19999998807907]","./assets/img/canyon/memory/35.jpg","[""ArrowDown"",""ArrowRight""]","value training","canyon","30","{""ArrowUp,ArrowLeft"":23,""ArrowUp,ArrowRight"":10,""ArrowDown,ArrowLeft"":8,""ArrowDown,ArrowRight"":30}","true","ArrowDown,ArrowRight","false","","","original","2","12","","",""
"html-keyboard-response","298","1282820","0.0-4.0-2.1-1.56","spark_pilot_2","7480","4","21","Male","","","","","","","null","<div style=""font-size:60px;"">+</div>","null","fixation","","","","","","","","","","","13","","",""
"revaluation","299","1286831","0.0-4.0-2.1-0.57","spark_pilot_2","7480","4","21","Male","","false","","","","","[893]","./assets/img/canyon/catch/0.jpg","[""spaceBar""]","value training","canyon","0","{""ArrowUp,ArrowLeft"":23,""ArrowUp,ArrowRight"":10,""ArrowDown,ArrowLeft"":8,""ArrowDown,ArrowRight"":30}","true","spaceBar","true","","","original","2","14","","",""
"html-keyboard-response","300","1287343","0.0-4.0-2.1-1.57","spark_pilot_2","7480","4","21","Male","","","","","","","null","<div style=""font-size:60px;"">+</div>","null","fixation","","","","","","","","","","","15","","",""
"revaluation","301","1293366","0.0-4.0-2.1-0.58","spark_pilot_2","7480","4","21","Male","","false","","","","","[777.4000000357628,326.5999999642372]","./assets/img/canyon/memory/11.jpg","[""ArrowDown"",""ArrowRight""]","value training","canyon","30","{""ArrowUp,ArrowLeft"":23,""ArrowUp,ArrowRight"":10,""ArrowDown,ArrowLeft"":8,""ArrowDown,ArrowRight"":30}","true","ArrowDown,ArrowRight","false","","","original","2","16","","",""
"html-keyboard-response","302","1293875","0.0-4.0-2.1-1.58","spark_pilot_2","7480","4","21","Male","","","","","","","null","<div style=""font-size:60px;"">+</div>","null","fixation","","","","","","","","","","","17","","",""
"revaluation","303","1299897","0.0-4.0-2.1-0.59","spark_pilot_2","7480","4","21","Male","","false","","","","","[764.1000000238419,342.2999999523163]","./assets/img/canyon/memory/39.jpg","[""ArrowDown"",""ArrowRight""]","value training","canyon","30","{""ArrowUp,ArrowLeft"":23,""ArrowUp,ArrowRight"":10,""ArrowDown,ArrowLeft"":8,""ArrowDown,ArrowRight"":30}","true","ArrowDown,ArrowRight","false","","","original","2","18","","",""
"html-keyboard-response","304","1300406","0.0-4.0-2.1-1.59","spark_pilot_2","7480","4","21","Male","","","","","","","null","<div style=""font-size:60px;"">+</div>","null","fixation","","","","","","","","","","","19","","",""
"revaluation","305","1306428","0.0-4.0-2.1-0.60","spark_pilot_2","7480","4","21","Male","","false","","","","","[827.5,341.39999997615814]","./assets/img/canyon/memory/19.jpg","[""ArrowDown"",""ArrowRight""]","value training","canyon","30","{""ArrowUp,ArrowLeft"":23,""ArrowUp,ArrowRight"":10,""ArrowDown,ArrowLeft"":8,""ArrowDown,ArrowRight"":30}","true","ArrowDown,ArrowRight","false","","","original","2","20","","",""
"html-keyboard-response","306","1306939","0.0-4.0-2.1-1.60","spark_pilot_2","7480","4","21","Male","","","","","","","null","<div style=""font-size:60px;"">+</div>","null","fixation","","","","","","","","","","","21","","",""
"revaluation","307","1312970","0.0-4.0-2.1-0.61","spark_pilot_2","7480","4","21","Male","","false","","","","","[838,266]","./assets/img/canyon/memory/27.jpg","[""ArrowDown"",""ArrowRight""]","value training","canyon","30","{""ArrowUp,ArrowLeft"":23,""ArrowUp,ArrowRight"":10,""ArrowDown,ArrowLeft"":8,""ArrowDown,ArrowRight"":30}","true","ArrowDown,ArrowRight","false","","","original","2","22","","",""
"html-keyboard-response","308","1313485","0.0-4.0-2.1-1.61","spark_pilot_2","7480","4","21","Male","","","","","","","null","<div style=""font-size:60px;"">+</div>","null","fixation","","","","","","","","","","","23","","",""
