"trial_type","trial_index","time_elapsed","internal_node_id","task_version","subject_id","assigned_condition","age","gender","success","timeout","failed_images","failed_audio","failed_video","browser_interaction","rt","stimulus","response","task_part","environment","score","rewardMap","correct","fullState","isCatch","numberMissed","duration","condition","order","trial_num","key_press","ground_truth","bonus"
"pavlovia","0","1148","0.0-0.0","spark_pilot_2","7514","8","23","Male","","","","","","","","","","","","","","","","","","","","","","","",""
"preload","1","22349","0.0-1.0","spark_pilot_2","7514","8","23","Male","true","false","[]","[]","[]","[{""event"":""fullscreenenter"",""trial"":2,""time"":25790}]","","","","","","","","","","","","","","","","","",""
"fullscreen","2","26785","0.0-2.0","spark_pilot_2","7514","8","23","Male","true","","","","","","","","","","","","","","","","","","","","","","",""
"audio-button-response","3","35165","0.0-3.0-0.0-0.0","spark_pilot_2","7514","8","23","Male","","","","","","","8336","./assets/audio/audiotest/turtle.mp3","2","audio_test","","","","","","","","","","","","","",""
"learning-instructions","4","43637","0.0-3.0-1.0-0.0","spark_pilot_2","7514","8","23","Male","","","","","","","1490.2999999523163","<p> Welcome! Please remember to stay in fullscreen mode and don't click away from the experiment. </p>","","instructions","","","","","","","","","","","","","",""
"learning-instructions","5","52801","0.0-3.0-1.0-0.1","spark_pilot_2","7514","8","23","Male","","","","","","","756","<p> Today you will be playing a game to earn treasure. </p>
            <p> At the end of the experiment, you will earn a bonus based on how much treasure you find. </p>
            <img src='./assets/img/instructions/treasure.jpg' class='instructions-image'>","","instructions","","","","","","","","","","","","","",""
"learning-instructions","6","61719","0.0-3.0-1.0-0.2","spark_pilot_2","7514","8","23","Male","","","","","","","662.5","<p> Animals have hidden treasure in treasure chests. </p>
            <p> You need to first find an animal and then choose which of their treasure chests to search. </p>
            <img src='./assets/img/space/animals/cat.jpg' class='instructions-image'>","","instructions","","","","","","","","","","","","","",""
"learning-instructions","7","75649","0.0-3.0-1.0-0.3","spark_pilot_2","7514","8","23","Male","","","","","","","788.5","<p> In each round, you will search for treasure in a different place. In the real game, there will be two rounds. </p>
            <p> You will begin with a separate, practice round where you will search for treasure in outer space. </p>
            <img src='./assets/img/space/0.jpg' class='instructions-image'>","","instructions","","","","","","","","","","","","","",""
"learning-instructions","8","87654","0.0-3.0-1.0-0.4","spark_pilot_2","7514","8","23","Male","","","","","","","596","<p> On every turn, you will see a picture of the place that you are in, but the specific image may be different each time. </p>
            <p> For example, both of these images mean you are in outer space. </p>
            <img src='./assets/img/instructions/outerspace.jpg' class='instructions-image'>","","instructions","","","","","","","","","","","","","",""
"learning-instructions","9","96002","0.0-3.0-1.0-0.5","spark_pilot_2","7514","8","23","Male","","","","","","","522.0999999046326","<p> You need to decide which direction to travel in. </p>
            <p> You can choose between going <b>up or down</b> by using the arrow keys. </p>
            <img src='./assets/img/instructions/updown.jpg' class='instructions-image'>","","instructions","","","","","","","","","","","","","",""
"learning-instructions","10","105282","0.0-3.0-1.0-0.6","spark_pilot_2","7514","8","23","Male","","","","","","","469.5","<p> You will have <b>2 seconds</b> to make your choice. </p>
            <p> If you do not make a choice within 2 seconds, you will not find an animal or earn treasure. </p>
            <img src='./assets/img/instructions/2seconds.jpg' class='instructions-image'>","","instructions","","","","","","","","","","","","","",""
"learning-instructions","11","113005","0.0-3.0-1.0-0.7","spark_pilot_2","7514","8","23","Male","","","","","","","693.5999999046326","<p> Let’s try practicing that now! </p>
            <p> When you see a picture of the place you are in, press the <b>up</b> key to travel up. </p>
            <img src='./assets/img/instructions/pressUp.jpg' class='instructions-image'>","","instructions","","","","","","","","","","","","","",""
"revaluation","12","117028","0.0-3.0-2.0-0.0","spark_pilot_2","7514","8","23","Male","","false","","","","","[1167.3999998569489]","./assets/img/space/0.jpg","[""ArrowUp""]","first stage practice","space","0","null","null","ArrowUp","false","","","","","","","",""
"html-keyboard-response","13","117536","0.0-3.0-2.0-1.0","spark_pilot_2","7514","8","23","Male","","","","","","","null","<div style=""font-size:60px;"">+</div>","null","fixation","","","","","","","","","","","","","",""
"revaluation","14","121552","0.0-3.0-2.0-0.1","spark_pilot_2","7514","8","23","Male","","false","","","","","[1131.0999999046326]","./assets/img/space/1.jpg","[""ArrowUp""]","first stage practice","space","0","null","null","ArrowUp","false","","","","","","","",""
"html-keyboard-response","15","122061","0.0-3.0-2.0-1.1","spark_pilot_2","7514","8","23","Male","","","","","","","null","<div style=""font-size:60px;"">+</div>","null","fixation","","","","","","","","","","","","","",""
"revaluation","16","126082","0.0-3.0-2.0-0.2","spark_pilot_2","7514","8","23","Male","","false","","","","","[781.8999998569489]","./assets/img/space/2.jpg","[""ArrowUp""]","first stage practice","space","0","null","null","ArrowUp","false","","","","","","","",""
"html-keyboard-response","17","126590","0.0-3.0-2.0-1.2","spark_pilot_2","7514","8","23","Male","","","","","","","null","<div style=""font-size:60px;"">+</div>","null","fixation","","","","","","","","","","","","","",""
"learning-instructions","18","132088","0.0-3.0-3.0-0.0","spark_pilot_2","7514","8","23","Male","","","","","","","796.3000001907349","<p> Great job! Now try pressing the <b>down</b> key to travel down. </p>
            <img src='./assets/img/instructions/pressDown.jpg' class='instructions-image'>","","instructions","","","","","","","","","","","","","",""
"revaluation","19","136103","0.0-3.0-4.0-0.0","spark_pilot_2","7514","8","23","Male","","false","","","","","[1096.2999999523163]","./assets/img/space/3.jpg","[""ArrowDown""]","first stage practice","space","0","null","null","ArrowDown","false","","","","","","","",""
"html-keyboard-response","20","136616","0.0-3.0-4.0-1.0","spark_pilot_2","7514","8","23","Male","","","","","","","null","<div style=""font-size:60px;"">+</div>","null","fixation","","","","","","","","","","","","","",""
"revaluation","21","140632","0.0-3.0-4.0-0.1","spark_pilot_2","7514","8","23","Male","","false","","","","","[483.80000019073486]","./assets/img/space/4.jpg","[""ArrowDown""]","first stage practice","space","0","null","null","ArrowDown","false","","","","","","","",""
"html-keyboard-response","22","141145","0.0-3.0-4.0-1.1","spark_pilot_2","7514","8","23","Male","","","","","","","null","<div style=""font-size:60px;"">+</div>","null","fixation","","","","","","","","","","","","","",""
"revaluation","23","145166","0.0-3.0-4.0-0.2","spark_pilot_2","7514","8","23","Male","","false","","","","","[1072.8000001907349]","./assets/img/space/5.jpg","[""ArrowDown""]","first stage practice","space","0","null","null","ArrowDown","false","","","","","","","",""
"html-keyboard-response","24","145669","0.0-3.0-4.0-1.2","spark_pilot_2","7514","8","23","Male","","","","","","","null","<div style=""font-size:60px;"">+</div>","null","fixation","","","","","","","","","","","","","",""
"learning-instructions","25","156087","0.0-3.0-5.0-0.0","spark_pilot_2","7514","8","23","Male","","","","","","","565.5","<p> The animals don’t move, so the animal in the upper part of a place will stay in the upper part of a place, and the animal in the lower part of a place will stay in the lower part of a place. </p>","","instructions","","","","","","","","","","","","","",""
"learning-instructions","26","166029","0.0-3.0-5.0-0.1","spark_pilot_2","7514","8","23","Male","","","","","","","816.5","<p> Each animal has two treasure chests for you to choose from. </p>
            <p> The amount of treasure in each chest can range from <b> 0 to 40 pieces.</b></p>","","instructions","","","","","","","","","","","","","",""
"learning-instructions","27","177712","0.0-3.0-5.0-0.2","spark_pilot_2","7514","8","23","Male","","","","","","","504.10000014305115","<p> You should decide which chest to search for treasure by using the <b>left</b> and <b>right</b> arrow keys. </p>
            <p><b> Pay attention to which animal is on the screen, as the animals have different treasure chests. </b></p>
            <img src='./assets/img/instructions/leftright.jpg' class='instructions-image'>","","instructions","","","","","","","","","","","","","",""
"learning-instructions","28","184458","0.0-3.0-5.0-0.3","spark_pilot_2","7514","8","23","Male","","","","","","","386.2999999523163","<p> Let’s try practicing that now. </p>
            <p> When you see an animal, choose which chest to search for treasure. </p>
            <img src='./assets/img/instructions/chooseChest.jpg' class='instructions-image'>","","instructions","","","","","","","","","","","","","",""
"revaluation","29","188482","0.0-3.0-6.0-0.0","spark_pilot_2","7514","8","23","Male","","false","","","","","[1092.1000001430511]","./assets/img/space/animals/cat.jpg","[""ArrowLeft""]","second stage practice","space","3","{""ArrowUp,ArrowLeft"":3,""ArrowUp,ArrowRight"":36,""ArrowDown,ArrowLeft"":15,""ArrowDown,ArrowRight"":23}","false","ArrowUp,ArrowLeft","","","","","","","","",""
"html-keyboard-response","30","188992","0.0-3.0-6.0-1.0","spark_pilot_2","7514","8","23","Male","","","","","","","null","<div style=""font-size:60px;"">+</div>","null","fixation","","","","","","","","","","","","","",""
"revaluation","31","193017","0.0-3.0-6.0-0.1","spark_pilot_2","7514","8","23","Male","","false","","","","","[870.7999999523163]","./assets/img/space/animals/rabbit.jpg","[""ArrowRight""]","second stage practice","space","23","{""ArrowUp,ArrowLeft"":3,""ArrowUp,ArrowRight"":36,""ArrowDown,ArrowLeft"":15,""ArrowDown,ArrowRight"":23}","true","ArrowDown,ArrowRight","","","","","","","","",""
"html-keyboard-response","32","193530","0.0-3.0-6.0-1.1","spark_pilot_2","7514","8","23","Male","","","","","","","null","<div style=""font-size:60px;"">+</div>","null","fixation","","","","","","","","","","","","","",""
"revaluation","33","197552","0.0-3.0-6.0-0.2","spark_pilot_2","7514","8","23","Male","","false","","","","","[518.7000000476837]","./assets/img/space/animals/rabbit.jpg","[""ArrowRight""]","second stage practice","space","23","{""ArrowUp,ArrowLeft"":3,""ArrowUp,ArrowRight"":36,""ArrowDown,ArrowLeft"":15,""ArrowDown,ArrowRight"":23}","true","ArrowDown,ArrowRight","","","","","","","","",""
"html-keyboard-response","34","198061","0.0-3.0-6.0-1.2","spark_pilot_2","7514","8","23","Male","","","","","","","null","<div style=""font-size:60px;"">+</div>","null","fixation","","","","","","","","","","","","","",""
"revaluation","35","202078","0.0-3.0-6.0-0.3","spark_pilot_2","7514","8","23","Male","","false","","","","","[871.0999999046326]","./assets/img/space/animals/cat.jpg","[""ArrowRight""]","second stage practice","space","36","{""ArrowUp,ArrowLeft"":3,""ArrowUp,ArrowRight"":36,""ArrowDown,ArrowLeft"":15,""ArrowDown,ArrowRight"":23}","true","ArrowUp,ArrowRight","","","","","","","","",""
"html-keyboard-response","36","202585","0.0-3.0-6.0-1.3","spark_pilot_2","7514","8","23","Male","","","","","","","null","<div style=""font-size:60px;"">+</div>","null","fixation","","","","","","","","","","","","","",""
"learning-instructions","37","220150","0.0-3.0-7.0-0.0","spark_pilot_2","7514","8","23","Male","","","","","","","756","<p> Great job. Now let’s try putting it together. </p>
            <p> On each turn, you will first see a picture to remind you of the place you are in, and you need to choose whether to go up or down. </p>
            <p> Then you will see an animal and choose which of its chests to search for treasure. </p>","","instructions","","","","","","","","","","","","","",""
"learning-instructions","38","229126","0.0-3.0-7.0-0.1","spark_pilot_2","7514","8","23","Male","","","","","","","719.4000000953674","<p> When you choose whether to go up or down, try to go to the animal with the chest with the most treasure. </p>
            <p> Try practicing that now! </p>","","instructions","","","","","","","","","","","","","",""
"revaluation","39","235151","0.0-3.0-8.0-0.0","spark_pilot_2","7514","8","23","Male","","false","","","","","[806.1000001430511,815.7999999523163]","./assets/img/space/6.jpg","[""ArrowUp"",""ArrowRight""]","full practice","space","36","{""ArrowUp,ArrowLeft"":3,""ArrowUp,ArrowRight"":36,""ArrowDown,ArrowLeft"":15,""ArrowDown,ArrowRight"":23}","true","ArrowUp,ArrowRight","false","","","","","","","",""
"html-keyboard-response","40","235664","0.0-3.0-8.0-1.0","spark_pilot_2","7514","8","23","Male","","","","","","","null","<div style=""font-size:60px;"">+</div>","null","fixation","","","","","","","","","","","","","",""
"revaluation","41","241687","0.0-3.0-8.0-0.1","spark_pilot_2","7514","8","23","Male","","false","","","","","[724.3999998569489,771.7000000476837]","./assets/img/space/7.jpg","[""ArrowDown"",""ArrowRight""]","full practice","space","23","{""ArrowUp,ArrowLeft"":3,""ArrowUp,ArrowRight"":36,""ArrowDown,ArrowLeft"":15,""ArrowDown,ArrowRight"":23}","false","ArrowDown,ArrowRight","false","","","","","","","",""
"html-keyboard-response","42","242198","0.0-3.0-8.0-1.1","spark_pilot_2","7514","8","23","Male","","","","","","","null","<div style=""font-size:60px;"">+</div>","null","fixation","","","","","","","","","","","","","",""
"revaluation","43","248224","0.0-3.0-8.0-0.2","spark_pilot_2","7514","8","23","Male","","false","","","","","[529.7000000476837,623.2000000476837]","./assets/img/space/8.jpg","[""ArrowUp"",""ArrowRight""]","full practice","space","36","{""ArrowUp,ArrowLeft"":3,""ArrowUp,ArrowRight"":36,""ArrowDown,ArrowLeft"":15,""ArrowDown,ArrowRight"":23}","true","ArrowUp,ArrowRight","false","","","","","","","",""
"html-keyboard-response","44","248734","0.0-3.0-8.0-1.2","spark_pilot_2","7514","8","23","Male","","","","","","","null","<div style=""font-size:60px;"">+</div>","null","fixation","","","","","","","","","","","","","",""
"revaluation","45","254759","0.0-3.0-8.0-0.3","spark_pilot_2","7514","8","23","Male","","false","","","","","[793,467.7000000476837]","./assets/img/space/9.jpg","[""ArrowUp"",""ArrowRight""]","full practice","space","36","{""ArrowUp,ArrowLeft"":3,""ArrowUp,ArrowRight"":36,""ArrowDown,ArrowLeft"":15,""ArrowDown,ArrowRight"":23}","true","ArrowUp,ArrowRight","false","","","","","","","",""
"html-keyboard-response","46","255270","0.0-3.0-8.0-1.3","spark_pilot_2","7514","8","23","Male","","","","","","","null","<div style=""font-size:60px;"">+</div>","null","fixation","","","","","","","","","","","","","",""
"revaluation","47","261299","0.0-3.0-8.0-0.4","spark_pilot_2","7514","8","23","Male","","false","","","","","[689.5,1063.0999999046326]","./assets/img/space/10.jpg","[""ArrowUp"",""ArrowRight""]","full practice","space","36","{""ArrowUp,ArrowLeft"":3,""ArrowUp,ArrowRight"":36,""ArrowDown,ArrowLeft"":15,""ArrowDown,ArrowRight"":23}","true","ArrowUp,ArrowRight","false","","","","","","","",""
"html-keyboard-response","48","261807","0.0-3.0-8.0-1.4","spark_pilot_2","7514","8","23","Male","","","","","","","null","<div style=""font-size:60px;"">+</div>","null","fixation","","","","","","","","","","","","","",""
"learning-instructions","49","272660","0.0-3.0-9.0-0.0","spark_pilot_2","7514","8","23","Male","","","","","","","510.40000009536743","<p> One last thing: sometimes, you will see a robber. The robber can be anywhere in the picture. </p>
            <p> If you do not stop them, you will lose treasure. </p>
            <img src='./assets/img/instructions/robber.jpg' class='instructions-image'>","","instructions","","","","","","","","","","","","","",""
"learning-instructions","50","280558","0.0-3.0-9.0-0.1","spark_pilot_2","7514","8","23","Male","","","","","","","739.2999999523163","<p> If you see the robber, you should <b>press the space bar</b> rather than using the arrow keys. </p>
            <p> Try practicing that now! </p>","","instructions","","","","","","","","","","","","","",""
"revaluation","51","284578","0.0-3.0-10.0-0.0","spark_pilot_2","7514","8","23","Male","","false","","","","","[978.3999998569489]","./assets/img/space/catch/0.jpg","[""spaceBar""]","catch practice","space","0","{""ArrowUp,ArrowLeft"":3,""ArrowUp,ArrowRight"":36,""ArrowDown,ArrowLeft"":15,""ArrowDown,ArrowRight"":23}","true","spaceBar","true","","","","","","","",""
"html-keyboard-response","52","285090","0.0-3.0-10.0-1.0","spark_pilot_2","7514","8","23","Male","","","","","","","null","<div style=""font-size:60px;"">+</div>","null","fixation","","","","","","","","","","","","","",""
"revaluation","53","289112","0.0-3.0-10.0-0.1","spark_pilot_2","7514","8","23","Male","","false","","","","","[566.1000001430511]","./assets/img/space/catch/1.jpg","[""spaceBar""]","catch practice","space","0","{""ArrowUp,ArrowLeft"":3,""ArrowUp,ArrowRight"":36,""ArrowDown,ArrowLeft"":15,""ArrowDown,ArrowRight"":23}","true","spaceBar","true","","","","","","","",""
"html-keyboard-response","54","289626","0.0-3.0-10.0-1.1","spark_pilot_2","7514","8","23","Male","","","","","","","null","<div style=""font-size:60px;"">+</div>","null","fixation","","","","","","","","","","","","","",""
"revaluation","55","293649","0.0-3.0-10.0-0.2","spark_pilot_2","7514","8","23","Male","","false","","","","","[548.7999999523163]","./assets/img/space/catch/2.jpg","[""spaceBar""]","catch practice","space","0","{""ArrowUp,ArrowLeft"":3,""ArrowUp,ArrowRight"":36,""ArrowDown,ArrowLeft"":15,""ArrowDown,ArrowRight"":23}","true","spaceBar","true","","","","","","","",""
"html-keyboard-response","56","294159","0.0-3.0-10.0-1.2","spark_pilot_2","7514","8","23","Male","","","","","","","null","<div style=""font-size:60px;"">+</div>","null","fixation","","","","","","","","","","","","","",""
"learning-instructions","57","308303","0.0-3.0-11.0-0.0","spark_pilot_2","7514","8","23","Male","","","","","","","558.7999999523163","<p> After you explore a place to find treasure, it will be time to play a different game. </p>
            <p> During this game, red dots will appear on the screen and fall down slowly. </p>
            <p><b> You must click on them before they reach the bottom. </b></p>
            <img src='./assets/img/instructions/dotGame.jpg' class='instructions-image'>","","instructions","","","","","","","","","","","","","",""
"learning-instructions","58","314405","0.0-3.0-11.0-0.1","spark_pilot_2","7514","8","23","Male","","","","","","","399.90000009536743","<p> For every dot you click, you will earn additional treasure. </p>
            <p> Let’s try practicing that now. </p>","","instructions","","","","","","","","","","","","","",""
"revaluation","59","329412","0.0-3.0-12.0-0.0","spark_pilot_2","7514","8","23","Male","","","","","","","[99,53]","","","rest practice","","20","","","","","0","15000","","","","","",""
"learning-instructions","60","335712","0.0-3.0-13.0-0.0-0.0","spark_pilot_2","7514","8","23","Male","","","","","","","1040.6000001430511","<p> Now, you will practice a shortened version of the game to get a sense of how it all fits together. </p>","","instructions","","","","","","","","","","","","","",""
"learning-instructions","61","339389","0.0-3.0-13.0-0.0-0.1","spark_pilot_2","7514","8","23","Male","","","","","","","493.10000014305115","<p>This time you are searching for treasure in outer space.</p>","","instructions","","","","","","","","","","","","","",""
"learning-instructions","62","354582","0.0-3.0-13.0-1.0-0.0","spark_pilot_2","7514","8","23","Male","","","","","","","432.40000009536743","<p> Remember, when you see a picture of the place, use the up and down keys to <b>find an animal</b>.</p>
            <p> When you encounter an animal, you should use the left and right keys to <b>select a treasure chest</b>.</p>
            <p> Don't forget to look out for the robber! </p>","","instructions","","","","","","","","","","","","","",""
"revaluation","63","358600","0.0-3.0-13.0-2.0-0.0","spark_pilot_2","7514","8","23","Male","","true","","","","","[]","./assets/img/space/11.jpg","[]","practice block","space","-5","{""ArrowUp,ArrowLeft"":3,""ArrowUp,ArrowRight"":36,""ArrowDown,ArrowLeft"":15,""ArrowDown,ArrowRight"":23}","false","","false","","","","","","","",""
"html-keyboard-response","64","359112","0.0-3.0-13.0-2.0-1.0","spark_pilot_2","7514","8","23","Male","","","","","","","null","<div style=""font-size:60px;"">+</div>","null","fixation","","","","","","","","","","","","","",""
"revaluation","65","365136","0.0-3.0-13.0-2.0-0.1","spark_pilot_2","7514","8","23","Male","","false","","","","","[750.0999999046326,525.3999998569489]","./assets/img/space/12.jpg","[""ArrowUp"",""ArrowRight""]","practice block","space","36","{""ArrowUp,ArrowLeft"":3,""ArrowUp,ArrowRight"":36,""ArrowDown,ArrowLeft"":15,""ArrowDown,ArrowRight"":23}","true","ArrowUp,ArrowRight","false","","","","","","","",""
"html-keyboard-response","66","365647","0.0-3.0-13.0-2.0-1.1","spark_pilot_2","7514","8","23","Male","","","","","","","null","<div style=""font-size:60px;"">+</div>","null","fixation","","","","","","","","","","","","","",""
"revaluation","67","371670","0.0-3.0-13.0-2.0-0.2","spark_pilot_2","7514","8","23","Male","","false","","","","","[612.0999999046326,383.19999980926514]","./assets/img/space/13.jpg","[""ArrowUp"",""ArrowRight""]","practice block","space","36","{""ArrowUp,ArrowLeft"":3,""ArrowUp,ArrowRight"":36,""ArrowDown,ArrowLeft"":15,""ArrowDown,ArrowRight"":23}","true","ArrowUp,ArrowRight","false","","","","","","","",""
"html-keyboard-response","68","372175","0.0-3.0-13.0-2.0-1.2","spark_pilot_2","7514","8","23","Male","","","","","","","null","<div style=""font-size:60px;"">+</div>","null","fixation","","","","","","","","","","","","","",""
"revaluation","69","378201","0.0-3.0-13.0-2.0-0.3","spark_pilot_2","7514","8","23","Male","","false","","","","","[717.7999999523163,371.39999985694885]","./assets/img/space/14.jpg","[""ArrowUp"",""ArrowLeft""]","practice block","space","3","{""ArrowUp,ArrowLeft"":3,""ArrowUp,ArrowRight"":36,""ArrowDown,ArrowLeft"":15,""ArrowDown,ArrowRight"":23}","false","ArrowUp,ArrowLeft","false","","","","","","","",""
"html-keyboard-response","70","378710","0.0-3.0-13.0-2.0-1.3","spark_pilot_2","7514","8","23","Male","","","","","","","null","<div style=""font-size:60px;"">+</div>","null","fixation","","","","","","","","","","","","","",""
"revaluation","71","384737","0.0-3.0-13.0-2.0-0.4","spark_pilot_2","7514","8","23","Male","","false","","","","","[1016.7000000476837,386.2000000476837]","./assets/img/space/11.jpg","[""ArrowUp"",""ArrowRight""]","practice block","space","36","{""ArrowUp,ArrowLeft"":3,""ArrowUp,ArrowRight"":36,""ArrowDown,ArrowLeft"":15,""ArrowDown,ArrowRight"":23}","true","ArrowUp,ArrowRight","false","","","","","","","",""
"html-keyboard-response","72","385248","0.0-3.0-13.0-2.0-1.4","spark_pilot_2","7514","8","23","Male","","","","","","","null","<div style=""font-size:60px;"">+</div>","null","fixation","","","","","","","","","","","","","",""
"revaluation","73","391275","0.0-3.0-13.0-2.0-0.5","spark_pilot_2","7514","8","23","Male","","false","","","","","[907.7999999523163,574.1999998092651]","./assets/img/space/12.jpg","[""ArrowUp"",""ArrowRight""]","practice block","space","36","{""ArrowUp,ArrowLeft"":3,""ArrowUp,ArrowRight"":36,""ArrowDown,ArrowLeft"":15,""ArrowDown,ArrowRight"":23}","true","ArrowUp,ArrowRight","false","","","","","","","",""
"html-keyboard-response","74","391782","0.0-3.0-13.0-2.0-1.5","spark_pilot_2","7514","8","23","Male","","","","","","","null","<div style=""font-size:60px;"">+</div>","null","fixation","","","","","","","","","","","","","",""
"revaluation","75","397809","0.0-3.0-13.0-2.0-0.6","spark_pilot_2","7514","8","23","Male","","false","","","","","[924.6000001430511,288.89999985694885]","./assets/img/space/13.jpg","[""ArrowUp"",""ArrowRight""]","practice block","space","36","{""ArrowUp,ArrowLeft"":3,""ArrowUp,ArrowRight"":36,""ArrowDown,ArrowLeft"":15,""ArrowDown,ArrowRight"":23}","true","ArrowUp,ArrowRight","false","","","","","","","",""
"html-keyboard-response","76","398322","0.0-3.0-13.0-2.0-1.6","spark_pilot_2","7514","8","23","Male","","","","","","","null","<div style=""font-size:60px;"">+</div>","null","fixation","","","","","","","","","","","","","",""
"revaluation","77","404353","0.0-3.0-13.0-2.0-0.7","spark_pilot_2","7514","8","23","Male","","false","","","","","[962.5999999046326,349.7999999523163]","./assets/img/space/14.jpg","[""ArrowUp"",""ArrowRight""]","practice block","space","36","{""ArrowUp,ArrowLeft"":3,""ArrowUp,ArrowRight"":36,""ArrowDown,ArrowLeft"":15,""ArrowDown,ArrowRight"":23}","true","ArrowUp,ArrowRight","false","","","","","","","",""
"html-keyboard-response","78","404865","0.0-3.0-13.0-2.0-1.7","spark_pilot_2","7514","8","23","Male","","","","","","","null","<div style=""font-size:60px;"">+</div>","null","fixation","","","","","","","","","","","","","",""
"revaluation","79","408880","0.0-3.0-13.0-2.0-0.8","spark_pilot_2","7514","8","23","Male","","false","","","","","[596.2000000476837]","./assets/img/space/catch/3.jpg","[""spaceBar""]","practice block","space","0","{""ArrowUp,ArrowLeft"":3,""ArrowUp,ArrowRight"":36,""ArrowDown,ArrowLeft"":15,""ArrowDown,ArrowRight"":23}","true","spaceBar","true","","","","","","","",""
"html-keyboard-response","80","409394","0.0-3.0-13.0-2.0-1.8","spark_pilot_2","7514","8","23","Male","","","","","","","null","<div style=""font-size:60px;"">+</div>","null","fixation","","","","","","","","","","","","","",""
"learning-instructions","81","423319","0.0-3.0-13.0-3.0-0.0","spark_pilot_2","7514","8","23","Male","","","","","","","982.9000000953674","<p> Now, you will travel with a friend who will choose whether you go up or down first. </p>
            <p> On these turns, you will just see the animal that they found. You will still get to choose which chest to search for treasure.</p>","","instructions","","","","","","","","","","","","","",""
"revaluation","82","427339","0.0-3.0-13.0-4.0-0.0","spark_pilot_2","7514","8","23","Male","","false","","","","","[1018.1999998092651]","./assets/img/space/animals/cat.jpg","[""ArrowRight""]","practice block","space","36","{""ArrowUp,ArrowLeft"":3,""ArrowUp,ArrowRight"":36,""ArrowDown,ArrowLeft"":15,""ArrowDown,ArrowRight"":23}","true","ArrowUp,ArrowRight","","","","","","","","",""
"html-keyboard-response","83","427849","0.0-3.0-13.0-4.0-1.0","spark_pilot_2","7514","8","23","Male","","","","","","","null","<div style=""font-size:60px;"">+</div>","null","fixation","","","","","","","","","","","","","",""
"revaluation","84","431864","0.0-3.0-13.0-4.0-0.1","spark_pilot_2","7514","8","23","Male","","false","","","","","[1218.5]","./assets/img/space/animals/rabbit.jpg","[""ArrowRight""]","practice block","space","23","{""ArrowUp,ArrowLeft"":3,""ArrowUp,ArrowRight"":36,""ArrowDown,ArrowLeft"":15,""ArrowDown,ArrowRight"":23}","true","ArrowDown,ArrowRight","","","","","","","","",""
"html-keyboard-response","85","432379","0.0-3.0-13.0-4.0-1.1","spark_pilot_2","7514","8","23","Male","","","","","","","null","<div style=""font-size:60px;"">+</div>","null","fixation","","","","","","","","","","","","","",""
"revaluation","86","436404","0.0-3.0-13.0-4.0-0.2","spark_pilot_2","7514","8","23","Male","","false","","","","","[679.5]","./assets/img/space/animals/cat.jpg","[""ArrowRight""]","practice block","space","36","{""ArrowUp,ArrowLeft"":3,""ArrowUp,ArrowRight"":36,""ArrowDown,ArrowLeft"":15,""ArrowDown,ArrowRight"":23}","true","ArrowUp,ArrowRight","","","","","","","","",""
"html-keyboard-response","87","436911","0.0-3.0-13.0-4.0-1.2","spark_pilot_2","7514","8","23","Male","","","","","","","null","<div style=""font-size:60px;"">+</div>","null","fixation","","","","","","","","","","","","","",""
"revaluation","88","440928","0.0-3.0-13.0-4.0-0.3","spark_pilot_2","7514","8","23","Male","","false","","","","","[390.19999980926514]","./assets/img/space/animals/rabbit.jpg","[""ArrowLeft""]","practice block","space","15","{""ArrowUp,ArrowLeft"":3,""ArrowUp,ArrowRight"":36,""ArrowDown,ArrowLeft"":15,""ArrowDown,ArrowRight"":23}","false","ArrowDown,ArrowLeft","","","","","","","","",""
"html-keyboard-response","89","441443","0.0-3.0-13.0-4.0-1.3","spark_pilot_2","7514","8","23","Male","","","","","","","null","<div style=""font-size:60px;"">+</div>","null","fixation","","","","","","","","","","","","","",""
"learning-instructions","90","449567","0.0-3.0-13.0-5.0-0.0","spark_pilot_2","7514","8","23","Male","","","","","","","756.5999999046326","<p> Time to play the dot game! </p>
            <p> For 15 seconds, click the red dots on the following screen as they appear. </p>","","instructions","","","","","","","","","","","","","",""
"revaluation","91","464570","0.0-3.0-13.0-6.0-0.0","spark_pilot_2","7514","8","23","Male","","","","","","","[51]","","","rest practice","","10","","","","","0","15000","","","","","",""
"learning-instructions","92","471958","0.0-3.0-13.0-7.0-0.0","spark_pilot_2","7514","8","23","Male","","","","","","","1265.2000000476837","<p> You have almost finished this part of the game! </p>
            <p> We are going to ask you to make a few more choices. </p>","","instructions","","","","","","","","","","","","","",""
"learning-instructions","93","486669","0.0-3.0-13.0-7.0-0.1","spark_pilot_2","7514","8","23","Male","","","","","","","711.6999998092651","<p> First, you need to decide whether to go up or down. When you see each picture, use the arrow keys to make your choice. </p>
            <p><b>You will not see which animal you found, but try to get to the one that will give you the most treasure.</b></p>","","instructions","","","","","","","","","","","","","",""
"revaluation","94","487693","0.0-3.0-13.0-8.0","spark_pilot_2","7514","8","23","Male","","false","","","","","[1021.1999998092651]","./assets/img/space/15.jpg","[""ArrowUp""]","practice block","space","0","{""ArrowUp,ArrowLeft"":3,""ArrowUp,ArrowRight"":36,""ArrowDown,ArrowLeft"":15,""ArrowDown,ArrowRight"":23}","true","ArrowUp","false","","","","","","","",""
"html-keyboard-response","95","488199","0.0-3.0-13.0-9.0","spark_pilot_2","7514","8","23","Male","","","","","","","null","<div style=""font-size:60px;"">+</div>","null","fixation","","","","","","","","","","","","","",""
"learning-instructions","96","503721","0.0-3.0-13.0-10.0-0.0","spark_pilot_2","7514","8","23","Male","","","","","","","4147.400000095367","<p> Now you will see the animals again and can search their chests for treasure. </p>
            <p> This time, you will not see how much treasure you earned, but you will earn more bonus money for making better choices. </p>","","instructions","","","","","","","","","","","","","",""
"revaluation","97","504682","0.0-3.0-13.0-11.0-0.0","spark_pilot_2","7514","8","23","Male","","false","","","","","[958.8000001907349]","./assets/img/space/animals/cat.jpg","[""ArrowRight""]","practice block","space","0","{""ArrowUp,ArrowLeft"":3,""ArrowUp,ArrowRight"":36,""ArrowDown,ArrowLeft"":15,""ArrowDown,ArrowRight"":23}","true","ArrowUp,ArrowRight","","","","","","","","",""
"html-keyboard-response","98","505184","0.0-3.0-13.0-11.0-1.0","spark_pilot_2","7514","8","23","Male","","","","","","","null","<div style=""font-size:60px;"">+</div>","null","fixation","","","","","","","","","","","","","",""
"revaluation","99","506156","0.0-3.0-13.0-11.0-0.1","spark_pilot_2","7514","8","23","Male","","false","","","","","[967.4000000953674]","./assets/img/space/animals/rabbit.jpg","[""ArrowRight""]","practice block","space","0","{""ArrowUp,ArrowLeft"":3,""ArrowUp,ArrowRight"":36,""ArrowDown,ArrowLeft"":15,""ArrowDown,ArrowRight"":23}","true","ArrowDown,ArrowRight","","","","","","","","",""
"html-keyboard-response","100","506662","0.0-3.0-13.0-11.0-1.1","spark_pilot_2","7514","8","23","Male","","","","","","","null","<div style=""font-size:60px;"">+</div>","null","fixation","","","","","","","","","","","","","",""
"learning-instructions","101","511859","0.0-3.0-14.0-0.0","spark_pilot_2","7514","8","23","Male","","","","","","","620.7999999523163","<p> Before you start, we're going to ask you a few questions about how the game works. </p>","","instructions","","","","","","","","","","","","","",""
"comp-q","102","518430","0.0-3.0-15.0-0.0-0.0","spark_pilot_2","7514","8","23","Male","","","","","","","985.2999999523163","<p> <b> True or False? </b> </p>
            <p> There can be 50 pieces of treasure in a given animal's chest. </p>","1","comp_question","","","","true","","","","","","","","","",""
"comp-q","103","526130","0.0-3.0-15.0-0.0-1.0","spark_pilot_2","7514","8","23","Male","","","","","","","1047.0999999046326","<p> <b> That's right! </b> The amount of treasure in each chest can range from 0 to 40 pieces. </p>","0","comp_answer","","","","","","","","","","","","","",""
"comp-q","104","533742","0.0-3.0-15.0-0.1-0.1","spark_pilot_2","7514","8","23","Male","","","","","","","493.5","<p> <b> True or False? </b> </p><p> In this game, all animals have the same amount of treasure in their left and right chests. </p>","1","comp_question","","","","true","","","","","","","","","",""
"comp-q","105","540161","0.0-3.0-15.0-0.1-1.1","spark_pilot_2","7514","8","23","Male","","","","","","","1195.5999999046326","<p> <b> That's right! </b> Animals have different amounts of treasure in their treasure chests. </p>","0","comp_answer","","","","","","","","","","","","","",""
"comp-q","106","546472","0.0-3.0-15.0-0.2-0.2","spark_pilot_2","7514","8","23","Male","","","","","","","465.7999999523163","<p> <b> True or False? </b> </p><p> The same animal will always be there if you go up in the same place. </p>","0","comp_question","","","","true","","","","","","","","","",""
"comp-q","107","553554","0.0-3.0-15.0-0.2-1.2","spark_pilot_2","7514","8","23","Male","","","","","","","641.3999998569489","<p> <b> That's right! </b> One animal lives in the upper part and one lives in the lower part of every place. </p>","0","comp_answer","","","","","","","","","","","","","",""
"comp-q","108","559776","0.0-3.0-15.0-0.3-0.3","spark_pilot_2","7514","8","23","Male","","","","","","","703.6000001430511","<p> <b> True or False? </b> </p><p> If you see a different picture, it means you are in a new place. </p>","0","comp_question","","","","false","","","","","","","","","",""
"comp-q","109","571401","0.0-3.0-15.0-0.3-1.3","spark_pilot_2","7514","8","23","Male","","","","","","","536.1000001430511","<p> <b>Incorrect.</b> Lots of different images may show the same place. For example,  you may see three different images that all remind you that you are in outer space. </p>","0","comp_answer","","","","","","","","","","","","","",""
"comp-q","110","577546","0.0-3.0-15.0-0.4-0.4","spark_pilot_2","7514","8","23","Male","","","","","","","643.1999998092651","<p> <b> True or False? </b> </p><p> If you see a different picture, it means you are in a new place. </p>","1","comp_question","","","","true","","","","","","","","","",""
"comp-q","111","589359","0.0-3.0-15.0-0.4-1.4","spark_pilot_2","7514","8","23","Male","","","","","","","589.7999999523163","<p> <b> That's right! </b> Lots of different images may show the same place. For example,  you may see three different images that all remind you that you are in outer space. </p>","0","comp_answer","","","","","","","","","","","","","",""
"learning-instructions","112","600030","0.0-3.0-16.0-0.0","spark_pilot_2","7514","8","23","Male","","","","","","","823.5","<p> Good job. Remember to do your best because the amount of treasure you earn will be converted into bonus money. </p>
            <p> It’s time to start the real game! </p>","","instructions","","","","","","","","","","","","","",""
"learning-instructions","113","603305","0.0-4.0-0.0-0.0","spark_pilot_2","7514","8","23","Male","","","","","","","508.90000009536743","<p> This time you are searching for treasure in the <b>canyon</b>.</p>","","instructions","","","","","","","","","","","","","",""
"learning-instructions","114","620969","0.0-4.0-0.0-0.1","spark_pilot_2","7514","8","23","Male","","","","","","","375.5","<p><b>New</b> animals with <b>new</b> treasure chests live here. You need to explore to discover where the animal with the best treasure chest is.</p>
                    <p> Like before, once you figure out which animal has the chest with the most treasure, you should try to get to that animal and select that chest! </p>","","instructions","","","","","","","","","","","","","",""
"learning-instructions","115","636098","0.0-4.0-1.0-0.0","spark_pilot_2","7514","8","23","Male","","","","","","","400","<p> Remember, when you see a picture of the place, use the up and down keys to <b>find an animal</b>.</p>
            <p> When you encounter an animal, you should use the left and right keys to <b>select a treasure chest</b>.</p>
            <p> Don't forget to look out for the robber! </p>","","instructions","","","","","","","","","","","","","",""
"revaluation","116","642121","0.0-4.0-2.0-0.0","spark_pilot_2","7514","8","23","Male","","false","","","","","[1003,550.2000000476837]","./assets/img/canyon/memory/29.jpg","[""ArrowUp"",""ArrowRight""]","value training","canyon","10","{""ArrowUp,ArrowLeft"":26,""ArrowUp,ArrowRight"":10,""ArrowDown,ArrowLeft"":5,""ArrowDown,ArrowRight"":17}","false","ArrowUp,ArrowRight","false","","","revaluation","1","0","","",""
"html-keyboard-response","117","642635","0.0-4.0-2.0-1.0","spark_pilot_2","7514","8","23","Male","","","","","","","null","<div style=""font-size:60px;"">+</div>","null","fixation","","","","","","","","","","","1","","",""
"revaluation","118","648668","0.0-4.0-2.0-0.1","spark_pilot_2","7514","8","23","Male","","false","","","","","[640.1999998092651,534.3999998569489]","./assets/img/canyon/memory/17.jpg","[""ArrowUp"",""ArrowLeft""]","value training","canyon","26","{""ArrowUp,ArrowLeft"":26,""ArrowUp,ArrowRight"":10,""ArrowDown,ArrowLeft"":5,""ArrowDown,ArrowRight"":17}","true","ArrowUp,ArrowLeft","false","","","revaluation","1","2","","",""
"html-keyboard-response","119","649175","0.0-4.0-2.0-1.1","spark_pilot_2","7514","8","23","Male","","","","","","","null","<div style=""font-size:60px;"">+</div>","null","fixation","","","","","","","","","","","3","","",""
"revaluation","120","655205","0.0-4.0-2.0-0.2","spark_pilot_2","7514","8","23","Male","","false","","","","","[671.5,532.9000000953674]","./assets/img/canyon/memory/7.jpg","[""ArrowDown"",""ArrowLeft""]","value training","canyon","5","{""ArrowUp,ArrowLeft"":26,""ArrowUp,ArrowRight"":10,""ArrowDown,ArrowLeft"":5,""ArrowDown,ArrowRight"":17}","false","ArrowDown,ArrowLeft","false","","","revaluation","1","4","","",""
"html-keyboard-response","121","655716","0.0-4.0-2.0-1.2","spark_pilot_2","7514","8","23","Male","","","","","","","null","<div style=""font-size:60px;"">+</div>","null","fixation","","","","","","","","","","","5","","",""
"revaluation","122","661746","0.0-4.0-2.0-0.3","spark_pilot_2","7514","8","23","Male","","false","","","","","[774.7999999523163,311]","./assets/img/canyon/memory/2.jpg","[""ArrowDown"",""ArrowRight""]","value training","canyon","17","{""ArrowUp,ArrowLeft"":26,""ArrowUp,ArrowRight"":10,""ArrowDown,ArrowLeft"":5,""ArrowDown,ArrowRight"":17}","false","ArrowDown,ArrowRight","false","","","revaluation","1","6","","",""
"html-keyboard-response","123","662255","0.0-4.0-2.0-1.3","spark_pilot_2","7514","8","23","Male","","","","","","","null","<div style=""font-size:60px;"">+</div>","null","fixation","","","","","","","","","","","7","","",""
"revaluation","124","668280","0.0-4.0-2.0-0.4","spark_pilot_2","7514","8","23","Male","","false","","","","","[672.7999999523163,367.7000000476837]","./assets/img/canyon/memory/41.jpg","[""ArrowUp"",""ArrowLeft""]","value training","canyon","26","{""ArrowUp,ArrowLeft"":26,""ArrowUp,ArrowRight"":10,""ArrowDown,ArrowLeft"":5,""ArrowDown,ArrowRight"":17}","true","ArrowUp,ArrowLeft","false","","","revaluation","1","8","","",""
"html-keyboard-response","125","668786","0.0-4.0-2.0-1.4","spark_pilot_2","7514","8","23","Male","","","","","","","null","<div style=""font-size:60px;"">+</div>","null","fixation","","","","","","","","","","","9","","",""
"revaluation","126","674819","0.0-4.0-2.0-0.5","spark_pilot_2","7514","8","23","Male","","false","","","","","[602.7999999523163,474.5]","./assets/img/canyon/memory/41.jpg","[""ArrowUp"",""ArrowLeft""]","value training","canyon","26","{""ArrowUp,ArrowLeft"":26,""ArrowUp,ArrowRight"":10,""ArrowDown,ArrowLeft"":5,""ArrowDown,ArrowRight"":17}","true","ArrowUp,ArrowLeft","false","","","revaluation","1","10","","",""
"html-keyboard-response","127","675329","0.0-4.0-2.0-1.5","spark_pilot_2","7514","8","23","Male","","","","","","","null","<div style=""font-size:60px;"">+</div>","null","fixation","","","","","","","","","","","11","","",""
"revaluation","128","681353","0.0-4.0-2.0-0.6","spark_pilot_2","7514","8","23","Male","","false","","","","","[780.5,354]","./assets/img/canyon/memory/3.jpg","[""ArrowUp"",""ArrowRight""]","value training","canyon","10","{""ArrowUp,ArrowLeft"":26,""ArrowUp,ArrowRight"":10,""ArrowDown,ArrowLeft"":5,""ArrowDown,ArrowRight"":17}","false","ArrowUp,ArrowRight","false","","","revaluation","1","12","","",""
"html-keyboard-response","129","681863","0.0-4.0-2.0-1.6","spark_pilot_2","7514","8","23","Male","","","","","","","null","<div style=""font-size:60px;"">+</div>","null","fixation","","","","","","","","","","","13","","",""
"revaluation","130","687890","0.0-4.0-2.0-0.7","spark_pilot_2","7514","8","23","Male","","false","","","","","[771.2000000476837,392.7999999523163]","./assets/img/canyon/memory/39.jpg","[""ArrowUp"",""ArrowLeft""]","value training","canyon","26","{""ArrowUp,ArrowLeft"":26,""ArrowUp,ArrowRight"":10,""ArrowDown,ArrowLeft"":5,""ArrowDown,ArrowRight"":17}","true","ArrowUp,ArrowLeft","false","","","revaluation","1","14","","",""
"html-keyboard-response","131","688403","0.0-4.0-2.0-1.7","spark_pilot_2","7514","8","23","Male","","","","","","","null","<div style=""font-size:60px;"">+</div>","null","fixation","","","","","","","","","","","15","","",""
"revaluation","132","694435","0.0-4.0-2.0-0.8","spark_pilot_2","7514","8","23","Male","","false","","","","","[600,419.2000000476837]","./assets/img/canyon/memory/5.jpg","[""ArrowUp"",""ArrowLeft""]","value training","canyon","26","{""ArrowUp,ArrowLeft"":26,""ArrowUp,ArrowRight"":10,""ArrowDown,ArrowLeft"":5,""ArrowDown,ArrowRight"":17}","true","ArrowUp,ArrowLeft","false","","","revaluation","1","16","","",""
"html-keyboard-response","133","694945","0.0-4.0-2.0-1.8","spark_pilot_2","7514","8","23","Male","","","","","","","null","<div style=""font-size:60px;"">+</div>","null","fixation","","","","","","","","","","","17","","",""
"revaluation","134","700979","0.0-4.0-2.0-0.9","spark_pilot_2","7514","8","23","Male","","false","","","","","[523.2000000476837,482.7999999523163]","./assets/img/canyon/memory/7.jpg","[""ArrowUp"",""ArrowLeft""]","value training","canyon","26","{""ArrowUp,ArrowLeft"":26,""ArrowUp,ArrowRight"":10,""ArrowDown,ArrowLeft"":5,""ArrowDown,ArrowRight"":17}","true","ArrowUp,ArrowLeft","false","","","revaluation","1","18","","",""
"html-keyboard-response","135","701490","0.0-4.0-2.0-1.9","spark_pilot_2","7514","8","23","Male","","","","","","","null","<div style=""font-size:60px;"">+</div>","null","fixation","","","","","","","","","","","19","","",""
"revaluation","136","707512","0.0-4.0-2.0-0.10","spark_pilot_2","7514","8","23","Male","","false","","","","","[561.7000000476837,362.2999999523163]","./assets/img/canyon/memory/5.jpg","[""ArrowUp"",""ArrowLeft""]","value training","canyon","26","{""ArrowUp,ArrowLeft"":26,""ArrowUp,ArrowRight"":10,""ArrowDown,ArrowLeft"":5,""ArrowDown,ArrowRight"":17}","true","ArrowUp,ArrowLeft","false","","","revaluation","1","20","","",""
"html-keyboard-response","137","708020","0.0-4.0-2.0-1.10","spark_pilot_2","7514","8","23","Male","","","","","","","null","<div style=""font-size:60px;"">+</div>","null","fixation","","","","","","","","","","","21","","",""
"revaluation","138","714050","0.0-4.0-2.0-0.11","spark_pilot_2","7514","8","23","Male","","false","","","","","[754.0999999046326,320.7999999523163]","./assets/img/canyon/memory/32.jpg","[""ArrowUp"",""ArrowLeft""]","value training","canyon","26","{""ArrowUp,ArrowLeft"":26,""ArrowUp,ArrowRight"":10,""ArrowDown,ArrowLeft"":5,""ArrowDown,ArrowRight"":17}","true","ArrowUp,ArrowLeft","false","","","revaluation","1","22","","",""
"html-keyboard-response","139","714564","0.0-4.0-2.0-1.11","spark_pilot_2","7514","8","23","Male","","","","","","","null","<div style=""font-size:60px;"">+</div>","null","fixation","","","","","","","","","","","23","","",""
"revaluation","140","720595","0.0-4.0-2.0-0.12","spark_pilot_2","7514","8","23","Male","","false","","","","","[627.7999999523163,382.2999999523163]","./assets/img/canyon/memory/13.jpg","[""ArrowUp"",""ArrowLeft""]","value training","canyon","26","{""ArrowUp,ArrowLeft"":26,""ArrowUp,ArrowRight"":10,""ArrowDown,ArrowLeft"":5,""ArrowDown,ArrowRight"":17}","true","ArrowUp,ArrowLeft","false","","","revaluation","1","24","","",""
"html-keyboard-response","141","721106","0.0-4.0-2.0-1.12","spark_pilot_2","7514","8","23","Male","","","","","","","null","<div style=""font-size:60px;"">+</div>","null","fixation","","","","","","","","","","","25","","",""
"revaluation","142","727128","0.0-4.0-2.0-0.13","spark_pilot_2","7514","8","23","Male","","false","","","","","[889.7999999523163,317.10000014305115]","./assets/img/canyon/memory/2.jpg","[""ArrowUp"",""ArrowLeft""]","value training","canyon","26","{""ArrowUp,ArrowLeft"":26,""ArrowUp,ArrowRight"":10,""ArrowDown,ArrowLeft"":5,""ArrowDown,ArrowRight"":17}","true","ArrowUp,ArrowLeft","false","","","revaluation","1","26","","",""
"html-keyboard-response","143","727634","0.0-4.0-2.0-1.13","spark_pilot_2","7514","8","23","Male","","","","","","","null","<div style=""font-size:60px;"">+</div>","null","fixation","","","","","","","","","","","27","","",""
"revaluation","144","733656","0.0-4.0-2.0-0.14","spark_pilot_2","7514","8","23","Male","","false","","","","","[782.7000000476837,336.30000019073486]","./assets/img/canyon/memory/20.jpg","[""ArrowUp"",""ArrowLeft""]","value training","canyon","26","{""ArrowUp,ArrowLeft"":26,""ArrowUp,ArrowRight"":10,""ArrowDown,ArrowLeft"":5,""ArrowDown,ArrowRight"":17}","true","ArrowUp,ArrowLeft","false","","","revaluation","1","28","","",""
"html-keyboard-response","145","734162","0.0-4.0-2.0-1.14","spark_pilot_2","7514","8","23","Male","","","","","","","null","<div style=""font-size:60px;"">+</div>","null","fixation","","","","","","","","","","","29","","",""
"revaluation","146","738179","0.0-4.0-2.0-0.15","spark_pilot_2","7514","8","23","Male","","false","","","","","[928.2000000476837]","./assets/img/canyon/catch/0.jpg","[""spaceBar""]","value training","canyon","0","{""ArrowUp,ArrowLeft"":26,""ArrowUp,ArrowRight"":10,""ArrowDown,ArrowLeft"":5,""ArrowDown,ArrowRight"":17}","true","spaceBar","true","","","revaluation","1","30","","",""
"html-keyboard-response","147","738690","0.0-4.0-2.0-1.15","spark_pilot_2","7514","8","23","Male","","","","","","","null","<div style=""font-size:60px;"">+</div>","null","fixation","","","","","","","","","","","31","","",""
"revaluation","148","742709","0.0-4.0-2.0-0.16","spark_pilot_2","7514","8","23","Male","","false","","","","","[831.7999999523163]","./assets/img/canyon/catch/1.jpg","[""spaceBar""]","value training","canyon","0","{""ArrowUp,ArrowLeft"":26,""ArrowUp,ArrowRight"":10,""ArrowDown,ArrowLeft"":5,""ArrowDown,ArrowRight"":17}","true","spaceBar","true","","","revaluation","1","32","","",""
"html-keyboard-response","149","743220","0.0-4.0-2.0-1.16","spark_pilot_2","7514","8","23","Male","","","","","","","null","<div style=""font-size:60px;"">+</div>","null","fixation","","","","","","","","","","","33","","",""
"revaluation","150","749251","0.0-4.0-2.0-0.17","spark_pilot_2","7514","8","23","Male","","false","","","","","[1076.9000000953674,363.7000000476837]","./assets/img/canyon/memory/34.jpg","[""ArrowUp"",""ArrowLeft""]","value training","canyon","26","{""ArrowUp,ArrowLeft"":26,""ArrowUp,ArrowRight"":10,""ArrowDown,ArrowLeft"":5,""ArrowDown,ArrowRight"":17}","true","ArrowUp,ArrowLeft","false","","","revaluation","1","34","","",""
"html-keyboard-response","151","749762","0.0-4.0-2.0-1.17","spark_pilot_2","7514","8","23","Male","","","","","","","null","<div style=""font-size:60px;"">+</div>","null","fixation","","","","","","","","","","","35","","",""
"revaluation","152","755795","0.0-4.0-2.0-0.18","spark_pilot_2","7514","8","23","Male","","false","","","","","[991,327]","./assets/img/canyon/memory/6.jpg","[""ArrowUp"",""ArrowLeft""]","value training","canyon","26","{""ArrowUp,ArrowLeft"":26,""ArrowUp,ArrowRight"":10,""ArrowDown,ArrowLeft"":5,""ArrowDown,ArrowRight"":17}","true","ArrowUp,ArrowLeft","false","","","revaluation","1","36","","",""
"html-keyboard-response","153","756306","0.0-4.0-2.0-1.18","spark_pilot_2","7514","8","23","Male","","","","","","","null","<div style=""font-size:60px;"">+</div>","null","fixation","","","","","","","","","","","37","","",""
"revaluation","154","762329","0.0-4.0-2.0-0.19","spark_pilot_2","7514","8","23","Male","","false","","","","","[794.0999999046326,363.39999985694885]","./assets/img/canyon/memory/33.jpg","[""ArrowUp"",""ArrowLeft""]","value training","canyon","26","{""ArrowUp,ArrowLeft"":26,""ArrowUp,ArrowRight"":10,""ArrowDown,ArrowLeft"":5,""ArrowDown,ArrowRight"":17}","true","ArrowUp,ArrowLeft","false","","","revaluation","1","38","","",""
"html-keyboard-response","155","762834","0.0-4.0-2.0-1.19","spark_pilot_2","7514","8","23","Male","","","","","","","null","<div style=""font-size:60px;"">+</div>","null","fixation","","","","","","","","","","","39","","",""
"revaluation","156","766858","0.0-4.0-2.0-0.20","spark_pilot_2","7514","8","23","Male","","false","","","","","[652.5]","./assets/img/canyon/catch/6.jpg","[""spaceBar""]","value training","canyon","0","{""ArrowUp,ArrowLeft"":26,""ArrowUp,ArrowRight"":10,""ArrowDown,ArrowLeft"":5,""ArrowDown,ArrowRight"":17}","true","spaceBar","true","","","revaluation","1","40","","",""
"html-keyboard-response","157","767368","0.0-4.0-2.0-1.20","spark_pilot_2","7514","8","23","Male","","","","","","","null","<div style=""font-size:60px;"">+</div>","null","fixation","","","","","","","","","","","41","","",""
"revaluation","158","773395","0.0-4.0-2.0-0.21","spark_pilot_2","7514","8","23","Male","","false","","","","","[917.3999998569489,561.7000000476837]","./assets/img/canyon/memory/27.jpg","[""ArrowUp"",""ArrowLeft""]","value training","canyon","26","{""ArrowUp,ArrowLeft"":26,""ArrowUp,ArrowRight"":10,""ArrowDown,ArrowLeft"":5,""ArrowDown,ArrowRight"":17}","true","ArrowUp,ArrowLeft","false","","","revaluation","1","42","","",""
"html-keyboard-response","159","773906","0.0-4.0-2.0-1.21","spark_pilot_2","7514","8","23","Male","","","","","","","null","<div style=""font-size:60px;"">+</div>","null","fixation","","","","","","","","","","","43","","",""
"revaluation","160","779939","0.0-4.0-2.0-0.22","spark_pilot_2","7514","8","23","Male","","false","","","","","[900.1000001430511,308.90000009536743]","./assets/img/canyon/memory/33.jpg","[""ArrowUp"",""ArrowLeft""]","value training","canyon","26","{""ArrowUp,ArrowLeft"":26,""ArrowUp,ArrowRight"":10,""ArrowDown,ArrowLeft"":5,""ArrowDown,ArrowRight"":17}","true","ArrowUp,ArrowLeft","false","","","revaluation","1","44","","",""
"html-keyboard-response","161","780450","0.0-4.0-2.0-1.22","spark_pilot_2","7514","8","23","Male","","","","","","","null","<div style=""font-size:60px;"">+</div>","null","fixation","","","","","","","","","","","45","","",""
"revaluation","162","784467","0.0-4.0-2.0-0.23","spark_pilot_2","7514","8","23","Male","","false","","","","","[619.0999999046326]","./assets/img/canyon/catch/4.jpg","[""spaceBar""]","value training","canyon","0","{""ArrowUp,ArrowLeft"":26,""ArrowUp,ArrowRight"":10,""ArrowDown,ArrowLeft"":5,""ArrowDown,ArrowRight"":17}","true","spaceBar","true","","","revaluation","1","46","","",""
"html-keyboard-response","163","784978","0.0-4.0-2.0-1.23","spark_pilot_2","7514","8","23","Male","","","","","","","null","<div style=""font-size:60px;"">+</div>","null","fixation","","","","","","","","","","","47","","",""
"revaluation","164","791011","0.0-4.0-2.0-0.24","spark_pilot_2","7514","8","23","Male","","false","","","","","[796.4000000953674,339.5]","./assets/img/canyon/memory/34.jpg","[""ArrowUp"",""ArrowLeft""]","value training","canyon","26","{""ArrowUp,ArrowLeft"":26,""ArrowUp,ArrowRight"":10,""ArrowDown,ArrowLeft"":5,""ArrowDown,ArrowRight"":17}","true","ArrowUp,ArrowLeft","false","","","revaluation","1","48","","",""
"html-keyboard-response","165","791522","0.0-4.0-2.0-1.24","spark_pilot_2","7514","8","23","Male","","","","","","","null","<div style=""font-size:60px;"">+</div>","null","fixation","","","","","","","","","","","49","","",""
"revaluation","166","797556","0.0-4.0-2.0-0.25","spark_pilot_2","7514","8","23","Male","","false","","","","","[782.2000000476837,282.89999985694885]","./assets/img/canyon/memory/4.jpg","[""ArrowUp"",""ArrowLeft""]","value training","canyon","26","{""ArrowUp,ArrowLeft"":26,""ArrowUp,ArrowRight"":10,""ArrowDown,ArrowLeft"":5,""ArrowDown,ArrowRight"":17}","true","ArrowUp,ArrowLeft","false","","","revaluation","1","50","","",""
"html-keyboard-response","167","798066","0.0-4.0-2.0-1.25","spark_pilot_2","7514","8","23","Male","","","","","","","null","<div style=""font-size:60px;"">+</div>","null","fixation","","","","","","","","","","","51","","",""
"revaluation","168","804098","0.0-4.0-2.0-0.26","spark_pilot_2","7514","8","23","Male","","false","","","","","[695.2000000476837,310.89999985694885]","./assets/img/canyon/memory/4.jpg","[""ArrowUp"",""ArrowLeft""]","value training","canyon","26","{""ArrowUp,ArrowLeft"":26,""ArrowUp,ArrowRight"":10,""ArrowDown,ArrowLeft"":5,""ArrowDown,ArrowRight"":17}","true","ArrowUp,ArrowLeft","false","","","revaluation","1","52","","",""
"html-keyboard-response","169","804610","0.0-4.0-2.0-1.26","spark_pilot_2","7514","8","23","Male","","","","","","","null","<div style=""font-size:60px;"">+</div>","null","fixation","","","","","","","","","","","53","","",""
"revaluation","170","808633","0.0-4.0-2.0-0.27","spark_pilot_2","7514","8","23","Male","","false","","","","","[669.7000000476837]","./assets/img/canyon/catch/7.jpg","[""spaceBar""]","value training","canyon","0","{""ArrowUp,ArrowLeft"":26,""ArrowUp,ArrowRight"":10,""ArrowDown,ArrowLeft"":5,""ArrowDown,ArrowRight"":17}","true","spaceBar","true","","","revaluation","1","54","","",""
"html-keyboard-response","171","809139","0.0-4.0-2.0-1.27","spark_pilot_2","7514","8","23","Male","","","","","","","null","<div style=""font-size:60px;"">+</div>","null","fixation","","","","","","","","","","","55","","",""
"revaluation","172","815171","0.0-4.0-2.0-0.28","spark_pilot_2","7514","8","23","Male","","false","","","","","[639.2999999523163,328.7999999523163]","./assets/img/canyon/memory/6.jpg","[""ArrowUp"",""ArrowLeft""]","value training","canyon","26","{""ArrowUp,ArrowLeft"":26,""ArrowUp,ArrowRight"":10,""ArrowDown,ArrowLeft"":5,""ArrowDown,ArrowRight"":17}","true","ArrowUp,ArrowLeft","false","","","revaluation","1","56","","",""
"html-keyboard-response","173","815683","0.0-4.0-2.0-1.28","spark_pilot_2","7514","8","23","Male","","","","","","","null","<div style=""font-size:60px;"">+</div>","null","fixation","","","","","","","","","","","57","","",""
"revaluation","174","821705","0.0-4.0-2.0-0.29","spark_pilot_2","7514","8","23","Male","","false","","","","","[915.6999998092651,490.40000009536743]","./assets/img/canyon/memory/35.jpg","[""ArrowUp"",""ArrowLeft""]","value training","canyon","26","{""ArrowUp,ArrowLeft"":26,""ArrowUp,ArrowRight"":10,""ArrowDown,ArrowLeft"":5,""ArrowDown,ArrowRight"":17}","true","ArrowUp,ArrowLeft","false","","","revaluation","1","58","","",""
"html-keyboard-response","175","822211","0.0-4.0-2.0-1.29","spark_pilot_2","7514","8","23","Male","","","","","","","null","<div style=""font-size:60px;"">+</div>","null","fixation","","","","","","","","","","","59","","",""
"revaluation","176","828243","0.0-4.0-2.0-0.30","spark_pilot_2","7514","8","23","Male","","false","","","","","[849.2000000476837,278.7999999523163]","./assets/img/canyon/memory/14.jpg","[""ArrowUp"",""ArrowLeft""]","value training","canyon","26","{""ArrowUp,ArrowLeft"":26,""ArrowUp,ArrowRight"":10,""ArrowDown,ArrowLeft"":5,""ArrowDown,ArrowRight"":17}","true","ArrowUp,ArrowLeft","false","","","revaluation","1","60","","",""
"html-keyboard-response","177","828754","0.0-4.0-2.0-1.30","spark_pilot_2","7514","8","23","Male","","","","","","","null","<div style=""font-size:60px;"">+</div>","null","fixation","","","","","","","","","","","61","","",""
"revaluation","178","834788","0.0-4.0-2.0-0.31","spark_pilot_2","7514","8","23","Male","","false","","","","","[658.4000000953674,456.39999985694885]","./assets/img/canyon/memory/21.jpg","[""ArrowUp"",""ArrowLeft""]","value training","canyon","26","{""ArrowUp,ArrowLeft"":26,""ArrowUp,ArrowRight"":10,""ArrowDown,ArrowLeft"":5,""ArrowDown,ArrowRight"":17}","true","ArrowUp,ArrowLeft","false","","","revaluation","1","62","","",""
"html-keyboard-response","179","835299","0.0-4.0-2.0-1.31","spark_pilot_2","7514","8","23","Male","","","","","","","null","<div style=""font-size:60px;"">+</div>","null","fixation","","","","","","","","","","","63","","",""
"revaluation","180","841324","0.0-4.0-2.0-0.32","spark_pilot_2","7514","8","23","Male","","false","","","","","[696.0999999046326,344.30000019073486]","./assets/img/canyon/memory/21.jpg","[""ArrowUp"",""ArrowLeft""]","value training","canyon","26","{""ArrowUp,ArrowLeft"":26,""ArrowUp,ArrowRight"":10,""ArrowDown,ArrowLeft"":5,""ArrowDown,ArrowRight"":17}","true","ArrowUp,ArrowLeft","false","","","revaluation","1","64","","",""
"html-keyboard-response","181","841835","0.0-4.0-2.0-1.32","spark_pilot_2","7514","8","23","Male","","","","","","","null","<div style=""font-size:60px;"">+</div>","null","fixation","","","","","","","","","","","65","","",""
"revaluation","182","847865","0.0-4.0-2.0-0.33","spark_pilot_2","7514","8","23","Male","","false","","","","","[728.6000001430511,314]","./assets/img/canyon/memory/13.jpg","[""ArrowUp"",""ArrowLeft""]","value training","canyon","26","{""ArrowUp,ArrowLeft"":26,""ArrowUp,ArrowRight"":10,""ArrowDown,ArrowLeft"":5,""ArrowDown,ArrowRight"":17}","true","ArrowUp,ArrowLeft","false","","","revaluation","1","66","","",""
"html-keyboard-response","183","848371","0.0-4.0-2.0-1.33","spark_pilot_2","7514","8","23","Male","","","","","","","null","<div style=""font-size:60px;"">+</div>","null","fixation","","","","","","","","","","","67","","",""
"revaluation","184","854393","0.0-4.0-2.0-0.34","spark_pilot_2","7514","8","23","Male","","false","","","","","[831.1000001430511,276]","./assets/img/canyon/memory/22.jpg","[""ArrowUp"",""ArrowLeft""]","value training","canyon","26","{""ArrowUp,ArrowLeft"":26,""ArrowUp,ArrowRight"":10,""ArrowDown,ArrowLeft"":5,""ArrowDown,ArrowRight"":17}","true","ArrowUp,ArrowLeft","false","","","revaluation","1","68","","",""
"html-keyboard-response","185","854899","0.0-4.0-2.0-1.34","spark_pilot_2","7514","8","23","Male","","","","","","","null","<div style=""font-size:60px;"">+</div>","null","fixation","","","","","","","","","","","69","","",""
"revaluation","186","860921","0.0-4.0-2.0-0.35","spark_pilot_2","7514","8","23","Male","","false","","","","","[633.9000000953674,308.2000000476837]","./assets/img/canyon/memory/35.jpg","[""ArrowUp"",""ArrowLeft""]","value training","canyon","26","{""ArrowUp,ArrowLeft"":26,""ArrowUp,ArrowRight"":10,""ArrowDown,ArrowLeft"":5,""ArrowDown,ArrowRight"":17}","true","ArrowUp,ArrowLeft","false","","","revaluation","1","70","","",""
"html-keyboard-response","187","861427","0.0-4.0-2.0-1.35","spark_pilot_2","7514","8","23","Male","","","","","","","null","<div style=""font-size:60px;"">+</div>","null","fixation","","","","","","","","","","","71","","",""
"revaluation","188","867460","0.0-4.0-2.0-0.36","spark_pilot_2","7514","8","23","Male","","false","","","","","[700.4000000953674,295.89999985694885]","./assets/img/canyon/memory/25.jpg","[""ArrowUp"",""ArrowLeft""]","value training","canyon","26","{""ArrowUp,ArrowLeft"":26,""ArrowUp,ArrowRight"":10,""ArrowDown,ArrowLeft"":5,""ArrowDown,ArrowRight"":17}","true","ArrowUp,ArrowLeft","false","","","revaluation","1","72","","",""
"html-keyboard-response","189","867971","0.0-4.0-2.0-1.36","spark_pilot_2","7514","8","23","Male","","","","","","","null","<div style=""font-size:60px;"">+</div>","null","fixation","","","","","","","","","","","73","","",""
"revaluation","190","874004","0.0-4.0-2.0-0.37","spark_pilot_2","7514","8","23","Male","","false","","","","","[610,325.7000000476837]","./assets/img/canyon/memory/25.jpg","[""ArrowUp"",""ArrowLeft""]","value training","canyon","26","{""ArrowUp,ArrowLeft"":26,""ArrowUp,ArrowRight"":10,""ArrowDown,ArrowLeft"":5,""ArrowDown,ArrowRight"":17}","true","ArrowUp,ArrowLeft","false","","","revaluation","1","74","","",""
"html-keyboard-response","191","874515","0.0-4.0-2.0-1.37","spark_pilot_2","7514","8","23","Male","","","","","","","null","<div style=""font-size:60px;"">+</div>","null","fixation","","","","","","","","","","","75","","",""
"revaluation","192","880536","0.0-4.0-2.0-0.38","spark_pilot_2","7514","8","23","Male","","false","","","","","[747.2999999523163,335.39999985694885]","./assets/img/canyon/memory/20.jpg","[""ArrowUp"",""ArrowLeft""]","value training","canyon","26","{""ArrowUp,ArrowLeft"":26,""ArrowUp,ArrowRight"":10,""ArrowDown,ArrowLeft"":5,""ArrowDown,ArrowRight"":17}","true","ArrowUp,ArrowLeft","false","","","revaluation","1","76","","",""
"html-keyboard-response","193","881043","0.0-4.0-2.0-1.38","spark_pilot_2","7514","8","23","Male","","","","","","","null","<div style=""font-size:60px;"">+</div>","null","fixation","","","","","","","","","","","77","","",""
"revaluation","194","885065","0.0-4.0-2.0-0.39","spark_pilot_2","7514","8","23","Male","","false","","","","","[639.7000000476837]","./assets/img/canyon/catch/2.jpg","[""spaceBar""]","value training","canyon","0","{""ArrowUp,ArrowLeft"":26,""ArrowUp,ArrowRight"":10,""ArrowDown,ArrowLeft"":5,""ArrowDown,ArrowRight"":17}","true","spaceBar","true","","","revaluation","1","78","","",""
"html-keyboard-response","195","885572","0.0-4.0-2.0-1.39","spark_pilot_2","7514","8","23","Male","","","","","","","null","<div style=""font-size:60px;"">+</div>","null","fixation","","","","","","","","","","","79","","",""
"revaluation","196","891604","0.0-4.0-2.0-0.40","spark_pilot_2","7514","8","23","Male","","false","","","","","[638.2999999523163,354.80000019073486]","./assets/img/canyon/memory/3.jpg","[""ArrowUp"",""ArrowLeft""]","value training","canyon","26","{""ArrowUp,ArrowLeft"":26,""ArrowUp,ArrowRight"":10,""ArrowDown,ArrowLeft"":5,""ArrowDown,ArrowRight"":17}","true","ArrowUp,ArrowLeft","false","","","revaluation","1","80","","",""
"html-keyboard-response","197","892115","0.0-4.0-2.0-1.40","spark_pilot_2","7514","8","23","Male","","","","","","","null","<div style=""font-size:60px;"">+</div>","null","fixation","","","","","","","","","","","81","","",""
"revaluation","198","896137","0.0-4.0-2.0-0.41","spark_pilot_2","7514","8","23","Male","","false","","","","","[580.4000000953674]","./assets/img/canyon/catch/3.jpg","[""spaceBar""]","value training","canyon","0","{""ArrowUp,ArrowLeft"":26,""ArrowUp,ArrowRight"":10,""ArrowDown,ArrowLeft"":5,""ArrowDown,ArrowRight"":17}","true","spaceBar","true","","","revaluation","1","82","","",""
"html-keyboard-response","199","896642","0.0-4.0-2.0-1.41","spark_pilot_2","7514","8","23","Male","","","","","","","null","<div style=""font-size:60px;"">+</div>","null","fixation","","","","","","","","","","","83","","",""
"revaluation","200","902665","0.0-4.0-2.0-0.42","spark_pilot_2","7514","8","23","Male","","false","","","","","[814,380.60000014305115]","./assets/img/canyon/memory/27.jpg","[""ArrowUp"",""ArrowLeft""]","value training","canyon","26","{""ArrowUp,ArrowLeft"":26,""ArrowUp,ArrowRight"":10,""ArrowDown,ArrowLeft"":5,""ArrowDown,ArrowRight"":17}","true","ArrowUp,ArrowLeft","false","","","revaluation","1","84","","",""
"html-keyboard-response","201","903171","0.0-4.0-2.0-1.42","spark_pilot_2","7514","8","23","Male","","","","","","","null","<div style=""font-size:60px;"">+</div>","null","fixation","","","","","","","","","","","85","","",""
"revaluation","202","909206","0.0-4.0-2.0-0.43","spark_pilot_2","7514","8","23","Male","","false","","","","","[730.7999999523163,378.59999990463257]","./assets/img/canyon/memory/22.jpg","[""ArrowUp"",""ArrowLeft""]","value training","canyon","26","{""ArrowUp,ArrowLeft"":26,""ArrowUp,ArrowRight"":10,""ArrowDown,ArrowLeft"":5,""ArrowDown,ArrowRight"":17}","true","ArrowUp,ArrowLeft","false","","","revaluation","1","86","","",""
"html-keyboard-response","203","909717","0.0-4.0-2.0-1.43","spark_pilot_2","7514","8","23","Male","","","","","","","null","<div style=""font-size:60px;"">+</div>","null","fixation","","","","","","","","","","","87","","",""
"revaluation","204","915748","0.0-4.0-2.0-0.44","spark_pilot_2","7514","8","23","Male","","false","","","","","[547.3999998569489,374.2000000476837]","./assets/img/canyon/memory/32.jpg","[""ArrowUp"",""ArrowLeft""]","value training","canyon","26","{""ArrowUp,ArrowLeft"":26,""ArrowUp,ArrowRight"":10,""ArrowDown,ArrowLeft"":5,""ArrowDown,ArrowRight"":17}","true","ArrowUp,ArrowLeft","false","","","revaluation","1","88","","",""
"html-keyboard-response","205","916259","0.0-4.0-2.0-1.44","spark_pilot_2","7514","8","23","Male","","","","","","","null","<div style=""font-size:60px;"">+</div>","null","fixation","","","","","","","","","","","89","","",""
"revaluation","206","922286","0.0-4.0-2.0-0.45","spark_pilot_2","7514","8","23","Male","","false","","","","","[668.5999999046326,306.7000000476837]","./assets/img/canyon/memory/39.jpg","[""ArrowUp"",""ArrowLeft""]","value training","canyon","26","{""ArrowUp,ArrowLeft"":26,""ArrowUp,ArrowRight"":10,""ArrowDown,ArrowLeft"":5,""ArrowDown,ArrowRight"":17}","true","ArrowUp,ArrowLeft","false","","","revaluation","1","90","","",""
"html-keyboard-response","207","922792","0.0-4.0-2.0-1.45","spark_pilot_2","7514","8","23","Male","","","","","","","null","<div style=""font-size:60px;"">+</div>","null","fixation","","","","","","","","","","","91","","",""
"revaluation","208","928820","0.0-4.0-2.0-0.46","spark_pilot_2","7514","8","23","Male","","false","","","","","[515.2999999523163,340.7999999523163]","./assets/img/canyon/memory/29.jpg","[""ArrowUp"",""ArrowLeft""]","value training","canyon","26","{""ArrowUp,ArrowLeft"":26,""ArrowUp,ArrowRight"":10,""ArrowDown,ArrowLeft"":5,""ArrowDown,ArrowRight"":17}","true","ArrowUp,ArrowLeft","false","","","revaluation","1","92","","",""
"html-keyboard-response","209","929331","0.0-4.0-2.0-1.46","spark_pilot_2","7514","8","23","Male","","","","","","","null","<div style=""font-size:60px;"">+</div>","null","fixation","","","","","","","","","","","93","","",""
"revaluation","210","935358","0.0-4.0-2.0-0.47","spark_pilot_2","7514","8","23","Male","","false","","","","","[625,330.40000009536743]","./assets/img/canyon/memory/14.jpg","[""ArrowUp"",""ArrowLeft""]","value training","canyon","26","{""ArrowUp,ArrowLeft"":26,""ArrowUp,ArrowRight"":10,""ArrowDown,ArrowLeft"":5,""ArrowDown,ArrowRight"":17}","true","ArrowUp,ArrowLeft","false","","","revaluation","1","94","","",""
"html-keyboard-response","211","935864","0.0-4.0-2.0-1.47","spark_pilot_2","7514","8","23","Male","","","","","","","null","<div style=""font-size:60px;"">+</div>","null","fixation","","","","","","","","","","","95","","",""
"revaluation","212","941892","0.0-4.0-2.0-0.48","spark_pilot_2","7514","8","23","Male","","false","","","","","[496.2000000476837,352.5]","./assets/img/canyon/memory/17.jpg","[""ArrowUp"",""ArrowLeft""]","value training","canyon","26","{""ArrowUp,ArrowLeft"":26,""ArrowUp,ArrowRight"":10,""ArrowDown,ArrowLeft"":5,""ArrowDown,ArrowRight"":17}","true","ArrowUp,ArrowLeft","false","","","revaluation","1","96","","",""
"html-keyboard-response","213","942403","0.0-4.0-2.0-1.48","spark_pilot_2","7514","8","23","Male","","","","","","","null","<div style=""font-size:60px;"">+</div>","null","fixation","","","","","","","","","","","97","","",""
"revaluation","214","946420","0.0-4.0-2.0-0.49","spark_pilot_2","7514","8","23","Male","","false","","","","","[575.2000000476837]","./assets/img/canyon/catch/5.jpg","[""spaceBar""]","value training","canyon","0","{""ArrowUp,ArrowLeft"":26,""ArrowUp,ArrowRight"":10,""ArrowDown,ArrowLeft"":5,""ArrowDown,ArrowRight"":17}","true","spaceBar","true","","","revaluation","1","98","","",""
"html-keyboard-response","215","946931","0.0-4.0-2.0-1.49","spark_pilot_2","7514","8","23","Male","","","","","","","null","<div style=""font-size:60px;"">+</div>","null","fixation","","","","","","","","","","","99","","",""
"learning-instructions","216","962093","0.0-4.0-3.0-0.0","spark_pilot_2","7514","8","23","Male","","","","","","","2250.899999856949","<p> Now, you will travel with a friend who will choose whether you go up or down first. </p>
            <p> On these turns, you will just see the animal that they found. You will still get to choose which chest to search for treasure.</p>","","instructions","","","","","","","","","","","","","",""
"revaluation","217","966111","0.0-4.0-4.0-0.0","spark_pilot_2","7514","8","23","Male","","false","","","","","[741.4000000953674]","./assets/img/canyon/animals/lion.jpg","[""ArrowLeft""]","revaluation","canyon","2","{""ArrowUp,ArrowLeft"":2,""ArrowUp,ArrowRight"":11,""ArrowDown,ArrowLeft"":8,""ArrowDown,ArrowRight"":27}","false","ArrowUp,ArrowLeft","","","","revaluation","1","0","","",""
"html-keyboard-response","218","966621","0.0-4.0-4.0-1.0","spark_pilot_2","7514","8","23","Male","","","","","","","null","<div style=""font-size:60px;"">+</div>","null","fixation","","","","","","","","","","","1","","",""
"revaluation","219","970646","0.0-4.0-4.0-0.1","spark_pilot_2","7514","8","23","Male","","false","","","","","[1013.7999999523163]","./assets/img/canyon/animals/giraffe.jpg","[""ArrowLeft""]","revaluation","canyon","8","{""ArrowUp,ArrowLeft"":2,""ArrowUp,ArrowRight"":11,""ArrowDown,ArrowLeft"":8,""ArrowDown,ArrowRight"":27}","false","ArrowDown,ArrowLeft","","","","revaluation","1","2","","",""
"html-keyboard-response","220","971157","0.0-4.0-4.0-1.1","spark_pilot_2","7514","8","23","Male","","","","","","","null","<div style=""font-size:60px;"">+</div>","null","fixation","","","","","","","","","","","3","","",""
"revaluation","221","975180","0.0-4.0-4.0-0.2","spark_pilot_2","7514","8","23","Male","","false","","","","","[509.7999999523163]","./assets/img/canyon/animals/giraffe.jpg","[""ArrowRight""]","revaluation","canyon","27","{""ArrowUp,ArrowLeft"":2,""ArrowUp,ArrowRight"":11,""ArrowDown,ArrowLeft"":8,""ArrowDown,ArrowRight"":27}","true","ArrowDown,ArrowRight","","","","revaluation","1","4","","",""
"html-keyboard-response","222","975690","0.0-4.0-4.0-1.2","spark_pilot_2","7514","8","23","Male","","","","","","","null","<div style=""font-size:60px;"">+</div>","null","fixation","","","","","","","","","","","5","","",""
"revaluation","223","979710","0.0-4.0-4.0-0.3","spark_pilot_2","7514","8","23","Male","","false","","","","","[470.5]","./assets/img/canyon/animals/lion.jpg","[""ArrowRight""]","revaluation","canyon","11","{""ArrowUp,ArrowLeft"":2,""ArrowUp,ArrowRight"":11,""ArrowDown,ArrowLeft"":8,""ArrowDown,ArrowRight"":27}","true","ArrowUp,ArrowRight","","","","revaluation","1","6","","",""
"html-keyboard-response","224","980220","0.0-4.0-4.0-1.3","spark_pilot_2","7514","8","23","Male","","","","","","","null","<div style=""font-size:60px;"">+</div>","null","fixation","","","","","","","","","","","7","","",""
"revaluation","225","984238","0.0-4.0-4.0-0.4","spark_pilot_2","7514","8","23","Male","","false","","","","","[901.0999999046326]","./assets/img/canyon/animals/lion.jpg","[""ArrowRight""]","revaluation","canyon","11","{""ArrowUp,ArrowLeft"":2,""ArrowUp,ArrowRight"":11,""ArrowDown,ArrowLeft"":8,""ArrowDown,ArrowRight"":27}","true","ArrowUp,ArrowRight","","","","revaluation","1","8","","",""
"html-keyboard-response","226","984745","0.0-4.0-4.0-1.4","spark_pilot_2","7514","8","23","Male","","","","","","","null","<div style=""font-size:60px;"">+</div>","null","fixation","","","","","","","","","","","9","","",""
"revaluation","227","988764","0.0-4.0-4.0-0.5","spark_pilot_2","7514","8","23","Male","","false","","","","","[795.2000000476837]","./assets/img/canyon/animals/lion.jpg","[""ArrowRight""]","revaluation","canyon","11","{""ArrowUp,ArrowLeft"":2,""ArrowUp,ArrowRight"":11,""ArrowDown,ArrowLeft"":8,""ArrowDown,ArrowRight"":27}","true","ArrowUp,ArrowRight","","","","revaluation","1","10","","",""
"html-keyboard-response","228","989276","0.0-4.0-4.0-1.5","spark_pilot_2","7514","8","23","Male","","","","","","","null","<div style=""font-size:60px;"">+</div>","null","fixation","","","","","","","","","","","11","","",""
"revaluation","229","993300","0.0-4.0-4.0-0.6","spark_pilot_2","7514","8","23","Male","","false","","","","","[1170.0999999046326]","./assets/img/canyon/animals/giraffe.jpg","[""ArrowRight""]","revaluation","canyon","27","{""ArrowUp,ArrowLeft"":2,""ArrowUp,ArrowRight"":11,""ArrowDown,ArrowLeft"":8,""ArrowDown,ArrowRight"":27}","true","ArrowDown,ArrowRight","","","","revaluation","1","12","","",""
"html-keyboard-response","230","993811","0.0-4.0-4.0-1.6","spark_pilot_2","7514","8","23","Male","","","","","","","null","<div style=""font-size:60px;"">+</div>","null","fixation","","","","","","","","","","","13","","",""
"revaluation","231","997828","0.0-4.0-4.0-0.7","spark_pilot_2","7514","8","23","Male","","false","","","","","[523.1999998092651]","./assets/img/canyon/animals/giraffe.jpg","[""ArrowRight""]","revaluation","canyon","27","{""ArrowUp,ArrowLeft"":2,""ArrowUp,ArrowRight"":11,""ArrowDown,ArrowLeft"":8,""ArrowDown,ArrowRight"":27}","true","ArrowDown,ArrowRight","","","","revaluation","1","14","","",""
"html-keyboard-response","232","998339","0.0-4.0-4.0-1.7","spark_pilot_2","7514","8","23","Male","","","","","","","null","<div style=""font-size:60px;"">+</div>","null","fixation","","","","","","","","","","","15","","",""
"revaluation","233","1002356","0.0-4.0-4.0-0.8","spark_pilot_2","7514","8","23","Male","","false","","","","","[457.2999999523163]","./assets/img/canyon/animals/giraffe.jpg","[""ArrowRight""]","revaluation","canyon","27","{""ArrowUp,ArrowLeft"":2,""ArrowUp,ArrowRight"":11,""ArrowDown,ArrowLeft"":8,""ArrowDown,ArrowRight"":27}","true","ArrowDown,ArrowRight","","","","revaluation","1","16","","",""
"html-keyboard-response","234","1002867","0.0-4.0-4.0-1.8","spark_pilot_2","7514","8","23","Male","","","","","","","null","<div style=""font-size:60px;"">+</div>","null","fixation","","","","","","","","","","","17","","",""
"revaluation","235","1006882","0.0-4.0-4.0-0.9","spark_pilot_2","7514","8","23","Male","","false","","","","","[423.80000019073486]","./assets/img/canyon/animals/giraffe.jpg","[""ArrowRight""]","revaluation","canyon","27","{""ArrowUp,ArrowLeft"":2,""ArrowUp,ArrowRight"":11,""ArrowDown,ArrowLeft"":8,""ArrowDown,ArrowRight"":27}","true","ArrowDown,ArrowRight","","","","revaluation","1","18","","",""
"html-keyboard-response","236","1007389","0.0-4.0-4.0-1.9","spark_pilot_2","7514","8","23","Male","","","","","","","null","<div style=""font-size:60px;"">+</div>","null","fixation","","","","","","","","","","","19","","",""
"revaluation","237","1011412","0.0-4.0-4.0-0.10","spark_pilot_2","7514","8","23","Male","","false","","","","","[481.7000000476837]","./assets/img/canyon/animals/giraffe.jpg","[""ArrowRight""]","revaluation","canyon","27","{""ArrowUp,ArrowLeft"":2,""ArrowUp,ArrowRight"":11,""ArrowDown,ArrowLeft"":8,""ArrowDown,ArrowRight"":27}","true","ArrowDown,ArrowRight","","","","revaluation","1","20","","",""
"html-keyboard-response","238","1011923","0.0-4.0-4.0-1.10","spark_pilot_2","7514","8","23","Male","","","","","","","null","<div style=""font-size:60px;"">+</div>","null","fixation","","","","","","","","","","","21","","",""
"revaluation","239","1015950","0.0-4.0-4.0-0.11","spark_pilot_2","7514","8","23","Male","","false","","","","","[632.6000001430511]","./assets/img/canyon/animals/lion.jpg","[""ArrowRight""]","revaluation","canyon","11","{""ArrowUp,ArrowLeft"":2,""ArrowUp,ArrowRight"":11,""ArrowDown,ArrowLeft"":8,""ArrowDown,ArrowRight"":27}","true","ArrowUp,ArrowRight","","","","revaluation","1","22","","",""
"html-keyboard-response","240","1016461","0.0-4.0-4.0-1.11","spark_pilot_2","7514","8","23","Male","","","","","","","null","<div style=""font-size:60px;"">+</div>","null","fixation","","","","","","","","","","","23","","",""
"revaluation","241","1020484","0.0-4.0-4.0-0.12","spark_pilot_2","7514","8","23","Male","","false","","","","","[466.7999999523163]","./assets/img/canyon/animals/lion.jpg","[""ArrowRight""]","revaluation","canyon","11","{""ArrowUp,ArrowLeft"":2,""ArrowUp,ArrowRight"":11,""ArrowDown,ArrowLeft"":8,""ArrowDown,ArrowRight"":27}","true","ArrowUp,ArrowRight","","","","revaluation","1","24","","",""
"html-keyboard-response","242","1020995","0.0-4.0-4.0-1.12","spark_pilot_2","7514","8","23","Male","","","","","","","null","<div style=""font-size:60px;"">+</div>","null","fixation","","","","","","","","","","","25","","",""
"revaluation","243","1025012","0.0-4.0-4.0-0.13","spark_pilot_2","7514","8","23","Male","","false","","","","","[382.7000000476837]","./assets/img/canyon/animals/giraffe.jpg","[""ArrowRight""]","revaluation","canyon","27","{""ArrowUp,ArrowLeft"":2,""ArrowUp,ArrowRight"":11,""ArrowDown,ArrowLeft"":8,""ArrowDown,ArrowRight"":27}","true","ArrowDown,ArrowRight","","","","revaluation","1","26","","",""
"html-keyboard-response","244","1025523","0.0-4.0-4.0-1.13","spark_pilot_2","7514","8","23","Male","","","","","","","null","<div style=""font-size:60px;"">+</div>","null","fixation","","","","","","","","","","","27","","",""
"revaluation","245","1029540","0.0-4.0-4.0-0.14","spark_pilot_2","7514","8","23","Male","","false","","","","","[436.7000000476837]","./assets/img/canyon/animals/lion.jpg","[""ArrowRight""]","revaluation","canyon","11","{""ArrowUp,ArrowLeft"":2,""ArrowUp,ArrowRight"":11,""ArrowDown,ArrowLeft"":8,""ArrowDown,ArrowRight"":27}","true","ArrowUp,ArrowRight","","","","revaluation","1","28","","",""
"html-keyboard-response","246","1030051","0.0-4.0-4.0-1.14","spark_pilot_2","7514","8","23","Male","","","","","","","null","<div style=""font-size:60px;"">+</div>","null","fixation","","","","","","","","","","","29","","",""
"revaluation","247","1034068","0.0-4.0-4.0-0.15","spark_pilot_2","7514","8","23","Male","","false","","","","","[446.2000000476837]","./assets/img/canyon/animals/lion.jpg","[""ArrowRight""]","revaluation","canyon","11","{""ArrowUp,ArrowLeft"":2,""ArrowUp,ArrowRight"":11,""ArrowDown,ArrowLeft"":8,""ArrowDown,ArrowRight"":27}","true","ArrowUp,ArrowRight","","","","revaluation","1","30","","",""
"html-keyboard-response","248","1034579","0.0-4.0-4.0-1.15","spark_pilot_2","7514","8","23","Male","","","","","","","null","<div style=""font-size:60px;"">+</div>","null","fixation","","","","","","","","","","","31","","",""
"revaluation","249","1038596","0.0-4.0-4.0-0.16","spark_pilot_2","7514","8","23","Male","","false","","","","","[352.40000009536743]","./assets/img/canyon/animals/lion.jpg","[""ArrowRight""]","revaluation","canyon","11","{""ArrowUp,ArrowLeft"":2,""ArrowUp,ArrowRight"":11,""ArrowDown,ArrowLeft"":8,""ArrowDown,ArrowRight"":27}","true","ArrowUp,ArrowRight","","","","revaluation","1","32","","",""
"html-keyboard-response","250","1039107","0.0-4.0-4.0-1.16","spark_pilot_2","7514","8","23","Male","","","","","","","null","<div style=""font-size:60px;"">+</div>","null","fixation","","","","","","","","","","","33","","",""
"revaluation","251","1043123","0.0-4.0-4.0-0.17","spark_pilot_2","7514","8","23","Male","","false","","","","","[399.7999999523163]","./assets/img/canyon/animals/giraffe.jpg","[""ArrowRight""]","revaluation","canyon","27","{""ArrowUp,ArrowLeft"":2,""ArrowUp,ArrowRight"":11,""ArrowDown,ArrowLeft"":8,""ArrowDown,ArrowRight"":27}","true","ArrowDown,ArrowRight","","","","revaluation","1","34","","",""
"html-keyboard-response","252","1043635","0.0-4.0-4.0-1.17","spark_pilot_2","7514","8","23","Male","","","","","","","null","<div style=""font-size:60px;"">+</div>","null","fixation","","","","","","","","","","","35","","",""
"learning-instructions","253","1057556","0.0-4.0-5.0-0.0","spark_pilot_2","7514","8","23","Male","","","","","","","1618.3999998569489","<p> Time to play the dot game! </p>
            <p> For one minute, click the red dots on the following screen as they appear. </p>
            <p><b> Don't look away, as you will earn bonus for clicking dots</b>. </p>","","instructions","","","","","","","","","","","","","",""
"revaluation","254","1117565","0.0-4.0-6.0-0.0","spark_pilot_2","7514","8","23","Male","","","","","","","[66,89,47,58,49,49]","","","rest","","60","","","","","0","60000","","","","","",""
"learning-instructions","255","1124648","0.0-4.0-7.0-0.0","spark_pilot_2","7514","8","23","Male","","","","","","","948.9000000953674","<p> You have almost finished this part of the game! </p>
            <p> We are going to ask you to make a few more choices. </p>","","instructions","","","","","","","","","","","","","",""
"learning-instructions","256","1138967","0.0-4.0-7.0-0.1","spark_pilot_2","7514","8","23","Male","","","","","","","343.7999999523163","<p> First, you need to decide whether to go up or down. When you see each picture, use the arrow keys to make your choice. </p>
            <p><b>You will not see which animal you found, but try to get to the one that will give you the most treasure.</b></p>","","instructions","","","","","","","","","","","","","",""
"revaluation","257","1139776","0.0-4.0-8.0-0.0","spark_pilot_2","7514","8","23","Male","","false","","","","","[805.9000000953674]","./assets/img/canyon/test/2.jpg","[""ArrowUp""]","first stage test","canyon","0","{""ArrowUp,ArrowLeft"":2,""ArrowUp,ArrowRight"":11,""ArrowDown,ArrowLeft"":8,""ArrowDown,ArrowRight"":27}","false","ArrowUp","false","","","revaluation","1","","","",""
"html-keyboard-response","258","1140285","0.0-4.0-8.0-1.0","spark_pilot_2","7514","8","23","Male","","","","","","","null","<div style=""font-size:60px;"">+</div>","null","fixation","","","","","","","","","","","","","",""
"revaluation","259","1141676","0.0-4.0-8.0-0.1","spark_pilot_2","7514","8","23","Male","","false","","","","","[1387]","./assets/img/canyon/test/3.jpg","[""ArrowUp""]","first stage test","canyon","0","{""ArrowUp,ArrowLeft"":2,""ArrowUp,ArrowRight"":11,""ArrowDown,ArrowLeft"":8,""ArrowDown,ArrowRight"":27}","false","ArrowUp","false","","","revaluation","1","","","",""
"html-keyboard-response","260","1142181","0.0-4.0-8.0-1.1","spark_pilot_2","7514","8","23","Male","","","","","","","null","<div style=""font-size:60px;"">+</div>","null","fixation","","","","","","","","","","","","","",""
"revaluation","261","1143489","0.0-4.0-8.0-0.2","spark_pilot_2","7514","8","23","Male","","false","","","","","[1302.2999999523163]","./assets/img/canyon/test/0.jpg","[""ArrowUp""]","first stage test","canyon","0","{""ArrowUp,ArrowLeft"":2,""ArrowUp,ArrowRight"":11,""ArrowDown,ArrowLeft"":8,""ArrowDown,ArrowRight"":27}","false","ArrowUp","false","","","revaluation","1","","","",""
"html-keyboard-response","262","1143996","0.0-4.0-8.0-1.2","spark_pilot_2","7514","8","23","Male","","","","","","","null","<div style=""font-size:60px;"">+</div>","null","fixation","","","","","","","","","","","","","",""
"revaluation","263","1144886","0.0-4.0-8.0-0.3","spark_pilot_2","7514","8","23","Male","","false","","","","","[885.1999998092651]","./assets/img/canyon/test/1.jpg","[""ArrowUp""]","first stage test","canyon","0","{""ArrowUp,ArrowLeft"":2,""ArrowUp,ArrowRight"":11,""ArrowDown,ArrowLeft"":8,""ArrowDown,ArrowRight"":27}","false","ArrowUp","false","","","revaluation","1","","","",""
"html-keyboard-response","264","1145388","0.0-4.0-8.0-1.3","spark_pilot_2","7514","8","23","Male","","","","","","","null","<div style=""font-size:60px;"">+</div>","null","fixation","","","","","","","","","","","","","",""
"learning-instructions","265","1157566","0.0-4.0-9.0-0.0","spark_pilot_2","7514","8","23","Male","","","","","","","836.3999998569489","<p> Now you will see the animals again and can search their chests for treasure. </p>
            <p> This time, you will not see how much treasure you earned, but you will earn more bonus money for making better choices. </p>","","instructions","","","","","","","","","","","","","",""
"revaluation","266","1158479","0.0-4.0-10.0-0.0","spark_pilot_2","7514","8","23","Male","","false","","","","","[911]","./assets/img/canyon/animals/lion.jpg","[""ArrowRight""]","second stage test","canyon","0","{""ArrowUp,ArrowLeft"":2,""ArrowUp,ArrowRight"":11,""ArrowDown,ArrowLeft"":8,""ArrowDown,ArrowRight"":27}","true","ArrowUp,ArrowRight","","","","revaluation","1","","","",""
"html-keyboard-response","267","1158990","0.0-4.0-10.0-1.0","spark_pilot_2","7514","8","23","Male","","","","","","","null","<div style=""font-size:60px;"">+</div>","null","fixation","","","","","","","","","","","","","",""
"revaluation","268","1160113","0.0-4.0-10.0-0.1","spark_pilot_2","7514","8","23","Male","","false","","","","","[1118.5]","./assets/img/canyon/animals/lion.jpg","[""ArrowRight""]","second stage test","canyon","0","{""ArrowUp,ArrowLeft"":2,""ArrowUp,ArrowRight"":11,""ArrowDown,ArrowLeft"":8,""ArrowDown,ArrowRight"":27}","true","ArrowUp,ArrowRight","","","","revaluation","1","","","",""
"html-keyboard-response","269","1160622","0.0-4.0-10.0-1.1","spark_pilot_2","7514","8","23","Male","","","","","","","null","<div style=""font-size:60px;"">+</div>","null","fixation","","","","","","","","","","","","","",""
"revaluation","270","1161311","0.0-4.0-10.0-0.2","spark_pilot_2","7514","8","23","Male","","false","","","","","[683.7999999523163]","./assets/img/canyon/animals/lion.jpg","[""ArrowRight""]","second stage test","canyon","0","{""ArrowUp,ArrowLeft"":2,""ArrowUp,ArrowRight"":11,""ArrowDown,ArrowLeft"":8,""ArrowDown,ArrowRight"":27}","true","ArrowUp,ArrowRight","","","","revaluation","1","","","",""
"html-keyboard-response","271","1161818","0.0-4.0-10.0-1.2","spark_pilot_2","7514","8","23","Male","","","","","","","null","<div style=""font-size:60px;"">+</div>","null","fixation","","","","","","","","","","","","","",""
"revaluation","272","1162860","0.0-4.0-10.0-0.3","spark_pilot_2","7514","8","23","Male","","false","","","","","[1036]","./assets/img/canyon/animals/lion.jpg","[""ArrowRight""]","second stage test","canyon","0","{""ArrowUp,ArrowLeft"":2,""ArrowUp,ArrowRight"":11,""ArrowDown,ArrowLeft"":8,""ArrowDown,ArrowRight"":27}","true","ArrowUp,ArrowRight","","","","revaluation","1","","","",""
"html-keyboard-response","273","1163366","0.0-4.0-10.0-1.3","spark_pilot_2","7514","8","23","Male","","","","","","","null","<div style=""font-size:60px;"">+</div>","null","fixation","","","","","","","","","","","","","",""
"revaluation","274","1164521","0.0-4.0-10.0-0.4","spark_pilot_2","7514","8","23","Male","","false","","","","","[1149.5]","./assets/img/canyon/animals/giraffe.jpg","[""ArrowLeft""]","second stage test","canyon","0","{""ArrowUp,ArrowLeft"":2,""ArrowUp,ArrowRight"":11,""ArrowDown,ArrowLeft"":8,""ArrowDown,ArrowRight"":27}","false","ArrowDown,ArrowLeft","","","","revaluation","1","","","",""
"html-keyboard-response","275","1165030","0.0-4.0-10.0-1.4","spark_pilot_2","7514","8","23","Male","","","","","","","null","<div style=""font-size:60px;"">+</div>","null","fixation","","","","","","","","","","","","","",""
"revaluation","276","1165466","0.0-4.0-10.0-0.5","spark_pilot_2","7514","8","23","Male","","false","","","","","[430.90000009536743]","./assets/img/canyon/animals/giraffe.jpg","[""ArrowRight""]","second stage test","canyon","0","{""ArrowUp,ArrowLeft"":2,""ArrowUp,ArrowRight"":11,""ArrowDown,ArrowLeft"":8,""ArrowDown,ArrowRight"":27}","true","ArrowDown,ArrowRight","","","","revaluation","1","","","",""
"html-keyboard-response","277","1165973","0.0-4.0-10.0-1.5","spark_pilot_2","7514","8","23","Male","","","","","","","null","<div style=""font-size:60px;"">+</div>","null","fixation","","","","","","","","","","","","","",""
"revaluation","278","1166644","0.0-4.0-10.0-0.6","spark_pilot_2","7514","8","23","Male","","false","","","","","[666.3999998569489]","./assets/img/canyon/animals/giraffe.jpg","[""ArrowRight""]","second stage test","canyon","0","{""ArrowUp,ArrowLeft"":2,""ArrowUp,ArrowRight"":11,""ArrowDown,ArrowLeft"":8,""ArrowDown,ArrowRight"":27}","true","ArrowDown,ArrowRight","","","","revaluation","1","","","",""
"html-keyboard-response","279","1167146","0.0-4.0-10.0-1.6","spark_pilot_2","7514","8","23","Male","","","","","","","null","<div style=""font-size:60px;"">+</div>","null","fixation","","","","","","","","","","","","","",""
"revaluation","280","1167877","0.0-4.0-10.0-0.7","spark_pilot_2","7514","8","23","Male","","false","","","","","[727.1000001430511]","./assets/img/canyon/animals/giraffe.jpg","[""ArrowRight""]","second stage test","canyon","0","{""ArrowUp,ArrowLeft"":2,""ArrowUp,ArrowRight"":11,""ArrowDown,ArrowLeft"":8,""ArrowDown,ArrowRight"":27}","true","ArrowDown,ArrowRight","","","","revaluation","1","","","",""
"html-keyboard-response","281","1168386","0.0-4.0-10.0-1.7","spark_pilot_2","7514","8","23","Male","","","","","","","null","<div style=""font-size:60px;"">+</div>","null","fixation","","","","","","","","","","","","","",""
"learning-instructions","282","1171658","0.0-4.0-0.1-0.2","spark_pilot_2","7514","8","23","Male","","","","","","","570.5","<p> This time you are searching for treasure in the <b>ocean</b>.</p>","","instructions","","","","","","","","","","","","","",""
"learning-instructions","283","1189244","0.0-4.0-0.1-0.3","spark_pilot_2","7514","8","23","Male","","","","","","","332.5","<p><b>New</b> animals with <b>new</b> treasure chests live here. You need to explore to discover where the animal with the best treasure chest is.</p>
                    <p> Like before, once you figure out which animal has the chest with the most treasure, you should try to get to that animal and select that chest! </p>","","instructions","","","","","","","","","","","","","",""
"learning-instructions","284","1204253","0.0-4.0-1.1-0.1","spark_pilot_2","7514","8","23","Male","","","","","","","279.2999999523163","<p> Remember, when you see a picture of the place, use the up and down keys to <b>find an animal</b>.</p>
            <p> When you encounter an animal, you should use the left and right keys to <b>select a treasure chest</b>.</p>
            <p> Don't forget to look out for the robber! </p>","","instructions","","","","","","","","","","","","","",""
"revaluation","285","1208271","0.0-4.0-2.1-0.50","spark_pilot_2","7514","8","23","Male","","false","","","","","[1047.7999999523163]","./assets/img/ocean/catch/4.jpg","[""spaceBar""]","value training","ocean","0","{""ArrowUp,ArrowLeft"":23,""ArrowUp,ArrowRight"":10,""ArrowDown,ArrowLeft"":8,""ArrowDown,ArrowRight"":30}","true","spaceBar","true","","","original","2","0","","",""
"html-keyboard-response","286","1208780","0.0-4.0-2.1-1.50","spark_pilot_2","7514","8","23","Male","","","","","","","null","<div style=""font-size:60px;"">+</div>","null","fixation","","","","","","","","","","","1","","",""
"revaluation","287","1214806","0.0-4.0-2.1-0.51","spark_pilot_2","7514","8","23","Male","","false","","","","","[791.7999999523163,720.9000000953674]","./assets/img/ocean/memory/41.jpg","[""ArrowUp"",""ArrowRight""]","value training","ocean","10","{""ArrowUp,ArrowLeft"":23,""ArrowUp,ArrowRight"":10,""ArrowDown,ArrowLeft"":8,""ArrowDown,ArrowRight"":30}","false","ArrowUp,ArrowRight","false","","","original","2","2","","",""
"html-keyboard-response","288","1215314","0.0-4.0-2.1-1.51","spark_pilot_2","7514","8","23","Male","","","","","","","null","<div style=""font-size:60px;"">+</div>","null","fixation","","","","","","","","","","","3","","",""
"revaluation","289","1221340","0.0-4.0-2.1-0.52","spark_pilot_2","7514","8","23","Male","","false","","","","","[600.2999999523163,454.5]","./assets/img/ocean/memory/2.jpg","[""ArrowUp"",""ArrowLeft""]","value training","ocean","23","{""ArrowUp,ArrowLeft"":23,""ArrowUp,ArrowRight"":10,""ArrowDown,ArrowLeft"":8,""ArrowDown,ArrowRight"":30}","false","ArrowUp,ArrowLeft","false","","","original","2","4","","",""
"html-keyboard-response","290","1221853","0.0-4.0-2.1-1.52","spark_pilot_2","7514","8","23","Male","","","","","","","null","<div style=""font-size:60px;"">+</div>","null","fixation","","","","","","","","","","","5","","",""
"revaluation","291","1227874","0.0-4.0-2.1-0.53","spark_pilot_2","7514","8","23","Male","","false","","","","","[734.2999999523163,449.40000009536743]","./assets/img/ocean/memory/13.jpg","[""ArrowDown"",""ArrowLeft""]","value training","ocean","8","{""ArrowUp,ArrowLeft"":23,""ArrowUp,ArrowRight"":10,""ArrowDown,ArrowLeft"":8,""ArrowDown,ArrowRight"":30}","false","ArrowDown,ArrowLeft","false","","","original","2","6","","",""
"html-keyboard-response","292","1228378","0.0-4.0-2.1-1.53","spark_pilot_2","7514","8","23","Male","","","","","","","null","<div style=""font-size:60px;"">+</div>","null","fixation","","","","","","","","","","","7","","",""
"revaluation","293","1234405","0.0-4.0-2.1-0.54","spark_pilot_2","7514","8","23","Male","","false","","","","","[615.7999999523163,367.2999999523163]","./assets/img/ocean/memory/3.jpg","[""ArrowDown"",""ArrowRight""]","value training","ocean","30","{""ArrowUp,ArrowLeft"":23,""ArrowUp,ArrowRight"":10,""ArrowDown,ArrowLeft"":8,""ArrowDown,ArrowRight"":30}","true","ArrowDown,ArrowRight","false","","","original","2","8","","",""
"html-keyboard-response","294","1234917","0.0-4.0-2.1-1.54","spark_pilot_2","7514","8","23","Male","","","","","","","null","<div style=""font-size:60px;"">+</div>","null","fixation","","","","","","","","","","","9","","",""
"revaluation","295","1240939","0.0-4.0-2.1-0.55","spark_pilot_2","7514","8","23","Male","","false","","","","","[899.6999998092651,382.5]","./assets/img/ocean/memory/7.jpg","[""ArrowDown"",""ArrowRight""]","value training","ocean","30","{""ArrowUp,ArrowLeft"":23,""ArrowUp,ArrowRight"":10,""ArrowDown,ArrowLeft"":8,""ArrowDown,ArrowRight"":30}","true","ArrowDown,ArrowRight","false","","","original","2","10","","",""
"html-keyboard-response","296","1241445","0.0-4.0-2.1-1.55","spark_pilot_2","7514","8","23","Male","","","","","","","null","<div style=""font-size:60px;"">+</div>","null","fixation","","","","","","","","","","","11","","",""
"revaluation","297","1247469","0.0-4.0-2.1-0.56","spark_pilot_2","7514","8","23","Male","","false","","","","","[683,390.40000009536743]","./assets/img/ocean/memory/34.jpg","[""ArrowUp"",""ArrowLeft""]","value training","ocean","23","{""ArrowUp,ArrowLeft"":23,""ArrowUp,ArrowRight"":10,""ArrowDown,ArrowLeft"":8,""ArrowDown,ArrowRight"":30}","false","ArrowUp,ArrowLeft","false","","","original","2","12","","",""
"html-keyboard-response","298","1247981","0.0-4.0-2.1-1.56","spark_pilot_2","7514","8","23","Male","","","","","","","null","<div style=""font-size:60px;"">+</div>","null","fixation","","","","","","","","","","","13","","",""
"revaluation","299","1252005","0.0-4.0-2.1-0.57","spark_pilot_2","7514","8","23","Male","","false","","","","","[770.7000000476837]","./assets/img/ocean/catch/1.jpg","[""spaceBar""]","value training","ocean","0","{""ArrowUp,ArrowLeft"":23,""ArrowUp,ArrowRight"":10,""ArrowDown,ArrowLeft"":8,""ArrowDown,ArrowRight"":30}","true","spaceBar","true","","","original","2","14","","",""
"html-keyboard-response","300","1252517","0.0-4.0-2.1-1.57","spark_pilot_2","7514","8","23","Male","","","","","","","null","<div style=""font-size:60px;"">+</div>","null","fixation","","","","","","","","","","","15","","",""
"revaluation","301","1256533","0.0-4.0-2.1-0.58","spark_pilot_2","7514","8","23","Male","","false","","","","","[619.2999999523163]","./assets/img/ocean/catch/7.jpg","[""spaceBar""]","value training","ocean","0","{""ArrowUp,ArrowLeft"":23,""ArrowUp,ArrowRight"":10,""ArrowDown,ArrowLeft"":8,""ArrowDown,ArrowRight"":30}","true","spaceBar","true","","","original","2","16","","",""
"html-keyboard-response","302","1257045","0.0-4.0-2.1-1.58","spark_pilot_2","7514","8","23","Male","","","","","","","null","<div style=""font-size:60px;"">+</div>","null","fixation","","","","","","","","","","","17","","",""
"revaluation","303","1261061","0.0-4.0-2.1-0.59","spark_pilot_2","7514","8","23","Male","","false","","","","","[605.6999998092651]","./assets/img/ocean/catch/2.jpg","[""spaceBar""]","value training","ocean","0","{""ArrowUp,ArrowLeft"":23,""ArrowUp,ArrowRight"":10,""ArrowDown,ArrowLeft"":8,""ArrowDown,ArrowRight"":30}","true","spaceBar","true","","","original","2","18","","",""
"html-keyboard-response","304","1261573","0.0-4.0-2.1-1.59","spark_pilot_2","7514","8","23","Male","","","","","","","null","<div style=""font-size:60px;"">+</div>","null","fixation","","","","","","","","","","","19","","",""
"revaluation","305","1267595","0.0-4.0-2.1-0.60","spark_pilot_2","7514","8","23","Male","","false","","","","","[796.2999999523163,491.89999985694885]","./assets/img/ocean/memory/39.jpg","[""ArrowDown"",""ArrowRight""]","value training","ocean","30","{""ArrowUp,ArrowLeft"":23,""ArrowUp,ArrowRight"":10,""ArrowDown,ArrowLeft"":8,""ArrowDown,ArrowRight"":30}","true","ArrowDown,ArrowRight","false","","","original","2","20","","",""
"html-keyboard-response","306","1268101","0.0-4.0-2.1-1.60","spark_pilot_2","7514","8","23","Male","","","","","","","null","<div style=""font-size:60px;"">+</div>","null","fixation","","","","","","","","","","","21","","",""
"revaluation","307","1274125","0.0-4.0-2.1-0.61","spark_pilot_2","7514","8","23","Male","","false","","","","","[1012.0999999046326,325.2000000476837]","./assets/img/ocean/memory/20.jpg","[""ArrowDown"",""ArrowRight""]","value training","ocean","30","{""ArrowUp,ArrowLeft"":23,""ArrowUp,ArrowRight"":10,""ArrowDown,ArrowLeft"":8,""ArrowDown,ArrowRight"":30}","true","ArrowDown,ArrowRight","false","","","original","2","22","","",""
"html-keyboard-response","308","1274634","0.0-4.0-2.1-1.61","spark_pilot_2","7514","8","23","Male","","","","","","","null","<div style=""font-size:60px;"">+</div>","null","fixation","","","","","","","","","","","23","","",""
