"trial_type","trial_index","time_elapsed","internal_node_id","task_version","subject_id","assigned_condition","age","gender","success","timeout","failed_images","failed_audio","failed_video","browser_interaction","rt","stimulus","response","task_part","environment","score","rewardMap","correct","fullState","isCatch","numberMissed","duration","condition","order","trial_num","key_press","ground_truth","bonus"
"pavlovia","0","1158","0.0-0.0","spark_pilot_2","7497","3","22","Male","","","","","","","","","","","","","","","","","","","","","","","",""
"preload","1","19389","0.0-1.0","spark_pilot_2","7497","3","22","Male","true","false","[]","[]","[]","[{""event"":""fullscreenenter"",""trial"":2,""time"":20764}]","","","","","","","","","","","","","","","","","",""
"fullscreen","2","21721","0.0-2.0","spark_pilot_2","7497","3","22","Male","true","","","","","","","","","","","","","","","","","","","","","","",""
"audio-button-response","3","23283","0.0-3.0-0.0-0.0","spark_pilot_2","7497","3","22","Male","","","","","","","1560","./assets/audio/audiotest/turtle.mp3","2","audio_test","","","","","","","","","","","","","",""
"learning-instructions","4","31187","0.0-3.0-1.0-0.0","spark_pilot_2","7497","3","22","Male","","","","","","","925.6000000089407","<p> Welcome! Please remember to stay in fullscreen mode and don't click away from the experiment. </p>","","instructions","","","","","","","","","","","","","",""
"learning-instructions","5","40250","0.0-3.0-1.0-0.1","spark_pilot_2","7497","3","22","Male","","","","","","","638.7999999970198","<p> Today you will be playing a game to earn treasure. </p>
            <p> At the end of the experiment, you will earn a bonus based on how much treasure you find. </p>
            <img src='./assets/img/instructions/treasure.jpg' class='instructions-image'>","","instructions","","","","","","","","","","","","","",""
"learning-instructions","6","50285","0.0-3.0-1.0-0.2","spark_pilot_2","7497","3","22","Male","","","","","","","1784.1000000089407","<p> Animals have hidden treasure in treasure chests. </p>
            <p> You need to first find an animal and then choose which of their treasure chests to search. </p>
            <img src='./assets/img/space/animals/cat.jpg' class='instructions-image'>","","instructions","","","","","","","","","","","","","",""
"learning-instructions","7","66440","0.0-3.0-1.0-0.3","spark_pilot_2","7497","3","22","Male","","","","","","","3019","<p> In each round, you will search for treasure in a different place. In the real game, there will be two rounds. </p>
            <p> You will begin with a separate, practice round where you will search for treasure in outer space. </p>
            <img src='./assets/img/space/0.jpg' class='instructions-image'>","","instructions","","","","","","","","","","","","","",""
"learning-instructions","8","93047","0.0-3.0-1.0-0.4","spark_pilot_2","7497","3","22","Male","","","","","","","15206.5","<p> On every turn, you will see a picture of the place that you are in, but the specific image may be different each time. </p>
            <p> For example, both of these images mean you are in outer space. </p>
            <img src='./assets/img/instructions/outerspace.jpg' class='instructions-image'>","","instructions","","","","","","","","","","","","","",""
"learning-instructions","9","112221","0.0-3.0-1.0-0.5","spark_pilot_2","7497","3","22","Male","","","","","","","11340","<p> You need to decide which direction to travel in. </p>
            <p> You can choose between going <b>up or down</b> by using the arrow keys. </p>
            <img src='./assets/img/instructions/updown.jpg' class='instructions-image'>","","instructions","","","","","","","","","","","","","",""
"learning-instructions","10","122314","0.0-3.0-1.0-0.6","spark_pilot_2","7497","3","22","Male","","","","","","","1283.4000000059605","<p> You will have <b>2 seconds</b> to make your choice. </p>
            <p> If you do not make a choice within 2 seconds, you will not find an animal or earn treasure. </p>
            <img src='./assets/img/instructions/2seconds.jpg' class='instructions-image'>","","instructions","","","","","","","","","","","","","",""
"learning-instructions","11","129998","0.0-3.0-1.0-0.7","spark_pilot_2","7497","3","22","Male","","","","","","","657.2000000029802","<p> Let’s try practicing that now! </p>
            <p> When you see a picture of the place you are in, press the <b>up</b> key to travel up. </p>
            <img src='./assets/img/instructions/pressUp.jpg' class='instructions-image'>","","instructions","","","","","","","","","","","","","",""
"revaluation","12","134023","0.0-3.0-2.0-0.0","spark_pilot_2","7497","3","22","Male","","false","","","","","[604.5]","./assets/img/space/0.jpg","[""ArrowUp""]","first stage practice","space","0","null","null","ArrowUp","false","","","","","","","",""
"html-keyboard-response","13","134524","0.0-3.0-2.0-1.0","spark_pilot_2","7497","3","22","Male","","","","","","","null","<div style=""font-size:60px;"">+</div>","null","fixation","","","","","","","","","","","","","",""
"revaluation","14","138533","0.0-3.0-2.0-0.1","spark_pilot_2","7497","3","22","Male","","false","","","","","[519.5]","./assets/img/space/1.jpg","[""ArrowUp""]","first stage practice","space","0","null","null","ArrowUp","false","","","","","","","",""
"html-keyboard-response","15","139044","0.0-3.0-2.0-1.1","spark_pilot_2","7497","3","22","Male","","","","","","","null","<div style=""font-size:60px;"">+</div>","null","fixation","","","","","","","","","","","","","",""
"revaluation","16","143062","0.0-3.0-2.0-0.2","spark_pilot_2","7497","3","22","Male","","false","","","","","[470.8999999910593]","./assets/img/space/2.jpg","[""ArrowUp""]","first stage practice","space","0","null","null","ArrowUp","false","","","","","","","",""
"html-keyboard-response","17","143562","0.0-3.0-2.0-1.2","spark_pilot_2","7497","3","22","Male","","","","","","","null","<div style=""font-size:60px;"">+</div>","null","fixation","","","","","","","","","","","","","",""
"learning-instructions","18","148806","0.0-3.0-3.0-0.0","spark_pilot_2","7497","3","22","Male","","","","","","","555","<p> Great job! Now try pressing the <b>down</b> key to travel down. </p>
            <img src='./assets/img/instructions/pressDown.jpg' class='instructions-image'>","","instructions","","","","","","","","","","","","","",""
"revaluation","19","152827","0.0-3.0-4.0-0.0","spark_pilot_2","7497","3","22","Male","","false","","","","","[471.29999999701977]","./assets/img/space/3.jpg","[""ArrowDown""]","first stage practice","space","0","null","null","ArrowDown","false","","","","","","","",""
"html-keyboard-response","20","153342","0.0-3.0-4.0-1.0","spark_pilot_2","7497","3","22","Male","","","","","","","null","<div style=""font-size:60px;"">+</div>","null","fixation","","","","","","","","","","","","","",""
"revaluation","21","157355","0.0-3.0-4.0-0.1","spark_pilot_2","7497","3","22","Male","","false","","","","","[400.29999999701977]","./assets/img/space/4.jpg","[""ArrowDown""]","first stage practice","space","0","null","null","ArrowDown","false","","","","","","","",""
"html-keyboard-response","22","157856","0.0-3.0-4.0-1.1","spark_pilot_2","7497","3","22","Male","","","","","","","null","<div style=""font-size:60px;"">+</div>","null","fixation","","","","","","","","","","","","","",""
"revaluation","23","161874","0.0-3.0-4.0-0.2","spark_pilot_2","7497","3","22","Male","","false","","","","","[880.1000000089407]","./assets/img/space/5.jpg","[""ArrowDown""]","first stage practice","space","0","null","null","ArrowDown","false","","","","","","","",""
"html-keyboard-response","24","162376","0.0-3.0-4.0-1.2","spark_pilot_2","7497","3","22","Male","","","","","","","null","<div style=""font-size:60px;"">+</div>","null","fixation","","","","","","","","","","","","","",""
"learning-instructions","25","173360","0.0-3.0-5.0-0.0","spark_pilot_2","7497","3","22","Male","","","","","","","1129.1000000089407","<p> The animals don’t move, so the animal in the upper part of a place will stay in the upper part of a place, and the animal in the lower part of a place will stay in the lower part of a place. </p>","","instructions","","","","","","","","","","","","","",""
"learning-instructions","26","183481","0.0-3.0-5.0-0.1","spark_pilot_2","7497","3","22","Male","","","","","","","981.0999999940395","<p> Each animal has two treasure chests for you to choose from. </p>
            <p> The amount of treasure in each chest can range from <b> 0 to 40 pieces.</b></p>","","instructions","","","","","","","","","","","","","",""
"learning-instructions","27","195549","0.0-3.0-5.0-0.2","spark_pilot_2","7497","3","22","Male","","","","","","","878.5999999940395","<p> You should decide which chest to search for treasure by using the <b>left</b> and <b>right</b> arrow keys. </p>
            <p><b> Pay attention to which animal is on the screen, as the animals have different treasure chests. </b></p>
            <img src='./assets/img/instructions/leftright.jpg' class='instructions-image'>","","instructions","","","","","","","","","","","","","",""
"learning-instructions","28","202332","0.0-3.0-5.0-0.3","spark_pilot_2","7497","3","22","Male","","","","","","","422.20000000298023","<p> Let’s try practicing that now. </p>
            <p> When you see an animal, choose which chest to search for treasure. </p>
            <img src='./assets/img/instructions/chooseChest.jpg' class='instructions-image'>","","instructions","","","","","","","","","","","","","",""
"revaluation","29","206346","0.0-3.0-6.0-0.0","spark_pilot_2","7497","3","22","Male","","false","","","","","[497.29999999701977]","./assets/img/space/animals/rabbit.jpg","[""ArrowLeft""]","second stage practice","space","15","{""ArrowUp,ArrowLeft"":3,""ArrowUp,ArrowRight"":36,""ArrowDown,ArrowLeft"":15,""ArrowDown,ArrowRight"":23}","false","ArrowDown,ArrowLeft","","","","","","","","",""
"html-keyboard-response","30","206855","0.0-3.0-6.0-1.0","spark_pilot_2","7497","3","22","Male","","","","","","","null","<div style=""font-size:60px;"">+</div>","null","fixation","","","","","","","","","","","","","",""
"revaluation","31","210882","0.0-3.0-6.0-0.1","spark_pilot_2","7497","3","22","Male","","false","","","","","[855.5999999940395]","./assets/img/space/animals/cat.jpg","[""ArrowRight""]","second stage practice","space","36","{""ArrowUp,ArrowLeft"":3,""ArrowUp,ArrowRight"":36,""ArrowDown,ArrowLeft"":15,""ArrowDown,ArrowRight"":23}","true","ArrowUp,ArrowRight","","","","","","","","",""
"html-keyboard-response","32","211392","0.0-3.0-6.0-1.1","spark_pilot_2","7497","3","22","Male","","","","","","","null","<div style=""font-size:60px;"">+</div>","null","fixation","","","","","","","","","","","","","",""
"revaluation","33","215407","0.0-3.0-6.0-0.2","spark_pilot_2","7497","3","22","Male","","false","","","","","[693.2999999970198]","./assets/img/space/animals/rabbit.jpg","[""ArrowLeft""]","second stage practice","space","15","{""ArrowUp,ArrowLeft"":3,""ArrowUp,ArrowRight"":36,""ArrowDown,ArrowLeft"":15,""ArrowDown,ArrowRight"":23}","false","ArrowDown,ArrowLeft","","","","","","","","",""
"html-keyboard-response","34","215915","0.0-3.0-6.0-1.2","spark_pilot_2","7497","3","22","Male","","","","","","","null","<div style=""font-size:60px;"">+</div>","null","fixation","","","","","","","","","","","","","",""
"revaluation","35","219926","0.0-3.0-6.0-0.3","spark_pilot_2","7497","3","22","Male","","false","","","","","[941.5999999940395]","./assets/img/space/animals/cat.jpg","[""ArrowRight""]","second stage practice","space","36","{""ArrowUp,ArrowLeft"":3,""ArrowUp,ArrowRight"":36,""ArrowDown,ArrowLeft"":15,""ArrowDown,ArrowRight"":23}","true","ArrowUp,ArrowRight","","","","","","","","",""
"html-keyboard-response","36","220439","0.0-3.0-6.0-1.3","spark_pilot_2","7497","3","22","Male","","","","","","","null","<div style=""font-size:60px;"">+</div>","null","fixation","","","","","","","","","","","","","",""
"learning-instructions","37","237954","0.0-3.0-7.0-0.0","spark_pilot_2","7497","3","22","Male","","","","","","","714.4000000059605","<p> Great job. Now let’s try putting it together. </p>
            <p> On each turn, you will first see a picture to remind you of the place you are in, and you need to choose whether to go up or down. </p>
            <p> Then you will see an animal and choose which of its chests to search for treasure. </p>","","instructions","","","","","","","","","","","","","",""
"learning-instructions","38","247742","0.0-3.0-7.0-0.1","spark_pilot_2","7497","3","22","Male","","","","","","","1522.5999999940395","<p> When you choose whether to go up or down, try to go to the animal with the chest with the most treasure. </p>
            <p> Try practicing that now! </p>","","instructions","","","","","","","","","","","","","",""
"revaluation","39","253754","0.0-3.0-8.0-0.0","spark_pilot_2","7497","3","22","Male","","false","","","","","[616.2999999970198,797.7999999970198]","./assets/img/space/6.jpg","[""ArrowDown"",""ArrowLeft""]","full practice","space","15","{""ArrowUp,ArrowLeft"":3,""ArrowUp,ArrowRight"":36,""ArrowDown,ArrowLeft"":15,""ArrowDown,ArrowRight"":23}","false","ArrowDown,ArrowLeft","false","","","","","","","",""
"html-keyboard-response","40","254266","0.0-3.0-8.0-1.0","spark_pilot_2","7497","3","22","Male","","","","","","","null","<div style=""font-size:60px;"">+</div>","null","fixation","","","","","","","","","","","","","",""
"revaluation","41","260293","0.0-3.0-8.0-0.1","spark_pilot_2","7497","3","22","Male","","false","","","","","[909.2000000029802,599.2000000029802]","./assets/img/space/7.jpg","[""ArrowUp"",""ArrowRight""]","full practice","space","36","{""ArrowUp,ArrowLeft"":3,""ArrowUp,ArrowRight"":36,""ArrowDown,ArrowLeft"":15,""ArrowDown,ArrowRight"":23}","true","ArrowUp,ArrowRight","false","","","","","","","",""
"html-keyboard-response","42","260802","0.0-3.0-8.0-1.1","spark_pilot_2","7497","3","22","Male","","","","","","","null","<div style=""font-size:60px;"">+</div>","null","fixation","","","","","","","","","","","","","",""
"revaluation","43","266811","0.0-3.0-8.0-0.2","spark_pilot_2","7497","3","22","Male","","false","","","","","[669.9000000059605,595.5999999940395]","./assets/img/space/8.jpg","[""ArrowUp"",""ArrowRight""]","full practice","space","36","{""ArrowUp,ArrowLeft"":3,""ArrowUp,ArrowRight"":36,""ArrowDown,ArrowLeft"":15,""ArrowDown,ArrowRight"":23}","true","ArrowUp,ArrowRight","false","","","","","","","",""
"html-keyboard-response","44","267312","0.0-3.0-8.0-1.2","spark_pilot_2","7497","3","22","Male","","","","","","","null","<div style=""font-size:60px;"">+</div>","null","fixation","","","","","","","","","","","","","",""
"revaluation","45","273324","0.0-3.0-8.0-0.3","spark_pilot_2","7497","3","22","Male","","false","","","","","[817.5999999940395,492.5]","./assets/img/space/9.jpg","[""ArrowUp"",""ArrowRight""]","full practice","space","36","{""ArrowUp,ArrowLeft"":3,""ArrowUp,ArrowRight"":36,""ArrowDown,ArrowLeft"":15,""ArrowDown,ArrowRight"":23}","true","ArrowUp,ArrowRight","false","","","","","","","",""
"html-keyboard-response","46","273837","0.0-3.0-8.0-1.3","spark_pilot_2","7497","3","22","Male","","","","","","","null","<div style=""font-size:60px;"">+</div>","null","fixation","","","","","","","","","","","","","",""
"revaluation","47","279854","0.0-3.0-8.0-0.4","spark_pilot_2","7497","3","22","Male","","false","","","","","[804.6999999880791,560.7000000029802]","./assets/img/space/10.jpg","[""ArrowUp"",""ArrowRight""]","full practice","space","36","{""ArrowUp,ArrowLeft"":3,""ArrowUp,ArrowRight"":36,""ArrowDown,ArrowLeft"":15,""ArrowDown,ArrowRight"":23}","true","ArrowUp,ArrowRight","false","","","","","","","",""
"html-keyboard-response","48","280356","0.0-3.0-8.0-1.4","spark_pilot_2","7497","3","22","Male","","","","","","","null","<div style=""font-size:60px;"">+</div>","null","fixation","","","","","","","","","","","","","",""
"learning-instructions","49","291957","0.0-3.0-9.0-0.0","spark_pilot_2","7497","3","22","Male","","","","","","","1297.2000000029802","<p> One last thing: sometimes, you will see a robber. The robber can be anywhere in the picture. </p>
            <p> If you do not stop them, you will lose treasure. </p>
            <img src='./assets/img/instructions/robber.jpg' class='instructions-image'>","","instructions","","","","","","","","","","","","","",""
"learning-instructions","50","299909","0.0-3.0-9.0-0.1","spark_pilot_2","7497","3","22","Male","","","","","","","778.5999999940395","<p> If you see the robber, you should <b>press the space bar</b> rather than using the arrow keys. </p>
            <p> Try practicing that now! </p>","","instructions","","","","","","","","","","","","","",""
"revaluation","51","303922","0.0-3.0-10.0-0.0","spark_pilot_2","7497","3","22","Male","","false","","","","","[937.3999999910593]","./assets/img/space/catch/0.jpg","[""spaceBar""]","catch practice","space","0","{""ArrowUp,ArrowLeft"":3,""ArrowUp,ArrowRight"":36,""ArrowDown,ArrowLeft"":15,""ArrowDown,ArrowRight"":23}","true","spaceBar","true","","","","","","","",""
"html-keyboard-response","52","304424","0.0-3.0-10.0-1.0","spark_pilot_2","7497","3","22","Male","","","","","","","null","<div style=""font-size:60px;"">+</div>","null","fixation","","","","","","","","","","","","","",""
"revaluation","53","308443","0.0-3.0-10.0-0.1","spark_pilot_2","7497","3","22","Male","","false","","","","","[889.1000000089407]","./assets/img/space/catch/1.jpg","[""spaceBar""]","catch practice","space","0","{""ArrowUp,ArrowLeft"":3,""ArrowUp,ArrowRight"":36,""ArrowDown,ArrowLeft"":15,""ArrowDown,ArrowRight"":23}","true","spaceBar","true","","","","","","","",""
"html-keyboard-response","54","308953","0.0-3.0-10.0-1.1","spark_pilot_2","7497","3","22","Male","","","","","","","null","<div style=""font-size:60px;"">+</div>","null","fixation","","","","","","","","","","","","","",""
"revaluation","55","312968","0.0-3.0-10.0-0.2","spark_pilot_2","7497","3","22","Male","","false","","","","","[968.2999999970198]","./assets/img/space/catch/2.jpg","[""spaceBar""]","catch practice","space","0","{""ArrowUp,ArrowLeft"":3,""ArrowUp,ArrowRight"":36,""ArrowDown,ArrowLeft"":15,""ArrowDown,ArrowRight"":23}","true","spaceBar","true","","","","","","","",""
"html-keyboard-response","56","313478","0.0-3.0-10.0-1.2","spark_pilot_2","7497","3","22","Male","","","","","","","null","<div style=""font-size:60px;"">+</div>","null","fixation","","","","","","","","","","","","","",""
"learning-instructions","57","327751","0.0-3.0-11.0-0.0","spark_pilot_2","7497","3","22","Male","","","","","","","690.7000000029802","<p> After you explore a place to find treasure, it will be time to play a different game. </p>
            <p> During this game, red dots will appear on the screen and fall down slowly. </p>
            <p><b> You must click on them before they reach the bottom. </b></p>
            <img src='./assets/img/instructions/dotGame.jpg' class='instructions-image'>","","instructions","","","","","","","","","","","","","",""
"learning-instructions","58","334861","0.0-3.0-11.0-0.1","spark_pilot_2","7497","3","22","Male","","","","","","","1440.9000000059605","<p> For every dot you click, you will earn additional treasure. </p>
            <p> Let’s try practicing that now. </p>","","instructions","","","","","","","","","","","","","",""
"revaluation","59","349867","0.0-3.0-12.0-0.0","spark_pilot_2","7497","3","22","Male","","","","","","","[65]","","","rest practice","","10","","","","","0","15000","","","","","",""
"learning-instructions","60","356411","0.0-3.0-13.0-0.0-0.0","spark_pilot_2","7497","3","22","Male","","","","","","","1300.9000000059605","<p> Now, you will practice a shortened version of the game to get a sense of how it all fits together. </p>","","instructions","","","","","","","","","","","","","",""
"learning-instructions","61","360084","0.0-3.0-13.0-0.0-0.1","spark_pilot_2","7497","3","22","Male","","","","","","","493.5","<p>This time you are searching for treasure in outer space.</p>","","instructions","","","","","","","","","","","","","",""
"learning-instructions","62","375576","0.0-3.0-13.0-1.0-0.0","spark_pilot_2","7497","3","22","Male","","","","","","","725.5","<p> Remember, when you see a picture of the place, use the up and down keys to <b>find an animal</b>.</p>
            <p> When you encounter an animal, you should use the left and right keys to <b>select a treasure chest</b>.</p>
            <p> Don't forget to look out for the robber! </p>","","instructions","","","","","","","","","","","","","",""
"revaluation","63","381612","0.0-3.0-13.0-2.0-0.0","spark_pilot_2","7497","3","22","Male","","false","","","","","[1620.6000000089407,1365.699999988079]","./assets/img/space/11.jpg","[""ArrowUp"",""ArrowRight""]","practice block","space","36","{""ArrowUp,ArrowLeft"":3,""ArrowUp,ArrowRight"":36,""ArrowDown,ArrowLeft"":15,""ArrowDown,ArrowRight"":23}","true","ArrowUp,ArrowRight","false","","","","","","","",""
"html-keyboard-response","64","382113","0.0-3.0-13.0-2.0-1.0","spark_pilot_2","7497","3","22","Male","","","","","","","null","<div style=""font-size:60px;"">+</div>","null","fixation","","","","","","","","","","","","","",""
"revaluation","65","388141","0.0-3.0-13.0-2.0-0.1","spark_pilot_2","7497","3","22","Male","","false","","","","","[1381.6000000089407,720.7000000029802]","./assets/img/space/12.jpg","[""ArrowDown"",""ArrowLeft""]","practice block","space","15","{""ArrowUp,ArrowLeft"":3,""ArrowUp,ArrowRight"":36,""ArrowDown,ArrowLeft"":15,""ArrowDown,ArrowRight"":23}","false","ArrowDown,ArrowLeft","false","","","","","","","",""
"html-keyboard-response","66","388651","0.0-3.0-13.0-2.0-1.1","spark_pilot_2","7497","3","22","Male","","","","","","","null","<div style=""font-size:60px;"">+</div>","null","fixation","","","","","","","","","","","","","",""
"revaluation","67","394673","0.0-3.0-13.0-2.0-0.2","spark_pilot_2","7497","3","22","Male","","false","","","","","[1036.7000000029802,971.7000000029802]","./assets/img/space/13.jpg","[""ArrowUp"",""ArrowRight""]","practice block","space","36","{""ArrowUp,ArrowLeft"":3,""ArrowUp,ArrowRight"":36,""ArrowDown,ArrowLeft"":15,""ArrowDown,ArrowRight"":23}","true","ArrowUp,ArrowRight","false","","","","","","","",""
"html-keyboard-response","68","395183","0.0-3.0-13.0-2.0-1.2","spark_pilot_2","7497","3","22","Male","","","","","","","null","<div style=""font-size:60px;"">+</div>","null","fixation","","","","","","","","","","","","","",""
"revaluation","69","401225","0.0-3.0-13.0-2.0-0.3","spark_pilot_2","7497","3","22","Male","","false","","","","","[1169,634.2000000029802]","./assets/img/space/14.jpg","[""ArrowUp"",""ArrowRight""]","practice block","space","36","{""ArrowUp,ArrowLeft"":3,""ArrowUp,ArrowRight"":36,""ArrowDown,ArrowLeft"":15,""ArrowDown,ArrowRight"":23}","true","ArrowUp,ArrowRight","false","","","","","","","",""
"html-keyboard-response","70","401738","0.0-3.0-13.0-2.0-1.3","spark_pilot_2","7497","3","22","Male","","","","","","","null","<div style=""font-size:60px;"">+</div>","null","fixation","","","","","","","","","","","","","",""
"revaluation","71","407751","0.0-3.0-13.0-2.0-0.4","spark_pilot_2","7497","3","22","Male","","false","","","","","[1151.5999999940395,1055.4000000059605]","./assets/img/space/11.jpg","[""ArrowUp"",""ArrowRight""]","practice block","space","36","{""ArrowUp,ArrowLeft"":3,""ArrowUp,ArrowRight"":36,""ArrowDown,ArrowLeft"":15,""ArrowDown,ArrowRight"":23}","true","ArrowUp,ArrowRight","false","","","","","","","",""
"html-keyboard-response","72","408252","0.0-3.0-13.0-2.0-1.4","spark_pilot_2","7497","3","22","Male","","","","","","","null","<div style=""font-size:60px;"">+</div>","null","fixation","","","","","","","","","","","","","",""
"revaluation","73","414258","0.0-3.0-13.0-2.0-0.5","spark_pilot_2","7497","3","22","Male","","false","","","","","[1094.7000000029802,437.90000000596046]","./assets/img/space/12.jpg","[""ArrowUp"",""ArrowRight""]","practice block","space","36","{""ArrowUp,ArrowLeft"":3,""ArrowUp,ArrowRight"":36,""ArrowDown,ArrowLeft"":15,""ArrowDown,ArrowRight"":23}","true","ArrowUp,ArrowRight","false","","","","","","","",""
"html-keyboard-response","74","414759","0.0-3.0-13.0-2.0-1.5","spark_pilot_2","7497","3","22","Male","","","","","","","null","<div style=""font-size:60px;"">+</div>","null","fixation","","","","","","","","","","","","","",""
"revaluation","75","420764","0.0-3.0-13.0-2.0-0.6","spark_pilot_2","7497","3","22","Male","","false","","","","","[1004.7000000029802,404.8999999910593]","./assets/img/space/13.jpg","[""ArrowUp"",""ArrowRight""]","practice block","space","36","{""ArrowUp,ArrowLeft"":3,""ArrowUp,ArrowRight"":36,""ArrowDown,ArrowLeft"":15,""ArrowDown,ArrowRight"":23}","true","ArrowUp,ArrowRight","false","","","","","","","",""
"html-keyboard-response","76","421266","0.0-3.0-13.0-2.0-1.6","spark_pilot_2","7497","3","22","Male","","","","","","","null","<div style=""font-size:60px;"">+</div>","null","fixation","","","","","","","","","","","","","",""
"revaluation","77","427271","0.0-3.0-13.0-2.0-0.7","spark_pilot_2","7497","3","22","Male","","false","","","","","[867,1059.2999999970198]","./assets/img/space/14.jpg","[""ArrowUp"",""ArrowRight""]","practice block","space","36","{""ArrowUp,ArrowLeft"":3,""ArrowUp,ArrowRight"":36,""ArrowDown,ArrowLeft"":15,""ArrowDown,ArrowRight"":23}","true","ArrowUp,ArrowRight","false","","","","","","","",""
"html-keyboard-response","78","427771","0.0-3.0-13.0-2.0-1.7","spark_pilot_2","7497","3","22","Male","","","","","","","null","<div style=""font-size:60px;"">+</div>","null","fixation","","","","","","","","","","","","","",""
"revaluation","79","431775","0.0-3.0-13.0-2.0-0.8","spark_pilot_2","7497","3","22","Male","","false","","","","","[610.7000000029802]","./assets/img/space/catch/3.jpg","[""spaceBar""]","practice block","space","0","{""ArrowUp,ArrowLeft"":3,""ArrowUp,ArrowRight"":36,""ArrowDown,ArrowLeft"":15,""ArrowDown,ArrowRight"":23}","true","spaceBar","true","","","","","","","",""
"html-keyboard-response","80","432275","0.0-3.0-13.0-2.0-1.8","spark_pilot_2","7497","3","22","Male","","","","","","","null","<div style=""font-size:60px;"">+</div>","null","fixation","","","","","","","","","","","","","",""
"learning-instructions","81","446061","0.0-3.0-13.0-3.0-0.0","spark_pilot_2","7497","3","22","Male","","","","","","","870.6999999880791","<p> Now, you will travel with a friend who will choose whether you go up or down first. </p>
            <p> On these turns, you will just see the animal that they found. You will still get to choose which chest to search for treasure.</p>","","instructions","","","","","","","","","","","","","",""
"revaluation","82","450079","0.0-3.0-13.0-4.0-0.0","spark_pilot_2","7497","3","22","Male","","false","","","","","[1668.5]","./assets/img/space/animals/rabbit.jpg","[""ArrowRight""]","practice block","space","23","{""ArrowUp,ArrowLeft"":3,""ArrowUp,ArrowRight"":36,""ArrowDown,ArrowLeft"":15,""ArrowDown,ArrowRight"":23}","true","ArrowDown,ArrowRight","","","","","","","","",""
"html-keyboard-response","83","450594","0.0-3.0-13.0-4.0-1.0","spark_pilot_2","7497","3","22","Male","","","","","","","null","<div style=""font-size:60px;"">+</div>","null","fixation","","","","","","","","","","","","","",""
"revaluation","84","454617","0.0-3.0-13.0-4.0-0.1","spark_pilot_2","7497","3","22","Male","","false","","","","","[1015.2000000029802]","./assets/img/space/animals/rabbit.jpg","[""ArrowLeft""]","practice block","space","15","{""ArrowUp,ArrowLeft"":3,""ArrowUp,ArrowRight"":36,""ArrowDown,ArrowLeft"":15,""ArrowDown,ArrowRight"":23}","false","ArrowDown,ArrowLeft","","","","","","","","",""
"html-keyboard-response","85","455127","0.0-3.0-13.0-4.0-1.1","spark_pilot_2","7497","3","22","Male","","","","","","","null","<div style=""font-size:60px;"">+</div>","null","fixation","","","","","","","","","","","","","",""
"revaluation","86","459145","0.0-3.0-13.0-4.0-0.2","spark_pilot_2","7497","3","22","Male","","false","","","","","[684]","./assets/img/space/animals/cat.jpg","[""ArrowRight""]","practice block","space","36","{""ArrowUp,ArrowLeft"":3,""ArrowUp,ArrowRight"":36,""ArrowDown,ArrowLeft"":15,""ArrowDown,ArrowRight"":23}","true","ArrowUp,ArrowRight","","","","","","","","",""
"html-keyboard-response","87","459656","0.0-3.0-13.0-4.0-1.2","spark_pilot_2","7497","3","22","Male","","","","","","","null","<div style=""font-size:60px;"">+</div>","null","fixation","","","","","","","","","","","","","",""
"revaluation","88","463680","0.0-3.0-13.0-4.0-0.3","spark_pilot_2","7497","3","22","Male","","false","","","","","[650.7999999970198]","./assets/img/space/animals/cat.jpg","[""ArrowRight""]","practice block","space","36","{""ArrowUp,ArrowLeft"":3,""ArrowUp,ArrowRight"":36,""ArrowDown,ArrowLeft"":15,""ArrowDown,ArrowRight"":23}","true","ArrowUp,ArrowRight","","","","","","","","",""
"html-keyboard-response","89","464190","0.0-3.0-13.0-4.0-1.3","spark_pilot_2","7497","3","22","Male","","","","","","","null","<div style=""font-size:60px;"">+</div>","null","fixation","","","","","","","","","","","","","",""
"learning-instructions","90","473149","0.0-3.0-13.0-5.0-0.0","spark_pilot_2","7497","3","22","Male","","","","","","","1598.3999999910593","<p> Time to play the dot game! </p>
            <p> For 15 seconds, click the red dots on the following screen as they appear. </p>","","instructions","","","","","","","","","","","","","",""
"revaluation","91","488153","0.0-3.0-13.0-6.0-0.0","spark_pilot_2","7497","3","22","Male","","","","","","","[65]","","","rest practice","","10","","","","","0","15000","","","","","",""
"learning-instructions","92","494791","0.0-3.0-13.0-7.0-0.0","spark_pilot_2","7497","3","22","Male","","","","","","","521.2000000029802","<p> You have almost finished this part of the game! </p>
            <p> We are going to ask you to make a few more choices. </p>","","instructions","","","","","","","","","","","","","",""
"learning-instructions","93","510382","0.0-3.0-13.0-7.0-0.1","spark_pilot_2","7497","3","22","Male","","","","","","","1591.2999999970198","<p> First, you need to decide whether to go up or down. When you see each picture, use the arrow keys to make your choice. </p>
            <p><b>You will not see which animal you found, but try to get to the one that will give you the most treasure.</b></p>","","instructions","","","","","","","","","","","","","",""
"revaluation","94","511814","0.0-3.0-13.0-8.0","spark_pilot_2","7497","3","22","Male","","false","","","","","[1430.2000000029802]","./assets/img/space/15.jpg","[""ArrowUp""]","practice block","space","0","{""ArrowUp,ArrowLeft"":3,""ArrowUp,ArrowRight"":36,""ArrowDown,ArrowLeft"":15,""ArrowDown,ArrowRight"":23}","true","ArrowUp","false","","","","","","","",""
"html-keyboard-response","95","512323","0.0-3.0-13.0-9.0","spark_pilot_2","7497","3","22","Male","","","","","","","null","<div style=""font-size:60px;"">+</div>","null","fixation","","","","","","","","","","","","","",""
"learning-instructions","96","524419","0.0-3.0-13.0-10.0-0.0","spark_pilot_2","7497","3","22","Male","","","","","","","718.2999999970198","<p> Now you will see the animals again and can search their chests for treasure. </p>
            <p> This time, you will not see how much treasure you earned, but you will earn more bonus money for making better choices. </p>","","instructions","","","","","","","","","","","","","",""
"revaluation","97","525641","0.0-3.0-13.0-11.0-0.0","spark_pilot_2","7497","3","22","Male","","false","","","","","[1220.0999999940395]","./assets/img/space/animals/cat.jpg","[""ArrowRight""]","practice block","space","0","{""ArrowUp,ArrowLeft"":3,""ArrowUp,ArrowRight"":36,""ArrowDown,ArrowLeft"":15,""ArrowDown,ArrowRight"":23}","true","ArrowUp,ArrowRight","","","","","","","","",""
"html-keyboard-response","98","526144","0.0-3.0-13.0-11.0-1.0","spark_pilot_2","7497","3","22","Male","","","","","","","null","<div style=""font-size:60px;"">+</div>","null","fixation","","","","","","","","","","","","","",""
"revaluation","99","527113","0.0-3.0-13.0-11.0-0.1","spark_pilot_2","7497","3","22","Male","","false","","","","","[966.8999999910593]","./assets/img/space/animals/rabbit.jpg","[""ArrowRight""]","practice block","space","0","{""ArrowUp,ArrowLeft"":3,""ArrowUp,ArrowRight"":36,""ArrowDown,ArrowLeft"":15,""ArrowDown,ArrowRight"":23}","true","ArrowDown,ArrowRight","","","","","","","","",""
"html-keyboard-response","100","527623","0.0-3.0-13.0-11.0-1.1","spark_pilot_2","7497","3","22","Male","","","","","","","null","<div style=""font-size:60px;"">+</div>","null","fixation","","","","","","","","","","","","","",""
"learning-instructions","101","533360","0.0-3.0-14.0-0.0","spark_pilot_2","7497","3","22","Male","","","","","","","1159.6000000089407","<p> Before you start, we're going to ask you a few questions about how the game works. </p>","","instructions","","","","","","","","","","","","","",""
"comp-q","102","539775","0.0-3.0-15.0-0.0-0.0","spark_pilot_2","7497","3","22","Male","","","","","","","832.4000000059605","<p> <b> True or False? </b> </p>
            <p> There can be 50 pieces of treasure in a given animal's chest. </p>","1","comp_question","","","","true","","","","","","","","","",""
"comp-q","103","547400","0.0-3.0-15.0-0.0-1.0","spark_pilot_2","7497","3","22","Male","","","","","","","969.9000000059605","<p> <b> That's right! </b> The amount of treasure in each chest can range from 0 to 40 pieces. </p>","0","comp_answer","","","","","","","","","","","","","",""
"comp-q","104","555239","0.0-3.0-15.0-0.1-0.1","spark_pilot_2","7497","3","22","Male","","","","","","","729.2999999970198","<p> <b> True or False? </b> </p><p> In this game, all animals have the same amount of treasure in their left and right chests. </p>","1","comp_question","","","","true","","","","","","","","","",""
"comp-q","105","561536","0.0-3.0-15.0-0.1-1.1","spark_pilot_2","7497","3","22","Male","","","","","","","1076.2999999970198","<p> <b> That's right! </b> Animals have different amounts of treasure in their treasure chests. </p>","0","comp_answer","","","","","","","","","","","","","",""
"comp-q","106","568210","0.0-3.0-15.0-0.2-0.2","spark_pilot_2","7497","3","22","Male","","","","","","","819.5999999940395","<p> <b> True or False? </b> </p><p> The same animal will always be there if you go up in the same place. </p>","0","comp_question","","","","true","","","","","","","","","",""
"comp-q","107","576053","0.0-3.0-15.0-0.2-1.2","spark_pilot_2","7497","3","22","Male","","","","","","","1413.0999999940395","<p> <b> That's right! </b> One animal lives in the upper part and one lives in the lower part of every place. </p>","0","comp_answer","","","","","","","","","","","","","",""
"comp-q","108","582286","0.0-3.0-15.0-0.3-0.3","spark_pilot_2","7497","3","22","Male","","","","","","","706.1000000089407","<p> <b> True or False? </b> </p><p> If you see a different picture, it means you are in a new place. </p>","0","comp_question","","","","false","","","","","","","","","",""
"comp-q","109","594020","0.0-3.0-15.0-0.3-1.3","spark_pilot_2","7497","3","22","Male","","","","","","","639.9000000059605","<p> <b>Incorrect.</b> Lots of different images may show the same place. For example,  you may see three different images that all remind you that you are in outer space. </p>","0","comp_answer","","","","","","","","","","","","","",""
"comp-q","110","604188","0.0-3.0-15.0-0.4-0.4","spark_pilot_2","7497","3","22","Male","","","","","","","4667.79999999702","<p> <b> True or False? </b> </p><p> If you see a different picture, it means you are in a new place. </p>","1","comp_question","","","","true","","","","","","","","","",""
"comp-q","111","616421","0.0-3.0-15.0-0.4-1.4","spark_pilot_2","7497","3","22","Male","","","","","","","1020.2000000029802","<p> <b> That's right! </b> Lots of different images may show the same place. For example,  you may see three different images that all remind you that you are in outer space. </p>","0","comp_answer","","","","","","","","","","","","","",""
"learning-instructions","112","627111","0.0-3.0-16.0-0.0","spark_pilot_2","7497","3","22","Male","","","","","","","840.1999999880791","<p> Good job. Remember to do your best because the amount of treasure you earn will be converted into bonus money. </p>
            <p> It’s time to start the real game! </p>","","instructions","","","","","","","","","","","","","",""
"learning-instructions","113","630654","0.0-4.0-0.0-0.0","spark_pilot_2","7497","3","22","Male","","","","","","","832.7999999970198","<p> This time you are searching for treasure in the <b>ocean</b>.</p>","","instructions","","","","","","","","","","","","","",""
"learning-instructions","114","649693","0.0-4.0-0.0-0.1","spark_pilot_2","7497","3","22","Male","","","","","","","1752.4000000059605","<p><b>New</b> animals with <b>new</b> treasure chests live here. You need to explore to discover where the animal with the best treasure chest is.</p>
                    <p> Like before, once you figure out which animal has the chest with the most treasure, you should try to get to that animal and select that chest! </p>","","instructions","","","","","","","","","","","","","",""
"learning-instructions","115","665323","0.0-4.0-1.0-0.0","spark_pilot_2","7497","3","22","Male","","","","","","","902.4000000059605","<p> Remember, when you see a picture of the place, use the up and down keys to <b>find an animal</b>.</p>
            <p> When you encounter an animal, you should use the left and right keys to <b>select a treasure chest</b>.</p>
            <p> Don't forget to look out for the robber! </p>","","instructions","","","","","","","","","","","","","",""
"revaluation","116","671341","0.0-4.0-2.0-0.0","spark_pilot_2","7497","3","22","Male","","false","","","","","[1372.2000000029802,1242.6000000089407]","./assets/img/ocean/memory/32.jpg","[""ArrowUp"",""ArrowRight""]","value training","ocean","10","{""ArrowUp,ArrowLeft"":23,""ArrowUp,ArrowRight"":10,""ArrowDown,ArrowLeft"":8,""ArrowDown,ArrowRight"":30}","false","ArrowUp,ArrowRight","false","","","original","1","0","","",""
"html-keyboard-response","117","671850","0.0-4.0-2.0-1.0","spark_pilot_2","7497","3","22","Male","","","","","","","null","<div style=""font-size:60px;"">+</div>","null","fixation","","","","","","","","","","","1","","",""
"revaluation","118","675868","0.0-4.0-2.0-0.1","spark_pilot_2","7497","3","22","Male","","false","","","","","[845.5]","./assets/img/ocean/catch/0.jpg","[""spaceBar""]","value training","ocean","0","{""ArrowUp,ArrowLeft"":23,""ArrowUp,ArrowRight"":10,""ArrowDown,ArrowLeft"":8,""ArrowDown,ArrowRight"":30}","true","spaceBar","true","","","original","1","2","","",""
"html-keyboard-response","119","676380","0.0-4.0-2.0-1.1","spark_pilot_2","7497","3","22","Male","","","","","","","null","<div style=""font-size:60px;"">+</div>","null","fixation","","","","","","","","","","","3","","",""
"revaluation","120","682405","0.0-4.0-2.0-0.2","spark_pilot_2","7497","3","22","Male","","false","","","","","[876,727.7000000029802]","./assets/img/ocean/memory/20.jpg","[""ArrowDown"",""ArrowLeft""]","value training","ocean","8","{""ArrowUp,ArrowLeft"":23,""ArrowUp,ArrowRight"":10,""ArrowDown,ArrowLeft"":8,""ArrowDown,ArrowRight"":30}","false","ArrowDown,ArrowLeft","false","","","original","1","4","","",""
"html-keyboard-response","121","682916","0.0-4.0-2.0-1.2","spark_pilot_2","7497","3","22","Male","","","","","","","null","<div style=""font-size:60px;"">+</div>","null","fixation","","","","","","","","","","","5","","",""
"revaluation","122","688952","0.0-4.0-2.0-0.3","spark_pilot_2","7497","3","22","Male","","false","","","","","[773.7000000029802,638.7000000029802]","./assets/img/ocean/memory/35.jpg","[""ArrowUp"",""ArrowLeft""]","value training","ocean","23","{""ArrowUp,ArrowLeft"":23,""ArrowUp,ArrowRight"":10,""ArrowDown,ArrowLeft"":8,""ArrowDown,ArrowRight"":30}","false","ArrowUp,ArrowLeft","false","","","original","1","6","","",""
"html-keyboard-response","123","689461","0.0-4.0-2.0-1.3","spark_pilot_2","7497","3","22","Male","","","","","","","null","<div style=""font-size:60px;"">+</div>","null","fixation","","","","","","","","","","","7","","",""
"revaluation","124","695481","0.0-4.0-2.0-0.4","spark_pilot_2","7497","3","22","Male","","false","","","","","[845.7999999970198,457.70000000298023]","./assets/img/ocean/memory/19.jpg","[""ArrowUp"",""ArrowLeft""]","value training","ocean","23","{""ArrowUp,ArrowLeft"":23,""ArrowUp,ArrowRight"":10,""ArrowDown,ArrowLeft"":8,""ArrowDown,ArrowRight"":30}","false","ArrowUp,ArrowLeft","false","","","original","1","8","","",""
"html-keyboard-response","125","695982","0.0-4.0-2.0-1.4","spark_pilot_2","7497","3","22","Male","","","","","","","null","<div style=""font-size:60px;"">+</div>","null","fixation","","","","","","","","","","","9","","",""
"revaluation","126","699986","0.0-4.0-2.0-0.5","spark_pilot_2","7497","3","22","Male","","false","","","","","[942.2999999970198]","./assets/img/ocean/catch/1.jpg","[""spaceBar""]","value training","ocean","0","{""ArrowUp,ArrowLeft"":23,""ArrowUp,ArrowRight"":10,""ArrowDown,ArrowLeft"":8,""ArrowDown,ArrowRight"":30}","true","spaceBar","true","","","original","1","10","","",""
"html-keyboard-response","127","700487","0.0-4.0-2.0-1.5","spark_pilot_2","7497","3","22","Male","","","","","","","null","<div style=""font-size:60px;"">+</div>","null","fixation","","","","","","","","","","","11","","",""
"revaluation","128","706493","0.0-4.0-2.0-0.6","spark_pilot_2","7497","3","22","Male","","false","","","","","[749.2000000029802,548.5999999940395]","./assets/img/ocean/memory/36.jpg","[""ArrowUp"",""ArrowLeft""]","value training","ocean","23","{""ArrowUp,ArrowLeft"":23,""ArrowUp,ArrowRight"":10,""ArrowDown,ArrowLeft"":8,""ArrowDown,ArrowRight"":30}","false","ArrowUp,ArrowLeft","false","","","original","1","12","","",""
"html-keyboard-response","129","706995","0.0-4.0-2.0-1.6","spark_pilot_2","7497","3","22","Male","","","","","","","null","<div style=""font-size:60px;"">+</div>","null","fixation","","","","","","","","","","","13","","",""
"revaluation","130","713000","0.0-4.0-2.0-0.7","spark_pilot_2","7497","3","22","Male","","false","","","","","[1139.0999999940395,458.70000000298023]","./assets/img/ocean/memory/29.jpg","[""ArrowUp"",""ArrowLeft""]","value training","ocean","23","{""ArrowUp,ArrowLeft"":23,""ArrowUp,ArrowRight"":10,""ArrowDown,ArrowLeft"":8,""ArrowDown,ArrowRight"":30}","false","ArrowUp,ArrowLeft","false","","","original","1","14","","",""
"html-keyboard-response","131","713502","0.0-4.0-2.0-1.7","spark_pilot_2","7497","3","22","Male","","","","","","","null","<div style=""font-size:60px;"">+</div>","null","fixation","","","","","","","","","","","15","","",""
"revaluation","132","719506","0.0-4.0-2.0-0.8","spark_pilot_2","7497","3","22","Male","","false","","","","","[561.7999999970198,377.79999999701977]","./assets/img/ocean/memory/25.jpg","[""ArrowUp"",""ArrowLeft""]","value training","ocean","23","{""ArrowUp,ArrowLeft"":23,""ArrowUp,ArrowRight"":10,""ArrowDown,ArrowLeft"":8,""ArrowDown,ArrowRight"":30}","false","ArrowUp,ArrowLeft","false","","","original","1","16","","",""
"html-keyboard-response","133","720007","0.0-4.0-2.0-1.8","spark_pilot_2","7497","3","22","Male","","","","","","","null","<div style=""font-size:60px;"">+</div>","null","fixation","","","","","","","","","","","17","","",""
"revaluation","134","726013","0.0-4.0-2.0-0.9","spark_pilot_2","7497","3","22","Male","","false","","","","","[920.6999999880791,375.29999999701977]","./assets/img/ocean/memory/7.jpg","[""ArrowDown"",""ArrowRight""]","value training","ocean","30","{""ArrowUp,ArrowLeft"":23,""ArrowUp,ArrowRight"":10,""ArrowDown,ArrowLeft"":8,""ArrowDown,ArrowRight"":30}","true","ArrowDown,ArrowRight","false","","","original","1","18","","",""
"html-keyboard-response","135","726515","0.0-4.0-2.0-1.9","spark_pilot_2","7497","3","22","Male","","","","","","","null","<div style=""font-size:60px;"">+</div>","null","fixation","","","","","","","","","","","19","","",""
"revaluation","136","732519","0.0-4.0-2.0-0.10","spark_pilot_2","7497","3","22","Male","","false","","","","","[1064.1000000089407,399.5]","./assets/img/ocean/memory/0.jpg","[""ArrowDown"",""ArrowRight""]","value training","ocean","30","{""ArrowUp,ArrowLeft"":23,""ArrowUp,ArrowRight"":10,""ArrowDown,ArrowLeft"":8,""ArrowDown,ArrowRight"":30}","true","ArrowDown,ArrowRight","false","","","original","1","20","","",""
"html-keyboard-response","137","733020","0.0-4.0-2.0-1.10","spark_pilot_2","7497","3","22","Male","","","","","","","null","<div style=""font-size:60px;"">+</div>","null","fixation","","","","","","","","","","","21","","",""
"revaluation","138","739025","0.0-4.0-2.0-0.11","spark_pilot_2","7497","3","22","Male","","false","","","","","[1070.5,454.5]","./assets/img/ocean/memory/30.jpg","[""ArrowDown"",""ArrowRight""]","value training","ocean","30","{""ArrowUp,ArrowLeft"":23,""ArrowUp,ArrowRight"":10,""ArrowDown,ArrowLeft"":8,""ArrowDown,ArrowRight"":30}","true","ArrowDown,ArrowRight","false","","","original","1","22","","",""
"html-keyboard-response","139","739526","0.0-4.0-2.0-1.11","spark_pilot_2","7497","3","22","Male","","","","","","","null","<div style=""font-size:60px;"">+</div>","null","fixation","","","","","","","","","","","23","","",""
"revaluation","140","745533","0.0-4.0-2.0-0.12","spark_pilot_2","7497","3","22","Male","","false","","","","","[709.7000000029802,451.5]","./assets/img/ocean/memory/11.jpg","[""ArrowDown"",""ArrowRight""]","value training","ocean","30","{""ArrowUp,ArrowLeft"":23,""ArrowUp,ArrowRight"":10,""ArrowDown,ArrowLeft"":8,""ArrowDown,ArrowRight"":30}","true","ArrowDown,ArrowRight","false","","","original","1","24","","",""
"html-keyboard-response","141","746035","0.0-4.0-2.0-1.12","spark_pilot_2","7497","3","22","Male","","","","","","","null","<div style=""font-size:60px;"">+</div>","null","fixation","","","","","","","","","","","25","","",""
"revaluation","142","752040","0.0-4.0-2.0-0.13","spark_pilot_2","7497","3","22","Male","","false","","","","","[586.2000000029802,258.40000000596046]","./assets/img/ocean/memory/34.jpg","[""ArrowDown"",""ArrowRight""]","value training","ocean","30","{""ArrowUp,ArrowLeft"":23,""ArrowUp,ArrowRight"":10,""ArrowDown,ArrowLeft"":8,""ArrowDown,ArrowRight"":30}","true","ArrowDown,ArrowRight","false","","","original","1","26","","",""
"html-keyboard-response","143","752542","0.0-4.0-2.0-1.13","spark_pilot_2","7497","3","22","Male","","","","","","","null","<div style=""font-size:60px;"">+</div>","null","fixation","","","","","","","","","","","27","","",""
"revaluation","144","756546","0.0-4.0-2.0-0.14","spark_pilot_2","7497","3","22","Male","","false","","","","","[704.2000000029802]","./assets/img/ocean/catch/3.jpg","[""spaceBar""]","value training","ocean","0","{""ArrowUp,ArrowLeft"":23,""ArrowUp,ArrowRight"":10,""ArrowDown,ArrowLeft"":8,""ArrowDown,ArrowRight"":30}","true","spaceBar","true","","","original","1","28","","",""
"html-keyboard-response","145","757048","0.0-4.0-2.0-1.14","spark_pilot_2","7497","3","22","Male","","","","","","","null","<div style=""font-size:60px;"">+</div>","null","fixation","","","","","","","","","","","29","","",""
"revaluation","146","763053","0.0-4.0-2.0-0.15","spark_pilot_2","7497","3","22","Male","","false","","","","","[687.2000000029802,383.09999999403954]","./assets/img/ocean/memory/34.jpg","[""ArrowDown"",""ArrowRight""]","value training","ocean","30","{""ArrowUp,ArrowLeft"":23,""ArrowUp,ArrowRight"":10,""ArrowDown,ArrowLeft"":8,""ArrowDown,ArrowRight"":30}","true","ArrowDown,ArrowRight","false","","","original","1","30","","",""
"html-keyboard-response","147","763555","0.0-4.0-2.0-1.15","spark_pilot_2","7497","3","22","Male","","","","","","","null","<div style=""font-size:60px;"">+</div>","null","fixation","","","","","","","","","","","31","","",""
"revaluation","148","769561","0.0-4.0-2.0-0.16","spark_pilot_2","7497","3","22","Male","","false","","","","","[1197.5,461.09999999403954]","./assets/img/ocean/memory/13.jpg","[""ArrowDown"",""ArrowRight""]","value training","ocean","30","{""ArrowUp,ArrowLeft"":23,""ArrowUp,ArrowRight"":10,""ArrowDown,ArrowLeft"":8,""ArrowDown,ArrowRight"":30}","true","ArrowDown,ArrowRight","false","","","original","1","32","","",""
"html-keyboard-response","149","770062","0.0-4.0-2.0-1.16","spark_pilot_2","7497","3","22","Male","","","","","","","null","<div style=""font-size:60px;"">+</div>","null","fixation","","","","","","","","","","","33","","",""
"revaluation","150","776067","0.0-4.0-2.0-0.17","spark_pilot_2","7497","3","22","Male","","false","","","","","[587.5999999940395,323.69999998807907]","./assets/img/ocean/memory/23.jpg","[""ArrowDown"",""ArrowRight""]","value training","ocean","30","{""ArrowUp,ArrowLeft"":23,""ArrowUp,ArrowRight"":10,""ArrowDown,ArrowLeft"":8,""ArrowDown,ArrowRight"":30}","true","ArrowDown,ArrowRight","false","","","original","1","34","","",""
"html-keyboard-response","151","776569","0.0-4.0-2.0-1.17","spark_pilot_2","7497","3","22","Male","","","","","","","null","<div style=""font-size:60px;"">+</div>","null","fixation","","","","","","","","","","","35","","",""
"revaluation","152","782574","0.0-4.0-2.0-0.18","spark_pilot_2","7497","3","22","Male","","false","","","","","[618.2000000029802,248.90000000596046]","./assets/img/ocean/memory/11.jpg","[""ArrowDown"",""ArrowRight""]","value training","ocean","30","{""ArrowUp,ArrowLeft"":23,""ArrowUp,ArrowRight"":10,""ArrowDown,ArrowLeft"":8,""ArrowDown,ArrowRight"":30}","true","ArrowDown,ArrowRight","false","","","original","1","36","","",""
"html-keyboard-response","153","783075","0.0-4.0-2.0-1.18","spark_pilot_2","7497","3","22","Male","","","","","","","null","<div style=""font-size:60px;"">+</div>","null","fixation","","","","","","","","","","","37","","",""
"revaluation","154","787079","0.0-4.0-2.0-0.19","spark_pilot_2","7497","3","22","Male","","false","","","","","[681.2000000029802]","./assets/img/ocean/catch/7.jpg","[""spaceBar""]","value training","ocean","0","{""ArrowUp,ArrowLeft"":23,""ArrowUp,ArrowRight"":10,""ArrowDown,ArrowLeft"":8,""ArrowDown,ArrowRight"":30}","true","spaceBar","true","","","original","1","38","","",""
"html-keyboard-response","155","787580","0.0-4.0-2.0-1.19","spark_pilot_2","7497","3","22","Male","","","","","","","null","<div style=""font-size:60px;"">+</div>","null","fixation","","","","","","","","","","","39","","",""
"revaluation","156","793586","0.0-4.0-2.0-0.20","spark_pilot_2","7497","3","22","Male","","false","","","","","[648.4000000059605,351.5]","./assets/img/ocean/memory/35.jpg","[""ArrowDown"",""ArrowRight""]","value training","ocean","30","{""ArrowUp,ArrowLeft"":23,""ArrowUp,ArrowRight"":10,""ArrowDown,ArrowLeft"":8,""ArrowDown,ArrowRight"":30}","true","ArrowDown,ArrowRight","false","","","original","1","40","","",""
"html-keyboard-response","157","794088","0.0-4.0-2.0-1.20","spark_pilot_2","7497","3","22","Male","","","","","","","null","<div style=""font-size:60px;"">+</div>","null","fixation","","","","","","","","","","","41","","",""
"revaluation","158","800092","0.0-4.0-2.0-0.21","spark_pilot_2","7497","3","22","Male","","false","","","","","[750.2999999970198,332.19999998807907]","./assets/img/ocean/memory/23.jpg","[""ArrowDown"",""ArrowRight""]","value training","ocean","30","{""ArrowUp,ArrowLeft"":23,""ArrowUp,ArrowRight"":10,""ArrowDown,ArrowLeft"":8,""ArrowDown,ArrowRight"":30}","true","ArrowDown,ArrowRight","false","","","original","1","42","","",""
"html-keyboard-response","159","800593","0.0-4.0-2.0-1.21","spark_pilot_2","7497","3","22","Male","","","","","","","null","<div style=""font-size:60px;"">+</div>","null","fixation","","","","","","","","","","","43","","",""
"revaluation","160","806599","0.0-4.0-2.0-0.22","spark_pilot_2","7497","3","22","Male","","false","","","","","[798,316.29999999701977]","./assets/img/ocean/memory/29.jpg","[""ArrowDown"",""ArrowRight""]","value training","ocean","30","{""ArrowUp,ArrowLeft"":23,""ArrowUp,ArrowRight"":10,""ArrowDown,ArrowLeft"":8,""ArrowDown,ArrowRight"":30}","true","ArrowDown,ArrowRight","false","","","original","1","44","","",""
"html-keyboard-response","161","807101","0.0-4.0-2.0-1.22","spark_pilot_2","7497","3","22","Male","","","","","","","null","<div style=""font-size:60px;"">+</div>","null","fixation","","","","","","","","","","","45","","",""
"revaluation","162","813105","0.0-4.0-2.0-0.23","spark_pilot_2","7497","3","22","Male","","false","","","","","[867.2000000029802,370.1000000089407]","./assets/img/ocean/memory/3.jpg","[""ArrowDown"",""ArrowRight""]","value training","ocean","30","{""ArrowUp,ArrowLeft"":23,""ArrowUp,ArrowRight"":10,""ArrowDown,ArrowLeft"":8,""ArrowDown,ArrowRight"":30}","true","ArrowDown,ArrowRight","false","","","original","1","46","","",""
"html-keyboard-response","163","813606","0.0-4.0-2.0-1.23","spark_pilot_2","7497","3","22","Male","","","","","","","null","<div style=""font-size:60px;"">+</div>","null","fixation","","","","","","","","","","","47","","",""
"revaluation","164","819613","0.0-4.0-2.0-0.24","spark_pilot_2","7497","3","22","Male","","false","","","","","[1139.2000000029802,410]","./assets/img/ocean/memory/22.jpg","[""ArrowDown"",""ArrowRight""]","value training","ocean","30","{""ArrowUp,ArrowLeft"":23,""ArrowUp,ArrowRight"":10,""ArrowDown,ArrowLeft"":8,""ArrowDown,ArrowRight"":30}","true","ArrowDown,ArrowRight","false","","","original","1","48","","",""
"html-keyboard-response","165","820114","0.0-4.0-2.0-1.24","spark_pilot_2","7497","3","22","Male","","","","","","","null","<div style=""font-size:60px;"">+</div>","null","fixation","","","","","","","","","","","49","","",""
"revaluation","166","826123","0.0-4.0-2.0-0.25","spark_pilot_2","7497","3","22","Male","","false","","","","","[1120.2999999970198,343.70000000298023]","./assets/img/ocean/memory/22.jpg","[""ArrowDown"",""ArrowRight""]","value training","ocean","30","{""ArrowUp,ArrowLeft"":23,""ArrowUp,ArrowRight"":10,""ArrowDown,ArrowLeft"":8,""ArrowDown,ArrowRight"":30}","true","ArrowDown,ArrowRight","false","","","original","1","50","","",""
"html-keyboard-response","167","826625","0.0-4.0-2.0-1.25","spark_pilot_2","7497","3","22","Male","","","","","","","null","<div style=""font-size:60px;"">+</div>","null","fixation","","","","","","","","","","","51","","",""
"revaluation","168","832629","0.0-4.0-2.0-0.26","spark_pilot_2","7497","3","22","Male","","false","","","","","[898.7000000029802,322.5]","./assets/img/ocean/memory/6.jpg","[""ArrowDown"",""ArrowRight""]","value training","ocean","30","{""ArrowUp,ArrowLeft"":23,""ArrowUp,ArrowRight"":10,""ArrowDown,ArrowLeft"":8,""ArrowDown,ArrowRight"":30}","true","ArrowDown,ArrowRight","false","","","original","1","52","","",""
"html-keyboard-response","169","833131","0.0-4.0-2.0-1.26","spark_pilot_2","7497","3","22","Male","","","","","","","null","<div style=""font-size:60px;"">+</div>","null","fixation","","","","","","","","","","","53","","",""
"revaluation","170","839135","0.0-4.0-2.0-0.27","spark_pilot_2","7497","3","22","Male","","false","","","","","[1235.0999999940395,433.90000000596046]","./assets/img/ocean/memory/2.jpg","[""ArrowDown"",""ArrowRight""]","value training","ocean","30","{""ArrowUp,ArrowLeft"":23,""ArrowUp,ArrowRight"":10,""ArrowDown,ArrowLeft"":8,""ArrowDown,ArrowRight"":30}","true","ArrowDown,ArrowRight","false","","","original","1","54","","",""
"html-keyboard-response","171","839637","0.0-4.0-2.0-1.27","spark_pilot_2","7497","3","22","Male","","","","","","","null","<div style=""font-size:60px;"">+</div>","null","fixation","","","","","","","","","","","55","","",""
"revaluation","172","843641","0.0-4.0-2.0-0.28","spark_pilot_2","7497","3","22","Male","","false","","","","","[681.5]","./assets/img/ocean/catch/6.jpg","[""spaceBar""]","value training","ocean","0","{""ArrowUp,ArrowLeft"":23,""ArrowUp,ArrowRight"":10,""ArrowDown,ArrowLeft"":8,""ArrowDown,ArrowRight"":30}","true","spaceBar","true","","","original","1","56","","",""
"html-keyboard-response","173","844142","0.0-4.0-2.0-1.28","spark_pilot_2","7497","3","22","Male","","","","","","","null","<div style=""font-size:60px;"">+</div>","null","fixation","","","","","","","","","","","57","","",""
"revaluation","174","850146","0.0-4.0-2.0-0.29","spark_pilot_2","7497","3","22","Male","","false","","","","","[623.8999999910593,327.29999999701977]","./assets/img/ocean/memory/7.jpg","[""ArrowDown"",""ArrowRight""]","value training","ocean","30","{""ArrowUp,ArrowLeft"":23,""ArrowUp,ArrowRight"":10,""ArrowDown,ArrowLeft"":8,""ArrowDown,ArrowRight"":30}","true","ArrowDown,ArrowRight","false","","","original","1","58","","",""
"html-keyboard-response","175","850648","0.0-4.0-2.0-1.29","spark_pilot_2","7497","3","22","Male","","","","","","","null","<div style=""font-size:60px;"">+</div>","null","fixation","","","","","","","","","","","59","","",""
"revaluation","176","856652","0.0-4.0-2.0-0.30","spark_pilot_2","7497","3","22","Male","","false","","","","","[655.5,302.40000000596046]","./assets/img/ocean/memory/0.jpg","[""ArrowDown"",""ArrowRight""]","value training","ocean","30","{""ArrowUp,ArrowLeft"":23,""ArrowUp,ArrowRight"":10,""ArrowDown,ArrowLeft"":8,""ArrowDown,ArrowRight"":30}","true","ArrowDown,ArrowRight","false","","","original","1","60","","",""
"html-keyboard-response","177","857153","0.0-4.0-2.0-1.30","spark_pilot_2","7497","3","22","Male","","","","","","","null","<div style=""font-size:60px;"">+</div>","null","fixation","","","","","","","","","","","61","","",""
"revaluation","178","863157","0.0-4.0-2.0-0.31","spark_pilot_2","7497","3","22","Male","","false","","","","","[582.7000000029802,399.29999999701977]","./assets/img/ocean/memory/25.jpg","[""ArrowDown"",""ArrowRight""]","value training","ocean","30","{""ArrowUp,ArrowLeft"":23,""ArrowUp,ArrowRight"":10,""ArrowDown,ArrowLeft"":8,""ArrowDown,ArrowRight"":30}","true","ArrowDown,ArrowRight","false","","","original","1","62","","",""
"html-keyboard-response","179","863659","0.0-4.0-2.0-1.31","spark_pilot_2","7497","3","22","Male","","","","","","","null","<div style=""font-size:60px;"">+</div>","null","fixation","","","","","","","","","","","63","","",""
"revaluation","180","867664","0.0-4.0-2.0-0.32","spark_pilot_2","7497","3","22","Male","","false","","","","","[796.8999999910593]","./assets/img/ocean/catch/5.jpg","[""spaceBar""]","value training","ocean","0","{""ArrowUp,ArrowLeft"":23,""ArrowUp,ArrowRight"":10,""ArrowDown,ArrowLeft"":8,""ArrowDown,ArrowRight"":30}","true","spaceBar","true","","","original","1","64","","",""
"html-keyboard-response","181","868166","0.0-4.0-2.0-1.32","spark_pilot_2","7497","3","22","Male","","","","","","","null","<div style=""font-size:60px;"">+</div>","null","fixation","","","","","","","","","","","65","","",""
"revaluation","182","874171","0.0-4.0-2.0-0.33","spark_pilot_2","7497","3","22","Male","","false","","","","","[1068.2000000029802,364.29999999701977]","./assets/img/ocean/memory/19.jpg","[""ArrowDown"",""ArrowRight""]","value training","ocean","30","{""ArrowUp,ArrowLeft"":23,""ArrowUp,ArrowRight"":10,""ArrowDown,ArrowLeft"":8,""ArrowDown,ArrowRight"":30}","true","ArrowDown,ArrowRight","false","","","original","1","66","","",""
"html-keyboard-response","183","874672","0.0-4.0-2.0-1.33","spark_pilot_2","7497","3","22","Male","","","","","","","null","<div style=""font-size:60px;"">+</div>","null","fixation","","","","","","","","","","","67","","",""
"revaluation","184","880678","0.0-4.0-2.0-0.34","spark_pilot_2","7497","3","22","Male","","false","","","","","[715,386.70000000298023]","./assets/img/ocean/memory/36.jpg","[""ArrowDown"",""ArrowRight""]","value training","ocean","30","{""ArrowUp,ArrowLeft"":23,""ArrowUp,ArrowRight"":10,""ArrowDown,ArrowLeft"":8,""ArrowDown,ArrowRight"":30}","true","ArrowDown,ArrowRight","false","","","original","1","68","","",""
"html-keyboard-response","185","881180","0.0-4.0-2.0-1.34","spark_pilot_2","7497","3","22","Male","","","","","","","null","<div style=""font-size:60px;"">+</div>","null","fixation","","","","","","","","","","","69","","",""
"revaluation","186","887187","0.0-4.0-2.0-0.35","spark_pilot_2","7497","3","22","Male","","false","","","","","[711.9000000059605,470.59999999403954]","./assets/img/ocean/memory/20.jpg","[""ArrowDown"",""ArrowRight""]","value training","ocean","30","{""ArrowUp,ArrowLeft"":23,""ArrowUp,ArrowRight"":10,""ArrowDown,ArrowLeft"":8,""ArrowDown,ArrowRight"":30}","true","ArrowDown,ArrowRight","false","","","original","1","70","","",""
"html-keyboard-response","187","887687","0.0-4.0-2.0-1.35","spark_pilot_2","7497","3","22","Male","","","","","","","null","<div style=""font-size:60px;"">+</div>","null","fixation","","","","","","","","","","","71","","",""
"revaluation","188","893693","0.0-4.0-2.0-0.36","spark_pilot_2","7497","3","22","Male","","false","","","","","[846.7999999970198,413.1000000089407]","./assets/img/ocean/memory/10.jpg","[""ArrowDown"",""ArrowRight""]","value training","ocean","30","{""ArrowUp,ArrowLeft"":23,""ArrowUp,ArrowRight"":10,""ArrowDown,ArrowLeft"":8,""ArrowDown,ArrowRight"":30}","true","ArrowDown,ArrowRight","false","","","original","1","72","","",""
"html-keyboard-response","189","894195","0.0-4.0-2.0-1.36","spark_pilot_2","7497","3","22","Male","","","","","","","null","<div style=""font-size:60px;"">+</div>","null","fixation","","","","","","","","","","","73","","",""
"revaluation","190","900202","0.0-4.0-2.0-0.37","spark_pilot_2","7497","3","22","Male","","false","","","","","[512.2000000029802,296.09999999403954]","./assets/img/ocean/memory/13.jpg","[""ArrowDown"",""ArrowRight""]","value training","ocean","30","{""ArrowUp,ArrowLeft"":23,""ArrowUp,ArrowRight"":10,""ArrowDown,ArrowLeft"":8,""ArrowDown,ArrowRight"":30}","true","ArrowDown,ArrowRight","false","","","original","1","74","","",""
"html-keyboard-response","191","900704","0.0-4.0-2.0-1.37","spark_pilot_2","7497","3","22","Male","","","","","","","null","<div style=""font-size:60px;"">+</div>","null","fixation","","","","","","","","","","","75","","",""
"revaluation","192","906707","0.0-4.0-2.0-0.38","spark_pilot_2","7497","3","22","Male","","false","","","","","[720.2999999970198,335.59999999403954]","./assets/img/ocean/memory/1.jpg","[""ArrowDown"",""ArrowRight""]","value training","ocean","30","{""ArrowUp,ArrowLeft"":23,""ArrowUp,ArrowRight"":10,""ArrowDown,ArrowLeft"":8,""ArrowDown,ArrowRight"":30}","true","ArrowDown,ArrowRight","false","","","original","1","76","","",""
"html-keyboard-response","193","907208","0.0-4.0-2.0-1.38","spark_pilot_2","7497","3","22","Male","","","","","","","null","<div style=""font-size:60px;"">+</div>","null","fixation","","","","","","","","","","","77","","",""
"revaluation","194","913214","0.0-4.0-2.0-0.39","spark_pilot_2","7497","3","22","Male","","false","","","","","[624.2999999970198,344]","./assets/img/ocean/memory/1.jpg","[""ArrowDown"",""ArrowRight""]","value training","ocean","30","{""ArrowUp,ArrowLeft"":23,""ArrowUp,ArrowRight"":10,""ArrowDown,ArrowLeft"":8,""ArrowDown,ArrowRight"":30}","true","ArrowDown,ArrowRight","false","","","original","1","78","","",""
"html-keyboard-response","195","913715","0.0-4.0-2.0-1.39","spark_pilot_2","7497","3","22","Male","","","","","","","null","<div style=""font-size:60px;"">+</div>","null","fixation","","","","","","","","","","","79","","",""
"revaluation","196","919721","0.0-4.0-2.0-0.40","spark_pilot_2","7497","3","22","Male","","false","","","","","[894.8000000119209,302.30000001192093]","./assets/img/ocean/memory/32.jpg","[""ArrowDown"",""ArrowRight""]","value training","ocean","30","{""ArrowUp,ArrowLeft"":23,""ArrowUp,ArrowRight"":10,""ArrowDown,ArrowLeft"":8,""ArrowDown,ArrowRight"":30}","true","ArrowDown,ArrowRight","false","","","original","1","80","","",""
"html-keyboard-response","197","920223","0.0-4.0-2.0-1.40","spark_pilot_2","7497","3","22","Male","","","","","","","null","<div style=""font-size:60px;"">+</div>","null","fixation","","","","","","","","","","","81","","",""
"revaluation","198","926228","0.0-4.0-2.0-0.41","spark_pilot_2","7497","3","22","Male","","false","","","","","[732.7000000029802,365.29999999701977]","./assets/img/ocean/memory/37.jpg","[""ArrowDown"",""ArrowRight""]","value training","ocean","30","{""ArrowUp,ArrowLeft"":23,""ArrowUp,ArrowRight"":10,""ArrowDown,ArrowLeft"":8,""ArrowDown,ArrowRight"":30}","true","ArrowDown,ArrowRight","false","","","original","1","82","","",""
"html-keyboard-response","199","926729","0.0-4.0-2.0-1.41","spark_pilot_2","7497","3","22","Male","","","","","","","null","<div style=""font-size:60px;"">+</div>","null","fixation","","","","","","","","","","","83","","",""
"revaluation","200","930734","0.0-4.0-2.0-0.42","spark_pilot_2","7497","3","22","Male","","false","","","","","[739.1000000089407]","./assets/img/ocean/catch/2.jpg","[""spaceBar""]","value training","ocean","0","{""ArrowUp,ArrowLeft"":23,""ArrowUp,ArrowRight"":10,""ArrowDown,ArrowLeft"":8,""ArrowDown,ArrowRight"":30}","true","spaceBar","true","","","original","1","84","","",""
"html-keyboard-response","201","931236","0.0-4.0-2.0-1.42","spark_pilot_2","7497","3","22","Male","","","","","","","null","<div style=""font-size:60px;"">+</div>","null","fixation","","","","","","","","","","","85","","",""
"revaluation","202","937241","0.0-4.0-2.0-0.43","spark_pilot_2","7497","3","22","Male","","false","","","","","[585,625.5]","./assets/img/ocean/memory/2.jpg","[""ArrowDown"",""ArrowRight""]","value training","ocean","30","{""ArrowUp,ArrowLeft"":23,""ArrowUp,ArrowRight"":10,""ArrowDown,ArrowLeft"":8,""ArrowDown,ArrowRight"":30}","true","ArrowDown,ArrowRight","false","","","original","1","86","","",""
"html-keyboard-response","203","937742","0.0-4.0-2.0-1.43","spark_pilot_2","7497","3","22","Male","","","","","","","null","<div style=""font-size:60px;"">+</div>","null","fixation","","","","","","","","","","","87","","",""
"revaluation","204","941747","0.0-4.0-2.0-0.44","spark_pilot_2","7497","3","22","Male","","false","","","","","[807.8999999910593]","./assets/img/ocean/catch/4.jpg","[""spaceBar""]","value training","ocean","0","{""ArrowUp,ArrowLeft"":23,""ArrowUp,ArrowRight"":10,""ArrowDown,ArrowLeft"":8,""ArrowDown,ArrowRight"":30}","true","spaceBar","true","","","original","1","88","","",""
"html-keyboard-response","205","942249","0.0-4.0-2.0-1.44","spark_pilot_2","7497","3","22","Male","","","","","","","null","<div style=""font-size:60px;"">+</div>","null","fixation","","","","","","","","","","","89","","",""
"revaluation","206","948255","0.0-4.0-2.0-0.45","spark_pilot_2","7497","3","22","Male","","false","","","","","[908.7999999970198,420.09999999403954]","./assets/img/ocean/memory/3.jpg","[""ArrowDown"",""ArrowRight""]","value training","ocean","30","{""ArrowUp,ArrowLeft"":23,""ArrowUp,ArrowRight"":10,""ArrowDown,ArrowLeft"":8,""ArrowDown,ArrowRight"":30}","true","ArrowDown,ArrowRight","false","","","original","1","90","","",""
"html-keyboard-response","207","948756","0.0-4.0-2.0-1.45","spark_pilot_2","7497","3","22","Male","","","","","","","null","<div style=""font-size:60px;"">+</div>","null","fixation","","","","","","","","","","","91","","",""
"revaluation","208","954762","0.0-4.0-2.0-0.46","spark_pilot_2","7497","3","22","Male","","false","","","","","[716.2000000029802,275.09999999403954]","./assets/img/ocean/memory/6.jpg","[""ArrowDown"",""ArrowRight""]","value training","ocean","30","{""ArrowUp,ArrowLeft"":23,""ArrowUp,ArrowRight"":10,""ArrowDown,ArrowLeft"":8,""ArrowDown,ArrowRight"":30}","true","ArrowDown,ArrowRight","false","","","original","1","92","","",""
"html-keyboard-response","209","955263","0.0-4.0-2.0-1.46","spark_pilot_2","7497","3","22","Male","","","","","","","null","<div style=""font-size:60px;"">+</div>","null","fixation","","","","","","","","","","","93","","",""
"revaluation","210","961267","0.0-4.0-2.0-0.47","spark_pilot_2","7497","3","22","Male","","false","","","","","[706.4000000059605,322.20000000298023]","./assets/img/ocean/memory/10.jpg","[""ArrowDown"",""ArrowRight""]","value training","ocean","30","{""ArrowUp,ArrowLeft"":23,""ArrowUp,ArrowRight"":10,""ArrowDown,ArrowLeft"":8,""ArrowDown,ArrowRight"":30}","true","ArrowDown,ArrowRight","false","","","original","1","94","","",""
"html-keyboard-response","211","961769","0.0-4.0-2.0-1.47","spark_pilot_2","7497","3","22","Male","","","","","","","null","<div style=""font-size:60px;"">+</div>","null","fixation","","","","","","","","","","","95","","",""
"revaluation","212","967776","0.0-4.0-2.0-0.48","spark_pilot_2","7497","3","22","Male","","false","","","","","[528.5999999940395,335.79999999701977]","./assets/img/ocean/memory/37.jpg","[""ArrowDown"",""ArrowRight""]","value training","ocean","30","{""ArrowUp,ArrowLeft"":23,""ArrowUp,ArrowRight"":10,""ArrowDown,ArrowLeft"":8,""ArrowDown,ArrowRight"":30}","true","ArrowDown,ArrowRight","false","","","original","1","96","","",""
"html-keyboard-response","213","968278","0.0-4.0-2.0-1.48","spark_pilot_2","7497","3","22","Male","","","","","","","null","<div style=""font-size:60px;"">+</div>","null","fixation","","","","","","","","","","","97","","",""
"revaluation","214","974283","0.0-4.0-2.0-0.49","spark_pilot_2","7497","3","22","Male","","false","","","","","[749.8999999910593,381.20000000298023]","./assets/img/ocean/memory/30.jpg","[""ArrowDown"",""ArrowRight""]","value training","ocean","30","{""ArrowUp,ArrowLeft"":23,""ArrowUp,ArrowRight"":10,""ArrowDown,ArrowLeft"":8,""ArrowDown,ArrowRight"":30}","true","ArrowDown,ArrowRight","false","","","original","1","98","","",""
"html-keyboard-response","215","974785","0.0-4.0-2.0-1.49","spark_pilot_2","7497","3","22","Male","","","","","","","null","<div style=""font-size:60px;"">+</div>","null","fixation","","","","","","","","","","","99","","",""
"learning-instructions","216","989171","0.0-4.0-3.0-0.0","spark_pilot_2","7497","3","22","Male","","","","","","","1491.0999999940395","<p> Now, you will travel with a friend who will choose whether you go up or down first. </p>
            <p> On these turns, you will just see the animal that they found. You will still get to choose which chest to search for treasure.</p>","","instructions","","","","","","","","","","","","","",""
"revaluation","217","993201","0.0-4.0-4.0-0.0","spark_pilot_2","7497","3","22","Male","","false","","","","","[1004]","./assets/img/ocean/animals/octopus.jpg","[""ArrowRight""]","revaluation","ocean","10","{""ArrowUp,ArrowLeft"":23,""ArrowUp,ArrowRight"":10,""ArrowDown,ArrowLeft"":8,""ArrowDown,ArrowRight"":30}","false","ArrowUp,ArrowRight","","","","original","1","0","","",""
"html-keyboard-response","218","993713","0.0-4.0-4.0-1.0","spark_pilot_2","7497","3","22","Male","","","","","","","null","<div style=""font-size:60px;"">+</div>","null","fixation","","","","","","","","","","","1","","",""
"revaluation","219","997734","0.0-4.0-4.0-0.1","spark_pilot_2","7497","3","22","Male","","false","","","","","[606.7000000029802]","./assets/img/ocean/animals/octopus.jpg","[""ArrowLeft""]","revaluation","ocean","23","{""ArrowUp,ArrowLeft"":23,""ArrowUp,ArrowRight"":10,""ArrowDown,ArrowLeft"":8,""ArrowDown,ArrowRight"":30}","true","ArrowUp,ArrowLeft","","","","original","1","2","","",""
"html-keyboard-response","220","998245","0.0-4.0-4.0-1.1","spark_pilot_2","7497","3","22","Male","","","","","","","null","<div style=""font-size:60px;"">+</div>","null","fixation","","","","","","","","","","","3","","",""
"revaluation","221","1002250","0.0-4.0-4.0-0.2","spark_pilot_2","7497","3","22","Male","","false","","","","","[508.30000001192093]","./assets/img/ocean/animals/octopus.jpg","[""ArrowLeft""]","revaluation","ocean","23","{""ArrowUp,ArrowLeft"":23,""ArrowUp,ArrowRight"":10,""ArrowDown,ArrowLeft"":8,""ArrowDown,ArrowRight"":30}","true","ArrowUp,ArrowLeft","","","","original","1","4","","",""
"html-keyboard-response","222","1002762","0.0-4.0-4.0-1.2","spark_pilot_2","7497","3","22","Male","","","","","","","null","<div style=""font-size:60px;"">+</div>","null","fixation","","","","","","","","","","","5","","",""
"revaluation","223","1006771","0.0-4.0-4.0-0.3","spark_pilot_2","7497","3","22","Male","","false","","","","","[576.2999999970198]","./assets/img/ocean/animals/seahorse.jpg","[""ArrowRight""]","revaluation","ocean","30","{""ArrowUp,ArrowLeft"":23,""ArrowUp,ArrowRight"":10,""ArrowDown,ArrowLeft"":8,""ArrowDown,ArrowRight"":30}","true","ArrowDown,ArrowRight","","","","original","1","6","","",""
"html-keyboard-response","224","1007281","0.0-4.0-4.0-1.3","spark_pilot_2","7497","3","22","Male","","","","","","","null","<div style=""font-size:60px;"">+</div>","null","fixation","","","","","","","","","","","7","","",""
"revaluation","225","1011303","0.0-4.0-4.0-0.4","spark_pilot_2","7497","3","22","Male","","false","","","","","[497.6000000089407]","./assets/img/ocean/animals/octopus.jpg","[""ArrowLeft""]","revaluation","ocean","23","{""ArrowUp,ArrowLeft"":23,""ArrowUp,ArrowRight"":10,""ArrowDown,ArrowLeft"":8,""ArrowDown,ArrowRight"":30}","true","ArrowUp,ArrowLeft","","","","original","1","8","","",""
"html-keyboard-response","226","1011816","0.0-4.0-4.0-1.4","spark_pilot_2","7497","3","22","Male","","","","","","","null","<div style=""font-size:60px;"">+</div>","null","fixation","","","","","","","","","","","9","","",""
"revaluation","227","1015839","0.0-4.0-4.0-0.5","spark_pilot_2","7497","3","22","Male","","false","","","","","[411.79999999701977]","./assets/img/ocean/animals/seahorse.jpg","[""ArrowRight""]","revaluation","ocean","30","{""ArrowUp,ArrowLeft"":23,""ArrowUp,ArrowRight"":10,""ArrowDown,ArrowLeft"":8,""ArrowDown,ArrowRight"":30}","true","ArrowDown,ArrowRight","","","","original","1","10","","",""
"html-keyboard-response","228","1016355","0.0-4.0-4.0-1.5","spark_pilot_2","7497","3","22","Male","","","","","","","null","<div style=""font-size:60px;"">+</div>","null","fixation","","","","","","","","","","","11","","",""
"revaluation","229","1020361","0.0-4.0-4.0-0.6","spark_pilot_2","7497","3","22","Male","","false","","","","","[648.1000000089407]","./assets/img/ocean/animals/seahorse.jpg","[""ArrowRight""]","revaluation","ocean","30","{""ArrowUp,ArrowLeft"":23,""ArrowUp,ArrowRight"":10,""ArrowDown,ArrowLeft"":8,""ArrowDown,ArrowRight"":30}","true","ArrowDown,ArrowRight","","","","original","1","12","","",""
"html-keyboard-response","230","1020862","0.0-4.0-4.0-1.6","spark_pilot_2","7497","3","22","Male","","","","","","","null","<div style=""font-size:60px;"">+</div>","null","fixation","","","","","","","","","","","13","","",""
"revaluation","231","1024867","0.0-4.0-4.0-0.7","spark_pilot_2","7497","3","22","Male","","false","","","","","[390.20000000298023]","./assets/img/ocean/animals/seahorse.jpg","[""ArrowRight""]","revaluation","ocean","30","{""ArrowUp,ArrowLeft"":23,""ArrowUp,ArrowRight"":10,""ArrowDown,ArrowLeft"":8,""ArrowDown,ArrowRight"":30}","true","ArrowDown,ArrowRight","","","","original","1","14","","",""
"html-keyboard-response","232","1025368","0.0-4.0-4.0-1.7","spark_pilot_2","7497","3","22","Male","","","","","","","null","<div style=""font-size:60px;"">+</div>","null","fixation","","","","","","","","","","","15","","",""
"revaluation","233","1029373","0.0-4.0-4.0-0.8","spark_pilot_2","7497","3","22","Male","","false","","","","","[453.09999999403954]","./assets/img/ocean/animals/seahorse.jpg","[""ArrowRight""]","revaluation","ocean","30","{""ArrowUp,ArrowLeft"":23,""ArrowUp,ArrowRight"":10,""ArrowDown,ArrowLeft"":8,""ArrowDown,ArrowRight"":30}","true","ArrowDown,ArrowRight","","","","original","1","16","","",""
"html-keyboard-response","234","1029875","0.0-4.0-4.0-1.8","spark_pilot_2","7497","3","22","Male","","","","","","","null","<div style=""font-size:60px;"">+</div>","null","fixation","","","","","","","","","","","17","","",""
"revaluation","235","1033878","0.0-4.0-4.0-0.9","spark_pilot_2","7497","3","22","Male","","false","","","","","[371.20000000298023]","./assets/img/ocean/animals/octopus.jpg","[""ArrowLeft""]","revaluation","ocean","23","{""ArrowUp,ArrowLeft"":23,""ArrowUp,ArrowRight"":10,""ArrowDown,ArrowLeft"":8,""ArrowDown,ArrowRight"":30}","true","ArrowUp,ArrowLeft","","","","original","1","18","","",""
"html-keyboard-response","236","1034379","0.0-4.0-4.0-1.9","spark_pilot_2","7497","3","22","Male","","","","","","","null","<div style=""font-size:60px;"">+</div>","null","fixation","","","","","","","","","","","19","","",""
"revaluation","237","1038385","0.0-4.0-4.0-0.10","spark_pilot_2","7497","3","22","Male","","false","","","","","[346.59999999403954]","./assets/img/ocean/animals/seahorse.jpg","[""ArrowRight""]","revaluation","ocean","30","{""ArrowUp,ArrowLeft"":23,""ArrowUp,ArrowRight"":10,""ArrowDown,ArrowLeft"":8,""ArrowDown,ArrowRight"":30}","true","ArrowDown,ArrowRight","","","","original","1","20","","",""
"html-keyboard-response","238","1038886","0.0-4.0-4.0-1.10","spark_pilot_2","7497","3","22","Male","","","","","","","null","<div style=""font-size:60px;"">+</div>","null","fixation","","","","","","","","","","","21","","",""
"revaluation","239","1042891","0.0-4.0-4.0-0.11","spark_pilot_2","7497","3","22","Male","","false","","","","","[490.70000000298023]","./assets/img/ocean/animals/octopus.jpg","[""ArrowLeft""]","revaluation","ocean","23","{""ArrowUp,ArrowLeft"":23,""ArrowUp,ArrowRight"":10,""ArrowDown,ArrowLeft"":8,""ArrowDown,ArrowRight"":30}","true","ArrowUp,ArrowLeft","","","","original","1","22","","",""
"html-keyboard-response","240","1043393","0.0-4.0-4.0-1.11","spark_pilot_2","7497","3","22","Male","","","","","","","null","<div style=""font-size:60px;"">+</div>","null","fixation","","","","","","","","","","","23","","",""
"revaluation","241","1047400","0.0-4.0-4.0-0.12","spark_pilot_2","7497","3","22","Male","","false","","","","","[445.59999999403954]","./assets/img/ocean/animals/seahorse.jpg","[""ArrowRight""]","revaluation","ocean","30","{""ArrowUp,ArrowLeft"":23,""ArrowUp,ArrowRight"":10,""ArrowDown,ArrowLeft"":8,""ArrowDown,ArrowRight"":30}","true","ArrowDown,ArrowRight","","","","original","1","24","","",""
"html-keyboard-response","242","1047901","0.0-4.0-4.0-1.12","spark_pilot_2","7497","3","22","Male","","","","","","","null","<div style=""font-size:60px;"">+</div>","null","fixation","","","","","","","","","","","25","","",""
"revaluation","243","1051904","0.0-4.0-4.0-0.13","spark_pilot_2","7497","3","22","Male","","false","","","","","[588.7000000029802]","./assets/img/ocean/animals/seahorse.jpg","[""ArrowRight""]","revaluation","ocean","30","{""ArrowUp,ArrowLeft"":23,""ArrowUp,ArrowRight"":10,""ArrowDown,ArrowLeft"":8,""ArrowDown,ArrowRight"":30}","true","ArrowDown,ArrowRight","","","","original","1","26","","",""
"html-keyboard-response","244","1052405","0.0-4.0-4.0-1.13","spark_pilot_2","7497","3","22","Male","","","","","","","null","<div style=""font-size:60px;"">+</div>","null","fixation","","","","","","","","","","","27","","",""
"revaluation","245","1056409","0.0-4.0-4.0-0.14","spark_pilot_2","7497","3","22","Male","","false","","","","","[540.9000000059605]","./assets/img/ocean/animals/octopus.jpg","[""ArrowLeft""]","revaluation","ocean","23","{""ArrowUp,ArrowLeft"":23,""ArrowUp,ArrowRight"":10,""ArrowDown,ArrowLeft"":8,""ArrowDown,ArrowRight"":30}","true","ArrowUp,ArrowLeft","","","","original","1","28","","",""
"html-keyboard-response","246","1056912","0.0-4.0-4.0-1.14","spark_pilot_2","7497","3","22","Male","","","","","","","null","<div style=""font-size:60px;"">+</div>","null","fixation","","","","","","","","","","","29","","",""
"revaluation","247","1060916","0.0-4.0-4.0-0.15","spark_pilot_2","7497","3","22","Male","","false","","","","","[531.2999999970198]","./assets/img/ocean/animals/seahorse.jpg","[""ArrowRight""]","revaluation","ocean","30","{""ArrowUp,ArrowLeft"":23,""ArrowUp,ArrowRight"":10,""ArrowDown,ArrowLeft"":8,""ArrowDown,ArrowRight"":30}","true","ArrowDown,ArrowRight","","","","original","1","30","","",""
"html-keyboard-response","248","1061419","0.0-4.0-4.0-1.15","spark_pilot_2","7497","3","22","Male","","","","","","","null","<div style=""font-size:60px;"">+</div>","null","fixation","","","","","","","","","","","31","","",""
"revaluation","249","1065422","0.0-4.0-4.0-0.16","spark_pilot_2","7497","3","22","Male","","false","","","","","[545.0999999940395]","./assets/img/ocean/animals/octopus.jpg","[""ArrowLeft""]","revaluation","ocean","23","{""ArrowUp,ArrowLeft"":23,""ArrowUp,ArrowRight"":10,""ArrowDown,ArrowLeft"":8,""ArrowDown,ArrowRight"":30}","true","ArrowUp,ArrowLeft","","","","original","1","32","","",""
"html-keyboard-response","250","1065923","0.0-4.0-4.0-1.16","spark_pilot_2","7497","3","22","Male","","","","","","","null","<div style=""font-size:60px;"">+</div>","null","fixation","","","","","","","","","","","33","","",""
"revaluation","251","1069928","0.0-4.0-4.0-0.17","spark_pilot_2","7497","3","22","Male","","false","","","","","[985.1000000089407]","./assets/img/ocean/animals/octopus.jpg","[""ArrowLeft""]","revaluation","ocean","23","{""ArrowUp,ArrowLeft"":23,""ArrowUp,ArrowRight"":10,""ArrowDown,ArrowLeft"":8,""ArrowDown,ArrowRight"":30}","true","ArrowUp,ArrowLeft","","","","original","1","34","","",""
"html-keyboard-response","252","1070429","0.0-4.0-4.0-1.17","spark_pilot_2","7497","3","22","Male","","","","","","","null","<div style=""font-size:60px;"">+</div>","null","fixation","","","","","","","","","","","35","","",""
"learning-instructions","253","1082492","0.0-4.0-5.0-0.0","spark_pilot_2","7497","3","22","Male","","","","","","","751.4000000059605","<p> Time to play the dot game! </p>
            <p> For one minute, click the red dots on the following screen as they appear. </p>
            <p><b> Don't look away, as you will earn bonus for clicking dots</b>. </p>","","instructions","","","","","","","","","","","","","",""
"revaluation","254","1142495","0.0-4.0-6.0-0.0","spark_pilot_2","7497","3","22","Male","","","","","","","[53,60,57,60,53,55,65]","","","rest","","70","","","","","0","60000","","","","","",""
"learning-instructions","255","1150152","0.0-4.0-7.0-0.0","spark_pilot_2","7497","3","22","Male","","","","","","","1541.5999999940395","<p> You have almost finished this part of the game! </p>
            <p> We are going to ask you to make a few more choices. </p>","","instructions","","","","","","","","","","","","","",""
"learning-instructions","256","1165520","0.0-4.0-7.0-0.1","spark_pilot_2","7497","3","22","Male","","","","","","","1400.199999988079","<p> First, you need to decide whether to go up or down. When you see each picture, use the arrow keys to make your choice. </p>
            <p><b>You will not see which animal you found, but try to get to the one that will give you the most treasure.</b></p>","","instructions","","","","","","","","","","","","","",""
"revaluation","257","1166521","0.0-4.0-8.0-0.0","spark_pilot_2","7497","3","22","Male","","false","","","","","[998.2000000029802]","./assets/img/ocean/test/0.jpg","[""ArrowUp""]","first stage test","ocean","0","{""ArrowUp,ArrowLeft"":23,""ArrowUp,ArrowRight"":10,""ArrowDown,ArrowLeft"":8,""ArrowDown,ArrowRight"":30}","false","ArrowUp","false","","","original","1","","","",""
"html-keyboard-response","258","1167028","0.0-4.0-8.0-1.0","spark_pilot_2","7497","3","22","Male","","","","","","","null","<div style=""font-size:60px;"">+</div>","null","fixation","","","","","","","","","","","","","",""
"revaluation","259","1168409","0.0-4.0-8.0-0.1","spark_pilot_2","7497","3","22","Male","","false","","","","","[1377.7999999970198]","./assets/img/ocean/test/3.jpg","[""ArrowUp""]","first stage test","ocean","0","{""ArrowUp,ArrowLeft"":23,""ArrowUp,ArrowRight"":10,""ArrowDown,ArrowLeft"":8,""ArrowDown,ArrowRight"":30}","false","ArrowUp","false","","","original","1","","","",""
"html-keyboard-response","260","1168922","0.0-4.0-8.0-1.1","spark_pilot_2","7497","3","22","Male","","","","","","","null","<div style=""font-size:60px;"">+</div>","null","fixation","","","","","","","","","","","","","",""
"revaluation","261","1170137","0.0-4.0-8.0-0.2","spark_pilot_2","7497","3","22","Male","","false","","","","","[1212.2999999970198]","./assets/img/ocean/test/2.jpg","[""ArrowUp""]","first stage test","ocean","0","{""ArrowUp,ArrowLeft"":23,""ArrowUp,ArrowRight"":10,""ArrowDown,ArrowLeft"":8,""ArrowDown,ArrowRight"":30}","false","ArrowUp","false","","","original","1","","","",""
"html-keyboard-response","262","1170649","0.0-4.0-8.0-1.2","spark_pilot_2","7497","3","22","Male","","","","","","","null","<div style=""font-size:60px;"">+</div>","null","fixation","","","","","","","","","","","","","",""
"revaluation","263","1171722","0.0-4.0-8.0-0.3","spark_pilot_2","7497","3","22","Male","","false","","","","","[1070.0999999940395]","./assets/img/ocean/test/1.jpg","[""ArrowUp""]","first stage test","ocean","0","{""ArrowUp,ArrowLeft"":23,""ArrowUp,ArrowRight"":10,""ArrowDown,ArrowLeft"":8,""ArrowDown,ArrowRight"":30}","false","ArrowUp","false","","","original","1","","","",""
"html-keyboard-response","264","1172228","0.0-4.0-8.0-1.3","spark_pilot_2","7497","3","22","Male","","","","","","","null","<div style=""font-size:60px;"">+</div>","null","fixation","","","","","","","","","","","","","",""
"learning-instructions","265","1185506","0.0-4.0-9.0-0.0","spark_pilot_2","7497","3","22","Male","","","","","","","1935.5","<p> Now you will see the animals again and can search their chests for treasure. </p>
            <p> This time, you will not see how much treasure you earned, but you will earn more bonus money for making better choices. </p>","","instructions","","","","","","","","","","","","","",""
"revaluation","266","1186308","0.0-4.0-10.0-0.0","spark_pilot_2","7497","3","22","Male","","false","","","","","[799.5999999940395]","./assets/img/ocean/animals/octopus.jpg","[""ArrowLeft""]","second stage test","ocean","0","{""ArrowUp,ArrowLeft"":23,""ArrowUp,ArrowRight"":10,""ArrowDown,ArrowLeft"":8,""ArrowDown,ArrowRight"":30}","true","ArrowUp,ArrowLeft","","","","original","1","","","",""
"html-keyboard-response","267","1186816","0.0-4.0-10.0-1.0","spark_pilot_2","7497","3","22","Male","","","","","","","null","<div style=""font-size:60px;"">+</div>","null","fixation","","","","","","","","","","","","","",""
"revaluation","268","1187276","0.0-4.0-10.0-0.1","spark_pilot_2","7497","3","22","Male","","false","","","","","[457.79999999701977]","./assets/img/ocean/animals/octopus.jpg","[""ArrowLeft""]","second stage test","ocean","0","{""ArrowUp,ArrowLeft"":23,""ArrowUp,ArrowRight"":10,""ArrowDown,ArrowLeft"":8,""ArrowDown,ArrowRight"":30}","true","ArrowUp,ArrowLeft","","","","original","1","","","",""
"html-keyboard-response","269","1187783","0.0-4.0-10.0-1.1","spark_pilot_2","7497","3","22","Male","","","","","","","null","<div style=""font-size:60px;"">+</div>","null","fixation","","","","","","","","","","","","","",""
"revaluation","270","1188157","0.0-4.0-10.0-0.2","spark_pilot_2","7497","3","22","Male","","false","","","","","[371.09999999403954]","./assets/img/ocean/animals/octopus.jpg","[""ArrowLeft""]","second stage test","ocean","0","{""ArrowUp,ArrowLeft"":23,""ArrowUp,ArrowRight"":10,""ArrowDown,ArrowLeft"":8,""ArrowDown,ArrowRight"":30}","true","ArrowUp,ArrowLeft","","","","original","1","","","",""
"html-keyboard-response","271","1188671","0.0-4.0-10.0-1.2","spark_pilot_2","7497","3","22","Male","","","","","","","null","<div style=""font-size:60px;"">+</div>","null","fixation","","","","","","","","","","","","","",""
"revaluation","272","1189052","0.0-4.0-10.0-0.3","spark_pilot_2","7497","3","22","Male","","false","","","","","[378.80000001192093]","./assets/img/ocean/animals/octopus.jpg","[""ArrowLeft""]","second stage test","ocean","0","{""ArrowUp,ArrowLeft"":23,""ArrowUp,ArrowRight"":10,""ArrowDown,ArrowLeft"":8,""ArrowDown,ArrowRight"":30}","true","ArrowUp,ArrowLeft","","","","original","1","","","",""
"html-keyboard-response","273","1189558","0.0-4.0-10.0-1.3","spark_pilot_2","7497","3","22","Male","","","","","","","null","<div style=""font-size:60px;"">+</div>","null","fixation","","","","","","","","","","","","","",""
"revaluation","274","1190197","0.0-4.0-10.0-0.4","spark_pilot_2","7497","3","22","Male","","false","","","","","[635.6999999880791]","./assets/img/ocean/animals/seahorse.jpg","[""ArrowRight""]","second stage test","ocean","0","{""ArrowUp,ArrowLeft"":23,""ArrowUp,ArrowRight"":10,""ArrowDown,ArrowLeft"":8,""ArrowDown,ArrowRight"":30}","true","ArrowDown,ArrowRight","","","","original","1","","","",""
"html-keyboard-response","275","1190708","0.0-4.0-10.0-1.4","spark_pilot_2","7497","3","22","Male","","","","","","","null","<div style=""font-size:60px;"">+</div>","null","fixation","","","","","","","","","","","","","",""
"revaluation","276","1191173","0.0-4.0-10.0-0.5","spark_pilot_2","7497","3","22","Male","","false","","","","","[462.19999998807907]","./assets/img/ocean/animals/seahorse.jpg","[""ArrowRight""]","second stage test","ocean","0","{""ArrowUp,ArrowLeft"":23,""ArrowUp,ArrowRight"":10,""ArrowDown,ArrowLeft"":8,""ArrowDown,ArrowRight"":30}","true","ArrowDown,ArrowRight","","","","original","1","","","",""
"html-keyboard-response","277","1191688","0.0-4.0-10.0-1.5","spark_pilot_2","7497","3","22","Male","","","","","","","null","<div style=""font-size:60px;"">+</div>","null","fixation","","","","","","","","","","","","","",""
"revaluation","278","1192206","0.0-4.0-10.0-0.6","spark_pilot_2","7497","3","22","Male","","false","","","","","[514.2999999970198]","./assets/img/ocean/animals/seahorse.jpg","[""ArrowRight""]","second stage test","ocean","0","{""ArrowUp,ArrowLeft"":23,""ArrowUp,ArrowRight"":10,""ArrowDown,ArrowLeft"":8,""ArrowDown,ArrowRight"":30}","true","ArrowDown,ArrowRight","","","","original","1","","","",""
"html-keyboard-response","279","1192715","0.0-4.0-10.0-1.6","spark_pilot_2","7497","3","22","Male","","","","","","","null","<div style=""font-size:60px;"">+</div>","null","fixation","","","","","","","","","","","","","",""
"revaluation","280","1193205","0.0-4.0-10.0-0.7","spark_pilot_2","7497","3","22","Male","","false","","","","","[487.5]","./assets/img/ocean/animals/seahorse.jpg","[""ArrowRight""]","second stage test","ocean","0","{""ArrowUp,ArrowLeft"":23,""ArrowUp,ArrowRight"":10,""ArrowDown,ArrowLeft"":8,""ArrowDown,ArrowRight"":30}","true","ArrowDown,ArrowRight","","","","original","1","","","",""
"html-keyboard-response","281","1193710","0.0-4.0-10.0-1.7","spark_pilot_2","7497","3","22","Male","","","","","","","null","<div style=""font-size:60px;"">+</div>","null","fixation","","","","","","","","","","","","","",""
"learning-instructions","282","1197570","0.0-4.0-0.1-0.2","spark_pilot_2","7497","3","22","Male","","","","","","","1089.7000000029802","<p> This time you are searching for treasure in the <b>canyon</b>.</p>","","instructions","","","","","","","","","","","","","",""
"learning-instructions","283","1215215","0.0-4.0-0.1-0.3","spark_pilot_2","7497","3","22","Male","","","","","","","394.09999999403954","<p><b>New</b> animals with <b>new</b> treasure chests live here. You need to explore to discover where the animal with the best treasure chest is.</p>
                    <p> Like before, once you figure out which animal has the chest with the most treasure, you should try to get to that animal and select that chest! </p>","","instructions","","","","","","","","","","","","","",""
"learning-instructions","284","1231522","0.0-4.0-1.1-0.1","spark_pilot_2","7497","3","22","Male","","","","","","","1581.7999999970198","<p> Remember, when you see a picture of the place, use the up and down keys to <b>find an animal</b>.</p>
            <p> When you encounter an animal, you should use the left and right keys to <b>select a treasure chest</b>.</p>
            <p> Don't forget to look out for the robber! </p>","","instructions","","","","","","","","","","","","","",""
"revaluation","285","1235535","0.0-4.0-2.1-0.50","spark_pilot_2","7497","3","22","Male","","false","","","","","[798.5999999940395]","./assets/img/canyon/catch/2.jpg","[""spaceBar""]","value training","canyon","0","{""ArrowUp,ArrowLeft"":26,""ArrowUp,ArrowRight"":10,""ArrowDown,ArrowLeft"":5,""ArrowDown,ArrowRight"":17}","true","spaceBar","true","","","revaluation","2","0","","",""
"html-keyboard-response","286","1236048","0.0-4.0-2.1-1.50","spark_pilot_2","7497","3","22","Male","","","","","","","null","<div style=""font-size:60px;"">+</div>","null","fixation","","","","","","","","","","","1","","",""
"revaluation","287","1242067","0.0-4.0-2.1-0.51","spark_pilot_2","7497","3","22","Male","","false","","","","","[818.7000000029802,1012.7000000029802]","./assets/img/canyon/memory/32.jpg","[""ArrowDown"",""ArrowRight""]","value training","canyon","17","{""ArrowUp,ArrowLeft"":26,""ArrowUp,ArrowRight"":10,""ArrowDown,ArrowLeft"":5,""ArrowDown,ArrowRight"":17}","false","ArrowDown,ArrowRight","false","","","revaluation","2","2","","",""
"html-keyboard-response","288","1242577","0.0-4.0-2.1-1.51","spark_pilot_2","7497","3","22","Male","","","","","","","null","<div style=""font-size:60px;"">+</div>","null","fixation","","","","","","","","","","","3","","",""
"revaluation","289","1248611","0.0-4.0-2.1-0.52","spark_pilot_2","7497","3","22","Male","","false","","","","","[634.7999999970198,303.59999999403954]","./assets/img/canyon/memory/10.jpg","[""ArrowDown"",""ArrowLeft""]","value training","canyon","5","{""ArrowUp,ArrowLeft"":26,""ArrowUp,ArrowRight"":10,""ArrowDown,ArrowLeft"":5,""ArrowDown,ArrowRight"":17}","false","ArrowDown,ArrowLeft","false","","","revaluation","2","4","","",""
"html-keyboard-response","290","1249124","0.0-4.0-2.1-1.52","spark_pilot_2","7497","3","22","Male","","","","","","","null","<div style=""font-size:60px;"">+</div>","null","fixation","","","","","","","","","","","5","","",""
"revaluation","291","1253155","0.0-4.0-2.1-0.53","spark_pilot_2","7497","3","22","Male","","false","","","","","[560.2000000029802]","./assets/img/canyon/catch/6.jpg","[""spaceBar""]","value training","canyon","0","{""ArrowUp,ArrowLeft"":26,""ArrowUp,ArrowRight"":10,""ArrowDown,ArrowLeft"":5,""ArrowDown,ArrowRight"":17}","true","spaceBar","true","","","revaluation","2","6","","",""
"html-keyboard-response","292","1253664","0.0-4.0-2.1-1.53","spark_pilot_2","7497","3","22","Male","","","","","","","null","<div style=""font-size:60px;"">+</div>","null","fixation","","","","","","","","","","","7","","",""
"revaluation","293","1259708","0.0-4.0-2.1-0.54","spark_pilot_2","7497","3","22","Male","","false","","","","","[461.19999998807907,1006]","./assets/img/canyon/memory/29.jpg","[""ArrowUp"",""ArrowLeft""]","value training","canyon","26","{""ArrowUp,ArrowLeft"":26,""ArrowUp,ArrowRight"":10,""ArrowDown,ArrowLeft"":5,""ArrowDown,ArrowRight"":17}","true","ArrowUp,ArrowLeft","false","","","revaluation","2","8","","",""
"html-keyboard-response","294","1260209","0.0-4.0-2.1-1.54","spark_pilot_2","7497","3","22","Male","","","","","","","null","<div style=""font-size:60px;"">+</div>","null","fixation","","","","","","","","","","","9","","",""
"revaluation","295","1266215","0.0-4.0-2.1-0.55","spark_pilot_2","7497","3","22","Male","","false","","","","","[684.6000000089407,307.90000000596046]","./assets/img/canyon/memory/3.jpg","[""ArrowUp"",""ArrowRight""]","value training","canyon","10","{""ArrowUp,ArrowLeft"":26,""ArrowUp,ArrowRight"":10,""ArrowDown,ArrowLeft"":5,""ArrowDown,ArrowRight"":17}","false","ArrowUp,ArrowRight","false","","","revaluation","2","10","","",""
"html-keyboard-response","296","1266717","0.0-4.0-2.1-1.55","spark_pilot_2","7497","3","22","Male","","","","","","","null","<div style=""font-size:60px;"">+</div>","null","fixation","","","","","","","","","","","11","","",""
"revaluation","297","1272723","0.0-4.0-2.1-0.56","spark_pilot_2","7497","3","22","Male","","false","","","","","[1035.2000000029802,386.29999999701977]","./assets/img/canyon/memory/32.jpg","[""ArrowUp"",""ArrowLeft""]","value training","canyon","26","{""ArrowUp,ArrowLeft"":26,""ArrowUp,ArrowRight"":10,""ArrowDown,ArrowLeft"":5,""ArrowDown,ArrowRight"":17}","true","ArrowUp,ArrowLeft","false","","","revaluation","2","12","","",""
"html-keyboard-response","298","1273224","0.0-4.0-2.1-1.56","spark_pilot_2","7497","3","22","Male","","","","","","","null","<div style=""font-size:60px;"">+</div>","null","fixation","","","","","","","","","","","13","","",""
"revaluation","299","1277229","0.0-4.0-2.1-0.57","spark_pilot_2","7497","3","22","Male","","false","","","","","[672.3999999910593]","./assets/img/canyon/catch/1.jpg","[""spaceBar""]","value training","canyon","0","{""ArrowUp,ArrowLeft"":26,""ArrowUp,ArrowRight"":10,""ArrowDown,ArrowLeft"":5,""ArrowDown,ArrowRight"":17}","true","spaceBar","true","","","revaluation","2","14","","",""
"html-keyboard-response","300","1277730","0.0-4.0-2.1-1.57","spark_pilot_2","7497","3","22","Male","","","","","","","null","<div style=""font-size:60px;"">+</div>","null","fixation","","","","","","","","","","","15","","",""
"revaluation","301","1283735","0.0-4.0-2.1-0.58","spark_pilot_2","7497","3","22","Male","","false","","","","","[712.1000000089407,366.80000001192093]","./assets/img/canyon/memory/19.jpg","[""ArrowUp"",""ArrowLeft""]","value training","canyon","26","{""ArrowUp,ArrowLeft"":26,""ArrowUp,ArrowRight"":10,""ArrowDown,ArrowLeft"":5,""ArrowDown,ArrowRight"":17}","true","ArrowUp,ArrowLeft","false","","","revaluation","2","16","","",""
"html-keyboard-response","302","1284235","0.0-4.0-2.1-1.58","spark_pilot_2","7497","3","22","Male","","","","","","","null","<div style=""font-size:60px;"">+</div>","null","fixation","","","","","","","","","","","17","","",""
"revaluation","303","1290240","0.0-4.0-2.1-0.59","spark_pilot_2","7497","3","22","Male","","false","","","","","[711.2000000029802,438.1000000089407]","./assets/img/canyon/memory/30.jpg","[""ArrowUp"",""ArrowLeft""]","value training","canyon","26","{""ArrowUp,ArrowLeft"":26,""ArrowUp,ArrowRight"":10,""ArrowDown,ArrowLeft"":5,""ArrowDown,ArrowRight"":17}","true","ArrowUp,ArrowLeft","false","","","revaluation","2","18","","",""
"html-keyboard-response","304","1290741","0.0-4.0-2.1-1.59","spark_pilot_2","7497","3","22","Male","","","","","","","null","<div style=""font-size:60px;"">+</div>","null","fixation","","","","","","","","","","","19","","",""
"revaluation","305","1296746","0.0-4.0-2.1-0.60","spark_pilot_2","7497","3","22","Male","","false","","","","","[1007.2999999970198,446.79999999701977]","./assets/img/canyon/memory/6.jpg","[""ArrowUp"",""ArrowLeft""]","value training","canyon","26","{""ArrowUp,ArrowLeft"":26,""ArrowUp,ArrowRight"":10,""ArrowDown,ArrowLeft"":5,""ArrowDown,ArrowRight"":17}","true","ArrowUp,ArrowLeft","false","","","revaluation","2","20","","",""
"html-keyboard-response","306","1297247","0.0-4.0-2.1-1.60","spark_pilot_2","7497","3","22","Male","","","","","","","null","<div style=""font-size:60px;"">+</div>","null","fixation","","","","","","","","","","","21","","",""
"revaluation","307","1303252","0.0-4.0-2.1-0.61","spark_pilot_2","7497","3","22","Male","","false","","","","","[717.5,349.09999999403954]","./assets/img/canyon/memory/3.jpg","[""ArrowUp"",""ArrowLeft""]","value training","canyon","26","{""ArrowUp,ArrowLeft"":26,""ArrowUp,ArrowRight"":10,""ArrowDown,ArrowLeft"":5,""ArrowDown,ArrowRight"":17}","true","ArrowUp,ArrowLeft","false","","","revaluation","2","22","","",""
