"trial_type","trial_index","time_elapsed","internal_node_id","task_version","subject_id","assigned_condition","age","gender","browser_interaction","success","timeout","failed_images","failed_audio","failed_video","value","rt","stimulus","response","task_part","environment","score","rewardMap","correct","fullState","isCatch","numberMissed","duration","condition","order","trial_num","key_press","ground_truth","bonus"
"pavlovia","0","1611","0.0-0.0","spark_pilot_2","7515","7","23","Male","[{""event"":""blur"",""trial"":1,""time"":2441},{""event"":""focus"",""trial"":1,""time"":3468},{""event"":""focus"",""trial"":1,""time"":3468},{""event"":""fullscreenenter"",""trial"":2,""time"":13406},{""event"":""fullscreenexit"",""trial"":61,""time"":354472},{""event"":""blur"",""trial"":61,""time"":356215},{""event"":""focus"",""trial"":61,""time"":393312},{""event"":""focus"",""trial"":61,""time"":393312},{""event"":""blur"",""trial"":61,""time"":394394},{""event"":""focus"",""trial"":61,""time"":441270},{""event"":""focus"",""trial"":61,""time"":441271},{""event"":""blur"",""trial"":113,""time"":827436},{""event"":""focus"",""trial"":113,""time"":843663},{""event"":""focus"",""trial"":113,""time"":843663}]","","","","","","","","","","","","","","","","","","","","","","","",""
"preload","1","7907","0.0-1.0","spark_pilot_2","7515","7","23","Male","[{""event"":""blur"",""trial"":1,""time"":2441},{""event"":""focus"",""trial"":1,""time"":3468},{""event"":""focus"",""trial"":1,""time"":3468},{""event"":""fullscreenenter"",""trial"":2,""time"":13406},{""event"":""fullscreenexit"",""trial"":61,""time"":354472},{""event"":""blur"",""trial"":61,""time"":356215},{""event"":""focus"",""trial"":61,""time"":393312},{""event"":""focus"",""trial"":61,""time"":393312},{""event"":""blur"",""trial"":61,""time"":394394},{""event"":""focus"",""trial"":61,""time"":441270},{""event"":""focus"",""trial"":61,""time"":441271},{""event"":""blur"",""trial"":113,""time"":827436},{""event"":""focus"",""trial"":113,""time"":843663},{""event"":""focus"",""trial"":113,""time"":843663}]","true","false","[]","[]","[]","","","","","","","","","","","","","","","","","","",""
"fullscreen","2","14360","0.0-2.0","spark_pilot_2","7515","7","23","Male","","true","","","","","","","","","","","","","","","","","","","","","","",""
"call-function","3","15485","0.0-3.0","spark_pilot_2","7515","7","23","Male","","","","","","","","","","","","","","","","","","","","","","","","",""
"audio-button-response","4","17025","0.0-4.0-0.0-0.0","spark_pilot_2","7515","7","23","Male","","","","","","","","1425","./assets/audio/audiotest/turtle.mp3","2","audio_test","","","","","","","","","","","","","",""
"learning-instructions","5","25560","0.0-4.0-1.0-0.0","spark_pilot_2","7515","7","23","Male","","","","","","","","1575","<p> Welcome! Please remember to stay in fullscreen mode and don't click away from the experiment. </p>","","instructions","","","","","","","","","","","","","",""
"learning-instructions","6","37646","0.0-4.0-1.0-0.1","spark_pilot_2","7515","7","23","Male","","","","","","","","3692","<p> Today you will be playing a game to earn treasure. </p>
            <p> At the end of the experiment, you will earn a bonus based on how much treasure you find. </p>
            <img src='./assets/img/instructions/treasure.jpg' class='instructions-image'>","","instructions","","","","","","","","","","","","","",""
"learning-instructions","7","48548","0.0-4.0-1.0-0.2","spark_pilot_2","7515","7","23","Male","","","","","","","","2659","<p> Animals have hidden treasure in treasure chests. </p>
            <p> You need to first find an animal and then choose which of their treasure chests to search. </p>
            <img src='./assets/img/space/animals/cat.jpg' class='instructions-image'>","","instructions","","","","","","","","","","","","","",""
"learning-instructions","8","63536","0.0-4.0-1.0-0.3","spark_pilot_2","7515","7","23","Male","","","","","","","","1858.0000000000073","<p> In each round, you will search for treasure in a different place. In the real game, there will be two rounds. </p>
            <p> You will begin with a separate, practice round where you will search for treasure in outer space. </p>
            <img src='./assets/img/space/0.jpg' class='instructions-image'>","","instructions","","","","","","","","","","","","","",""
"learning-instructions","9","75971","0.0-4.0-1.0-0.4","spark_pilot_2","7515","7","23","Male","","","","","","","","1037","<p> On every turn, you will see a picture of the place that you are in, but the specific image may be different each time. </p>
            <p> For example, both of these images mean you are in outer space. </p>
            <img src='./assets/img/instructions/outerspace.jpg' class='instructions-image'>","","instructions","","","","","","","","","","","","","",""
"learning-instructions","10","86257","0.0-4.0-1.0-0.5","spark_pilot_2","7515","7","23","Male","","","","","","","","2471","<p> You need to decide which direction to travel in. </p>
            <p> You can choose between going <b>up or down</b> by using the arrow keys. </p>
            <img src='./assets/img/instructions/updown.jpg' class='instructions-image'>","","instructions","","","","","","","","","","","","","",""
"learning-instructions","11","96725","0.0-4.0-1.0-0.6","spark_pilot_2","7515","7","23","Male","","","","","","","","1676.9999999999854","<p> You will have <b>2 seconds</b> to make your choice. </p>
            <p> If you do not make a choice within 2 seconds, you will not find an animal or earn treasure. </p>
            <img src='./assets/img/instructions/2seconds.jpg' class='instructions-image'>","","instructions","","","","","","","","","","","","","",""
"learning-instructions","12","105260","0.0-4.0-1.0-0.7","spark_pilot_2","7515","7","23","Male","","","","","","","","1513","<p> Let’s try practicing that now! </p>
            <p> When you see a picture of the place you are in, press the <b>up</b> key to travel up. </p>
            <img src='./assets/img/instructions/pressUp.jpg' class='instructions-image'>","","instructions","","","","","","","","","","","","","",""
"revaluation","13","109274","0.0-4.0-2.0-0.0","spark_pilot_2","7515","7","23","Male","","","false","","","","","[1174]","./assets/img/space/0.jpg","[""ArrowUp""]","first stage practice","space","0","null","null","ArrowUp","false","","","","","","","",""
"html-keyboard-response","14","109775","0.0-4.0-2.0-1.0","spark_pilot_2","7515","7","23","Male","","","","","","","","null","<div style=""font-size:60px;"">+</div>","null","fixation","","","","","","","","","","","","","",""
"revaluation","15","113780","0.0-4.0-2.0-0.1","spark_pilot_2","7515","7","23","Male","","","false","","","","","[660.0000000000146]","./assets/img/space/1.jpg","[""ArrowUp""]","first stage practice","space","0","null","null","ArrowUp","false","","","","","","","",""
"html-keyboard-response","16","114281","0.0-4.0-2.0-1.1","spark_pilot_2","7515","7","23","Male","","","","","","","","null","<div style=""font-size:60px;"">+</div>","null","fixation","","","","","","","","","","","","","",""
"revaluation","17","118285","0.0-4.0-2.0-0.2","spark_pilot_2","7515","7","23","Male","","","false","","","","","[977]","./assets/img/space/2.jpg","[""ArrowUp""]","first stage practice","space","0","null","null","ArrowUp","false","","","","","","","",""
"html-keyboard-response","18","118787","0.0-4.0-2.0-1.2","spark_pilot_2","7515","7","23","Male","","","","","","","","null","<div style=""font-size:60px;"">+</div>","null","fixation","","","","","","","","","","","","","",""
"learning-instructions","19","126434","0.0-4.0-3.0-0.0","spark_pilot_2","7515","7","23","Male","","","","","","","","2960.0000000000146","<p> Great job! Now try pressing the <b>down</b> key to travel down. </p>
            <img src='./assets/img/instructions/pressDown.jpg' class='instructions-image'>","","instructions","","","","","","","","","","","","","",""
"revaluation","20","130439","0.0-4.0-4.0-0.0","spark_pilot_2","7515","7","23","Male","","","false","","","","","[505.00000000001455]","./assets/img/space/3.jpg","[""ArrowDown""]","first stage practice","space","0","null","null","ArrowDown","false","","","","","","","",""
"html-keyboard-response","21","130940","0.0-4.0-4.0-1.0","spark_pilot_2","7515","7","23","Male","","","","","","","","null","<div style=""font-size:60px;"">+</div>","null","fixation","","","","","","","","","","","","","",""
"revaluation","22","134945","0.0-4.0-4.0-0.1","spark_pilot_2","7515","7","23","Male","","","false","","","","","[734]","./assets/img/space/4.jpg","[""ArrowDown""]","first stage practice","space","0","null","null","ArrowDown","false","","","","","","","",""
"html-keyboard-response","23","135447","0.0-4.0-4.0-1.1","spark_pilot_2","7515","7","23","Male","","","","","","","","null","<div style=""font-size:60px;"">+</div>","null","fixation","","","","","","","","","","","","","",""
"revaluation","24","139450","0.0-4.0-4.0-0.2","spark_pilot_2","7515","7","23","Male","","","false","","","","","[779]","./assets/img/space/5.jpg","[""ArrowDown""]","first stage practice","space","0","null","null","ArrowDown","false","","","","","","","",""
"html-keyboard-response","25","139951","0.0-4.0-4.0-1.2","spark_pilot_2","7515","7","23","Male","","","","","","","","null","<div style=""font-size:60px;"">+</div>","null","fixation","","","","","","","","","","","","","",""
"learning-instructions","26","152257","0.0-4.0-5.0-0.0","spark_pilot_2","7515","7","23","Male","","","","","","","","2472.000000000029","<p> The animals don’t move, so the animal in the upper part of a place will stay in the upper part of a place, and the animal in the lower part of a place will stay in the lower part of a place. </p>","","instructions","","","","","","","","","","","","","",""
"learning-instructions","27","163160","0.0-4.0-5.0-0.1","spark_pilot_2","7515","7","23","Male","","","","","","","","1791","<p> Each animal has two treasure chests for you to choose from. </p>
            <p> The amount of treasure in each chest can range from <b> 0 to 40 pieces.</b></p>","","instructions","","","","","","","","","","","","","",""
"learning-instructions","28","180329","0.0-4.0-5.0-0.2","spark_pilot_2","7515","7","23","Male","","","","","","","","6000","<p> You should decide which chest to search for treasure by using the <b>left</b> and <b>right</b> arrow keys. </p>
            <p><b> Pay attention to which animal is on the screen, as the animals have different treasure chests. </b></p>
            <img src='./assets/img/instructions/leftright.jpg' class='instructions-image'>","","instructions","","","","","","","","","","","","","",""
"learning-instructions","29","187297","0.0-4.0-5.0-0.3","spark_pilot_2","7515","7","23","Male","","","","","","","","619","<p> Let’s try practicing that now. </p>
            <p> When you see an animal, choose which chest to search for treasure. </p>
            <img src='./assets/img/instructions/chooseChest.jpg' class='instructions-image'>","","instructions","","","","","","","","","","","","","",""
"revaluation","30","191302","0.0-4.0-6.0-0.0","spark_pilot_2","7515","7","23","Male","","","false","","","","","[801]","./assets/img/space/animals/cat.jpg","[""ArrowRight""]","second stage practice","space","36","{""ArrowUp,ArrowLeft"":3,""ArrowUp,ArrowRight"":36,""ArrowDown,ArrowLeft"":15,""ArrowDown,ArrowRight"":23}","true","ArrowUp,ArrowRight","","","","","","","","",""
"html-keyboard-response","31","191803","0.0-4.0-6.0-1.0","spark_pilot_2","7515","7","23","Male","","","","","","","","null","<div style=""font-size:60px;"">+</div>","null","fixation","","","","","","","","","","","","","",""
"revaluation","32","195808","0.0-4.0-6.0-0.1","spark_pilot_2","7515","7","23","Male","","","false","","","","","[437]","./assets/img/space/animals/rabbit.jpg","[""ArrowLeft""]","second stage practice","space","15","{""ArrowUp,ArrowLeft"":3,""ArrowUp,ArrowRight"":36,""ArrowDown,ArrowLeft"":15,""ArrowDown,ArrowRight"":23}","false","ArrowDown,ArrowLeft","","","","","","","","",""
"html-keyboard-response","33","196310","0.0-4.0-6.0-1.1","spark_pilot_2","7515","7","23","Male","","","","","","","","null","<div style=""font-size:60px;"">+</div>","null","fixation","","","","","","","","","","","","","",""
"revaluation","34","200314","0.0-4.0-6.0-0.2","spark_pilot_2","7515","7","23","Male","","","false","","","","","[475]","./assets/img/space/animals/cat.jpg","[""ArrowRight""]","second stage practice","space","36","{""ArrowUp,ArrowLeft"":3,""ArrowUp,ArrowRight"":36,""ArrowDown,ArrowLeft"":15,""ArrowDown,ArrowRight"":23}","true","ArrowUp,ArrowRight","","","","","","","","",""
"html-keyboard-response","35","200816","0.0-4.0-6.0-1.2","spark_pilot_2","7515","7","23","Male","","","","","","","","null","<div style=""font-size:60px;"">+</div>","null","fixation","","","","","","","","","","","","","",""
"revaluation","36","204821","0.0-4.0-6.0-0.3","spark_pilot_2","7515","7","23","Male","","","false","","","","","[496]","./assets/img/space/animals/rabbit.jpg","[""ArrowRight""]","second stage practice","space","23","{""ArrowUp,ArrowLeft"":3,""ArrowUp,ArrowRight"":36,""ArrowDown,ArrowLeft"":15,""ArrowDown,ArrowRight"":23}","true","ArrowDown,ArrowRight","","","","","","","","",""
"html-keyboard-response","37","205322","0.0-4.0-6.0-1.3","spark_pilot_2","7515","7","23","Male","","","","","","","","null","<div style=""font-size:60px;"">+</div>","null","fixation","","","","","","","","","","","","","",""
"learning-instructions","38","228344","0.0-4.0-7.0-0.0","spark_pilot_2","7515","7","23","Male","","","","","","","","6221","<p> Great job. Now let’s try putting it together. </p>
            <p> On each turn, you will first see a picture to remind you of the place you are in, and you need to choose whether to go up or down. </p>
            <p> Then you will see an animal and choose which of its chests to search for treasure. </p>","","instructions","","","","","","","","","","","","","",""
"learning-instructions","39","240863","0.0-4.0-7.0-0.1","spark_pilot_2","7515","7","23","Male","","","","","","","","4280.000000000029","<p> When you choose whether to go up or down, try to go to the animal with the chest with the most treasure. </p>
            <p> Try practicing that now! </p>","","instructions","","","","","","","","","","","","","",""
"revaluation","40","246868","0.0-4.0-8.0-0.0","spark_pilot_2","7515","7","23","Male","","","false","","","","","[1066,762]","./assets/img/space/6.jpg","[""ArrowUp"",""ArrowRight""]","full practice","space","36","{""ArrowUp,ArrowLeft"":3,""ArrowUp,ArrowRight"":36,""ArrowDown,ArrowLeft"":15,""ArrowDown,ArrowRight"":23}","true","ArrowUp,ArrowRight","false","","","","","","","",""
"html-keyboard-response","41","247368","0.0-4.0-8.0-1.0","spark_pilot_2","7515","7","23","Male","","","","","","","","null","<div style=""font-size:60px;"">+</div>","null","fixation","","","","","","","","","","","","","",""
"revaluation","42","253373","0.0-4.0-8.0-0.1","spark_pilot_2","7515","7","23","Male","","","false","","","","","[569,673]","./assets/img/space/7.jpg","[""ArrowDown"",""ArrowLeft""]","full practice","space","15","{""ArrowUp,ArrowLeft"":3,""ArrowUp,ArrowRight"":36,""ArrowDown,ArrowLeft"":15,""ArrowDown,ArrowRight"":23}","false","ArrowDown,ArrowLeft","false","","","","","","","",""
"html-keyboard-response","43","253874","0.0-4.0-8.0-1.1","spark_pilot_2","7515","7","23","Male","","","","","","","","null","<div style=""font-size:60px;"">+</div>","null","fixation","","","","","","","","","","","","","",""
"revaluation","44","259877","0.0-4.0-8.0-0.2","spark_pilot_2","7515","7","23","Male","","","false","","","","","[751,567]","./assets/img/space/8.jpg","[""ArrowDown"",""ArrowRight""]","full practice","space","23","{""ArrowUp,ArrowLeft"":3,""ArrowUp,ArrowRight"":36,""ArrowDown,ArrowLeft"":15,""ArrowDown,ArrowRight"":23}","false","ArrowDown,ArrowRight","false","","","","","","","",""
"html-keyboard-response","45","260379","0.0-4.0-8.0-1.2","spark_pilot_2","7515","7","23","Male","","","","","","","","null","<div style=""font-size:60px;"">+</div>","null","fixation","","","","","","","","","","","","","",""
"revaluation","46","266384","0.0-4.0-8.0-0.3","spark_pilot_2","7515","7","23","Male","","","false","","","","","[1302,876]","./assets/img/space/9.jpg","[""ArrowDown"",""ArrowLeft""]","full practice","space","15","{""ArrowUp,ArrowLeft"":3,""ArrowUp,ArrowRight"":36,""ArrowDown,ArrowLeft"":15,""ArrowDown,ArrowRight"":23}","false","ArrowDown,ArrowLeft","false","","","","","","","",""
"html-keyboard-response","47","266884","0.0-4.0-8.0-1.3","spark_pilot_2","7515","7","23","Male","","","","","","","","null","<div style=""font-size:60px;"">+</div>","null","fixation","","","","","","","","","","","","","",""
"revaluation","48","272890","0.0-4.0-8.0-0.4","spark_pilot_2","7515","7","23","Male","","","false","","","","","[691,404]","./assets/img/space/10.jpg","[""ArrowDown"",""ArrowLeft""]","full practice","space","15","{""ArrowUp,ArrowLeft"":3,""ArrowUp,ArrowRight"":36,""ArrowDown,ArrowLeft"":15,""ArrowDown,ArrowRight"":23}","false","ArrowDown,ArrowLeft","false","","","","","","","",""
"html-keyboard-response","49","273392","0.0-4.0-8.0-1.4","spark_pilot_2","7515","7","23","Male","","","","","","","","null","<div style=""font-size:60px;"">+</div>","null","fixation","","","","","","","","","","","","","",""
"learning-instructions","50","285695","0.0-4.0-9.0-0.0","spark_pilot_2","7515","7","23","Male","","","","","","","","2011","<p> One last thing: sometimes, you will see a robber. The robber can be anywhere in the picture. </p>
            <p> If you do not stop them, you will lose treasure. </p>
            <img src='./assets/img/instructions/robber.jpg' class='instructions-image'>","","instructions","","","","","","","","","","","","","",""
"learning-instructions","51","293697","0.0-4.0-9.0-0.1","spark_pilot_2","7515","7","23","Male","","","","","","","","853","<p> If you see the robber, you should <b>press the space bar</b> rather than using the arrow keys. </p>
            <p> Try practicing that now! </p>","","instructions","","","","","","","","","","","","","",""
"revaluation","52","297701","0.0-4.0-10.0-0.0","spark_pilot_2","7515","7","23","Male","","","false","","","","","[1871.9999999999418]","./assets/img/space/catch/0.jpg","[""spaceBar""]","catch practice","space","0","{""ArrowUp,ArrowLeft"":3,""ArrowUp,ArrowRight"":36,""ArrowDown,ArrowLeft"":15,""ArrowDown,ArrowRight"":23}","true","spaceBar","true","","","","","","","",""
"html-keyboard-response","53","298202","0.0-4.0-10.0-1.0","spark_pilot_2","7515","7","23","Male","","","","","","","","null","<div style=""font-size:60px;"">+</div>","null","fixation","","","","","","","","","","","","","",""
"revaluation","54","302207","0.0-4.0-10.0-0.1","spark_pilot_2","7515","7","23","Male","","","false","","","","","[901]","./assets/img/space/catch/1.jpg","[""spaceBar""]","catch practice","space","0","{""ArrowUp,ArrowLeft"":3,""ArrowUp,ArrowRight"":36,""ArrowDown,ArrowLeft"":15,""ArrowDown,ArrowRight"":23}","true","spaceBar","true","","","","","","","",""
"html-keyboard-response","55","302708","0.0-4.0-10.0-1.1","spark_pilot_2","7515","7","23","Male","","","","","","","","null","<div style=""font-size:60px;"">+</div>","null","fixation","","","","","","","","","","","","","",""
"revaluation","56","306712","0.0-4.0-10.0-0.2","spark_pilot_2","7515","7","23","Male","","","false","","","","","[1077]","./assets/img/space/catch/2.jpg","[""spaceBar""]","catch practice","space","0","{""ArrowUp,ArrowLeft"":3,""ArrowUp,ArrowRight"":36,""ArrowDown,ArrowLeft"":15,""ArrowDown,ArrowRight"":23}","true","spaceBar","true","","","","","","","",""
"html-keyboard-response","57","307213","0.0-4.0-10.0-1.2","spark_pilot_2","7515","7","23","Male","","","","","","","","null","<div style=""font-size:60px;"">+</div>","null","fixation","","","","","","","","","","","","","",""
"learning-instructions","58","327640","0.0-4.0-11.0-0.0","spark_pilot_2","7515","7","23","Male","","","","","","","","6854","<p> After you explore a place to find treasure, it will be time to play a different game. </p>
            <p> During this game, red dots will appear on the screen and fall down slowly. </p>
            <p><b> You must click on them before they reach the bottom. </b></p>
            <img src='./assets/img/instructions/dotGame.jpg' class='instructions-image'>","","instructions","","","","","","","","","","","","","",""
"learning-instructions","59","334142","0.0-4.0-11.0-0.1","spark_pilot_2","7515","7","23","Male","","","","","","","","840","<p> For every dot you click, you will earn additional treasure. </p>
            <p> Let’s try practicing that now. </p>","","instructions","","","","","","","","","","","","","",""
"revaluation","60","349145","0.0-4.0-12.0-0.0","spark_pilot_2","7515","7","23","Male","[{""event"":""blur"",""trial"":1,""time"":2441},{""event"":""focus"",""trial"":1,""time"":3468},{""event"":""focus"",""trial"":1,""time"":3468},{""event"":""fullscreenenter"",""trial"":2,""time"":13406},{""event"":""fullscreenexit"",""trial"":61,""time"":354472},{""event"":""blur"",""trial"":61,""time"":356215},{""event"":""focus"",""trial"":61,""time"":393312},{""event"":""focus"",""trial"":61,""time"":393312},{""event"":""blur"",""trial"":61,""time"":394394},{""event"":""focus"",""trial"":61,""time"":441270},{""event"":""focus"",""trial"":61,""time"":441271},{""event"":""blur"",""trial"":113,""time"":827436},{""event"":""focus"",""trial"":113,""time"":843663},{""event"":""focus"",""trial"":113,""time"":843663}]","","","","","","","[65]","","","rest practice","","10","","","","","0","15000","","","","","",""
"learning-instructions","61","442561","0.0-4.0-13.0-0.0-0.0","spark_pilot_2","7515","7","23","Male","","","","","","","","88192","<p> Now, you will practice a shortened version of the game to get a sense of how it all fits together. </p>","","instructions","","","","","","","","","","","","","",""
"learning-instructions","62","451313","0.0-4.0-13.0-0.0-0.1","spark_pilot_2","7515","7","23","Male","","","","","","","","5573","<p>This time you are searching for treasure in outer space.</p>","","instructions","","","","","","","","","","","","","",""
"learning-instructions","63","478035","0.0-4.0-13.0-1.0-0.0","spark_pilot_2","7515","7","23","Male","","","","","","","","10893.000000000058","<p> Remember, when you see a picture of the place, use the up and down keys to <b>find an animal</b>.</p>
            <p> When you encounter an animal, you should use the left and right keys to <b>select a treasure chest</b>.</p>
            <p> Don't forget to look out for the robber! </p>","","instructions","","","","","","","","","","","","","",""
"revaluation","64","482040","0.0-4.0-13.0-2.0-0.0","spark_pilot_2","7515","7","23","Male","","","true","","","","","[]","./assets/img/space/11.jpg","[]","practice block","space","-5","{""ArrowUp,ArrowLeft"":3,""ArrowUp,ArrowRight"":36,""ArrowDown,ArrowLeft"":15,""ArrowDown,ArrowRight"":23}","false","","false","","","","","","","",""
"html-keyboard-response","65","482541","0.0-4.0-13.0-2.0-1.0","spark_pilot_2","7515","7","23","Male","","","","","","","","null","<div style=""font-size:60px;"">+</div>","null","fixation","","","","","","","","","","","","","",""
"revaluation","66","488545","0.0-4.0-13.0-2.0-0.1","spark_pilot_2","7515","7","23","Male","","","false","","","","","[640,784]","./assets/img/space/12.jpg","[""ArrowDown"",""ArrowRight""]","practice block","space","23","{""ArrowUp,ArrowLeft"":3,""ArrowUp,ArrowRight"":36,""ArrowDown,ArrowLeft"":15,""ArrowDown,ArrowRight"":23}","false","ArrowDown,ArrowRight","false","","","","","","","",""
"html-keyboard-response","67","489046","0.0-4.0-13.0-2.0-1.1","spark_pilot_2","7515","7","23","Male","","","","","","","","null","<div style=""font-size:60px;"">+</div>","null","fixation","","","","","","","","","","","","","",""
"revaluation","68","495050","0.0-4.0-13.0-2.0-0.2","spark_pilot_2","7515","7","23","Male","","","false","","","","","[519,567]","./assets/img/space/13.jpg","[""ArrowUp"",""ArrowLeft""]","practice block","space","3","{""ArrowUp,ArrowLeft"":3,""ArrowUp,ArrowRight"":36,""ArrowDown,ArrowLeft"":15,""ArrowDown,ArrowRight"":23}","false","ArrowUp,ArrowLeft","false","","","","","","","",""
"html-keyboard-response","69","495551","0.0-4.0-13.0-2.0-1.2","spark_pilot_2","7515","7","23","Male","","","","","","","","null","<div style=""font-size:60px;"">+</div>","null","fixation","","","","","","","","","","","","","",""
"revaluation","70","501555","0.0-4.0-13.0-2.0-0.3","spark_pilot_2","7515","7","23","Male","","","false","","","","","[670,668.9999999999418]","./assets/img/space/14.jpg","[""ArrowDown"",""ArrowRight""]","practice block","space","23","{""ArrowUp,ArrowLeft"":3,""ArrowUp,ArrowRight"":36,""ArrowDown,ArrowLeft"":15,""ArrowDown,ArrowRight"":23}","false","ArrowDown,ArrowRight","false","","","","","","","",""
"html-keyboard-response","71","502056","0.0-4.0-13.0-2.0-1.3","spark_pilot_2","7515","7","23","Male","","","","","","","","null","<div style=""font-size:60px;"">+</div>","null","fixation","","","","","","","","","","","","","",""
"revaluation","72","508059","0.0-4.0-13.0-2.0-0.4","spark_pilot_2","7515","7","23","Male","","","false","","","","","[965.0000000000582,869]","./assets/img/space/11.jpg","[""ArrowUp"",""ArrowLeft""]","practice block","space","3","{""ArrowUp,ArrowLeft"":3,""ArrowUp,ArrowRight"":36,""ArrowDown,ArrowLeft"":15,""ArrowDown,ArrowRight"":23}","false","ArrowUp,ArrowLeft","false","","","","","","","",""
"html-keyboard-response","73","508560","0.0-4.0-13.0-2.0-1.4","spark_pilot_2","7515","7","23","Male","","","","","","","","null","<div style=""font-size:60px;"">+</div>","null","fixation","","","","","","","","","","","","","",""
"revaluation","74","514563","0.0-4.0-13.0-2.0-0.5","spark_pilot_2","7515","7","23","Male","","","false","","","","","[565,1133]","./assets/img/space/12.jpg","[""ArrowUp"",""ArrowLeft""]","practice block","space","3","{""ArrowUp,ArrowLeft"":3,""ArrowUp,ArrowRight"":36,""ArrowDown,ArrowLeft"":15,""ArrowDown,ArrowRight"":23}","false","ArrowUp,ArrowLeft","false","","","","","","","",""
"html-keyboard-response","75","515065","0.0-4.0-13.0-2.0-1.5","spark_pilot_2","7515","7","23","Male","","","","","","","","null","<div style=""font-size:60px;"">+</div>","null","fixation","","","","","","","","","","","","","",""
"revaluation","76","521068","0.0-4.0-13.0-2.0-0.6","spark_pilot_2","7515","7","23","Male","","","false","","","","","[796.0000000000582,700.0000000000582]","./assets/img/space/13.jpg","[""ArrowDown"",""ArrowLeft""]","practice block","space","15","{""ArrowUp,ArrowLeft"":3,""ArrowUp,ArrowRight"":36,""ArrowDown,ArrowLeft"":15,""ArrowDown,ArrowRight"":23}","false","ArrowDown,ArrowLeft","false","","","","","","","",""
"html-keyboard-response","77","521569","0.0-4.0-13.0-2.0-1.6","spark_pilot_2","7515","7","23","Male","","","","","","","","null","<div style=""font-size:60px;"">+</div>","null","fixation","","","","","","","","","","","","","",""
"revaluation","78","527572","0.0-4.0-13.0-2.0-0.7","spark_pilot_2","7515","7","23","Male","","","false","","","","","[508,602.9999999998836]","./assets/img/space/14.jpg","[""ArrowUp"",""ArrowRight""]","practice block","space","36","{""ArrowUp,ArrowLeft"":3,""ArrowUp,ArrowRight"":36,""ArrowDown,ArrowLeft"":15,""ArrowDown,ArrowRight"":23}","true","ArrowUp,ArrowRight","false","","","","","","","",""
"html-keyboard-response","79","528073","0.0-4.0-13.0-2.0-1.7","spark_pilot_2","7515","7","23","Male","","","","","","","","null","<div style=""font-size:60px;"">+</div>","null","fixation","","","","","","","","","","","","","",""
"revaluation","80","532076","0.0-4.0-13.0-2.0-0.8","spark_pilot_2","7515","7","23","Male","","","false","","","","","[924]","./assets/img/space/catch/3.jpg","[""spaceBar""]","practice block","space","0","{""ArrowUp,ArrowLeft"":3,""ArrowUp,ArrowRight"":36,""ArrowDown,ArrowLeft"":15,""ArrowDown,ArrowRight"":23}","true","spaceBar","true","","","","","","","",""
"html-keyboard-response","81","532577","0.0-4.0-13.0-2.0-1.8","spark_pilot_2","7515","7","23","Male","","","","","","","","null","<div style=""font-size:60px;"">+</div>","null","fixation","","","","","","","","","","","","","",""
"learning-instructions","82","547742","0.0-4.0-13.0-3.0-0.0","spark_pilot_2","7515","7","23","Male","","","","","","","","1625","<p> Now, you will travel with a friend who will choose whether you go up or down first. </p>
            <p> On these turns, you will just see the animal that they found. You will still get to choose which chest to search for treasure.</p>","","instructions","","","","","","","","","","","","","",""
"revaluation","83","551747","0.0-4.0-13.0-4.0-0.0","spark_pilot_2","7515","7","23","Male","","","false","","","","","[1037]","./assets/img/space/animals/cat.jpg","[""ArrowRight""]","practice block","space","36","{""ArrowUp,ArrowLeft"":3,""ArrowUp,ArrowRight"":36,""ArrowDown,ArrowLeft"":15,""ArrowDown,ArrowRight"":23}","true","ArrowUp,ArrowRight","","","","","","","","",""
"html-keyboard-response","84","552248","0.0-4.0-13.0-4.0-1.0","spark_pilot_2","7515","7","23","Male","","","","","","","","null","<div style=""font-size:60px;"">+</div>","null","fixation","","","","","","","","","","","","","",""
"revaluation","85","556251","0.0-4.0-13.0-4.0-0.1","spark_pilot_2","7515","7","23","Male","","","false","","","","","[940]","./assets/img/space/animals/rabbit.jpg","[""ArrowRight""]","practice block","space","23","{""ArrowUp,ArrowLeft"":3,""ArrowUp,ArrowRight"":36,""ArrowDown,ArrowLeft"":15,""ArrowDown,ArrowRight"":23}","true","ArrowDown,ArrowRight","","","","","","","","",""
"html-keyboard-response","86","556753","0.0-4.0-13.0-4.0-1.1","spark_pilot_2","7515","7","23","Male","","","","","","","","null","<div style=""font-size:60px;"">+</div>","null","fixation","","","","","","","","","","","","","",""
"revaluation","87","560755","0.0-4.0-13.0-4.0-0.2","spark_pilot_2","7515","7","23","Male","","","false","","","","","[452]","./assets/img/space/animals/rabbit.jpg","[""ArrowLeft""]","practice block","space","15","{""ArrowUp,ArrowLeft"":3,""ArrowUp,ArrowRight"":36,""ArrowDown,ArrowLeft"":15,""ArrowDown,ArrowRight"":23}","false","ArrowDown,ArrowLeft","","","","","","","","",""
"html-keyboard-response","88","561256","0.0-4.0-13.0-4.0-1.2","spark_pilot_2","7515","7","23","Male","","","","","","","","null","<div style=""font-size:60px;"">+</div>","null","fixation","","","","","","","","","","","","","",""
"revaluation","89","565259","0.0-4.0-13.0-4.0-0.3","spark_pilot_2","7515","7","23","Male","","","false","","","","","[748]","./assets/img/space/animals/cat.jpg","[""ArrowLeft""]","practice block","space","3","{""ArrowUp,ArrowLeft"":3,""ArrowUp,ArrowRight"":36,""ArrowDown,ArrowLeft"":15,""ArrowDown,ArrowRight"":23}","false","ArrowUp,ArrowLeft","","","","","","","","",""
"html-keyboard-response","90","565760","0.0-4.0-13.0-4.0-1.3","spark_pilot_2","7515","7","23","Male","","","","","","","","null","<div style=""font-size:60px;"">+</div>","null","fixation","","","","","","","","","","","","","",""
"learning-instructions","91","576134","0.0-4.0-13.0-5.0-0.0","spark_pilot_2","7515","7","23","Male","","","","","","","","3022","<p> Time to play the dot game! </p>
            <p> For 15 seconds, click the red dots on the following screen as they appear. </p>","","instructions","","","","","","","","","","","","","",""
"revaluation","92","591135","0.0-4.0-13.0-6.0-0.0","spark_pilot_2","7515","7","23","Male","","","","","","","","[81,57]","","","rest practice","","20","","","","","0","15000","","","","","",""
"learning-instructions","93","611607","0.0-4.0-13.0-7.0-0.0","spark_pilot_2","7515","7","23","Male","","","","","","","","14359","<p> You have almost finished this part of the game! </p>
            <p> We are going to ask you to make a few more choices. </p>","","instructions","","","","","","","","","","","","","",""
"learning-instructions","94","641729","0.0-4.0-13.0-7.0-0.1","spark_pilot_2","7515","7","23","Male","","","","","","","","16125","<p> First, you need to decide whether to go up or down. When you see each picture, use the arrow keys to make your choice. </p>
            <p><b>You will not see which animal you found, but try to get to the one that will give you the most treasure.</b></p>","","instructions","","","","","","","","","","","","","",""
"revaluation","95","642878","0.0-4.0-13.0-8.0","spark_pilot_2","7515","7","23","Male","","","false","","","","","[1144]","./assets/img/space/15.jpg","[""ArrowUp""]","practice block","space","0","{""ArrowUp,ArrowLeft"":3,""ArrowUp,ArrowRight"":36,""ArrowDown,ArrowLeft"":15,""ArrowDown,ArrowRight"":23}","true","ArrowUp","false","","","","","","","",""
"html-keyboard-response","96","643379","0.0-4.0-13.0-9.0","spark_pilot_2","7515","7","23","Male","","","","","","","","null","<div style=""font-size:60px;"">+</div>","null","fixation","","","","","","","","","","","","","",""
"learning-instructions","97","655666","0.0-4.0-13.0-10.0-0.0","spark_pilot_2","7515","7","23","Male","","","","","","","","928","<p> Now you will see the animals again and can search their chests for treasure. </p>
            <p> This time, you will not see how much treasure you earned, but you will earn more bonus money for making better choices. </p>","","instructions","","","","","","","","","","","","","",""
"revaluation","98","656646","0.0-4.0-13.0-11.0-0.0","spark_pilot_2","7515","7","23","Male","","","false","","","","","[977]","./assets/img/space/animals/cat.jpg","[""ArrowRight""]","practice block","space","0","{""ArrowUp,ArrowLeft"":3,""ArrowUp,ArrowRight"":36,""ArrowDown,ArrowLeft"":15,""ArrowDown,ArrowRight"":23}","true","ArrowUp,ArrowRight","","","","","","","","",""
"html-keyboard-response","99","657147","0.0-4.0-13.0-11.0-1.0","spark_pilot_2","7515","7","23","Male","","","","","","","","null","<div style=""font-size:60px;"">+</div>","null","fixation","","","","","","","","","","","","","",""
"revaluation","100","657830","0.0-4.0-13.0-11.0-0.1","spark_pilot_2","7515","7","23","Male","","","false","","","","","[679]","./assets/img/space/animals/rabbit.jpg","[""ArrowLeft""]","practice block","space","0","{""ArrowUp,ArrowLeft"":3,""ArrowUp,ArrowRight"":36,""ArrowDown,ArrowLeft"":15,""ArrowDown,ArrowRight"":23}","false","ArrowDown,ArrowLeft","","","","","","","","",""
"html-keyboard-response","101","658331","0.0-4.0-13.0-11.0-1.1","spark_pilot_2","7515","7","23","Male","","","","","","","","null","<div style=""font-size:60px;"">+</div>","null","fixation","","","","","","","","","","","","","",""
"learning-instructions","102","663984","0.0-4.0-14.0-0.0","spark_pilot_2","7515","7","23","Male","","","","","","","","1086","<p> Before you start, we're going to ask you a few questions about how the game works. </p>","","instructions","","","","","","","","","","","","","",""
"comp-q","103","670485","0.0-4.0-15.0-0.0-0.0","spark_pilot_2","7515","7","23","Male","","","","","","","","928","<p> <b> True or False? </b> </p>
            <p> There can be 50 pieces of treasure in a given animal's chest. </p>","0","comp_question","","","","false","","","","","","","","","",""
"comp-q","104","677837","0.0-4.0-15.0-0.0-1.0","spark_pilot_2","7515","7","23","Male","","","","","","","","838","<p> <b>Incorrect.</b> The amount of treasure in each chest can range from 0 to 40 pieces. </p>","0","comp_answer","","","","","","","","","","","","","",""
"comp-q","105","684055","0.0-4.0-15.0-0.1-0.1","spark_pilot_2","7515","7","23","Male","","","","","","","","656","<p> <b> True or False? </b> </p>
            <p> There can be 50 pieces of treasure in a given animal's chest. </p>","1","comp_question","","","","true","","","","","","","","","",""
"comp-q","106","711893","0.0-4.0-15.0-0.1-1.1","spark_pilot_2","7515","7","23","Male","","","","","","","","20638","<p> <b> That's right! </b> The amount of treasure in each chest can range from 0 to 40 pieces. </p>","0","comp_answer","","","","","","","","","","","","","",""
"comp-q","107","719844","0.0-4.0-15.0-0.2-0.2","spark_pilot_2","7515","7","23","Male","","","","","","","","846.9999999998836","<p> <b> True or False? </b> </p><p> In this game, all animals have the same amount of treasure in their left and right chests. </p>","1","comp_question","","","","true","","","","","","","","","",""
"comp-q","108","742065","0.0-4.0-15.0-0.2-1.2","spark_pilot_2","7515","7","23","Male","","","","","","","","17002","<p> <b> That's right! </b> Animals have different amounts of treasure in their treasure chests. </p>","0","comp_answer","","","","","","","","","","","","","",""
"comp-q","109","783879","0.0-4.0-15.0-0.3-0.3","spark_pilot_2","7515","7","23","Male","","","","","","","","35991.00000000012","<p> <b> True or False? </b> </p><p> The same animal will always be there if you go up in the same place. </p>","1","comp_question","","","","false","","","","","","","","","",""
"comp-q","110","794905","0.0-4.0-15.0-0.3-1.3","spark_pilot_2","7515","7","23","Male","","","","","","","","4743","<p> <b>Incorrect.</b> One animal lives in the upper part and one lives in the lower part of every place. </p>","0","comp_answer","","","","","","","","","","","","","",""
"comp-q","111","803202","0.0-4.0-15.0-0.4-0.4","spark_pilot_2","7515","7","23","Male","","","","","","","","2480","<p> <b> True or False? </b> </p><p> The same animal will always be there if you go up in the same place. </p>","0","comp_question","","","","true","","","","","","","","","",""
"comp-q","112","823118","0.0-4.0-15.0-0.4-1.4","spark_pilot_2","7515","7","23","Male","[{""event"":""blur"",""trial"":1,""time"":2441},{""event"":""focus"",""trial"":1,""time"":3468},{""event"":""focus"",""trial"":1,""time"":3468},{""event"":""fullscreenenter"",""trial"":2,""time"":13406},{""event"":""fullscreenexit"",""trial"":61,""time"":354472},{""event"":""blur"",""trial"":61,""time"":356215},{""event"":""focus"",""trial"":61,""time"":393312},{""event"":""focus"",""trial"":61,""time"":393312},{""event"":""blur"",""trial"":61,""time"":394394},{""event"":""focus"",""trial"":61,""time"":441270},{""event"":""focus"",""trial"":61,""time"":441271},{""event"":""blur"",""trial"":113,""time"":827436},{""event"":""focus"",""trial"":113,""time"":843663},{""event"":""focus"",""trial"":113,""time"":843663}]","","","","","","","12946","<p> <b> That's right! </b> One animal lives in the upper part and one lives in the lower part of every place. </p>","0","comp_answer","","","","","","","","","","","","","",""
"comp-q","113","845121","0.0-4.0-15.0-0.5-0.5","spark_pilot_2","7515","7","23","Male","","","","","","","","16491","<p> <b> True or False? </b> </p><p> If you see a different picture, it means you are in a new place. </p>","0","comp_question","","","","false","","","","","","","","","",""
"comp-q","114","887776","0.0-4.0-15.0-0.5-1.5","spark_pilot_2","7515","7","23","Male","","","","","","","","30948","<p> <b>Incorrect.</b> Lots of different images may show the same place. For example,  you may see three different images that all remind you that you are in outer space. </p>","0","comp_answer","","","","","","","","","","","","","",""
"comp-q","115","894128","0.0-4.0-15.0-0.6-0.6","spark_pilot_2","7515","7","23","Male","","","","","","","","851","<p> <b> True or False? </b> </p><p> If you see a different picture, it means you are in a new place. </p>","0","comp_question","","","","false","","","","","","","","","",""
"comp-q","116","936834","0.0-4.0-15.0-0.6-1.6","spark_pilot_2","7515","7","23","Male","","","","","","","","31647","<p> <b>Incorrect.</b> Lots of different images may show the same place. For example,  you may see three different images that all remind you that you are in outer space. </p>","0","comp_answer","","","","","","","","","","","","","",""
"comp-q","117","943019","0.0-4.0-15.0-0.7-0.7","spark_pilot_2","7515","7","23","Male","","","","","","","","685","<p> <b> True or False? </b> </p><p> If you see a different picture, it means you are in a new place. </p>","1","comp_question","","","","true","","","","","","","","","",""
"comp-q","118","1002761","0.0-4.0-15.0-0.7-1.7","spark_pilot_2","7515","7","23","Male","","","","","","","","48536.00000000012","<p> <b> That's right! </b> Lots of different images may show the same place. For example,  you may see three different images that all remind you that you are in outer space. </p>","0","comp_answer","","","","","","","","","","","","","",""
"learning-instructions","119","1014481","0.0-4.0-16.0-0.0","spark_pilot_2","7515","7","23","Male","","","","","","","","1882.0000000001164","<p> Good job. Remember to do your best because the amount of treasure you earn will be converted into bonus money. </p>
            <p> It’s time to start the real game! </p>","","instructions","","","","","","","","","","","","","",""
"learning-instructions","120","1018365","0.0-5.0-0.0-0.0","spark_pilot_2","7515","7","23","Male","","","","","","","","1126","<p> This time you are searching for treasure in the <b>canyon</b>.</p>","","instructions","","","","","","","","","","","","","",""
"learning-instructions","121","1064306","0.0-5.0-0.0-0.1","spark_pilot_2","7515","7","23","Male","","","","","","","","28663","<p><b>New</b> animals with <b>new</b> treasure chests live here. You need to explore to discover where the animal with the best treasure chest is.</p>
                    <p> Like before, once you figure out which animal has the chest with the most treasure, you should try to get to that animal and select that chest! </p>","","instructions","","","","","","","","","","","","","",""
"learning-instructions","122","1080509","0.0-5.0-1.0-0.0","spark_pilot_2","7515","7","23","Male","","","","","","","","1473","<p> Remember, when you see a picture of the place, use the up and down keys to <b>find an animal</b>.</p>
            <p> When you encounter an animal, you should use the left and right keys to <b>select a treasure chest</b>.</p>
            <p> Don't forget to look out for the robber! </p>","","instructions","","","","","","","","","","","","","",""
"revaluation","123","1086516","0.0-5.0-2.0-0.0","spark_pilot_2","7515","7","23","Male","","","false","","","","","[1150,929]","./assets/img/canyon/memory/7.jpg","[""ArrowDown"",""ArrowRight""]","value training","canyon","30","{""ArrowUp,ArrowLeft"":23,""ArrowUp,ArrowRight"":10,""ArrowDown,ArrowLeft"":8,""ArrowDown,ArrowRight"":30}","true","ArrowDown,ArrowRight","false","","","original","1","0","","",""
"html-keyboard-response","124","1087018","0.0-5.0-2.0-1.0","spark_pilot_2","7515","7","23","Male","","","","","","","","null","<div style=""font-size:60px;"">+</div>","null","fixation","","","","","","","","","","","1","","",""
"revaluation","125","1091023","0.0-5.0-2.0-0.1","spark_pilot_2","7515","7","23","Male","","","false","","","","","[1380]","./assets/img/canyon/catch/1.jpg","[""spaceBar""]","value training","canyon","0","{""ArrowUp,ArrowLeft"":23,""ArrowUp,ArrowRight"":10,""ArrowDown,ArrowLeft"":8,""ArrowDown,ArrowRight"":30}","true","spaceBar","true","","","original","1","2","","",""
"html-keyboard-response","126","1091525","0.0-5.0-2.0-1.1","spark_pilot_2","7515","7","23","Male","","","","","","","","null","<div style=""font-size:60px;"">+</div>","null","fixation","","","","","","","","","","","3","","",""
"revaluation","127","1097529","0.0-5.0-2.0-0.2","spark_pilot_2","7515","7","23","Male","","","false","","","","","[1482,1227.0000000002328]","./assets/img/canyon/memory/37.jpg","[""ArrowDown"",""ArrowLeft""]","value training","canyon","8","{""ArrowUp,ArrowLeft"":23,""ArrowUp,ArrowRight"":10,""ArrowDown,ArrowLeft"":8,""ArrowDown,ArrowRight"":30}","false","ArrowDown,ArrowLeft","false","","","original","1","4","","",""
"html-keyboard-response","128","1098031","0.0-5.0-2.0-1.2","spark_pilot_2","7515","7","23","Male","","","","","","","","null","<div style=""font-size:60px;"">+</div>","null","fixation","","","","","","","","","","","5","","",""
"revaluation","129","1104034","0.0-5.0-2.0-0.3","spark_pilot_2","7515","7","23","Male","","","false","","","","","[1224.9999999997672,952]","./assets/img/canyon/memory/21.jpg","[""ArrowUp"",""ArrowRight""]","value training","canyon","10","{""ArrowUp,ArrowLeft"":23,""ArrowUp,ArrowRight"":10,""ArrowDown,ArrowLeft"":8,""ArrowDown,ArrowRight"":30}","false","ArrowUp,ArrowRight","false","","","original","1","6","","",""
"html-keyboard-response","130","1104535","0.0-5.0-2.0-1.3","spark_pilot_2","7515","7","23","Male","","","","","","","","null","<div style=""font-size:60px;"">+</div>","null","fixation","","","","","","","","","","","7","","",""
"revaluation","131","1108538","0.0-5.0-2.0-0.4","spark_pilot_2","7515","7","23","Male","","","false","","","","","[1271]","./assets/img/canyon/catch/6.jpg","[""spaceBar""]","value training","canyon","0","{""ArrowUp,ArrowLeft"":23,""ArrowUp,ArrowRight"":10,""ArrowDown,ArrowLeft"":8,""ArrowDown,ArrowRight"":30}","true","spaceBar","true","","","original","1","8","","",""
"html-keyboard-response","132","1109039","0.0-5.0-2.0-1.4","spark_pilot_2","7515","7","23","Male","","","","","","","","null","<div style=""font-size:60px;"">+</div>","null","fixation","","","","","","","","","","","9","","",""
"revaluation","133","1113042","0.0-5.0-2.0-0.5","spark_pilot_2","7515","7","23","Male","","","false","","","","","[1160]","./assets/img/canyon/catch/3.jpg","[""spaceBar""]","value training","canyon","0","{""ArrowUp,ArrowLeft"":23,""ArrowUp,ArrowRight"":10,""ArrowDown,ArrowLeft"":8,""ArrowDown,ArrowRight"":30}","true","spaceBar","true","","","original","1","10","","",""
"html-keyboard-response","134","1113544","0.0-5.0-2.0-1.5","spark_pilot_2","7515","7","23","Male","","","","","","","","null","<div style=""font-size:60px;"">+</div>","null","fixation","","","","","","","","","","","11","","",""
"revaluation","135","1119548","0.0-5.0-2.0-0.6","spark_pilot_2","7515","7","23","Male","","","false","","","","","[1126,629.0000000002328]","./assets/img/canyon/memory/38.jpg","[""ArrowDown"",""ArrowLeft""]","value training","canyon","8","{""ArrowUp,ArrowLeft"":23,""ArrowUp,ArrowRight"":10,""ArrowDown,ArrowLeft"":8,""ArrowDown,ArrowRight"":30}","false","ArrowDown,ArrowLeft","false","","","original","1","12","","",""
"html-keyboard-response","136","1120049","0.0-5.0-2.0-1.6","spark_pilot_2","7515","7","23","Male","","","","","","","","null","<div style=""font-size:60px;"">+</div>","null","fixation","","","","","","","","","","","13","","",""
"revaluation","137","1126053","0.0-5.0-2.0-0.7","spark_pilot_2","7515","7","23","Male","","","false","","","","","[860.9999999997672,404]","./assets/img/canyon/memory/31.jpg","[""ArrowUp"",""ArrowRight""]","value training","canyon","10","{""ArrowUp,ArrowLeft"":23,""ArrowUp,ArrowRight"":10,""ArrowDown,ArrowLeft"":8,""ArrowDown,ArrowRight"":30}","false","ArrowUp,ArrowRight","false","","","original","1","14","","",""
"html-keyboard-response","138","1126555","0.0-5.0-2.0-1.7","spark_pilot_2","7515","7","23","Male","","","","","","","","null","<div style=""font-size:60px;"">+</div>","null","fixation","","","","","","","","","","","15","","",""
"revaluation","139","1132561","0.0-5.0-2.0-0.8","spark_pilot_2","7515","7","23","Male","","","false","","","","","[1483,803]","./assets/img/canyon/memory/17.jpg","[""ArrowUp"",""ArrowRight""]","value training","canyon","10","{""ArrowUp,ArrowLeft"":23,""ArrowUp,ArrowRight"":10,""ArrowDown,ArrowLeft"":8,""ArrowDown,ArrowRight"":30}","false","ArrowUp,ArrowRight","false","","","original","1","16","","",""
"html-keyboard-response","140","1133062","0.0-5.0-2.0-1.8","spark_pilot_2","7515","7","23","Male","","","","","","","","null","<div style=""font-size:60px;"">+</div>","null","fixation","","","","","","","","","","","17","","",""
"revaluation","141","1139067","0.0-5.0-2.0-0.9","spark_pilot_2","7515","7","23","Male","","","false","","","","","[759,695]","./assets/img/canyon/memory/41.jpg","[""ArrowUp"",""ArrowLeft""]","value training","canyon","23","{""ArrowUp,ArrowLeft"":23,""ArrowUp,ArrowRight"":10,""ArrowDown,ArrowLeft"":8,""ArrowDown,ArrowRight"":30}","false","ArrowUp,ArrowLeft","false","","","original","1","18","","",""
"html-keyboard-response","142","1139569","0.0-5.0-2.0-1.9","spark_pilot_2","7515","7","23","Male","","","","","","","","null","<div style=""font-size:60px;"">+</div>","null","fixation","","","","","","","","","","","19","","",""
"revaluation","143","1145573","0.0-5.0-2.0-0.10","spark_pilot_2","7515","7","23","Male","","","false","","","","","[875,539]","./assets/img/canyon/memory/39.jpg","[""ArrowDown"",""ArrowLeft""]","value training","canyon","8","{""ArrowUp,ArrowLeft"":23,""ArrowUp,ArrowRight"":10,""ArrowDown,ArrowLeft"":8,""ArrowDown,ArrowRight"":30}","false","ArrowDown,ArrowLeft","false","","","original","1","20","","",""
"html-keyboard-response","144","1146074","0.0-5.0-2.0-1.10","spark_pilot_2","7515","7","23","Male","","","","","","","","null","<div style=""font-size:60px;"">+</div>","null","fixation","","","","","","","","","","","21","","",""
"revaluation","145","1152078","0.0-5.0-2.0-0.11","spark_pilot_2","7515","7","23","Male","","","false","","","","","[1547,554]","./assets/img/canyon/memory/32.jpg","[""ArrowDown"",""ArrowRight""]","value training","canyon","30","{""ArrowUp,ArrowLeft"":23,""ArrowUp,ArrowRight"":10,""ArrowDown,ArrowLeft"":8,""ArrowDown,ArrowRight"":30}","true","ArrowDown,ArrowRight","false","","","original","1","22","","",""
"html-keyboard-response","146","1152578","0.0-5.0-2.0-1.11","spark_pilot_2","7515","7","23","Male","","","","","","","","null","<div style=""font-size:60px;"">+</div>","null","fixation","","","","","","","","","","","23","","",""
"revaluation","147","1158583","0.0-5.0-2.0-0.12","spark_pilot_2","7515","7","23","Male","","","false","","","","","[746,713]","./assets/img/canyon/memory/21.jpg","[""ArrowDown"",""ArrowRight""]","value training","canyon","30","{""ArrowUp,ArrowLeft"":23,""ArrowUp,ArrowRight"":10,""ArrowDown,ArrowLeft"":8,""ArrowDown,ArrowRight"":30}","true","ArrowDown,ArrowRight","false","","","original","1","24","","",""
"html-keyboard-response","148","1159084","0.0-5.0-2.0-1.12","spark_pilot_2","7515","7","23","Male","","","","","","","","null","<div style=""font-size:60px;"">+</div>","null","fixation","","","","","","","","","","","25","","",""
"revaluation","149","1163087","0.0-5.0-2.0-0.13","spark_pilot_2","7515","7","23","Male","","","false","","","","","[873]","./assets/img/canyon/catch/4.jpg","[""ArrowUp""]","value training","canyon","-10","{""ArrowUp,ArrowLeft"":23,""ArrowUp,ArrowRight"":10,""ArrowDown,ArrowLeft"":8,""ArrowDown,ArrowRight"":30}","false","ArrowUp","true","","","original","1","26","","",""
"html-keyboard-response","150","1163589","0.0-5.0-2.0-1.13","spark_pilot_2","7515","7","23","Male","","","","","","","","null","<div style=""font-size:60px;"">+</div>","null","fixation","","","","","","","","","","","27","","",""
"revaluation","151","1169592","0.0-5.0-2.0-0.14","spark_pilot_2","7515","7","23","Male","","","false","","","","","[800,798]","./assets/img/canyon/memory/33.jpg","[""ArrowDown"",""ArrowLeft""]","value training","canyon","8","{""ArrowUp,ArrowLeft"":23,""ArrowUp,ArrowRight"":10,""ArrowDown,ArrowLeft"":8,""ArrowDown,ArrowRight"":30}","false","ArrowDown,ArrowLeft","false","","","original","1","28","","",""
"html-keyboard-response","152","1170094","0.0-5.0-2.0-1.14","spark_pilot_2","7515","7","23","Male","","","","","","","","null","<div style=""font-size:60px;"">+</div>","null","fixation","","","","","","","","","","","29","","",""
"revaluation","153","1176099","0.0-5.0-2.0-0.15","spark_pilot_2","7515","7","23","Male","","","false","","","","","[734,789.9999999997672]","./assets/img/canyon/memory/36.jpg","[""ArrowDown"",""ArrowRight""]","value training","canyon","30","{""ArrowUp,ArrowLeft"":23,""ArrowUp,ArrowRight"":10,""ArrowDown,ArrowLeft"":8,""ArrowDown,ArrowRight"":30}","true","ArrowDown,ArrowRight","false","","","original","1","30","","",""
"html-keyboard-response","154","1176600","0.0-5.0-2.0-1.15","spark_pilot_2","7515","7","23","Male","","","","","","","","null","<div style=""font-size:60px;"">+</div>","null","fixation","","","","","","","","","","","31","","",""
"revaluation","155","1182603","0.0-5.0-2.0-0.16","spark_pilot_2","7515","7","23","Male","","","false","","","","","[1875,724]","./assets/img/canyon/memory/40.jpg","[""ArrowDown"",""ArrowRight""]","value training","canyon","30","{""ArrowUp,ArrowLeft"":23,""ArrowUp,ArrowRight"":10,""ArrowDown,ArrowLeft"":8,""ArrowDown,ArrowRight"":30}","true","ArrowDown,ArrowRight","false","","","original","1","32","","",""
"html-keyboard-response","156","1183105","0.0-5.0-2.0-1.16","spark_pilot_2","7515","7","23","Male","","","","","","","","null","<div style=""font-size:60px;"">+</div>","null","fixation","","","","","","","","","","","33","","",""
"revaluation","157","1189110","0.0-5.0-2.0-0.17","spark_pilot_2","7515","7","23","Male","","","false","","","","","[722,578]","./assets/img/canyon/memory/16.jpg","[""ArrowUp"",""ArrowRight""]","value training","canyon","10","{""ArrowUp,ArrowLeft"":23,""ArrowUp,ArrowRight"":10,""ArrowDown,ArrowLeft"":8,""ArrowDown,ArrowRight"":30}","false","ArrowUp,ArrowRight","false","","","original","1","34","","",""
"html-keyboard-response","158","1189611","0.0-5.0-2.0-1.17","spark_pilot_2","7515","7","23","Male","","","","","","","","null","<div style=""font-size:60px;"">+</div>","null","fixation","","","","","","","","","","","35","","",""
"revaluation","159","1195616","0.0-5.0-2.0-0.18","spark_pilot_2","7515","7","23","Male","","","false","","","","","[647,536]","./assets/img/canyon/memory/23.jpg","[""ArrowDown"",""ArrowLeft""]","value training","canyon","8","{""ArrowUp,ArrowLeft"":23,""ArrowUp,ArrowRight"":10,""ArrowDown,ArrowLeft"":8,""ArrowDown,ArrowRight"":30}","false","ArrowDown,ArrowLeft","false","","","original","1","36","","",""
"html-keyboard-response","160","1196116","0.0-5.0-2.0-1.18","spark_pilot_2","7515","7","23","Male","","","","","","","","null","<div style=""font-size:60px;"">+</div>","null","fixation","","","","","","","","","","","37","","",""
"revaluation","161","1200120","0.0-5.0-2.0-0.19","spark_pilot_2","7515","7","23","Male","","","false","","","","","[1062]","./assets/img/canyon/catch/0.jpg","[""spaceBar""]","value training","canyon","0","{""ArrowUp,ArrowLeft"":23,""ArrowUp,ArrowRight"":10,""ArrowDown,ArrowLeft"":8,""ArrowDown,ArrowRight"":30}","true","spaceBar","true","","","original","1","38","","",""
"html-keyboard-response","162","1200621","0.0-5.0-2.0-1.19","spark_pilot_2","7515","7","23","Male","","","","","","","","null","<div style=""font-size:60px;"">+</div>","null","fixation","","","","","","","","","","","39","","",""
"revaluation","163","1206625","0.0-5.0-2.0-0.20","spark_pilot_2","7515","7","23","Male","","","false","","","","","[894,661]","./assets/img/canyon/memory/17.jpg","[""ArrowUp"",""ArrowLeft""]","value training","canyon","23","{""ArrowUp,ArrowLeft"":23,""ArrowUp,ArrowRight"":10,""ArrowDown,ArrowLeft"":8,""ArrowDown,ArrowRight"":30}","false","ArrowUp,ArrowLeft","false","","","original","1","40","","",""
"html-keyboard-response","164","1207127","0.0-5.0-2.0-1.20","spark_pilot_2","7515","7","23","Male","","","","","","","","null","<div style=""font-size:60px;"">+</div>","null","fixation","","","","","","","","","","","41","","",""
"revaluation","165","1213130","0.0-5.0-2.0-0.21","spark_pilot_2","7515","7","23","Male","","","false","","","","","[684,563]","./assets/img/canyon/memory/1.jpg","[""ArrowDown"",""ArrowLeft""]","value training","canyon","8","{""ArrowUp,ArrowLeft"":23,""ArrowUp,ArrowRight"":10,""ArrowDown,ArrowLeft"":8,""ArrowDown,ArrowRight"":30}","false","ArrowDown,ArrowLeft","false","","","original","1","42","","",""
"html-keyboard-response","166","1213631","0.0-5.0-2.0-1.21","spark_pilot_2","7515","7","23","Male","","","","","","","","null","<div style=""font-size:60px;"">+</div>","null","fixation","","","","","","","","","","","43","","",""
"revaluation","167","1219635","0.0-5.0-2.0-0.22","spark_pilot_2","7515","7","23","Male","","","false","","","","","[1658.9999999997672,881.9999999997672]","./assets/img/canyon/memory/36.jpg","[""ArrowDown"",""ArrowLeft""]","value training","canyon","8","{""ArrowUp,ArrowLeft"":23,""ArrowUp,ArrowRight"":10,""ArrowDown,ArrowLeft"":8,""ArrowDown,ArrowRight"":30}","false","ArrowDown,ArrowLeft","false","","","original","1","44","","",""
"html-keyboard-response","168","1220136","0.0-5.0-2.0-1.22","spark_pilot_2","7515","7","23","Male","","","","","","","","null","<div style=""font-size:60px;"">+</div>","null","fixation","","","","","","","","","","","45","","",""
"revaluation","169","1226141","0.0-5.0-2.0-0.23","spark_pilot_2","7515","7","23","Male","","","false","","","","","[1073,1785]","./assets/img/canyon/memory/7.jpg","[""ArrowUp"",""ArrowLeft""]","value training","canyon","23","{""ArrowUp,ArrowLeft"":23,""ArrowUp,ArrowRight"":10,""ArrowDown,ArrowLeft"":8,""ArrowDown,ArrowRight"":30}","false","ArrowUp,ArrowLeft","false","","","original","1","46","","",""
"html-keyboard-response","170","1226642","0.0-5.0-2.0-1.23","spark_pilot_2","7515","7","23","Male","","","","","","","","null","<div style=""font-size:60px;"">+</div>","null","fixation","","","","","","","","","","","47","","",""
"revaluation","171","1232647","0.0-5.0-2.0-0.24","spark_pilot_2","7515","7","23","Male","","","false","","","","","[998,566]","./assets/img/canyon/memory/41.jpg","[""ArrowUp"",""ArrowRight""]","value training","canyon","10","{""ArrowUp,ArrowLeft"":23,""ArrowUp,ArrowRight"":10,""ArrowDown,ArrowLeft"":8,""ArrowDown,ArrowRight"":30}","false","ArrowUp,ArrowRight","false","","","original","1","48","","",""
"html-keyboard-response","172","1233149","0.0-5.0-2.0-1.24","spark_pilot_2","7515","7","23","Male","","","","","","","","null","<div style=""font-size:60px;"">+</div>","null","fixation","","","","","","","","","","","49","","",""
"revaluation","173","1239153","0.0-5.0-2.0-0.25","spark_pilot_2","7515","7","23","Male","","","false","","","","","[1532,868]","./assets/img/canyon/memory/6.jpg","[""ArrowDown"",""ArrowLeft""]","value training","canyon","8","{""ArrowUp,ArrowLeft"":23,""ArrowUp,ArrowRight"":10,""ArrowDown,ArrowLeft"":8,""ArrowDown,ArrowRight"":30}","false","ArrowDown,ArrowLeft","false","","","original","1","50","","",""
"html-keyboard-response","174","1239654","0.0-5.0-2.0-1.25","spark_pilot_2","7515","7","23","Male","","","","","","","","null","<div style=""font-size:60px;"">+</div>","null","fixation","","","","","","","","","","","51","","",""
"revaluation","175","1245657","0.0-5.0-2.0-0.26","spark_pilot_2","7515","7","23","Male","","","false","","","","","[795,387]","./assets/img/canyon/memory/9.jpg","[""ArrowDown"",""ArrowRight""]","value training","canyon","30","{""ArrowUp,ArrowLeft"":23,""ArrowUp,ArrowRight"":10,""ArrowDown,ArrowLeft"":8,""ArrowDown,ArrowRight"":30}","true","ArrowDown,ArrowRight","false","","","original","1","52","","",""
"html-keyboard-response","176","1246159","0.0-5.0-2.0-1.26","spark_pilot_2","7515","7","23","Male","","","","","","","","null","<div style=""font-size:60px;"">+</div>","null","fixation","","","","","","","","","","","53","","",""
"revaluation","177","1252164","0.0-5.0-2.0-0.27","spark_pilot_2","7515","7","23","Male","","","false","","","","","[1025.9999999997672,664.9999999997672]","./assets/img/canyon/memory/34.jpg","[""ArrowUp"",""ArrowRight""]","value training","canyon","10","{""ArrowUp,ArrowLeft"":23,""ArrowUp,ArrowRight"":10,""ArrowDown,ArrowLeft"":8,""ArrowDown,ArrowRight"":30}","false","ArrowUp,ArrowRight","false","","","original","1","54","","",""
"html-keyboard-response","178","1252665","0.0-5.0-2.0-1.27","spark_pilot_2","7515","7","23","Male","","","","","","","","null","<div style=""font-size:60px;"">+</div>","null","fixation","","","","","","","","","","","55","","",""
"revaluation","179","1258668","0.0-5.0-2.0-0.28","spark_pilot_2","7515","7","23","Male","","","false","","","","","[1072,703]","./assets/img/canyon/memory/16.jpg","[""ArrowDown"",""ArrowLeft""]","value training","canyon","8","{""ArrowUp,ArrowLeft"":23,""ArrowUp,ArrowRight"":10,""ArrowDown,ArrowLeft"":8,""ArrowDown,ArrowRight"":30}","false","ArrowDown,ArrowLeft","false","","","original","1","56","","",""
"html-keyboard-response","180","1259169","0.0-5.0-2.0-1.28","spark_pilot_2","7515","7","23","Male","","","","","","","","null","<div style=""font-size:60px;"">+</div>","null","fixation","","","","","","","","","","","57","","",""
"revaluation","181","1265174","0.0-5.0-2.0-0.29","spark_pilot_2","7515","7","23","Male","","","false","","","","","[702,1383.0000000002328]","./assets/img/canyon/memory/1.jpg","[""ArrowDown"",""ArrowRight""]","value training","canyon","30","{""ArrowUp,ArrowLeft"":23,""ArrowUp,ArrowRight"":10,""ArrowDown,ArrowLeft"":8,""ArrowDown,ArrowRight"":30}","true","ArrowDown,ArrowRight","false","","","original","1","58","","",""
"html-keyboard-response","182","1265676","0.0-5.0-2.0-1.29","spark_pilot_2","7515","7","23","Male","","","","","","","","null","<div style=""font-size:60px;"">+</div>","null","fixation","","","","","","","","","","","59","","",""
"revaluation","183","1271680","0.0-5.0-2.0-0.30","spark_pilot_2","7515","7","23","Male","","","false","","","","","[1203.0000000002328,1067]","./assets/img/canyon/memory/32.jpg","[""ArrowDown"",""ArrowLeft""]","value training","canyon","8","{""ArrowUp,ArrowLeft"":23,""ArrowUp,ArrowRight"":10,""ArrowDown,ArrowLeft"":8,""ArrowDown,ArrowRight"":30}","false","ArrowDown,ArrowLeft","false","","","original","1","60","","",""
"html-keyboard-response","184","1272180","0.0-5.0-2.0-1.30","spark_pilot_2","7515","7","23","Male","","","","","","","","null","<div style=""font-size:60px;"">+</div>","null","fixation","","","","","","","","","","","61","","",""
"revaluation","185","1276184","0.0-5.0-2.0-0.31","spark_pilot_2","7515","7","23","Male","","","false","","","","","[723]","./assets/img/canyon/catch/2.jpg","[""ArrowUp""]","value training","canyon","-10","{""ArrowUp,ArrowLeft"":23,""ArrowUp,ArrowRight"":10,""ArrowDown,ArrowLeft"":8,""ArrowDown,ArrowRight"":30}","false","ArrowUp","true","","","original","1","62","","",""
"html-keyboard-response","186","1276685","0.0-5.0-2.0-1.31","spark_pilot_2","7515","7","23","Male","","","","","","","","null","<div style=""font-size:60px;"">+</div>","null","fixation","","","","","","","","","","","63","","",""
"revaluation","187","1282687","0.0-5.0-2.0-0.32","spark_pilot_2","7515","7","23","Male","","","false","","","","","[819.0000000002328,562]","./assets/img/canyon/memory/24.jpg","[""ArrowDown"",""ArrowLeft""]","value training","canyon","8","{""ArrowUp,ArrowLeft"":23,""ArrowUp,ArrowRight"":10,""ArrowDown,ArrowLeft"":8,""ArrowDown,ArrowRight"":30}","false","ArrowDown,ArrowLeft","false","","","original","1","64","","",""
"html-keyboard-response","188","1283189","0.0-5.0-2.0-1.32","spark_pilot_2","7515","7","23","Male","","","","","","","","null","<div style=""font-size:60px;"">+</div>","null","fixation","","","","","","","","","","","65","","",""
"revaluation","189","1289194","0.0-5.0-2.0-0.33","spark_pilot_2","7515","7","23","Male","","","false","","","","","[730,578]","./assets/img/canyon/memory/24.jpg","[""ArrowDown"",""ArrowRight""]","value training","canyon","30","{""ArrowUp,ArrowLeft"":23,""ArrowUp,ArrowRight"":10,""ArrowDown,ArrowLeft"":8,""ArrowDown,ArrowRight"":30}","true","ArrowDown,ArrowRight","false","","","original","1","66","","",""
"html-keyboard-response","190","1289696","0.0-5.0-2.0-1.33","spark_pilot_2","7515","7","23","Male","","","","","","","","null","<div style=""font-size:60px;"">+</div>","null","fixation","","","","","","","","","","","67","","",""
"revaluation","191","1295700","0.0-5.0-2.0-0.34","spark_pilot_2","7515","7","23","Male","","","false","","","","","[567,399.99999999976717]","./assets/img/canyon/memory/4.jpg","[""ArrowDown"",""ArrowRight""]","value training","canyon","30","{""ArrowUp,ArrowLeft"":23,""ArrowUp,ArrowRight"":10,""ArrowDown,ArrowLeft"":8,""ArrowDown,ArrowRight"":30}","true","ArrowDown,ArrowRight","false","","","original","1","68","","",""
"html-keyboard-response","192","1296200","0.0-5.0-2.0-1.34","spark_pilot_2","7515","7","23","Male","","","","","","","","null","<div style=""font-size:60px;"">+</div>","null","fixation","","","","","","","","","","","69","","",""
"revaluation","193","1302204","0.0-5.0-2.0-0.35","spark_pilot_2","7515","7","23","Male","","","false","","","","","[654,606]","./assets/img/canyon/memory/37.jpg","[""ArrowDown"",""ArrowRight""]","value training","canyon","30","{""ArrowUp,ArrowLeft"":23,""ArrowUp,ArrowRight"":10,""ArrowDown,ArrowLeft"":8,""ArrowDown,ArrowRight"":30}","true","ArrowDown,ArrowRight","false","","","original","1","70","","",""
"html-keyboard-response","194","1302706","0.0-5.0-2.0-1.35","spark_pilot_2","7515","7","23","Male","","","","","","","","null","<div style=""font-size:60px;"">+</div>","null","fixation","","","","","","","","","","","71","","",""
"revaluation","195","1308710","0.0-5.0-2.0-0.36","spark_pilot_2","7515","7","23","Male","","","false","","","","","[853,763]","./assets/img/canyon/memory/40.jpg","[""ArrowDown"",""ArrowRight""]","value training","canyon","30","{""ArrowUp,ArrowLeft"":23,""ArrowUp,ArrowRight"":10,""ArrowDown,ArrowLeft"":8,""ArrowDown,ArrowRight"":30}","true","ArrowDown,ArrowRight","false","","","original","1","72","","",""
"html-keyboard-response","196","1309212","0.0-5.0-2.0-1.36","spark_pilot_2","7515","7","23","Male","","","","","","","","null","<div style=""font-size:60px;"">+</div>","null","fixation","","","","","","","","","","","73","","",""
"revaluation","197","1315216","0.0-5.0-2.0-0.37","spark_pilot_2","7515","7","23","Male","","","false","","","","","[659,608.9999999997672]","./assets/img/canyon/memory/33.jpg","[""ArrowDown"",""ArrowRight""]","value training","canyon","30","{""ArrowUp,ArrowLeft"":23,""ArrowUp,ArrowRight"":10,""ArrowDown,ArrowLeft"":8,""ArrowDown,ArrowRight"":30}","true","ArrowDown,ArrowRight","false","","","original","1","74","","",""
"html-keyboard-response","198","1315717","0.0-5.0-2.0-1.37","spark_pilot_2","7515","7","23","Male","","","","","","","","null","<div style=""font-size:60px;"">+</div>","null","fixation","","","","","","","","","","","75","","",""
"revaluation","199","1321721","0.0-5.0-2.0-0.38","spark_pilot_2","7515","7","23","Male","","","true","","","","","[641]","./assets/img/canyon/memory/6.jpg","[""ArrowDown""]","value training","canyon","-5","{""ArrowUp,ArrowLeft"":23,""ArrowUp,ArrowRight"":10,""ArrowDown,ArrowLeft"":8,""ArrowDown,ArrowRight"":30}","false","ArrowDown","false","","","original","1","76","","",""
"html-keyboard-response","200","1322222","0.0-5.0-2.0-1.38","spark_pilot_2","7515","7","23","Male","","","","","","","","null","<div style=""font-size:60px;"">+</div>","null","fixation","","","","","","","","","","","77","","",""
"revaluation","201","1326227","0.0-5.0-2.0-0.39","spark_pilot_2","7515","7","23","Male","","","false","","","","","[567]","./assets/img/canyon/catch/5.jpg","[""ArrowDown""]","value training","canyon","-10","{""ArrowUp,ArrowLeft"":23,""ArrowUp,ArrowRight"":10,""ArrowDown,ArrowLeft"":8,""ArrowDown,ArrowRight"":30}","false","ArrowDown","true","","","original","1","78","","",""
"html-keyboard-response","202","1326729","0.0-5.0-2.0-1.39","spark_pilot_2","7515","7","23","Male","","","","","","","","null","<div style=""font-size:60px;"">+</div>","null","fixation","","","","","","","","","","","79","","",""
"revaluation","203","1332732","0.0-5.0-2.0-0.40","spark_pilot_2","7515","7","23","Male","","","false","","","","","[805,675]","./assets/img/canyon/memory/35.jpg","[""ArrowDown"",""ArrowRight""]","value training","canyon","30","{""ArrowUp,ArrowLeft"":23,""ArrowUp,ArrowRight"":10,""ArrowDown,ArrowLeft"":8,""ArrowDown,ArrowRight"":30}","true","ArrowDown,ArrowRight","false","","","original","1","80","","",""
"html-keyboard-response","204","1333233","0.0-5.0-2.0-1.40","spark_pilot_2","7515","7","23","Male","","","","","","","","null","<div style=""font-size:60px;"">+</div>","null","fixation","","","","","","","","","","","81","","",""
"revaluation","205","1339237","0.0-5.0-2.0-0.41","spark_pilot_2","7515","7","23","Male","","","false","","","","","[636,435]","./assets/img/canyon/memory/23.jpg","[""ArrowUp"",""ArrowRight""]","value training","canyon","10","{""ArrowUp,ArrowLeft"":23,""ArrowUp,ArrowRight"":10,""ArrowDown,ArrowLeft"":8,""ArrowDown,ArrowRight"":30}","false","ArrowUp,ArrowRight","false","","","original","1","82","","",""
"html-keyboard-response","206","1339738","0.0-5.0-2.0-1.41","spark_pilot_2","7515","7","23","Male","","","","","","","","null","<div style=""font-size:60px;"">+</div>","null","fixation","","","","","","","","","","","83","","",""
"revaluation","207","1345743","0.0-5.0-2.0-0.42","spark_pilot_2","7515","7","23","Male","","","false","","","","","[458,666.0000000002328]","./assets/img/canyon/memory/39.jpg","[""ArrowUp"",""ArrowLeft""]","value training","canyon","23","{""ArrowUp,ArrowLeft"":23,""ArrowUp,ArrowRight"":10,""ArrowDown,ArrowLeft"":8,""ArrowDown,ArrowRight"":30}","false","ArrowUp,ArrowLeft","false","","","original","1","84","","",""
"html-keyboard-response","208","1346244","0.0-5.0-2.0-1.42","spark_pilot_2","7515","7","23","Male","","","","","","","","null","<div style=""font-size:60px;"">+</div>","null","fixation","","","","","","","","","","","85","","",""
"revaluation","209","1352249","0.0-5.0-2.0-0.43","spark_pilot_2","7515","7","23","Male","","","false","","","","","[1817,832]","./assets/img/canyon/memory/34.jpg","[""ArrowUp"",""ArrowRight""]","value training","canyon","10","{""ArrowUp,ArrowLeft"":23,""ArrowUp,ArrowRight"":10,""ArrowDown,ArrowLeft"":8,""ArrowDown,ArrowRight"":30}","false","ArrowUp,ArrowRight","false","","","original","1","86","","",""
"html-keyboard-response","210","1352751","0.0-5.0-2.0-1.43","spark_pilot_2","7515","7","23","Male","","","","","","","","null","<div style=""font-size:60px;"">+</div>","null","fixation","","","","","","","","","","","87","","",""
"revaluation","211","1358754","0.0-5.0-2.0-0.44","spark_pilot_2","7515","7","23","Male","","","false","","","","","[501.99999999976717,477]","./assets/img/canyon/memory/4.jpg","[""ArrowUp"",""ArrowRight""]","value training","canyon","10","{""ArrowUp,ArrowLeft"":23,""ArrowUp,ArrowRight"":10,""ArrowDown,ArrowLeft"":8,""ArrowDown,ArrowRight"":30}","false","ArrowUp,ArrowRight","false","","","original","1","88","","",""
"html-keyboard-response","212","1359255","0.0-5.0-2.0-1.44","spark_pilot_2","7515","7","23","Male","","","","","","","","null","<div style=""font-size:60px;"">+</div>","null","fixation","","","","","","","","","","","89","","",""
"revaluation","213","1365259","0.0-5.0-2.0-0.45","spark_pilot_2","7515","7","23","Male","","","false","","","","","[693,972]","./assets/img/canyon/memory/31.jpg","[""ArrowUp"",""ArrowLeft""]","value training","canyon","23","{""ArrowUp,ArrowLeft"":23,""ArrowUp,ArrowRight"":10,""ArrowDown,ArrowLeft"":8,""ArrowDown,ArrowRight"":30}","false","ArrowUp,ArrowLeft","false","","","original","1","90","","",""
"html-keyboard-response","214","1365760","0.0-5.0-2.0-1.45","spark_pilot_2","7515","7","23","Male","","","","","","","","null","<div style=""font-size:60px;"">+</div>","null","fixation","","","","","","","","","","","91","","",""
"revaluation","215","1371764","0.0-5.0-2.0-0.46","spark_pilot_2","7515","7","23","Male","","","false","","","","","[707,1171]","./assets/img/canyon/memory/9.jpg","[""ArrowUp"",""ArrowLeft""]","value training","canyon","23","{""ArrowUp,ArrowLeft"":23,""ArrowUp,ArrowRight"":10,""ArrowDown,ArrowLeft"":8,""ArrowDown,ArrowRight"":30}","false","ArrowUp,ArrowLeft","false","","","original","1","92","","",""
"html-keyboard-response","216","1372265","0.0-5.0-2.0-1.46","spark_pilot_2","7515","7","23","Male","","","","","","","","null","<div style=""font-size:60px;"">+</div>","null","fixation","","","","","","","","","","","93","","",""
"revaluation","217","1376268","0.0-5.0-2.0-0.47","spark_pilot_2","7515","7","23","Male","","","false","","","","","[1138.0000000002328]","./assets/img/canyon/catch/7.jpg","[""ArrowDown""]","value training","canyon","-10","{""ArrowUp,ArrowLeft"":23,""ArrowUp,ArrowRight"":10,""ArrowDown,ArrowLeft"":8,""ArrowDown,ArrowRight"":30}","false","ArrowDown","true","","","original","1","94","","",""
"html-keyboard-response","218","1376769","0.0-5.0-2.0-1.47","spark_pilot_2","7515","7","23","Male","","","","","","","","null","<div style=""font-size:60px;"">+</div>","null","fixation","","","","","","","","","","","95","","",""
"revaluation","219","1382774","0.0-5.0-2.0-0.48","spark_pilot_2","7515","7","23","Male","","","false","","","","","[610,882]","./assets/img/canyon/memory/38.jpg","[""ArrowUp"",""ArrowLeft""]","value training","canyon","23","{""ArrowUp,ArrowLeft"":23,""ArrowUp,ArrowRight"":10,""ArrowDown,ArrowLeft"":8,""ArrowDown,ArrowRight"":30}","false","ArrowUp,ArrowLeft","false","","","original","1","96","","",""
"html-keyboard-response","220","1383276","0.0-5.0-2.0-1.48","spark_pilot_2","7515","7","23","Male","","","","","","","","null","<div style=""font-size:60px;"">+</div>","null","fixation","","","","","","","","","","","97","","",""
"revaluation","221","1389278","0.0-5.0-2.0-0.49","spark_pilot_2","7515","7","23","Male","","","false","","","","","[688,672]","./assets/img/canyon/memory/35.jpg","[""ArrowUp"",""ArrowLeft""]","value training","canyon","23","{""ArrowUp,ArrowLeft"":23,""ArrowUp,ArrowRight"":10,""ArrowDown,ArrowLeft"":8,""ArrowDown,ArrowRight"":30}","false","ArrowUp,ArrowLeft","false","","","original","1","98","","",""
"html-keyboard-response","222","1389780","0.0-5.0-2.0-1.49","spark_pilot_2","7515","7","23","Male","","","","","","","","null","<div style=""font-size:60px;"">+</div>","null","fixation","","","","","","","","","","","99","","",""
"learning-instructions","223","1564128","0.0-5.0-3.0-0.0","spark_pilot_2","7515","7","23","Male","","","","","","","","161474.00000000023","<p> Now, you will travel with a friend who will choose whether you go up or down first. </p>
            <p> On these turns, you will just see the animal that they found. You will still get to choose which chest to search for treasure.</p>","","instructions","","","","","","","","","","","","","",""
"revaluation","224","1568131","0.0-5.0-4.0-0.0","spark_pilot_2","7515","7","23","Male","","","false","","","","","[931.0000000002328]","./assets/img/canyon/animals/lion.jpg","[""ArrowRight""]","revaluation","canyon","30","{""ArrowUp,ArrowLeft"":23,""ArrowUp,ArrowRight"":10,""ArrowDown,ArrowLeft"":8,""ArrowDown,ArrowRight"":30}","true","ArrowDown,ArrowRight","","","","original","1","0","","",""
"html-keyboard-response","225","1568632","0.0-5.0-4.0-1.0","spark_pilot_2","7515","7","23","Male","","","","","","","","null","<div style=""font-size:60px;"">+</div>","null","fixation","","","","","","","","","","","1","","",""
"revaluation","226","1572636","0.0-5.0-4.0-0.1","spark_pilot_2","7515","7","23","Male","","","false","","","","","[474.00000000023283]","./assets/img/canyon/animals/giraffe.jpg","[""ArrowRight""]","revaluation","canyon","10","{""ArrowUp,ArrowLeft"":23,""ArrowUp,ArrowRight"":10,""ArrowDown,ArrowLeft"":8,""ArrowDown,ArrowRight"":30}","false","ArrowUp,ArrowRight","","","","original","1","2","","",""
"html-keyboard-response","227","1573136","0.0-5.0-4.0-1.1","spark_pilot_2","7515","7","23","Male","","","","","","","","null","<div style=""font-size:60px;"">+</div>","null","fixation","","","","","","","","","","","3","","",""
"revaluation","228","1577139","0.0-5.0-4.0-0.2","spark_pilot_2","7515","7","23","Male","","","false","","","","","[794]","./assets/img/canyon/animals/lion.jpg","[""ArrowLeft""]","revaluation","canyon","8","{""ArrowUp,ArrowLeft"":23,""ArrowUp,ArrowRight"":10,""ArrowDown,ArrowLeft"":8,""ArrowDown,ArrowRight"":30}","false","ArrowDown,ArrowLeft","","","","original","1","4","","",""
"html-keyboard-response","229","1577639","0.0-5.0-4.0-1.2","spark_pilot_2","7515","7","23","Male","","","","","","","","null","<div style=""font-size:60px;"">+</div>","null","fixation","","","","","","","","","","","5","","",""
"revaluation","230","1581643","0.0-5.0-4.0-0.3","spark_pilot_2","7515","7","23","Male","","","false","","","","","[515.0000000002328]","./assets/img/canyon/animals/lion.jpg","[""ArrowRight""]","revaluation","canyon","30","{""ArrowUp,ArrowLeft"":23,""ArrowUp,ArrowRight"":10,""ArrowDown,ArrowLeft"":8,""ArrowDown,ArrowRight"":30}","true","ArrowDown,ArrowRight","","","","original","1","6","","",""
"html-keyboard-response","231","1582143","0.0-5.0-4.0-1.3","spark_pilot_2","7515","7","23","Male","","","","","","","","null","<div style=""font-size:60px;"">+</div>","null","fixation","","","","","","","","","","","7","","",""
"revaluation","232","1586146","0.0-5.0-4.0-0.4","spark_pilot_2","7515","7","23","Male","","","false","","","","","[483]","./assets/img/canyon/animals/lion.jpg","[""ArrowLeft""]","revaluation","canyon","8","{""ArrowUp,ArrowLeft"":23,""ArrowUp,ArrowRight"":10,""ArrowDown,ArrowLeft"":8,""ArrowDown,ArrowRight"":30}","false","ArrowDown,ArrowLeft","","","","original","1","8","","",""
"html-keyboard-response","233","1586648","0.0-5.0-4.0-1.4","spark_pilot_2","7515","7","23","Male","","","","","","","","null","<div style=""font-size:60px;"">+</div>","null","fixation","","","","","","","","","","","9","","",""
"revaluation","234","1590650","0.0-5.0-4.0-0.5","spark_pilot_2","7515","7","23","Male","","","false","","","","","[650.0000000002328]","./assets/img/canyon/animals/lion.jpg","[""ArrowLeft""]","revaluation","canyon","8","{""ArrowUp,ArrowLeft"":23,""ArrowUp,ArrowRight"":10,""ArrowDown,ArrowLeft"":8,""ArrowDown,ArrowRight"":30}","false","ArrowDown,ArrowLeft","","","","original","1","10","","",""
"html-keyboard-response","235","1591151","0.0-5.0-4.0-1.5","spark_pilot_2","7515","7","23","Male","","","","","","","","null","<div style=""font-size:60px;"">+</div>","null","fixation","","","","","","","","","","","11","","",""
"revaluation","236","1595154","0.0-5.0-4.0-0.6","spark_pilot_2","7515","7","23","Male","","","false","","","","","[619.0000000002328]","./assets/img/canyon/animals/giraffe.jpg","[""ArrowLeft""]","revaluation","canyon","23","{""ArrowUp,ArrowLeft"":23,""ArrowUp,ArrowRight"":10,""ArrowDown,ArrowLeft"":8,""ArrowDown,ArrowRight"":30}","true","ArrowUp,ArrowLeft","","","","original","1","12","","",""
"html-keyboard-response","237","1595655","0.0-5.0-4.0-1.6","spark_pilot_2","7515","7","23","Male","","","","","","","","null","<div style=""font-size:60px;"">+</div>","null","fixation","","","","","","","","","","","13","","",""
"revaluation","238","1599657","0.0-5.0-4.0-0.7","spark_pilot_2","7515","7","23","Male","","","false","","","","","[675]","./assets/img/canyon/animals/giraffe.jpg","[""ArrowRight""]","revaluation","canyon","10","{""ArrowUp,ArrowLeft"":23,""ArrowUp,ArrowRight"":10,""ArrowDown,ArrowLeft"":8,""ArrowDown,ArrowRight"":30}","false","ArrowUp,ArrowRight","","","","original","1","14","","",""
"html-keyboard-response","239","1600158","0.0-5.0-4.0-1.7","spark_pilot_2","7515","7","23","Male","","","","","","","","null","<div style=""font-size:60px;"">+</div>","null","fixation","","","","","","","","","","","15","","",""
"revaluation","240","1604161","0.0-5.0-4.0-0.8","spark_pilot_2","7515","7","23","Male","","","true","","","","","[]","./assets/img/canyon/animals/giraffe.jpg","[]","revaluation","canyon","-5","{""ArrowUp,ArrowLeft"":23,""ArrowUp,ArrowRight"":10,""ArrowDown,ArrowLeft"":8,""ArrowDown,ArrowRight"":30}","false","ArrowUp","","","","original","1","16","","",""
"html-keyboard-response","241","1604661","0.0-5.0-4.0-1.8","spark_pilot_2","7515","7","23","Male","","","","","","","","null","<div style=""font-size:60px;"">+</div>","null","fixation","","","","","","","","","","","17","","",""
"revaluation","242","1608665","0.0-5.0-4.0-0.9","spark_pilot_2","7515","7","23","Male","","","false","","","","","[668]","./assets/img/canyon/animals/lion.jpg","[""ArrowRight""]","revaluation","canyon","30","{""ArrowUp,ArrowLeft"":23,""ArrowUp,ArrowRight"":10,""ArrowDown,ArrowLeft"":8,""ArrowDown,ArrowRight"":30}","true","ArrowDown,ArrowRight","","","","original","1","18","","",""
"html-keyboard-response","243","1609165","0.0-5.0-4.0-1.9","spark_pilot_2","7515","7","23","Male","","","","","","","","null","<div style=""font-size:60px;"">+</div>","null","fixation","","","","","","","","","","","19","","",""
"revaluation","244","1613168","0.0-5.0-4.0-0.10","spark_pilot_2","7515","7","23","Male","","","false","","","","","[1947]","./assets/img/canyon/animals/lion.jpg","[""ArrowRight""]","revaluation","canyon","30","{""ArrowUp,ArrowLeft"":23,""ArrowUp,ArrowRight"":10,""ArrowDown,ArrowLeft"":8,""ArrowDown,ArrowRight"":30}","true","ArrowDown,ArrowRight","","","","original","1","20","","",""
"html-keyboard-response","245","1613668","0.0-5.0-4.0-1.10","spark_pilot_2","7515","7","23","Male","","","","","","","","null","<div style=""font-size:60px;"">+</div>","null","fixation","","","","","","","","","","","21","","",""
"revaluation","246","1617672","0.0-5.0-4.0-0.11","spark_pilot_2","7515","7","23","Male","","","false","","","","","[964]","./assets/img/canyon/animals/giraffe.jpg","[""ArrowRight""]","revaluation","canyon","10","{""ArrowUp,ArrowLeft"":23,""ArrowUp,ArrowRight"":10,""ArrowDown,ArrowLeft"":8,""ArrowDown,ArrowRight"":30}","false","ArrowUp,ArrowRight","","","","original","1","22","","",""
"html-keyboard-response","247","1618173","0.0-5.0-4.0-1.11","spark_pilot_2","7515","7","23","Male","","","","","","","","null","<div style=""font-size:60px;"">+</div>","null","fixation","","","","","","","","","","","23","","",""
"revaluation","248","1622176","0.0-5.0-4.0-0.12","spark_pilot_2","7515","7","23","Male","","","false","","","","","[763]","./assets/img/canyon/animals/lion.jpg","[""ArrowLeft""]","revaluation","canyon","8","{""ArrowUp,ArrowLeft"":23,""ArrowUp,ArrowRight"":10,""ArrowDown,ArrowLeft"":8,""ArrowDown,ArrowRight"":30}","false","ArrowDown,ArrowLeft","","","","original","1","24","","",""
"html-keyboard-response","249","1622677","0.0-5.0-4.0-1.12","spark_pilot_2","7515","7","23","Male","","","","","","","","null","<div style=""font-size:60px;"">+</div>","null","fixation","","","","","","","","","","","25","","",""
"revaluation","250","1626679","0.0-5.0-4.0-0.13","spark_pilot_2","7515","7","23","Male","","","false","","","","","[668.0000000002328]","./assets/img/canyon/animals/giraffe.jpg","[""ArrowLeft""]","revaluation","canyon","23","{""ArrowUp,ArrowLeft"":23,""ArrowUp,ArrowRight"":10,""ArrowDown,ArrowLeft"":8,""ArrowDown,ArrowRight"":30}","true","ArrowUp,ArrowLeft","","","","original","1","26","","",""
"html-keyboard-response","251","1627180","0.0-5.0-4.0-1.13","spark_pilot_2","7515","7","23","Male","","","","","","","","null","<div style=""font-size:60px;"">+</div>","null","fixation","","","","","","","","","","","27","","",""
"revaluation","252","1631182","0.0-5.0-4.0-0.14","spark_pilot_2","7515","7","23","Male","","","false","","","","","[900]","./assets/img/canyon/animals/giraffe.jpg","[""ArrowLeft""]","revaluation","canyon","23","{""ArrowUp,ArrowLeft"":23,""ArrowUp,ArrowRight"":10,""ArrowDown,ArrowLeft"":8,""ArrowDown,ArrowRight"":30}","true","ArrowUp,ArrowLeft","","","","original","1","28","","",""
"html-keyboard-response","253","1631684","0.0-5.0-4.0-1.14","spark_pilot_2","7515","7","23","Male","","","","","","","","null","<div style=""font-size:60px;"">+</div>","null","fixation","","","","","","","","","","","29","","",""
"revaluation","254","1635686","0.0-5.0-4.0-0.15","spark_pilot_2","7515","7","23","Male","","","false","","","","","[1612.0000000002328]","./assets/img/canyon/animals/lion.jpg","[""ArrowLeft""]","revaluation","canyon","8","{""ArrowUp,ArrowLeft"":23,""ArrowUp,ArrowRight"":10,""ArrowDown,ArrowLeft"":8,""ArrowDown,ArrowRight"":30}","false","ArrowDown,ArrowLeft","","","","original","1","30","","",""
"html-keyboard-response","255","1636187","0.0-5.0-4.0-1.15","spark_pilot_2","7515","7","23","Male","","","","","","","","null","<div style=""font-size:60px;"">+</div>","null","fixation","","","","","","","","","","","31","","",""
"revaluation","256","1640191","0.0-5.0-4.0-0.16","spark_pilot_2","7515","7","23","Male","","","false","","","","","[1796]","./assets/img/canyon/animals/giraffe.jpg","[""ArrowLeft""]","revaluation","canyon","23","{""ArrowUp,ArrowLeft"":23,""ArrowUp,ArrowRight"":10,""ArrowDown,ArrowLeft"":8,""ArrowDown,ArrowRight"":30}","true","ArrowUp,ArrowLeft","","","","original","1","32","","",""
"html-keyboard-response","257","1640693","0.0-5.0-4.0-1.16","spark_pilot_2","7515","7","23","Male","","","","","","","","null","<div style=""font-size:60px;"">+</div>","null","fixation","","","","","","","","","","","33","","",""
"revaluation","258","1644695","0.0-5.0-4.0-0.17","spark_pilot_2","7515","7","23","Male","","","false","","","","","[1643]","./assets/img/canyon/animals/giraffe.jpg","[""ArrowLeft""]","revaluation","canyon","23","{""ArrowUp,ArrowLeft"":23,""ArrowUp,ArrowRight"":10,""ArrowDown,ArrowLeft"":8,""ArrowDown,ArrowRight"":30}","true","ArrowUp,ArrowLeft","","","","original","1","34","","",""
"html-keyboard-response","259","1645197","0.0-5.0-4.0-1.17","spark_pilot_2","7515","7","23","Male","","","","","","","","null","<div style=""font-size:60px;"">+</div>","null","fixation","","","","","","","","","","","35","","",""
"learning-instructions","260","1663525","0.0-5.0-5.0-0.0","spark_pilot_2","7515","7","23","Male","","","","","","","","5981","<p> Time to play the dot game! </p>
            <p> For one minute, click the red dots on the following screen as they appear. </p>
            <p><b> Don't look away, as you will earn bonus for clicking dots</b>. </p>","","instructions","","","","","","","","","","","","","",""
"revaluation","261","1723523","0.0-5.0-6.0-0.0","spark_pilot_2","7515","7","23","Male","","","","","","","","[63,56,99,49,63,79,43]","","","rest","","70","","","","","0","60000","","","","","",""
"learning-instructions","262","1731103","0.0-5.0-7.0-0.0","spark_pilot_2","7515","7","23","Male","","","","","","","","1478","<p> You have almost finished this part of the game! </p>
            <p> We are going to ask you to make a few more choices. </p>","","instructions","","","","","","","","","","","","","",""
"learning-instructions","263","1747773","0.0-5.0-7.0-0.1","spark_pilot_2","7515","7","23","Male","","","","","","","","2698","<p> First, you need to decide whether to go up or down. When you see each picture, use the arrow keys to make your choice. </p>
            <p><b>You will not see which animal you found, but try to get to the one that will give you the most treasure.</b></p>","","instructions","","","","","","","","","","","","","",""
"revaluation","264","1749301","0.0-5.0-8.0-0.0","spark_pilot_2","7515","7","23","Male","","","false","","","","","[1525]","./assets/img/canyon/test/0.jpg","[""ArrowDown""]","first stage test","canyon","0","{""ArrowUp,ArrowLeft"":23,""ArrowUp,ArrowRight"":10,""ArrowDown,ArrowLeft"":8,""ArrowDown,ArrowRight"":30}","true","ArrowDown","false","","","original","1","","","",""
"html-keyboard-response","265","1749802","0.0-5.0-8.0-1.0","spark_pilot_2","7515","7","23","Male","","","","","","","","null","<div style=""font-size:60px;"">+</div>","null","fixation","","","","","","","","","","","","","",""
"revaluation","266","1750437","0.0-5.0-8.0-0.1","spark_pilot_2","7515","7","23","Male","","","false","","","","","[632.0000000002328]","./assets/img/canyon/test/2.jpg","[""ArrowUp""]","first stage test","canyon","0","{""ArrowUp,ArrowLeft"":23,""ArrowUp,ArrowRight"":10,""ArrowDown,ArrowLeft"":8,""ArrowDown,ArrowRight"":30}","false","ArrowUp","false","","","original","1","","","",""
"html-keyboard-response","267","1750939","0.0-5.0-8.0-1.1","spark_pilot_2","7515","7","23","Male","","","","","","","","null","<div style=""font-size:60px;"">+</div>","null","fixation","","","","","","","","","","","","","",""
"revaluation","268","1751325","0.0-5.0-8.0-0.2","spark_pilot_2","7515","7","23","Male","","","false","","","","","[383]","./assets/img/canyon/test/3.jpg","[""ArrowDown""]","first stage test","canyon","0","{""ArrowUp,ArrowLeft"":23,""ArrowUp,ArrowRight"":10,""ArrowDown,ArrowLeft"":8,""ArrowDown,ArrowRight"":30}","true","ArrowDown","false","","","original","1","","","",""
"html-keyboard-response","269","1751826","0.0-5.0-8.0-1.2","spark_pilot_2","7515","7","23","Male","","","","","","","","null","<div style=""font-size:60px;"">+</div>","null","fixation","","","","","","","","","","","","","",""
"revaluation","270","1752421","0.0-5.0-8.0-0.3","spark_pilot_2","7515","7","23","Male","","","false","","","","","[592]","./assets/img/canyon/test/1.jpg","[""ArrowDown""]","first stage test","canyon","0","{""ArrowUp,ArrowLeft"":23,""ArrowUp,ArrowRight"":10,""ArrowDown,ArrowLeft"":8,""ArrowDown,ArrowRight"":30}","true","ArrowDown","false","","","original","1","","","",""
"html-keyboard-response","271","1752922","0.0-5.0-8.0-1.3","spark_pilot_2","7515","7","23","Male","","","","","","","","null","<div style=""font-size:60px;"">+</div>","null","fixation","","","","","","","","","","","","","",""
"learning-instructions","272","1765693","0.0-5.0-9.0-0.0","spark_pilot_2","7515","7","23","Male","","","","","","","","1432","<p> Now you will see the animals again and can search their chests for treasure. </p>
            <p> This time, you will not see how much treasure you earned, but you will earn more bonus money for making better choices. </p>","","instructions","","","","","","","","","","","","","",""
"revaluation","273","1766637","0.0-5.0-10.0-0.0","spark_pilot_2","7515","7","23","Male","","","false","","","","","[941]","./assets/img/canyon/animals/giraffe.jpg","[""ArrowLeft""]","second stage test","canyon","0","{""ArrowUp,ArrowLeft"":23,""ArrowUp,ArrowRight"":10,""ArrowDown,ArrowLeft"":8,""ArrowDown,ArrowRight"":30}","true","ArrowUp,ArrowLeft","","","","original","1","","","",""
"html-keyboard-response","274","1767137","0.0-5.0-10.0-1.0","spark_pilot_2","7515","7","23","Male","","","","","","","","null","<div style=""font-size:60px;"">+</div>","null","fixation","","","","","","","","","","","","","",""
"revaluation","275","1767381","0.0-5.0-10.0-0.1","spark_pilot_2","7515","7","23","Male","","","false","","","","","[240]","./assets/img/canyon/animals/giraffe.jpg","[""ArrowRight""]","second stage test","canyon","0","{""ArrowUp,ArrowLeft"":23,""ArrowUp,ArrowRight"":10,""ArrowDown,ArrowLeft"":8,""ArrowDown,ArrowRight"":30}","false","ArrowUp,ArrowRight","","","","original","1","","","",""
"html-keyboard-response","276","1767881","0.0-5.0-10.0-1.1","spark_pilot_2","7515","7","23","Male","","","","","","","","null","<div style=""font-size:60px;"">+</div>","null","fixation","","","","","","","","","","","","","",""
"revaluation","277","1768356","0.0-5.0-10.0-0.2","spark_pilot_2","7515","7","23","Male","","","false","","","","","[472]","./assets/img/canyon/animals/giraffe.jpg","[""ArrowRight""]","second stage test","canyon","0","{""ArrowUp,ArrowLeft"":23,""ArrowUp,ArrowRight"":10,""ArrowDown,ArrowLeft"":8,""ArrowDown,ArrowRight"":30}","false","ArrowUp,ArrowRight","","","","original","1","","","",""
"html-keyboard-response","278","1768857","0.0-5.0-10.0-1.2","spark_pilot_2","7515","7","23","Male","","","","","","","","null","<div style=""font-size:60px;"">+</div>","null","fixation","","","","","","","","","","","","","",""
"revaluation","279","1769236","0.0-5.0-10.0-0.3","spark_pilot_2","7515","7","23","Male","","","false","","","","","[375.99999999976717]","./assets/img/canyon/animals/giraffe.jpg","[""ArrowRight""]","second stage test","canyon","0","{""ArrowUp,ArrowLeft"":23,""ArrowUp,ArrowRight"":10,""ArrowDown,ArrowLeft"":8,""ArrowDown,ArrowRight"":30}","false","ArrowUp,ArrowRight","","","","original","1","","","",""
"html-keyboard-response","280","1769737","0.0-5.0-10.0-1.3","spark_pilot_2","7515","7","23","Male","","","","","","","","null","<div style=""font-size:60px;"">+</div>","null","fixation","","","","","","","","","","","","","",""
"revaluation","281","1770076","0.0-5.0-10.0-0.4","spark_pilot_2","7515","7","23","Male","","","false","","","","","[336]","./assets/img/canyon/animals/lion.jpg","[""ArrowRight""]","second stage test","canyon","0","{""ArrowUp,ArrowLeft"":23,""ArrowUp,ArrowRight"":10,""ArrowDown,ArrowLeft"":8,""ArrowDown,ArrowRight"":30}","true","ArrowDown,ArrowRight","","","","original","1","","","",""
"html-keyboard-response","282","1770577","0.0-5.0-10.0-1.4","spark_pilot_2","7515","7","23","Male","","","","","","","","null","<div style=""font-size:60px;"">+</div>","null","fixation","","","","","","","","","","","","","",""
"revaluation","283","1771076","0.0-5.0-10.0-0.5","spark_pilot_2","7515","7","23","Male","","","false","","","","","[495.99999999976717]","./assets/img/canyon/animals/lion.jpg","[""ArrowLeft""]","second stage test","canyon","0","{""ArrowUp,ArrowLeft"":23,""ArrowUp,ArrowRight"":10,""ArrowDown,ArrowLeft"":8,""ArrowDown,ArrowRight"":30}","false","ArrowDown,ArrowLeft","","","","original","1","","","",""
"html-keyboard-response","284","1771578","0.0-5.0-10.0-1.5","spark_pilot_2","7515","7","23","Male","","","","","","","","null","<div style=""font-size:60px;"">+</div>","null","fixation","","","","","","","","","","","","","",""
"revaluation","285","1771980","0.0-5.0-10.0-0.6","spark_pilot_2","7515","7","23","Male","","","false","","","","","[398.99999999976717]","./assets/img/canyon/animals/lion.jpg","[""ArrowRight""]","second stage test","canyon","0","{""ArrowUp,ArrowLeft"":23,""ArrowUp,ArrowRight"":10,""ArrowDown,ArrowLeft"":8,""ArrowDown,ArrowRight"":30}","true","ArrowDown,ArrowRight","","","","original","1","","","",""
"html-keyboard-response","286","1772482","0.0-5.0-10.0-1.6","spark_pilot_2","7515","7","23","Male","","","","","","","","null","<div style=""font-size:60px;"">+</div>","null","fixation","","","","","","","","","","","","","",""
"revaluation","287","1772892","0.0-5.0-10.0-0.7","spark_pilot_2","7515","7","23","Male","","","false","","","","","[406.99999999976717]","./assets/img/canyon/animals/lion.jpg","[""ArrowRight""]","second stage test","canyon","0","{""ArrowUp,ArrowLeft"":23,""ArrowUp,ArrowRight"":10,""ArrowDown,ArrowLeft"":8,""ArrowDown,ArrowRight"":30}","true","ArrowDown,ArrowRight","","","","original","1","","","",""
"html-keyboard-response","288","1773393","0.0-5.0-10.0-1.7","spark_pilot_2","7515","7","23","Male","","","","","","","","null","<div style=""font-size:60px;"">+</div>","null","fixation","","","","","","","","","","","","","",""
"learning-instructions","289","1779582","0.0-5.0-0.1-0.2","spark_pilot_2","7515","7","23","Male","","","","","","","","3493","<p> This time you are searching for treasure in the <b>ocean</b>.</p>","","instructions","","","","","","","","","","","","","",""
"learning-instructions","290","1799518","0.0-5.0-0.1-0.3","spark_pilot_2","7515","7","23","Male","","","","","","","","2683","<p><b>New</b> animals with <b>new</b> treasure chests live here. You need to explore to discover where the animal with the best treasure chest is.</p>
                    <p> Like before, once you figure out which animal has the chest with the most treasure, you should try to get to that animal and select that chest! </p>","","instructions","","","","","","","","","","","","","",""
"learning-instructions","291","1815788","0.0-5.0-1.1-0.1","spark_pilot_2","7515","7","23","Male","","","","","","","","1539","<p> Remember, when you see a picture of the place, use the up and down keys to <b>find an animal</b>.</p>
            <p> When you encounter an animal, you should use the left and right keys to <b>select a treasure chest</b>.</p>
            <p> Don't forget to look out for the robber! </p>","","instructions","","","","","","","","","","","","","",""
"revaluation","292","1821792","0.0-5.0-2.1-0.50","spark_pilot_2","7515","7","23","Male","","","false","","","","","[955,1003]","./assets/img/ocean/memory/7.jpg","[""ArrowDown"",""ArrowLeft""]","value training","ocean","5","{""ArrowUp,ArrowLeft"":26,""ArrowUp,ArrowRight"":10,""ArrowDown,ArrowLeft"":5,""ArrowDown,ArrowRight"":17}","false","ArrowDown,ArrowLeft","false","","","revaluation","2","0","","",""
"html-keyboard-response","293","1822293","0.0-5.0-2.1-1.50","spark_pilot_2","7515","7","23","Male","","","","","","","","null","<div style=""font-size:60px;"">+</div>","null","fixation","","","","","","","","","","","1","","",""
"revaluation","294","1828298","0.0-5.0-2.1-0.51","spark_pilot_2","7515","7","23","Male","","","false","","","","","[962,689]","./assets/img/ocean/memory/38.jpg","[""ArrowDown"",""ArrowRight""]","value training","ocean","17","{""ArrowUp,ArrowLeft"":26,""ArrowUp,ArrowRight"":10,""ArrowDown,ArrowLeft"":5,""ArrowDown,ArrowRight"":17}","false","ArrowDown,ArrowRight","false","","","revaluation","2","2","","",""
"html-keyboard-response","295","1828800","0.0-5.0-2.1-1.51","spark_pilot_2","7515","7","23","Male","","","","","","","","null","<div style=""font-size:60px;"">+</div>","null","fixation","","","","","","","","","","","3","","",""
"revaluation","296","1834803","0.0-5.0-2.1-0.52","spark_pilot_2","7515","7","23","Male","","","false","","","","","[1095,1783]","./assets/img/ocean/memory/32.jpg","[""ArrowUp"",""ArrowRight""]","value training","ocean","10","{""ArrowUp,ArrowLeft"":26,""ArrowUp,ArrowRight"":10,""ArrowDown,ArrowLeft"":5,""ArrowDown,ArrowRight"":17}","false","ArrowUp,ArrowRight","false","","","revaluation","2","4","","",""
"html-keyboard-response","297","1835304","0.0-5.0-2.1-1.52","spark_pilot_2","7515","7","23","Male","","","","","","","","null","<div style=""font-size:60px;"">+</div>","null","fixation","","","","","","","","","","","5","","",""
"revaluation","298","1839308","0.0-5.0-2.1-0.53","spark_pilot_2","7515","7","23","Male","","","false","","","","","[1047]","./assets/img/ocean/catch/5.jpg","[""ArrowDown""]","value training","ocean","-10","{""ArrowUp,ArrowLeft"":26,""ArrowUp,ArrowRight"":10,""ArrowDown,ArrowLeft"":5,""ArrowDown,ArrowRight"":17}","false","ArrowDown","true","","","revaluation","2","6","","",""
"html-keyboard-response","299","1839809","0.0-5.0-2.1-1.53","spark_pilot_2","7515","7","23","Male","","","","","","","","null","<div style=""font-size:60px;"">+</div>","null","fixation","","","","","","","","","","","7","","",""
"revaluation","300","1843812","0.0-5.0-2.1-0.54","spark_pilot_2","7515","7","23","Male","","","true","","","","","[]","./assets/img/ocean/memory/23.jpg","[]","value training","ocean","-5","{""ArrowUp,ArrowLeft"":26,""ArrowUp,ArrowRight"":10,""ArrowDown,ArrowLeft"":5,""ArrowDown,ArrowRight"":17}","false","","false","","","revaluation","2","8","","",""
"html-keyboard-response","301","1844313","0.0-5.0-2.1-1.54","spark_pilot_2","7515","7","23","Male","","","","","","","","null","<div style=""font-size:60px;"">+</div>","null","fixation","","","","","","","","","","","9","","",""
"revaluation","302","1850318","0.0-5.0-2.1-0.55","spark_pilot_2","7515","7","23","Male","","","false","","","","","[1813,693]","./assets/img/ocean/memory/17.jpg","[""ArrowDown"",""ArrowRight""]","value training","ocean","17","{""ArrowUp,ArrowLeft"":26,""ArrowUp,ArrowRight"":10,""ArrowDown,ArrowLeft"":5,""ArrowDown,ArrowRight"":17}","false","ArrowDown,ArrowRight","false","","","revaluation","2","10","","",""
"html-keyboard-response","303","1850819","0.0-5.0-2.1-1.55","spark_pilot_2","7515","7","23","Male","","","","","","","","null","<div style=""font-size:60px;"">+</div>","null","fixation","","","","","","","","","","","11","","",""
