"trial_type","trial_index","time_elapsed","internal_node_id","task_version","subject_id","assigned_condition","age","gender","success","timeout","failed_images","failed_audio","failed_video","browser_interaction","rt","stimulus","response","task_part","environment","score","rewardMap","correct","fullState","isCatch","numberMissed","duration","condition","order","trial_num","key_press","ground_truth","bonus"
"pavlovia","0","2600","0.0-0.0","spark_pilot_2","7426","7","18","Male","","","","","","","","","","","","","","","","","","","","","","","",""
"preload","1","80932","0.0-1.0","spark_pilot_2","7426","7","18","Male","true","false","[]","[]","[]","[{""event"":""fullscreenenter"",""trial"":2,""time"":83655}]","","","","","","","","","","","","","","","","","",""
"fullscreen","2","84645","0.0-2.0","spark_pilot_2","7426","7","18","Male","true","","","","","","","","","","","","","","","","","","","","","","",""
"audio-button-response","3","86270","0.0-3.0-0.0-0.0","spark_pilot_2","7426","7","18","Male","","","","","","","1509","./assets/audio/audiotest/turtle.mp3","2","audio_test","","","","","","","","","","","","","",""
"learning-instructions","4","95271","0.0-3.0-1.0-0.0","spark_pilot_2","7426","7","18","Male","","","","","","","2013.300000000745","<p> Welcome! Please remember to stay in fullscreen mode and don't click away from the experiment. </p>","","instructions","","","","","","","","","","","","","",""
"learning-instructions","5","105790","0.0-3.0-1.0-0.1","spark_pilot_2","7426","7","18","Male","","","","","","","2087.60000000149","<p> Today you will be playing a game to earn treasure. </p>
            <p> At the end of the experiment, you will earn a bonus based on how much treasure you find. </p>
            <img src='./assets/img/instructions/treasure.jpg' class='instructions-image'>","","instructions","","","","","","","","","","","","","",""
"learning-instructions","6","115707","0.0-3.0-1.0-0.2","spark_pilot_2","7426","7","18","Male","","","","","","","1636.6000000014901","<p> Animals have hidden treasure in treasure chests. </p>
            <p> You need to first find an animal and then choose which of their treasure chests to search. </p>
            <img src='./assets/img/space/animals/cat.jpg' class='instructions-image'>","","instructions","","","","","","","","","","","","","",""
"learning-instructions","7","138606","0.0-3.0-1.0-0.3","spark_pilot_2","7426","7","18","Male","","","","","","","3475.2000000029802","<p> In each round, you will search for treasure in a different place. In the real game, there will be two rounds. </p>
            <p> You will begin with a separate, practice round where you will search for treasure in outer space. </p>
            <img src='./assets/img/space/0.jpg' class='instructions-image'>","","instructions","","","","","","","","","","","","","",""
"learning-instructions","8","158317","0.0-3.0-1.0-0.4","spark_pilot_2","7426","7","18","Male","","","","","","","3500.39999999851","<p> On every turn, you will see a picture of the place that you are in, but the specific image may be different each time. </p>
            <p> For example, both of these images mean you are in outer space. </p>
            <img src='./assets/img/instructions/outerspace.jpg' class='instructions-image'>","","instructions","","","","","","","","","","","","","",""
"learning-instructions","9","171405","0.0-3.0-1.0-0.5","spark_pilot_2","7426","7","18","Male","","","","","","","5226.5","<p> You need to decide which direction to travel in. </p>
            <p> You can choose between going <b>up or down</b> by using the arrow keys. </p>
            <img src='./assets/img/instructions/updown.jpg' class='instructions-image'>","","instructions","","","","","","","","","","","","","",""
"learning-instructions","10","182073","0.0-3.0-1.0-0.6","spark_pilot_2","7426","7","18","Male","","","","","","","1829.199999999255","<p> You will have <b>2 seconds</b> to make your choice. </p>
            <p> If you do not make a choice within 2 seconds, you will not find an animal or earn treasure. </p>
            <img src='./assets/img/instructions/2seconds.jpg' class='instructions-image'>","","instructions","","","","","","","","","","","","","",""
"learning-instructions","11","189967","0.0-3.0-1.0-0.7","spark_pilot_2","7426","7","18","Male","","","","","","","836.1000000014901","<p> Let’s try practicing that now! </p>
            <p> When you see a picture of the place you are in, press the <b>up</b> key to travel up. </p>
            <img src='./assets/img/instructions/pressUp.jpg' class='instructions-image'>","","instructions","","","","","","","","","","","","","",""
"revaluation","12","193999","0.0-3.0-2.0-0.0","spark_pilot_2","7426","7","18","Male","","false","","","","","[855.8000000007451]","./assets/img/space/0.jpg","[""ArrowUp""]","first stage practice","space","0","null","null","ArrowUp","false","","","","","","","",""
"html-keyboard-response","13","194512","0.0-3.0-2.0-1.0","spark_pilot_2","7426","7","18","Male","","","","","","","null","<div style=""font-size:60px;"">+</div>","null","fixation","","","","","","","","","","","","","",""
"revaluation","14","198529","0.0-3.0-2.0-0.1","spark_pilot_2","7426","7","18","Male","","true","","","","","[]","./assets/img/space/1.jpg","[]","first stage practice","space","-5","null","null","","false","","","","","","","",""
"html-keyboard-response","15","199039","0.0-3.0-2.0-1.1","spark_pilot_2","7426","7","18","Male","","","","","","","null","<div style=""font-size:60px;"">+</div>","null","fixation","","","","","","","","","","","","","",""
"revaluation","16","203057","0.0-3.0-2.0-0.2","spark_pilot_2","7426","7","18","Male","","false","","","","","[658.0999999977648]","./assets/img/space/2.jpg","[""ArrowUp""]","first stage practice","space","0","null","null","ArrowUp","false","","","","","","","",""
"html-keyboard-response","17","203566","0.0-3.0-2.0-1.2","spark_pilot_2","7426","7","18","Male","","","","","","","null","<div style=""font-size:60px;"">+</div>","null","fixation","","","","","","","","","","","","","",""
"learning-instructions","18","211449","0.0-3.0-3.0-0.0","spark_pilot_2","7426","7","18","Male","","","","","","","3166.800000000745","<p> Great job! Now try pressing the <b>down</b> key to travel down. </p>
            <img src='./assets/img/instructions/pressDown.jpg' class='instructions-image'>","","instructions","","","","","","","","","","","","","",""
"revaluation","19","215462","0.0-3.0-4.0-0.0","spark_pilot_2","7426","7","18","Male","","false","","","","","[1476.5]","./assets/img/space/3.jpg","[""ArrowDown""]","first stage practice","space","0","null","null","ArrowDown","false","","","","","","","",""
"html-keyboard-response","20","215970","0.0-3.0-4.0-1.0","spark_pilot_2","7426","7","18","Male","","","","","","","null","<div style=""font-size:60px;"">+</div>","null","fixation","","","","","","","","","","","","","",""
"revaluation","21","219991","0.0-3.0-4.0-0.1","spark_pilot_2","7426","7","18","Male","","false","","","","","[307.19999999925494]","./assets/img/space/4.jpg","[""ArrowDown""]","first stage practice","space","0","null","null","ArrowDown","false","","","","","","","",""
"html-keyboard-response","22","220496","0.0-3.0-4.0-1.1","spark_pilot_2","7426","7","18","Male","","","","","","","null","<div style=""font-size:60px;"">+</div>","null","fixation","","","","","","","","","","","","","",""
"revaluation","23","224513","0.0-3.0-4.0-0.2","spark_pilot_2","7426","7","18","Male","","false","","","","","[836.1999999992549]","./assets/img/space/5.jpg","[""ArrowDown""]","first stage practice","space","0","null","null","ArrowDown","false","","","","","","","",""
"html-keyboard-response","24","225018","0.0-3.0-4.0-1.2","spark_pilot_2","7426","7","18","Male","","","","","","","null","<div style=""font-size:60px;"">+</div>","null","fixation","","","","","","","","","","","","","",""
"learning-instructions","25","238239","0.0-3.0-5.0-0.0","spark_pilot_2","7426","7","18","Male","","","","","","","3345.39999999851","<p> The animals don’t move, so the animal in the upper part of a place will stay in the upper part of a place, and the animal in the lower part of a place will stay in the lower part of a place. </p>","","instructions","","","","","","","","","","","","","",""
"learning-instructions","26","249227","0.0-3.0-5.0-0.1","spark_pilot_2","7426","7","18","Male","","","","","","","1835.800000000745","<p> Each animal has two treasure chests for you to choose from. </p>
            <p> The amount of treasure in each chest can range from <b> 0 to 40 pieces.</b></p>","","instructions","","","","","","","","","","","","","",""
"learning-instructions","27","261566","0.0-3.0-5.0-0.2","spark_pilot_2","7426","7","18","Male","","","","","","","1123.9000000022352","<p> You should decide which chest to search for treasure by using the <b>left</b> and <b>right</b> arrow keys. </p>
            <p><b> Pay attention to which animal is on the screen, as the animals have different treasure chests. </b></p>
            <img src='./assets/img/instructions/leftright.jpg' class='instructions-image'>","","instructions","","","","","","","","","","","","","",""
"learning-instructions","28","268982","0.0-3.0-5.0-0.3","spark_pilot_2","7426","7","18","Male","","","","","","","1028.6000000014901","<p> Let’s try practicing that now. </p>
            <p> When you see an animal, choose which chest to search for treasure. </p>
            <img src='./assets/img/instructions/chooseChest.jpg' class='instructions-image'>","","instructions","","","","","","","","","","","","","",""
"revaluation","29","273006","0.0-3.0-6.0-0.0","spark_pilot_2","7426","7","18","Male","","false","","","","","[1679.1000000014901]","./assets/img/space/animals/cat.jpg","[""ArrowLeft""]","second stage practice","space","3","{""ArrowUp,ArrowLeft"":3,""ArrowUp,ArrowRight"":36,""ArrowDown,ArrowLeft"":15,""ArrowDown,ArrowRight"":23}","false","ArrowUp,ArrowLeft","","","","","","","","",""
"html-keyboard-response","30","273514","0.0-3.0-6.0-1.0","spark_pilot_2","7426","7","18","Male","","","","","","","null","<div style=""font-size:60px;"">+</div>","null","fixation","","","","","","","","","","","","","",""
"revaluation","31","277528","0.0-3.0-6.0-0.1","spark_pilot_2","7426","7","18","Male","","false","","","","","[305.3999999985099]","./assets/img/space/animals/cat.jpg","[""ArrowRight""]","second stage practice","space","36","{""ArrowUp,ArrowLeft"":3,""ArrowUp,ArrowRight"":36,""ArrowDown,ArrowLeft"":15,""ArrowDown,ArrowRight"":23}","true","ArrowUp,ArrowRight","","","","","","","","",""
"html-keyboard-response","32","278032","0.0-3.0-6.0-1.1","spark_pilot_2","7426","7","18","Male","","","","","","","null","<div style=""font-size:60px;"">+</div>","null","fixation","","","","","","","","","","","","","",""
"revaluation","33","282048","0.0-3.0-6.0-0.2","spark_pilot_2","7426","7","18","Male","","false","","","","","[617.1999999992549]","./assets/img/space/animals/rabbit.jpg","[""ArrowRight""]","second stage practice","space","23","{""ArrowUp,ArrowLeft"":3,""ArrowUp,ArrowRight"":36,""ArrowDown,ArrowLeft"":15,""ArrowDown,ArrowRight"":23}","true","ArrowDown,ArrowRight","","","","","","","","",""
"html-keyboard-response","34","282553","0.0-3.0-6.0-1.2","spark_pilot_2","7426","7","18","Male","","","","","","","null","<div style=""font-size:60px;"">+</div>","null","fixation","","","","","","","","","","","","","",""
"revaluation","35","286570","0.0-3.0-6.0-0.3","spark_pilot_2","7426","7","18","Male","","false","","","","","[615.3000000007451]","./assets/img/space/animals/rabbit.jpg","[""ArrowRight""]","second stage practice","space","23","{""ArrowUp,ArrowLeft"":3,""ArrowUp,ArrowRight"":36,""ArrowDown,ArrowLeft"":15,""ArrowDown,ArrowRight"":23}","true","ArrowDown,ArrowRight","","","","","","","","",""
"html-keyboard-response","36","287080","0.0-3.0-6.0-1.3","spark_pilot_2","7426","7","18","Male","","","","","","","null","<div style=""font-size:60px;"">+</div>","null","fixation","","","","","","","","","","","","","",""
"learning-instructions","37","312257","0.0-3.0-7.0-0.0","spark_pilot_2","7426","7","18","Male","","","","","","","1919.6000000014901","<p> Great job. Now let’s try putting it together. </p>
            <p> On each turn, you will first see a picture to remind you of the place you are in, and you need to choose whether to go up or down. </p>
            <p> Then you will see an animal and choose which of its chests to search for treasure. </p>","","instructions","","","","","","","","","","","","","",""
"learning-instructions","38","321624","0.0-3.0-7.0-0.1","spark_pilot_2","7426","7","18","Male","","","","","","","1087.4000000022352","<p> When you choose whether to go up or down, try to go to the animal with the chest with the most treasure. </p>
            <p> Try practicing that now! </p>","","instructions","","","","","","","","","","","","","",""
"revaluation","39","327650","0.0-3.0-8.0-0.0","spark_pilot_2","7426","7","18","Male","","false","","","","","[945.0999999977648,935]","./assets/img/space/6.jpg","[""ArrowUp"",""ArrowRight""]","full practice","space","36","{""ArrowUp,ArrowLeft"":3,""ArrowUp,ArrowRight"":36,""ArrowDown,ArrowLeft"":15,""ArrowDown,ArrowRight"":23}","true","ArrowUp,ArrowRight","false","","","","","","","",""
"html-keyboard-response","40","328152","0.0-3.0-8.0-1.0","spark_pilot_2","7426","7","18","Male","","","","","","","null","<div style=""font-size:60px;"">+</div>","null","fixation","","","","","","","","","","","","","",""
"revaluation","41","334178","0.0-3.0-8.0-0.1","spark_pilot_2","7426","7","18","Male","","false","","","","","[908.2999999970198,469.5]","./assets/img/space/7.jpg","[""ArrowUp"",""ArrowRight""]","full practice","space","36","{""ArrowUp,ArrowLeft"":3,""ArrowUp,ArrowRight"":36,""ArrowDown,ArrowLeft"":15,""ArrowDown,ArrowRight"":23}","true","ArrowUp,ArrowRight","false","","","","","","","",""
"html-keyboard-response","42","334683","0.0-3.0-8.0-1.1","spark_pilot_2","7426","7","18","Male","","","","","","","null","<div style=""font-size:60px;"">+</div>","null","fixation","","","","","","","","","","","","","",""
"revaluation","43","340709","0.0-3.0-8.0-0.2","spark_pilot_2","7426","7","18","Male","","false","","","","","[497.8999999985099,382.3999999985099]","./assets/img/space/8.jpg","[""ArrowUp"",""ArrowRight""]","full practice","space","36","{""ArrowUp,ArrowLeft"":3,""ArrowUp,ArrowRight"":36,""ArrowDown,ArrowLeft"":15,""ArrowDown,ArrowRight"":23}","true","ArrowUp,ArrowRight","false","","","","","","","",""
"html-keyboard-response","44","341220","0.0-3.0-8.0-1.2","spark_pilot_2","7426","7","18","Male","","","","","","","null","<div style=""font-size:60px;"">+</div>","null","fixation","","","","","","","","","","","","","",""
"revaluation","45","347246","0.0-3.0-8.0-0.3","spark_pilot_2","7426","7","18","Male","","false","","","","","[488.79999999701977,342.80000000074506]","./assets/img/space/9.jpg","[""ArrowUp"",""ArrowLeft""]","full practice","space","3","{""ArrowUp,ArrowLeft"":3,""ArrowUp,ArrowRight"":36,""ArrowDown,ArrowLeft"":15,""ArrowDown,ArrowRight"":23}","false","ArrowUp,ArrowLeft","false","","","","","","","",""
"html-keyboard-response","46","347754","0.0-3.0-8.0-1.3","spark_pilot_2","7426","7","18","Male","","","","","","","null","<div style=""font-size:60px;"">+</div>","null","fixation","","","","","","","","","","","","","",""
"revaluation","47","353780","0.0-3.0-8.0-0.4","spark_pilot_2","7426","7","18","Male","","false","","","","","[400.30000000074506,369.5]","./assets/img/space/10.jpg","[""ArrowUp"",""ArrowRight""]","full practice","space","36","{""ArrowUp,ArrowLeft"":3,""ArrowUp,ArrowRight"":36,""ArrowDown,ArrowLeft"":15,""ArrowDown,ArrowRight"":23}","true","ArrowUp,ArrowRight","false","","","","","","","",""
"html-keyboard-response","48","354282","0.0-3.0-8.0-1.4","spark_pilot_2","7426","7","18","Male","","","","","","","null","<div style=""font-size:60px;"">+</div>","null","fixation","","","","","","","","","","","","","",""
"learning-instructions","49","368360","0.0-3.0-9.0-0.0","spark_pilot_2","7426","7","18","Male","","","","","","","645.9000000022352","<p> One last thing: sometimes, you will see a robber. The robber can be anywhere in the picture. </p>
            <p> If you do not stop them, you will lose treasure. </p>
            <img src='./assets/img/instructions/robber.jpg' class='instructions-image'>","","instructions","","","","","","","","","","","","","",""
"learning-instructions","50","376871","0.0-3.0-9.0-0.1","spark_pilot_2","7426","7","18","Male","","","","","","","1326.1000000014901","<p> If you see the robber, you should <b>press the space bar</b> rather than using the arrow keys. </p>
            <p> Try practicing that now! </p>","","instructions","","","","","","","","","","","","","",""
"revaluation","51","380891","0.0-3.0-10.0-0.0","spark_pilot_2","7426","7","18","Male","","false","","","","","[1161.300000000745]","./assets/img/space/catch/0.jpg","[""ArrowUp""]","catch practice","space","-10","{""ArrowUp,ArrowLeft"":3,""ArrowUp,ArrowRight"":36,""ArrowDown,ArrowLeft"":15,""ArrowDown,ArrowRight"":23}","false","ArrowUp","true","","","","","","","",""
"html-keyboard-response","52","381396","0.0-3.0-10.0-1.0","spark_pilot_2","7426","7","18","Male","","","","","","","null","<div style=""font-size:60px;"">+</div>","null","fixation","","","","","","","","","","","","","",""
"revaluation","53","385414","0.0-3.0-10.0-0.1","spark_pilot_2","7426","7","18","Male","","false","","","","","[656.1999999992549]","./assets/img/space/catch/1.jpg","[""spaceBar""]","catch practice","space","0","{""ArrowUp,ArrowLeft"":3,""ArrowUp,ArrowRight"":36,""ArrowDown,ArrowLeft"":15,""ArrowDown,ArrowRight"":23}","true","spaceBar","true","","","","","","","",""
"html-keyboard-response","54","385924","0.0-3.0-10.0-1.1","spark_pilot_2","7426","7","18","Male","","","","","","","null","<div style=""font-size:60px;"">+</div>","null","fixation","","","","","","","","","","","","","",""
"revaluation","55","389940","0.0-3.0-10.0-0.2","spark_pilot_2","7426","7","18","Male","","false","","","","","[456.5]","./assets/img/space/catch/2.jpg","[""spaceBar""]","catch practice","space","0","{""ArrowUp,ArrowLeft"":3,""ArrowUp,ArrowRight"":36,""ArrowDown,ArrowLeft"":15,""ArrowDown,ArrowRight"":23}","true","spaceBar","true","","","","","","","",""
"html-keyboard-response","56","390446","0.0-3.0-10.0-1.2","spark_pilot_2","7426","7","18","Male","","","","","","","null","<div style=""font-size:60px;"">+</div>","null","fixation","","","","","","","","","","","","","",""
"learning-instructions","57","413146","0.0-3.0-11.0-0.0","spark_pilot_2","7426","7","18","Male","","","","","","","1359.1000000014901","<p> After you explore a place to find treasure, it will be time to play a different game. </p>
            <p> During this game, red dots will appear on the screen and fall down slowly. </p>
            <p><b> You must click on them before they reach the bottom. </b></p>
            <img src='./assets/img/instructions/dotGame.jpg' class='instructions-image'>","","instructions","","","","","","","","","","","","","",""
"learning-instructions","58","419422","0.0-3.0-11.0-0.1","spark_pilot_2","7426","7","18","Male","","","","","","","588","<p> For every dot you click, you will earn additional treasure. </p>
            <p> Let’s try practicing that now. </p>","","instructions","","","","","","","","","","","","","",""
"revaluation","59","434439","0.0-3.0-12.0-0.0","spark_pilot_2","7426","7","18","Male","","","","","","","[75]","","","rest practice","","10","","","","","0","15000","","","","","",""
"learning-instructions","60","440581","0.0-3.0-13.0-0.0-0.0","spark_pilot_2","7426","7","18","Male","","","","","","","900.6999999992549","<p> Now, you will practice a shortened version of the game to get a sense of how it all fits together. </p>","","instructions","","","","","","","","","","","","","",""
"learning-instructions","61","445465","0.0-3.0-13.0-0.0-0.1","spark_pilot_2","7426","7","18","Male","","","","","","","1685.5999999977648","<p>This time you are searching for treasure in outer space.</p>","","instructions","","","","","","","","","","","","","",""
"learning-instructions","62","461015","0.0-3.0-13.0-1.0-0.0","spark_pilot_2","7426","7","18","Male","","","","","","","737.5999999977648","<p> Remember, when you see a picture of the place, use the up and down keys to <b>find an animal</b>.</p>
            <p> When you encounter an animal, you should use the left and right keys to <b>select a treasure chest</b>.</p>
            <p> Don't forget to look out for the robber! </p>","","instructions","","","","","","","","","","","","","",""
"revaluation","63","467030","0.0-3.0-13.0-2.0-0.0","spark_pilot_2","7426","7","18","Male","","false","","","","","[1103.6000000014901,621]","./assets/img/space/11.jpg","[""ArrowUp"",""ArrowRight""]","practice block","space","36","{""ArrowUp,ArrowLeft"":3,""ArrowUp,ArrowRight"":36,""ArrowDown,ArrowLeft"":15,""ArrowDown,ArrowRight"":23}","true","ArrowUp,ArrowRight","false","","","","","","","",""
"html-keyboard-response","64","467533","0.0-3.0-13.0-2.0-1.0","spark_pilot_2","7426","7","18","Male","","","","","","","null","<div style=""font-size:60px;"">+</div>","null","fixation","","","","","","","","","","","","","",""
"revaluation","65","473558","0.0-3.0-13.0-2.0-0.1","spark_pilot_2","7426","7","18","Male","","false","","","","","[662.5,521.5999999977648]","./assets/img/space/12.jpg","[""ArrowUp"",""ArrowRight""]","practice block","space","36","{""ArrowUp,ArrowLeft"":3,""ArrowUp,ArrowRight"":36,""ArrowDown,ArrowLeft"":15,""ArrowDown,ArrowRight"":23}","true","ArrowUp,ArrowRight","false","","","","","","","",""
"html-keyboard-response","66","474064","0.0-3.0-13.0-2.0-1.1","spark_pilot_2","7426","7","18","Male","","","","","","","null","<div style=""font-size:60px;"">+</div>","null","fixation","","","","","","","","","","","","","",""
"revaluation","67","480090","0.0-3.0-13.0-2.0-0.2","spark_pilot_2","7426","7","18","Male","","false","","","","","[555.2000000029802,405.4000000022352]","./assets/img/space/13.jpg","[""ArrowUp"",""ArrowRight""]","practice block","space","36","{""ArrowUp,ArrowLeft"":3,""ArrowUp,ArrowRight"":36,""ArrowDown,ArrowLeft"":15,""ArrowDown,ArrowRight"":23}","true","ArrowUp,ArrowRight","false","","","","","","","",""
"html-keyboard-response","68","480600","0.0-3.0-13.0-2.0-1.2","spark_pilot_2","7426","7","18","Male","","","","","","","null","<div style=""font-size:60px;"">+</div>","null","fixation","","","","","","","","","","","","","",""
"revaluation","69","486626","0.0-3.0-13.0-2.0-0.3","spark_pilot_2","7426","7","18","Male","","false","","","","","[518.6000000014901,419]","./assets/img/space/14.jpg","[""ArrowUp"",""ArrowRight""]","practice block","space","36","{""ArrowUp,ArrowLeft"":3,""ArrowUp,ArrowRight"":36,""ArrowDown,ArrowLeft"":15,""ArrowDown,ArrowRight"":23}","true","ArrowUp,ArrowRight","false","","","","","","","",""
"html-keyboard-response","70","487134","0.0-3.0-13.0-2.0-1.3","spark_pilot_2","7426","7","18","Male","","","","","","","null","<div style=""font-size:60px;"">+</div>","null","fixation","","","","","","","","","","","","","",""
"revaluation","71","493159","0.0-3.0-13.0-2.0-0.4","spark_pilot_2","7426","7","18","Male","","false","","","","","[692.2999999970198,460.20000000298023]","./assets/img/space/11.jpg","[""ArrowUp"",""ArrowRight""]","practice block","space","36","{""ArrowUp,ArrowLeft"":3,""ArrowUp,ArrowRight"":36,""ArrowDown,ArrowLeft"":15,""ArrowDown,ArrowRight"":23}","true","ArrowUp,ArrowRight","false","","","","","","","",""
"html-keyboard-response","72","493663","0.0-3.0-13.0-2.0-1.4","spark_pilot_2","7426","7","18","Male","","","","","","","null","<div style=""font-size:60px;"">+</div>","null","fixation","","","","","","","","","","","","","",""
"revaluation","73","499689","0.0-3.0-13.0-2.0-0.5","spark_pilot_2","7426","7","18","Male","","false","","","","","[716.8000000007451,624.1999999992549]","./assets/img/space/12.jpg","[""ArrowUp"",""ArrowRight""]","practice block","space","36","{""ArrowUp,ArrowLeft"":3,""ArrowUp,ArrowRight"":36,""ArrowDown,ArrowLeft"":15,""ArrowDown,ArrowRight"":23}","true","ArrowUp,ArrowRight","false","","","","","","","",""
"html-keyboard-response","74","500200","0.0-3.0-13.0-2.0-1.5","spark_pilot_2","7426","7","18","Male","","","","","","","null","<div style=""font-size:60px;"">+</div>","null","fixation","","","","","","","","","","","","","",""
"revaluation","75","506226","0.0-3.0-13.0-2.0-0.6","spark_pilot_2","7426","7","18","Male","","false","","","","","[522.2999999970198,429]","./assets/img/space/13.jpg","[""ArrowUp"",""ArrowRight""]","practice block","space","36","{""ArrowUp,ArrowLeft"":3,""ArrowUp,ArrowRight"":36,""ArrowDown,ArrowLeft"":15,""ArrowDown,ArrowRight"":23}","true","ArrowUp,ArrowRight","false","","","","","","","",""
"html-keyboard-response","76","506736","0.0-3.0-13.0-2.0-1.6","spark_pilot_2","7426","7","18","Male","","","","","","","null","<div style=""font-size:60px;"">+</div>","null","fixation","","","","","","","","","","","","","",""
"revaluation","77","512762","0.0-3.0-13.0-2.0-0.7","spark_pilot_2","7426","7","18","Male","","false","","","","","[484,545]","./assets/img/space/14.jpg","[""ArrowUp"",""ArrowRight""]","practice block","space","36","{""ArrowUp,ArrowLeft"":3,""ArrowUp,ArrowRight"":36,""ArrowDown,ArrowLeft"":15,""ArrowDown,ArrowRight"":23}","true","ArrowUp,ArrowRight","false","","","","","","","",""
"html-keyboard-response","78","513273","0.0-3.0-13.0-2.0-1.7","spark_pilot_2","7426","7","18","Male","","","","","","","null","<div style=""font-size:60px;"">+</div>","null","fixation","","","","","","","","","","","","","",""
"revaluation","79","517291","0.0-3.0-13.0-2.0-0.8","spark_pilot_2","7426","7","18","Male","","false","","","","","[612.1000000014901]","./assets/img/space/catch/3.jpg","[""spaceBar""]","practice block","space","0","{""ArrowUp,ArrowLeft"":3,""ArrowUp,ArrowRight"":36,""ArrowDown,ArrowLeft"":15,""ArrowDown,ArrowRight"":23}","true","spaceBar","true","","","","","","","",""
"html-keyboard-response","80","517801","0.0-3.0-13.0-2.0-1.8","spark_pilot_2","7426","7","18","Male","","","","","","","null","<div style=""font-size:60px;"">+</div>","null","fixation","","","","","","","","","","","","","",""
"learning-instructions","81","538537","0.0-3.0-13.0-3.0-0.0","spark_pilot_2","7426","7","18","Male","","","","","","","1740.1000000014901","<p> Now, you will travel with a friend who will choose whether you go up or down first. </p>
            <p> On these turns, you will just see the animal that they found. You will still get to choose which chest to search for treasure.</p>","","instructions","","","","","","","","","","","","","",""
"revaluation","82","542555","0.0-3.0-13.0-4.0-0.0","spark_pilot_2","7426","7","18","Male","","false","","","","","[916.6999999992549]","./assets/img/space/animals/cat.jpg","[""ArrowRight""]","practice block","space","36","{""ArrowUp,ArrowLeft"":3,""ArrowUp,ArrowRight"":36,""ArrowDown,ArrowLeft"":15,""ArrowDown,ArrowRight"":23}","true","ArrowUp,ArrowRight","","","","","","","","",""
"html-keyboard-response","83","543063","0.0-3.0-13.0-4.0-1.0","spark_pilot_2","7426","7","18","Male","","","","","","","null","<div style=""font-size:60px;"">+</div>","null","fixation","","","","","","","","","","","","","",""
"revaluation","84","547079","0.0-3.0-13.0-4.0-0.1","spark_pilot_2","7426","7","18","Male","","false","","","","","[744.6999999992549]","./assets/img/space/animals/cat.jpg","[""ArrowRight""]","practice block","space","36","{""ArrowUp,ArrowLeft"":3,""ArrowUp,ArrowRight"":36,""ArrowDown,ArrowLeft"":15,""ArrowDown,ArrowRight"":23}","true","ArrowUp,ArrowRight","","","","","","","","",""
"html-keyboard-response","85","547584","0.0-3.0-13.0-4.0-1.1","spark_pilot_2","7426","7","18","Male","","","","","","","null","<div style=""font-size:60px;"">+</div>","null","fixation","","","","","","","","","","","","","",""
"revaluation","86","551599","0.0-3.0-13.0-4.0-0.2","spark_pilot_2","7426","7","18","Male","","false","","","","","[603.6999999992549]","./assets/img/space/animals/rabbit.jpg","[""ArrowRight""]","practice block","space","23","{""ArrowUp,ArrowLeft"":3,""ArrowUp,ArrowRight"":36,""ArrowDown,ArrowLeft"":15,""ArrowDown,ArrowRight"":23}","true","ArrowDown,ArrowRight","","","","","","","","",""
"html-keyboard-response","87","552104","0.0-3.0-13.0-4.0-1.2","spark_pilot_2","7426","7","18","Male","","","","","","","null","<div style=""font-size:60px;"">+</div>","null","fixation","","","","","","","","","","","","","",""
"revaluation","88","556122","0.0-3.0-13.0-4.0-0.3","spark_pilot_2","7426","7","18","Male","","false","","","","","[621]","./assets/img/space/animals/rabbit.jpg","[""ArrowLeft""]","practice block","space","15","{""ArrowUp,ArrowLeft"":3,""ArrowUp,ArrowRight"":36,""ArrowDown,ArrowLeft"":15,""ArrowDown,ArrowRight"":23}","false","ArrowDown,ArrowLeft","","","","","","","","",""
"html-keyboard-response","89","556626","0.0-3.0-13.0-4.0-1.3","spark_pilot_2","7426","7","18","Male","","","","","","","null","<div style=""font-size:60px;"">+</div>","null","fixation","","","","","","","","","","","","","",""
"learning-instructions","90","565292","0.0-3.0-13.0-5.0-0.0","spark_pilot_2","7426","7","18","Male","","","","","","","1280.5999999977648","<p> Time to play the dot game! </p>
            <p> For 15 seconds, click the red dots on the following screen as they appear. </p>","","instructions","","","","","","","","","","","","","",""
"revaluation","91","580295","0.0-3.0-13.0-6.0-0.0","spark_pilot_2","7426","7","18","Male","","","","","","","[87]","","","rest practice","","10","","","","","0","15000","","","","","",""
"learning-instructions","92","587367","0.0-3.0-13.0-7.0-0.0","spark_pilot_2","7426","7","18","Male","","","","","","","924.7999999970198","<p> You have almost finished this part of the game! </p>
            <p> We are going to ask you to make a few more choices. </p>","","instructions","","","","","","","","","","","","","",""
"learning-instructions","93","608451","0.0-3.0-13.0-7.0-0.1","spark_pilot_2","7426","7","18","Male","","","","","","","982.5999999977648","<p> First, you need to decide whether to go up or down. When you see each picture, use the arrow keys to make your choice. </p>
            <p><b>You will not see which animal you found, but try to get to the one that will give you the most treasure.</b></p>","","instructions","","","","","","","","","","","","","",""
"revaluation","94","609510","0.0-3.0-13.0-8.0","spark_pilot_2","7426","7","18","Male","","false","","","","","[1055.5]","./assets/img/space/15.jpg","[""ArrowUp""]","practice block","space","0","{""ArrowUp,ArrowLeft"":3,""ArrowUp,ArrowRight"":36,""ArrowDown,ArrowLeft"":15,""ArrowDown,ArrowRight"":23}","true","ArrowUp","false","","","","","","","",""
"html-keyboard-response","95","610017","0.0-3.0-13.0-9.0","spark_pilot_2","7426","7","18","Male","","","","","","","null","<div style=""font-size:60px;"">+</div>","null","fixation","","","","","","","","","","","","","",""
"learning-instructions","96","628778","0.0-3.0-13.0-10.0-0.0","spark_pilot_2","7426","7","18","Male","","","","","","","3766","<p> Now you will see the animals again and can search their chests for treasure. </p>
            <p> This time, you will not see how much treasure you earned, but you will earn more bonus money for making better choices. </p>","","instructions","","","","","","","","","","","","","",""
"revaluation","97","629497","0.0-3.0-13.0-11.0-0.0","spark_pilot_2","7426","7","18","Male","","false","","","","","[715.8999999985099]","./assets/img/space/animals/cat.jpg","[""ArrowRight""]","practice block","space","0","{""ArrowUp,ArrowLeft"":3,""ArrowUp,ArrowRight"":36,""ArrowDown,ArrowLeft"":15,""ArrowDown,ArrowRight"":23}","true","ArrowUp,ArrowRight","","","","","","","","",""
"html-keyboard-response","98","630004","0.0-3.0-13.0-11.0-1.0","spark_pilot_2","7426","7","18","Male","","","","","","","null","<div style=""font-size:60px;"">+</div>","null","fixation","","","","","","","","","","","","","",""
"revaluation","99","631009","0.0-3.0-13.0-11.0-0.1","spark_pilot_2","7426","7","18","Male","","false","","","","","[1001.9000000022352]","./assets/img/space/animals/rabbit.jpg","[""ArrowLeft""]","practice block","space","0","{""ArrowUp,ArrowLeft"":3,""ArrowUp,ArrowRight"":36,""ArrowDown,ArrowLeft"":15,""ArrowDown,ArrowRight"":23}","false","ArrowDown,ArrowLeft","","","","","","","","",""
"html-keyboard-response","100","631514","0.0-3.0-13.0-11.0-1.1","spark_pilot_2","7426","7","18","Male","","","","","","","null","<div style=""font-size:60px;"">+</div>","null","fixation","","","","","","","","","","","","","",""
"learning-instructions","101","638769","0.0-3.0-14.0-0.0","spark_pilot_2","7426","7","18","Male","","","","","","","2663.300000000745","<p> Before you start, we're going to ask you a few questions about how the game works. </p>","","instructions","","","","","","","","","","","","","",""
"comp-q","102","646784","0.0-3.0-15.0-0.0-0.0","spark_pilot_2","7426","7","18","Male","","","","","","","2407.2000000029802","<p> <b> True or False? </b> </p>
            <p> There can be 50 pieces of treasure in a given animal's chest. </p>","1","comp_question","","","","true","","","","","","","","","",""
"comp-q","103","654374","0.0-3.0-15.0-0.0-1.0","spark_pilot_2","7426","7","18","Male","","","","","","","911.3000000007451","<p> <b> That's right! </b> The amount of treasure in each chest can range from 0 to 40 pieces. </p>","0","comp_answer","","","","","","","","","","","","","",""
"comp-q","104","662062","0.0-3.0-15.0-0.1-0.1","spark_pilot_2","7426","7","18","Male","","","","","","","547.2000000029802","<p> <b> True or False? </b> </p><p> In this game, all animals have the same amount of treasure in their left and right chests. </p>","1","comp_question","","","","true","","","","","","","","","",""
"comp-q","105","668490","0.0-3.0-15.0-0.1-1.1","spark_pilot_2","7426","7","18","Male","","","","","","","1181.6000000014901","<p> <b> That's right! </b> Animals have different amounts of treasure in their treasure chests. </p>","0","comp_answer","","","","","","","","","","","","","",""
"comp-q","106","675204","0.0-3.0-15.0-0.2-0.2","spark_pilot_2","7426","7","18","Male","","","","","","","853.4000000022352","<p> <b> True or False? </b> </p><p> The same animal will always be there if you go up in the same place. </p>","1","comp_question","","","","false","","","","","","","","","",""
"comp-q","107","682750","0.0-3.0-15.0-0.2-1.2","spark_pilot_2","7426","7","18","Male","","","","","","","1224.5","<p> <b>Incorrect.</b> One animal lives in the upper part and one lives in the lower part of every place. </p>","0","comp_answer","","","","","","","","","","","","","",""
"comp-q","108","688998","0.0-3.0-15.0-0.3-0.3","spark_pilot_2","7426","7","18","Male","","","","","","","425.20000000298023","<p> <b> True or False? </b> </p><p> The same animal will always be there if you go up in the same place. </p>","0","comp_question","","","","true","","","","","","","","","",""
"comp-q","109","696311","0.0-3.0-15.0-0.3-1.3","spark_pilot_2","7426","7","18","Male","","","","","","","853.5999999977648","<p> <b> That's right! </b> One animal lives in the upper part and one lives in the lower part of every place. </p>","0","comp_answer","","","","","","","","","","","","","",""
"comp-q","110","702415","0.0-3.0-15.0-0.4-0.4","spark_pilot_2","7426","7","18","Male","","","","","","","565.4000000022352","<p> <b> True or False? </b> </p><p> If you see a different picture, it means you are in a new place. </p>","0","comp_question","","","","false","","","","","","","","","",""
"comp-q","111","718338","0.0-3.0-15.0-0.4-1.4","spark_pilot_2","7426","7","18","Male","","","","","","","1348.800000000745","<p> <b>Incorrect.</b> Lots of different images may show the same place. For example,  you may see three different images that all remind you that you are in outer space. </p>","0","comp_answer","","","","","","","","","","","","","",""
"comp-q","112","724567","0.0-3.0-15.0-0.5-0.5","spark_pilot_2","7426","7","18","Male","","","","","","","727.9000000022352","<p> <b> True or False? </b> </p><p> If you see a different picture, it means you are in a new place. </p>","1","comp_question","","","","true","","","","","","","","","",""
"comp-q","113","742514","0.0-3.0-15.0-0.5-1.5","spark_pilot_2","7426","7","18","Male","","","","","","","2710.400000002235","<p> <b> That's right! </b> Lots of different images may show the same place. For example,  you may see three different images that all remind you that you are in outer space. </p>","0","comp_answer","","","","","","","","","","","","","",""
"learning-instructions","114","755203","0.0-3.0-16.0-0.0","spark_pilot_2","7426","7","18","Male","","","","","","","2813.89999999851","<p> Good job. Remember to do your best because the amount of treasure you earn will be converted into bonus money. </p>
            <p> It’s time to start the real game! </p>","","instructions","","","","","","","","","","","","","",""
"learning-instructions","115","760894","0.0-4.0-0.0-0.0","spark_pilot_2","7426","7","18","Male","","","","","","","2914.800000000745","<p> This time you are searching for treasure in the <b>canyon</b>.</p>","","instructions","","","","","","","","","","","","","",""
"learning-instructions","116","789335","0.0-4.0-0.0-0.1","spark_pilot_2","7426","7","18","Male","","","","","","","1128.4000000022352","<p><b>New</b> animals with <b>new</b> treasure chests live here. You need to explore to discover where the animal with the best treasure chest is.</p>
                    <p> Like before, once you figure out which animal has the chest with the most treasure, you should try to get to that animal and select that chest! </p>","","instructions","","","","","","","","","","","","","",""
"learning-instructions","117","805517","0.0-4.0-1.0-0.0","spark_pilot_2","7426","7","18","Male","","","","","","","1450.300000000745","<p> Remember, when you see a picture of the place, use the up and down keys to <b>find an animal</b>.</p>
            <p> When you encounter an animal, you should use the left and right keys to <b>select a treasure chest</b>.</p>
            <p> Don't forget to look out for the robber! </p>","","instructions","","","","","","","","","","","","","",""
"revaluation","118","811545","0.0-4.0-2.0-0.0","spark_pilot_2","7426","7","18","Male","","false","","","","","[1038.5,632.1999999992549]","./assets/img/canyon/memory/10.jpg","[""ArrowUp"",""ArrowRight""]","value training","canyon","10","{""ArrowUp,ArrowLeft"":23,""ArrowUp,ArrowRight"":10,""ArrowDown,ArrowLeft"":8,""ArrowDown,ArrowRight"":30}","false","ArrowUp,ArrowRight","false","","","original","1","0","","",""
"html-keyboard-response","119","812059","0.0-4.0-2.0-1.0","spark_pilot_2","7426","7","18","Male","","","","","","","null","<div style=""font-size:60px;"">+</div>","null","fixation","","","","","","","","","","","1","","",""
"revaluation","120","818081","0.0-4.0-2.0-0.1","spark_pilot_2","7426","7","18","Male","","false","","","","","[623,536.8000000007451]","./assets/img/canyon/memory/15.jpg","[""ArrowUp"",""ArrowLeft""]","value training","canyon","23","{""ArrowUp,ArrowLeft"":23,""ArrowUp,ArrowRight"":10,""ArrowDown,ArrowLeft"":8,""ArrowDown,ArrowRight"":30}","false","ArrowUp,ArrowLeft","false","","","original","1","2","","",""
"html-keyboard-response","121","818585","0.0-4.0-2.0-1.1","spark_pilot_2","7426","7","18","Male","","","","","","","null","<div style=""font-size:60px;"">+</div>","null","fixation","","","","","","","","","","","3","","",""
"revaluation","122","824609","0.0-4.0-2.0-0.2","spark_pilot_2","7426","7","18","Male","","false","","","","","[275.80000000074506,485]","./assets/img/canyon/memory/34.jpg","[""ArrowUp"",""ArrowLeft""]","value training","canyon","23","{""ArrowUp,ArrowLeft"":23,""ArrowUp,ArrowRight"":10,""ArrowDown,ArrowLeft"":8,""ArrowDown,ArrowRight"":30}","false","ArrowUp,ArrowLeft","false","","","original","1","4","","",""
"html-keyboard-response","123","825115","0.0-4.0-2.0-1.2","spark_pilot_2","7426","7","18","Male","","","","","","","null","<div style=""font-size:60px;"">+</div>","null","fixation","","","","","","","","","","","5","","",""
"revaluation","124","831136","0.0-4.0-2.0-0.3","spark_pilot_2","7426","7","18","Male","","false","","","","","[450.80000000074506,804]","./assets/img/canyon/memory/17.jpg","[""ArrowUp"",""ArrowLeft""]","value training","canyon","23","{""ArrowUp,ArrowLeft"":23,""ArrowUp,ArrowRight"":10,""ArrowDown,ArrowLeft"":8,""ArrowDown,ArrowRight"":30}","false","ArrowUp,ArrowLeft","false","","","original","1","6","","",""
"html-keyboard-response","125","831640","0.0-4.0-2.0-1.3","spark_pilot_2","7426","7","18","Male","","","","","","","null","<div style=""font-size:60px;"">+</div>","null","fixation","","","","","","","","","","","7","","",""
"revaluation","126","837667","0.0-4.0-2.0-0.4","spark_pilot_2","7426","7","18","Male","","false","","","","","[772,591.6000000014901]","./assets/img/canyon/memory/33.jpg","[""ArrowUp"",""ArrowLeft""]","value training","canyon","23","{""ArrowUp,ArrowLeft"":23,""ArrowUp,ArrowRight"":10,""ArrowDown,ArrowLeft"":8,""ArrowDown,ArrowRight"":30}","false","ArrowUp,ArrowLeft","false","","","original","1","8","","",""
"html-keyboard-response","127","838177","0.0-4.0-2.0-1.4","spark_pilot_2","7426","7","18","Male","","","","","","","null","<div style=""font-size:60px;"">+</div>","null","fixation","","","","","","","","","","","9","","",""
"revaluation","128","844204","0.0-4.0-2.0-0.5","spark_pilot_2","7426","7","18","Male","","false","","","","","[337.30000000074506,913.6000000014901]","./assets/img/canyon/memory/40.jpg","[""ArrowUp"",""ArrowLeft""]","value training","canyon","23","{""ArrowUp,ArrowLeft"":23,""ArrowUp,ArrowRight"":10,""ArrowDown,ArrowLeft"":8,""ArrowDown,ArrowRight"":30}","false","ArrowUp,ArrowLeft","false","","","original","1","10","","",""
"html-keyboard-response","129","844715","0.0-4.0-2.0-1.5","spark_pilot_2","7426","7","18","Male","","","","","","","null","<div style=""font-size:60px;"">+</div>","null","fixation","","","","","","","","","","","11","","",""
"revaluation","130","850741","0.0-4.0-2.0-0.6","spark_pilot_2","7426","7","18","Male","","false","","","","","[384.19999999925494,543.1000000014901]","./assets/img/canyon/memory/9.jpg","[""ArrowDown"",""ArrowRight""]","value training","canyon","30","{""ArrowUp,ArrowLeft"":23,""ArrowUp,ArrowRight"":10,""ArrowDown,ArrowLeft"":8,""ArrowDown,ArrowRight"":30}","true","ArrowDown,ArrowRight","false","","","original","1","12","","",""
"html-keyboard-response","131","851251","0.0-4.0-2.0-1.6","spark_pilot_2","7426","7","18","Male","","","","","","","null","<div style=""font-size:60px;"">+</div>","null","fixation","","","","","","","","","","","13","","",""
"revaluation","132","857277","0.0-4.0-2.0-0.7","spark_pilot_2","7426","7","18","Male","","false","","","","","[462.5,525.3999999985099]","./assets/img/canyon/memory/8.jpg","[""ArrowDown"",""ArrowRight""]","value training","canyon","30","{""ArrowUp,ArrowLeft"":23,""ArrowUp,ArrowRight"":10,""ArrowDown,ArrowLeft"":8,""ArrowDown,ArrowRight"":30}","true","ArrowDown,ArrowRight","false","","","original","1","14","","",""
"html-keyboard-response","133","857787","0.0-4.0-2.0-1.7","spark_pilot_2","7426","7","18","Male","","","","","","","null","<div style=""font-size:60px;"">+</div>","null","fixation","","","","","","","","","","","15","","",""
"revaluation","134","861805","0.0-4.0-2.0-0.8","spark_pilot_2","7426","7","18","Male","","false","","","","","[802.7999999970198]","./assets/img/canyon/catch/3.jpg","[""ArrowDown""]","value training","canyon","-10","{""ArrowUp,ArrowLeft"":23,""ArrowUp,ArrowRight"":10,""ArrowDown,ArrowLeft"":8,""ArrowDown,ArrowRight"":30}","false","ArrowDown","true","","","original","1","16","","",""
"html-keyboard-response","135","862316","0.0-4.0-2.0-1.8","spark_pilot_2","7426","7","18","Male","","","","","","","null","<div style=""font-size:60px;"">+</div>","null","fixation","","","","","","","","","","","17","","",""
"revaluation","136","868341","0.0-4.0-2.0-0.9","spark_pilot_2","7426","7","18","Male","","false","","","","","[1015.8000000007451,577.3999999985099]","./assets/img/canyon/memory/6.jpg","[""ArrowDown"",""ArrowRight""]","value training","canyon","30","{""ArrowUp,ArrowLeft"":23,""ArrowUp,ArrowRight"":10,""ArrowDown,ArrowLeft"":8,""ArrowDown,ArrowRight"":30}","true","ArrowDown,ArrowRight","false","","","original","1","18","","",""
"html-keyboard-response","137","868852","0.0-4.0-2.0-1.9","spark_pilot_2","7426","7","18","Male","","","","","","","null","<div style=""font-size:60px;"">+</div>","null","fixation","","","","","","","","","","","19","","",""
"revaluation","138","874878","0.0-4.0-2.0-0.10","spark_pilot_2","7426","7","18","Male","","false","","","","","[498.69999999925494,250.10000000149012]","./assets/img/canyon/memory/25.jpg","[""ArrowDown"",""ArrowRight""]","value training","canyon","30","{""ArrowUp,ArrowLeft"":23,""ArrowUp,ArrowRight"":10,""ArrowDown,ArrowLeft"":8,""ArrowDown,ArrowRight"":30}","true","ArrowDown,ArrowRight","false","","","original","1","20","","",""
"html-keyboard-response","139","875389","0.0-4.0-2.0-1.10","spark_pilot_2","7426","7","18","Male","","","","","","","null","<div style=""font-size:60px;"">+</div>","null","fixation","","","","","","","","","","","21","","",""
"revaluation","140","881414","0.0-4.0-2.0-0.11","spark_pilot_2","7426","7","18","Male","","false","","","","","[492.1000000014901,413.20000000298023]","./assets/img/canyon/memory/4.jpg","[""ArrowDown"",""ArrowRight""]","value training","canyon","30","{""ArrowUp,ArrowLeft"":23,""ArrowUp,ArrowRight"":10,""ArrowDown,ArrowLeft"":8,""ArrowDown,ArrowRight"":30}","true","ArrowDown,ArrowRight","false","","","original","1","22","","",""
"html-keyboard-response","141","881925","0.0-4.0-2.0-1.11","spark_pilot_2","7426","7","18","Male","","","","","","","null","<div style=""font-size:60px;"">+</div>","null","fixation","","","","","","","","","","","23","","",""
"revaluation","142","887946","0.0-4.0-2.0-0.12","spark_pilot_2","7426","7","18","Male","","false","","","","","[448.0999999977648,486.5]","./assets/img/canyon/memory/13.jpg","[""ArrowDown"",""ArrowRight""]","value training","canyon","30","{""ArrowUp,ArrowLeft"":23,""ArrowUp,ArrowRight"":10,""ArrowDown,ArrowLeft"":8,""ArrowDown,ArrowRight"":30}","true","ArrowDown,ArrowRight","false","","","original","1","24","","",""
"html-keyboard-response","143","888450","0.0-4.0-2.0-1.12","spark_pilot_2","7426","7","18","Male","","","","","","","null","<div style=""font-size:60px;"">+</div>","null","fixation","","","","","","","","","","","25","","",""
"revaluation","144","892469","0.0-4.0-2.0-0.13","spark_pilot_2","7426","7","18","Male","","false","","","","","[675]","./assets/img/canyon/catch/1.jpg","[""spaceBar""]","value training","canyon","0","{""ArrowUp,ArrowLeft"":23,""ArrowUp,ArrowRight"":10,""ArrowDown,ArrowLeft"":8,""ArrowDown,ArrowRight"":30}","true","spaceBar","true","","","original","1","26","","",""
"html-keyboard-response","145","892975","0.0-4.0-2.0-1.13","spark_pilot_2","7426","7","18","Male","","","","","","","null","<div style=""font-size:60px;"">+</div>","null","fixation","","","","","","","","","","","27","","",""
"revaluation","146","896996","0.0-4.0-2.0-0.14","spark_pilot_2","7426","7","18","Male","","false","","","","","[910.6999999992549]","./assets/img/canyon/catch/7.jpg","[""spaceBar""]","value training","canyon","0","{""ArrowUp,ArrowLeft"":23,""ArrowUp,ArrowRight"":10,""ArrowDown,ArrowLeft"":8,""ArrowDown,ArrowRight"":30}","true","spaceBar","true","","","original","1","28","","",""
"html-keyboard-response","147","897507","0.0-4.0-2.0-1.14","spark_pilot_2","7426","7","18","Male","","","","","","","null","<div style=""font-size:60px;"">+</div>","null","fixation","","","","","","","","","","","29","","",""
"revaluation","148","903538","0.0-4.0-2.0-0.15","spark_pilot_2","7426","7","18","Male","","false","","","","","[1370.800000000745,511.5]","./assets/img/canyon/memory/14.jpg","[""ArrowDown"",""ArrowRight""]","value training","canyon","30","{""ArrowUp,ArrowLeft"":23,""ArrowUp,ArrowRight"":10,""ArrowDown,ArrowLeft"":8,""ArrowDown,ArrowRight"":30}","true","ArrowDown,ArrowRight","false","","","original","1","30","","",""
"html-keyboard-response","149","904049","0.0-4.0-2.0-1.15","spark_pilot_2","7426","7","18","Male","","","","","","","null","<div style=""font-size:60px;"">+</div>","null","fixation","","","","","","","","","","","31","","",""
"revaluation","150","910077","0.0-4.0-2.0-0.16","spark_pilot_2","7426","7","18","Male","","false","","","","","[576.1999999992549,417.0999999977648]","./assets/img/canyon/memory/17.jpg","[""ArrowDown"",""ArrowRight""]","value training","canyon","30","{""ArrowUp,ArrowLeft"":23,""ArrowUp,ArrowRight"":10,""ArrowDown,ArrowLeft"":8,""ArrowDown,ArrowRight"":30}","true","ArrowDown,ArrowRight","false","","","original","1","32","","",""
"html-keyboard-response","151","910588","0.0-4.0-2.0-1.16","spark_pilot_2","7426","7","18","Male","","","","","","","null","<div style=""font-size:60px;"">+</div>","null","fixation","","","","","","","","","","","33","","",""
"revaluation","152","916610","0.0-4.0-2.0-0.17","spark_pilot_2","7426","7","18","Male","","false","","","","","[553.5999999977648,348]","./assets/img/canyon/memory/29.jpg","[""ArrowDown"",""ArrowRight""]","value training","canyon","30","{""ArrowUp,ArrowLeft"":23,""ArrowUp,ArrowRight"":10,""ArrowDown,ArrowLeft"":8,""ArrowDown,ArrowRight"":30}","true","ArrowDown,ArrowRight","false","","","original","1","34","","",""
"html-keyboard-response","153","917115","0.0-4.0-2.0-1.17","spark_pilot_2","7426","7","18","Male","","","","","","","null","<div style=""font-size:60px;"">+</div>","null","fixation","","","","","","","","","","","35","","",""
"revaluation","154","923142","0.0-4.0-2.0-0.18","spark_pilot_2","7426","7","18","Male","","false","","","","","[673.1999999992549,447.5]","./assets/img/canyon/memory/16.jpg","[""ArrowDown"",""ArrowRight""]","value training","canyon","30","{""ArrowUp,ArrowLeft"":23,""ArrowUp,ArrowRight"":10,""ArrowDown,ArrowLeft"":8,""ArrowDown,ArrowRight"":30}","true","ArrowDown,ArrowRight","false","","","original","1","36","","",""
"html-keyboard-response","155","923647","0.0-4.0-2.0-1.18","spark_pilot_2","7426","7","18","Male","","","","","","","null","<div style=""font-size:60px;"">+</div>","null","fixation","","","","","","","","","","","37","","",""
"revaluation","156","927665","0.0-4.0-2.0-0.19","spark_pilot_2","7426","7","18","Male","","false","","","","","[281.1000000014901]","./assets/img/canyon/catch/5.jpg","[""spaceBar""]","value training","canyon","0","{""ArrowUp,ArrowLeft"":23,""ArrowUp,ArrowRight"":10,""ArrowDown,ArrowLeft"":8,""ArrowDown,ArrowRight"":30}","true","spaceBar","true","","","original","1","38","","",""
"html-keyboard-response","157","928176","0.0-4.0-2.0-1.19","spark_pilot_2","7426","7","18","Male","","","","","","","null","<div style=""font-size:60px;"">+</div>","null","fixation","","","","","","","","","","","39","","",""
"revaluation","158","932194","0.0-4.0-2.0-0.20","spark_pilot_2","7426","7","18","Male","","false","","","","","[477.1000000014901]","./assets/img/canyon/catch/0.jpg","[""spaceBar""]","value training","canyon","0","{""ArrowUp,ArrowLeft"":23,""ArrowUp,ArrowRight"":10,""ArrowDown,ArrowLeft"":8,""ArrowDown,ArrowRight"":30}","true","spaceBar","true","","","original","1","40","","",""
"html-keyboard-response","159","932704","0.0-4.0-2.0-1.20","spark_pilot_2","7426","7","18","Male","","","","","","","null","<div style=""font-size:60px;"">+</div>","null","fixation","","","","","","","","","","","41","","",""
"revaluation","160","938731","0.0-4.0-2.0-0.21","spark_pilot_2","7426","7","18","Male","","false","","","","","[1211.9000000022352,830]","./assets/img/canyon/memory/28.jpg","[""ArrowDown"",""ArrowRight""]","value training","canyon","30","{""ArrowUp,ArrowLeft"":23,""ArrowUp,ArrowRight"":10,""ArrowDown,ArrowLeft"":8,""ArrowDown,ArrowRight"":30}","true","ArrowDown,ArrowRight","false","","","original","1","42","","",""
"html-keyboard-response","161","939242","0.0-4.0-2.0-1.21","spark_pilot_2","7426","7","18","Male","","","","","","","null","<div style=""font-size:60px;"">+</div>","null","fixation","","","","","","","","","","","43","","",""
"revaluation","162","945267","0.0-4.0-2.0-0.22","spark_pilot_2","7426","7","18","Male","","false","","","","","[1120.5,476.29999999701977]","./assets/img/canyon/memory/22.jpg","[""ArrowDown"",""ArrowRight""]","value training","canyon","30","{""ArrowUp,ArrowLeft"":23,""ArrowUp,ArrowRight"":10,""ArrowDown,ArrowLeft"":8,""ArrowDown,ArrowRight"":30}","true","ArrowDown,ArrowRight","false","","","original","1","44","","",""
"html-keyboard-response","163","945778","0.0-4.0-2.0-1.22","spark_pilot_2","7426","7","18","Male","","","","","","","null","<div style=""font-size:60px;"">+</div>","null","fixation","","","","","","","","","","","45","","",""
"revaluation","164","951799","0.0-4.0-2.0-0.23","spark_pilot_2","7426","7","18","Male","","false","","","","","[759.3000000007451,388.30000000074506]","./assets/img/canyon/memory/16.jpg","[""ArrowDown"",""ArrowRight""]","value training","canyon","30","{""ArrowUp,ArrowLeft"":23,""ArrowUp,ArrowRight"":10,""ArrowDown,ArrowLeft"":8,""ArrowDown,ArrowRight"":30}","true","ArrowDown,ArrowRight","false","","","original","1","46","","",""
"html-keyboard-response","165","952304","0.0-4.0-2.0-1.23","spark_pilot_2","7426","7","18","Male","","","","","","","null","<div style=""font-size:60px;"">+</div>","null","fixation","","","","","","","","","","","47","","",""
"revaluation","166","958330","0.0-4.0-2.0-0.24","spark_pilot_2","7426","7","18","Male","","false","","","","","[863.2999999970198,439.3999999985099]","./assets/img/canyon/memory/19.jpg","[""ArrowDown"",""ArrowRight""]","value training","canyon","30","{""ArrowUp,ArrowLeft"":23,""ArrowUp,ArrowRight"":10,""ArrowDown,ArrowLeft"":8,""ArrowDown,ArrowRight"":30}","true","ArrowDown,ArrowRight","false","","","original","1","48","","",""
"html-keyboard-response","167","958834","0.0-4.0-2.0-1.24","spark_pilot_2","7426","7","18","Male","","","","","","","null","<div style=""font-size:60px;"">+</div>","null","fixation","","","","","","","","","","","49","","",""
"revaluation","168","962852","0.0-4.0-2.0-0.25","spark_pilot_2","7426","7","18","Male","","false","","","","","[439.3999999985099]","./assets/img/canyon/catch/2.jpg","[""spaceBar""]","value training","canyon","0","{""ArrowUp,ArrowLeft"":23,""ArrowUp,ArrowRight"":10,""ArrowDown,ArrowLeft"":8,""ArrowDown,ArrowRight"":30}","true","spaceBar","true","","","original","1","50","","",""
"html-keyboard-response","169","963363","0.0-4.0-2.0-1.25","spark_pilot_2","7426","7","18","Male","","","","","","","null","<div style=""font-size:60px;"">+</div>","null","fixation","","","","","","","","","","","51","","",""
"revaluation","170","969389","0.0-4.0-2.0-0.26","spark_pilot_2","7426","7","18","Male","","false","","","","","[1374.699999999255,729.3000000007451]","./assets/img/canyon/memory/5.jpg","[""ArrowDown"",""ArrowRight""]","value training","canyon","30","{""ArrowUp,ArrowLeft"":23,""ArrowUp,ArrowRight"":10,""ArrowDown,ArrowLeft"":8,""ArrowDown,ArrowRight"":30}","true","ArrowDown,ArrowRight","false","","","original","1","52","","",""
"html-keyboard-response","171","969900","0.0-4.0-2.0-1.26","spark_pilot_2","7426","7","18","Male","","","","","","","null","<div style=""font-size:60px;"">+</div>","null","fixation","","","","","","","","","","","53","","",""
"revaluation","172","973913","0.0-4.0-2.0-0.27","spark_pilot_2","7426","7","18","Male","","false","","","","","[1038.5]","./assets/img/canyon/catch/4.jpg","[""spaceBar""]","value training","canyon","0","{""ArrowUp,ArrowLeft"":23,""ArrowUp,ArrowRight"":10,""ArrowDown,ArrowLeft"":8,""ArrowDown,ArrowRight"":30}","true","spaceBar","true","","","original","1","54","","",""
"html-keyboard-response","173","974416","0.0-4.0-2.0-1.27","spark_pilot_2","7426","7","18","Male","","","","","","","null","<div style=""font-size:60px;"">+</div>","null","fixation","","","","","","","","","","","55","","",""
"revaluation","174","980442","0.0-4.0-2.0-0.28","spark_pilot_2","7426","7","18","Male","","false","","","","","[1202.5,533.5]","./assets/img/canyon/memory/39.jpg","[""ArrowDown"",""ArrowRight""]","value training","canyon","30","{""ArrowUp,ArrowLeft"":23,""ArrowUp,ArrowRight"":10,""ArrowDown,ArrowLeft"":8,""ArrowDown,ArrowRight"":30}","true","ArrowDown,ArrowRight","false","","","original","1","56","","",""
"html-keyboard-response","175","980947","0.0-4.0-2.0-1.28","spark_pilot_2","7426","7","18","Male","","","","","","","null","<div style=""font-size:60px;"">+</div>","null","fixation","","","","","","","","","","","57","","",""
"revaluation","176","986973","0.0-4.0-2.0-0.29","spark_pilot_2","7426","7","18","Male","","false","","","","","[903.1000000014901,1549.699999999255]","./assets/img/canyon/memory/25.jpg","[""ArrowDown"",""ArrowRight""]","value training","canyon","30","{""ArrowUp,ArrowLeft"":23,""ArrowUp,ArrowRight"":10,""ArrowDown,ArrowLeft"":8,""ArrowDown,ArrowRight"":30}","true","ArrowDown,ArrowRight","false","","","original","1","58","","",""
"html-keyboard-response","177","987483","0.0-4.0-2.0-1.29","spark_pilot_2","7426","7","18","Male","","","","","","","null","<div style=""font-size:60px;"">+</div>","null","fixation","","","","","","","","","","","59","","",""
"revaluation","178","993509","0.0-4.0-2.0-0.30","spark_pilot_2","7426","7","18","Male","","false","","","","","[1367.2999999970198,521.8999999985099]","./assets/img/canyon/memory/28.jpg","[""ArrowDown"",""ArrowRight""]","value training","canyon","30","{""ArrowUp,ArrowLeft"":23,""ArrowUp,ArrowRight"":10,""ArrowDown,ArrowLeft"":8,""ArrowDown,ArrowRight"":30}","true","ArrowDown,ArrowRight","false","","","original","1","60","","",""
"html-keyboard-response","179","994020","0.0-4.0-2.0-1.30","spark_pilot_2","7426","7","18","Male","","","","","","","null","<div style=""font-size:60px;"">+</div>","null","fixation","","","","","","","","","","","61","","",""
"revaluation","180","1000046","0.0-4.0-2.0-0.31","spark_pilot_2","7426","7","18","Male","","false","","","","","[872.0999999977648,1183.8999999985099]","./assets/img/canyon/memory/13.jpg","[""ArrowDown"",""ArrowRight""]","value training","canyon","30","{""ArrowUp,ArrowLeft"":23,""ArrowUp,ArrowRight"":10,""ArrowDown,ArrowLeft"":8,""ArrowDown,ArrowRight"":30}","true","ArrowDown,ArrowRight","false","","","original","1","62","","",""
"html-keyboard-response","181","1000557","0.0-4.0-2.0-1.31","spark_pilot_2","7426","7","18","Male","","","","","","","null","<div style=""font-size:60px;"">+</div>","null","fixation","","","","","","","","","","","63","","",""
"revaluation","182","1006578","0.0-4.0-2.0-0.32","spark_pilot_2","7426","7","18","Male","","false","","","","","[766.1000000014901,848]","./assets/img/canyon/memory/35.jpg","[""ArrowDown"",""ArrowRight""]","value training","canyon","30","{""ArrowUp,ArrowLeft"":23,""ArrowUp,ArrowRight"":10,""ArrowDown,ArrowLeft"":8,""ArrowDown,ArrowRight"":30}","true","ArrowDown,ArrowRight","false","","","original","1","64","","",""
"html-keyboard-response","183","1007082","0.0-4.0-2.0-1.32","spark_pilot_2","7426","7","18","Male","","","","","","","null","<div style=""font-size:60px;"">+</div>","null","fixation","","","","","","","","","","","65","","",""
"revaluation","184","1013108","0.0-4.0-2.0-0.33","spark_pilot_2","7426","7","18","Male","","false","","","","","[950.6000000014901,546]","./assets/img/canyon/memory/15.jpg","[""ArrowDown"",""ArrowRight""]","value training","canyon","30","{""ArrowUp,ArrowLeft"":23,""ArrowUp,ArrowRight"":10,""ArrowDown,ArrowLeft"":8,""ArrowDown,ArrowRight"":30}","true","ArrowDown,ArrowRight","false","","","original","1","66","","",""
"html-keyboard-response","185","1013612","0.0-4.0-2.0-1.33","spark_pilot_2","7426","7","18","Male","","","","","","","null","<div style=""font-size:60px;"">+</div>","null","fixation","","","","","","","","","","","67","","",""
"revaluation","186","1019644","0.0-4.0-2.0-0.34","spark_pilot_2","7426","7","18","Male","","false","","","","","[697.4000000022352,431.80000000074506]","./assets/img/canyon/memory/34.jpg","[""ArrowDown"",""ArrowRight""]","value training","canyon","30","{""ArrowUp,ArrowLeft"":23,""ArrowUp,ArrowRight"":10,""ArrowDown,ArrowLeft"":8,""ArrowDown,ArrowRight"":30}","true","ArrowDown,ArrowRight","false","","","original","1","68","","",""
"html-keyboard-response","187","1020154","0.0-4.0-2.0-1.34","spark_pilot_2","7426","7","18","Male","","","","","","","null","<div style=""font-size:60px;"">+</div>","null","fixation","","","","","","","","","","","69","","",""
"revaluation","188","1026181","0.0-4.0-2.0-0.35","spark_pilot_2","7426","7","18","Male","","false","","","","","[926.1999999992549,350.30000000074506]","./assets/img/canyon/memory/10.jpg","[""ArrowUp"",""ArrowLeft""]","value training","canyon","23","{""ArrowUp,ArrowLeft"":23,""ArrowUp,ArrowRight"":10,""ArrowDown,ArrowLeft"":8,""ArrowDown,ArrowRight"":30}","false","ArrowUp,ArrowLeft","false","","","original","1","70","","",""
"html-keyboard-response","189","1026691","0.0-4.0-2.0-1.35","spark_pilot_2","7426","7","18","Male","","","","","","","null","<div style=""font-size:60px;"">+</div>","null","fixation","","","","","","","","","","","71","","",""
"revaluation","190","1032717","0.0-4.0-2.0-0.36","spark_pilot_2","7426","7","18","Male","","false","","","","","[1141.2999999970198,415.70000000298023]","./assets/img/canyon/memory/4.jpg","[""ArrowDown"",""ArrowLeft""]","value training","canyon","8","{""ArrowUp,ArrowLeft"":23,""ArrowUp,ArrowRight"":10,""ArrowDown,ArrowLeft"":8,""ArrowDown,ArrowRight"":30}","false","ArrowDown,ArrowLeft","false","","","original","1","72","","",""
"html-keyboard-response","191","1033228","0.0-4.0-2.0-1.36","spark_pilot_2","7426","7","18","Male","","","","","","","null","<div style=""font-size:60px;"">+</div>","null","fixation","","","","","","","","","","","73","","",""
"revaluation","192","1037245","0.0-4.0-2.0-0.37","spark_pilot_2","7426","7","18","Male","","false","","","","","[317.4000000022352]","./assets/img/canyon/catch/6.jpg","[""spaceBar""]","value training","canyon","0","{""ArrowUp,ArrowLeft"":23,""ArrowUp,ArrowRight"":10,""ArrowDown,ArrowLeft"":8,""ArrowDown,ArrowRight"":30}","true","spaceBar","true","","","original","1","74","","",""
"html-keyboard-response","193","1037756","0.0-4.0-2.0-1.37","spark_pilot_2","7426","7","18","Male","","","","","","","null","<div style=""font-size:60px;"">+</div>","null","fixation","","","","","","","","","","","75","","",""
"revaluation","194","1043782","0.0-4.0-2.0-0.38","spark_pilot_2","7426","7","18","Male","","false","","","","","[694.5,320.9000000022352]","./assets/img/canyon/memory/33.jpg","[""ArrowDown"",""ArrowRight""]","value training","canyon","30","{""ArrowUp,ArrowLeft"":23,""ArrowUp,ArrowRight"":10,""ArrowDown,ArrowLeft"":8,""ArrowDown,ArrowRight"":30}","true","ArrowDown,ArrowRight","false","","","original","1","76","","",""
"html-keyboard-response","195","1044292","0.0-4.0-2.0-1.38","spark_pilot_2","7426","7","18","Male","","","","","","","null","<div style=""font-size:60px;"">+</div>","null","fixation","","","","","","","","","","","77","","",""
"revaluation","196","1050319","0.0-4.0-2.0-0.39","spark_pilot_2","7426","7","18","Male","","false","","","","","[751.5,754.4000000022352]","./assets/img/canyon/memory/29.jpg","[""ArrowDown"",""ArrowRight""]","value training","canyon","30","{""ArrowUp,ArrowLeft"":23,""ArrowUp,ArrowRight"":10,""ArrowDown,ArrowLeft"":8,""ArrowDown,ArrowRight"":30}","true","ArrowDown,ArrowRight","false","","","original","1","78","","",""
"html-keyboard-response","197","1050829","0.0-4.0-2.0-1.39","spark_pilot_2","7426","7","18","Male","","","","","","","null","<div style=""font-size:60px;"">+</div>","null","fixation","","","","","","","","","","","79","","",""
"revaluation","198","1056855","0.0-4.0-2.0-0.40","spark_pilot_2","7426","7","18","Male","","false","","","","","[530.9000000022352,240.89999999850988]","./assets/img/canyon/memory/6.jpg","[""ArrowDown"",""ArrowRight""]","value training","canyon","30","{""ArrowUp,ArrowLeft"":23,""ArrowUp,ArrowRight"":10,""ArrowDown,ArrowLeft"":8,""ArrowDown,ArrowRight"":30}","true","ArrowDown,ArrowRight","false","","","original","1","80","","",""
"html-keyboard-response","199","1057366","0.0-4.0-2.0-1.40","spark_pilot_2","7426","7","18","Male","","","","","","","null","<div style=""font-size:60px;"">+</div>","null","fixation","","","","","","","","","","","81","","",""
"revaluation","200","1063392","0.0-4.0-2.0-0.41","spark_pilot_2","7426","7","18","Male","","false","","","","","[696.6999999992549,253.40000000223517]","./assets/img/canyon/memory/22.jpg","[""ArrowDown"",""ArrowRight""]","value training","canyon","30","{""ArrowUp,ArrowLeft"":23,""ArrowUp,ArrowRight"":10,""ArrowDown,ArrowLeft"":8,""ArrowDown,ArrowRight"":30}","true","ArrowDown,ArrowRight","false","","","original","1","82","","",""
"html-keyboard-response","201","1063903","0.0-4.0-2.0-1.41","spark_pilot_2","7426","7","18","Male","","","","","","","null","<div style=""font-size:60px;"">+</div>","null","fixation","","","","","","","","","","","83","","",""
"revaluation","202","1069923","0.0-4.0-2.0-0.42","spark_pilot_2","7426","7","18","Male","","false","","","","","[750.9000000022352,801.3999999985099]","./assets/img/canyon/memory/8.jpg","[""ArrowDown"",""ArrowRight""]","value training","canyon","30","{""ArrowUp,ArrowLeft"":23,""ArrowUp,ArrowRight"":10,""ArrowDown,ArrowLeft"":8,""ArrowDown,ArrowRight"":30}","true","ArrowDown,ArrowRight","false","","","original","1","84","","",""
"html-keyboard-response","203","1070427","0.0-4.0-2.0-1.42","spark_pilot_2","7426","7","18","Male","","","","","","","null","<div style=""font-size:60px;"">+</div>","null","fixation","","","","","","","","","","","85","","",""
"revaluation","204","1076454","0.0-4.0-2.0-0.43","spark_pilot_2","7426","7","18","Male","","false","","","","","[801.8000000007451,637.3000000007451]","./assets/img/canyon/memory/5.jpg","[""ArrowDown"",""ArrowRight""]","value training","canyon","30","{""ArrowUp,ArrowLeft"":23,""ArrowUp,ArrowRight"":10,""ArrowDown,ArrowLeft"":8,""ArrowDown,ArrowRight"":30}","true","ArrowDown,ArrowRight","false","","","original","1","86","","",""
"html-keyboard-response","205","1076958","0.0-4.0-2.0-1.43","spark_pilot_2","7426","7","18","Male","","","","","","","null","<div style=""font-size:60px;"">+</div>","null","fixation","","","","","","","","","","","87","","",""
"revaluation","206","1082984","0.0-4.0-2.0-0.44","spark_pilot_2","7426","7","18","Male","","false","","","","","[739.6999999992549,483.80000000074506]","./assets/img/canyon/memory/19.jpg","[""ArrowDown"",""ArrowRight""]","value training","canyon","30","{""ArrowUp,ArrowLeft"":23,""ArrowUp,ArrowRight"":10,""ArrowDown,ArrowLeft"":8,""ArrowDown,ArrowRight"":30}","true","ArrowDown,ArrowRight","false","","","original","1","88","","",""
"html-keyboard-response","207","1083495","0.0-4.0-2.0-1.44","spark_pilot_2","7426","7","18","Male","","","","","","","null","<div style=""font-size:60px;"">+</div>","null","fixation","","","","","","","","","","","89","","",""
"revaluation","208","1089517","0.0-4.0-2.0-0.45","spark_pilot_2","7426","7","18","Male","","false","","","","","[715.8000000007451,1199.7999999970198]","./assets/img/canyon/memory/9.jpg","[""ArrowDown"",""ArrowRight""]","value training","canyon","30","{""ArrowUp,ArrowLeft"":23,""ArrowUp,ArrowRight"":10,""ArrowDown,ArrowLeft"":8,""ArrowDown,ArrowRight"":30}","true","ArrowDown,ArrowRight","false","","","original","1","90","","",""
"html-keyboard-response","209","1090020","0.0-4.0-2.0-1.45","spark_pilot_2","7426","7","18","Male","","","","","","","null","<div style=""font-size:60px;"">+</div>","null","fixation","","","","","","","","","","","91","","",""
"revaluation","210","1096046","0.0-4.0-2.0-0.46","spark_pilot_2","7426","7","18","Male","","false","","","","","[741.5,508.79999999701977]","./assets/img/canyon/memory/39.jpg","[""ArrowDown"",""ArrowRight""]","value training","canyon","30","{""ArrowUp,ArrowLeft"":23,""ArrowUp,ArrowRight"":10,""ArrowDown,ArrowLeft"":8,""ArrowDown,ArrowRight"":30}","true","ArrowDown,ArrowRight","false","","","original","1","92","","",""
"html-keyboard-response","211","1096551","0.0-4.0-2.0-1.46","spark_pilot_2","7426","7","18","Male","","","","","","","null","<div style=""font-size:60px;"">+</div>","null","fixation","","","","","","","","","","","93","","",""
"revaluation","212","1102577","0.0-4.0-2.0-0.47","spark_pilot_2","7426","7","18","Male","","false","","","","","[1023.6999999992549,604.1999999992549]","./assets/img/canyon/memory/35.jpg","[""ArrowDown"",""ArrowRight""]","value training","canyon","30","{""ArrowUp,ArrowLeft"":23,""ArrowUp,ArrowRight"":10,""ArrowDown,ArrowLeft"":8,""ArrowDown,ArrowRight"":30}","true","ArrowDown,ArrowRight","false","","","original","1","94","","",""
"html-keyboard-response","213","1103087","0.0-4.0-2.0-1.47","spark_pilot_2","7426","7","18","Male","","","","","","","null","<div style=""font-size:60px;"">+</div>","null","fixation","","","","","","","","","","","95","","",""
"revaluation","214","1109113","0.0-4.0-2.0-0.48","spark_pilot_2","7426","7","18","Male","","false","","","","","[599.3000000007451,431.0999999977648]","./assets/img/canyon/memory/40.jpg","[""ArrowDown"",""ArrowRight""]","value training","canyon","30","{""ArrowUp,ArrowLeft"":23,""ArrowUp,ArrowRight"":10,""ArrowDown,ArrowLeft"":8,""ArrowDown,ArrowRight"":30}","true","ArrowDown,ArrowRight","false","","","original","1","96","","",""
"html-keyboard-response","215","1109624","0.0-4.0-2.0-1.48","spark_pilot_2","7426","7","18","Male","","","","","","","null","<div style=""font-size:60px;"">+</div>","null","fixation","","","","","","","","","","","97","","",""
"revaluation","216","1115644","0.0-4.0-2.0-0.49","spark_pilot_2","7426","7","18","Male","","false","","","","","[786.0999999977648,503]","./assets/img/canyon/memory/14.jpg","[""ArrowDown"",""ArrowRight""]","value training","canyon","30","{""ArrowUp,ArrowLeft"":23,""ArrowUp,ArrowRight"":10,""ArrowDown,ArrowLeft"":8,""ArrowDown,ArrowRight"":30}","true","ArrowDown,ArrowRight","false","","","original","1","98","","",""
"html-keyboard-response","217","1116149","0.0-4.0-2.0-1.49","spark_pilot_2","7426","7","18","Male","","","","","","","null","<div style=""font-size:60px;"">+</div>","null","fixation","","","","","","","","","","","99","","",""
"learning-instructions","218","1130126","0.0-4.0-3.0-0.0","spark_pilot_2","7426","7","18","Male","","","","","","","971.6000000014901","<p> Now, you will travel with a friend who will choose whether you go up or down first. </p>
            <p> On these turns, you will just see the animal that they found. You will still get to choose which chest to search for treasure.</p>","","instructions","","","","","","","","","","","","","",""
"revaluation","219","1134141","0.0-4.0-4.0-0.0","spark_pilot_2","7426","7","18","Male","","true","","","","","[]","./assets/img/canyon/animals/lion.jpg","[]","revaluation","canyon","-5","{""ArrowUp,ArrowLeft"":23,""ArrowUp,ArrowRight"":10,""ArrowDown,ArrowLeft"":8,""ArrowDown,ArrowRight"":30}","false","ArrowUp","","","","original","1","0","","",""
"html-keyboard-response","220","1134657","0.0-4.0-4.0-1.0","spark_pilot_2","7426","7","18","Male","","","","","","","null","<div style=""font-size:60px;"">+</div>","null","fixation","","","","","","","","","","","1","","",""
"revaluation","221","1138674","0.0-4.0-4.0-0.1","spark_pilot_2","7426","7","18","Male","","false","","","","","[401]","./assets/img/canyon/animals/lion.jpg","[""ArrowRight""]","revaluation","canyon","10","{""ArrowUp,ArrowLeft"":23,""ArrowUp,ArrowRight"":10,""ArrowDown,ArrowLeft"":8,""ArrowDown,ArrowRight"":30}","false","ArrowUp,ArrowRight","","","","original","1","2","","",""
"html-keyboard-response","222","1139185","0.0-4.0-4.0-1.1","spark_pilot_2","7426","7","18","Male","","","","","","","null","<div style=""font-size:60px;"">+</div>","null","fixation","","","","","","","","","","","3","","",""
"revaluation","223","1143202","0.0-4.0-4.0-0.2","spark_pilot_2","7426","7","18","Male","","false","","","","","[370.80000000074506]","./assets/img/canyon/animals/giraffe.jpg","[""ArrowLeft""]","revaluation","canyon","8","{""ArrowUp,ArrowLeft"":23,""ArrowUp,ArrowRight"":10,""ArrowDown,ArrowLeft"":8,""ArrowDown,ArrowRight"":30}","false","ArrowDown,ArrowLeft","","","","original","1","4","","",""
"html-keyboard-response","224","1143713","0.0-4.0-4.0-1.2","spark_pilot_2","7426","7","18","Male","","","","","","","null","<div style=""font-size:60px;"">+</div>","null","fixation","","","","","","","","","","","5","","",""
"revaluation","225","1147726","0.0-4.0-4.0-0.3","spark_pilot_2","7426","7","18","Male","","false","","","","","[477.5]","./assets/img/canyon/animals/giraffe.jpg","[""ArrowRight""]","revaluation","canyon","30","{""ArrowUp,ArrowLeft"":23,""ArrowUp,ArrowRight"":10,""ArrowDown,ArrowLeft"":8,""ArrowDown,ArrowRight"":30}","true","ArrowDown,ArrowRight","","","","original","1","6","","",""
"html-keyboard-response","226","1148229","0.0-4.0-4.0-1.3","spark_pilot_2","7426","7","18","Male","","","","","","","null","<div style=""font-size:60px;"">+</div>","null","fixation","","","","","","","","","","","7","","",""
"revaluation","227","1152247","0.0-4.0-4.0-0.4","spark_pilot_2","7426","7","18","Male","","false","","","","","[734.5]","./assets/img/canyon/animals/lion.jpg","[""ArrowRight""]","revaluation","canyon","10","{""ArrowUp,ArrowLeft"":23,""ArrowUp,ArrowRight"":10,""ArrowDown,ArrowLeft"":8,""ArrowDown,ArrowRight"":30}","false","ArrowUp,ArrowRight","","","","original","1","8","","",""
"html-keyboard-response","228","1152750","0.0-4.0-4.0-1.4","spark_pilot_2","7426","7","18","Male","","","","","","","null","<div style=""font-size:60px;"">+</div>","null","fixation","","","","","","","","","","","9","","",""
"revaluation","229","1156769","0.0-4.0-4.0-0.5","spark_pilot_2","7426","7","18","Male","","false","","","","","[514.8000000007451]","./assets/img/canyon/animals/giraffe.jpg","[""ArrowRight""]","revaluation","canyon","30","{""ArrowUp,ArrowLeft"":23,""ArrowUp,ArrowRight"":10,""ArrowDown,ArrowLeft"":8,""ArrowDown,ArrowRight"":30}","true","ArrowDown,ArrowRight","","","","original","1","10","","",""
"html-keyboard-response","230","1157280","0.0-4.0-4.0-1.5","spark_pilot_2","7426","7","18","Male","","","","","","","null","<div style=""font-size:60px;"">+</div>","null","fixation","","","","","","","","","","","11","","",""
"revaluation","231","1161298","0.0-4.0-4.0-0.6","spark_pilot_2","7426","7","18","Male","","false","","","","","[303]","./assets/img/canyon/animals/lion.jpg","[""ArrowLeft""]","revaluation","canyon","23","{""ArrowUp,ArrowLeft"":23,""ArrowUp,ArrowRight"":10,""ArrowDown,ArrowLeft"":8,""ArrowDown,ArrowRight"":30}","true","ArrowUp,ArrowLeft","","","","original","1","12","","",""
"html-keyboard-response","232","1161809","0.0-4.0-4.0-1.6","spark_pilot_2","7426","7","18","Male","","","","","","","null","<div style=""font-size:60px;"">+</div>","null","fixation","","","","","","","","","","","13","","",""
"revaluation","233","1165826","0.0-4.0-4.0-0.7","spark_pilot_2","7426","7","18","Male","","false","","","","","[1032.3999999985099]","./assets/img/canyon/animals/lion.jpg","[""ArrowLeft""]","revaluation","canyon","23","{""ArrowUp,ArrowLeft"":23,""ArrowUp,ArrowRight"":10,""ArrowDown,ArrowLeft"":8,""ArrowDown,ArrowRight"":30}","true","ArrowUp,ArrowLeft","","","","original","1","14","","",""
"html-keyboard-response","234","1166337","0.0-4.0-4.0-1.7","spark_pilot_2","7426","7","18","Male","","","","","","","null","<div style=""font-size:60px;"">+</div>","null","fixation","","","","","","","","","","","15","","",""
"revaluation","235","1170354","0.0-4.0-4.0-0.8","spark_pilot_2","7426","7","18","Male","","false","","","","","[879.5]","./assets/img/canyon/animals/lion.jpg","[""ArrowLeft""]","revaluation","canyon","23","{""ArrowUp,ArrowLeft"":23,""ArrowUp,ArrowRight"":10,""ArrowDown,ArrowLeft"":8,""ArrowDown,ArrowRight"":30}","true","ArrowUp,ArrowLeft","","","","original","1","16","","",""
"html-keyboard-response","236","1170865","0.0-4.0-4.0-1.8","spark_pilot_2","7426","7","18","Male","","","","","","","null","<div style=""font-size:60px;"">+</div>","null","fixation","","","","","","","","","","","17","","",""
"revaluation","237","1174882","0.0-4.0-4.0-0.9","spark_pilot_2","7426","7","18","Male","","false","","","","","[644.5]","./assets/img/canyon/animals/giraffe.jpg","[""ArrowRight""]","revaluation","canyon","30","{""ArrowUp,ArrowLeft"":23,""ArrowUp,ArrowRight"":10,""ArrowDown,ArrowLeft"":8,""ArrowDown,ArrowRight"":30}","true","ArrowDown,ArrowRight","","","","original","1","18","","",""
"html-keyboard-response","238","1175393","0.0-4.0-4.0-1.9","spark_pilot_2","7426","7","18","Male","","","","","","","null","<div style=""font-size:60px;"">+</div>","null","fixation","","","","","","","","","","","19","","",""
"revaluation","239","1179410","0.0-4.0-4.0-0.10","spark_pilot_2","7426","7","18","Male","","false","","","","","[601.7000000029802]","./assets/img/canyon/animals/giraffe.jpg","[""ArrowLeft""]","revaluation","canyon","8","{""ArrowUp,ArrowLeft"":23,""ArrowUp,ArrowRight"":10,""ArrowDown,ArrowLeft"":8,""ArrowDown,ArrowRight"":30}","false","ArrowDown,ArrowLeft","","","","original","1","20","","",""
"html-keyboard-response","240","1179915","0.0-4.0-4.0-1.10","spark_pilot_2","7426","7","18","Male","","","","","","","null","<div style=""font-size:60px;"">+</div>","null","fixation","","","","","","","","","","","21","","",""
"revaluation","241","1183938","0.0-4.0-4.0-0.11","spark_pilot_2","7426","7","18","Male","","false","","","","","[895.5]","./assets/img/canyon/animals/lion.jpg","[""ArrowLeft""]","revaluation","canyon","23","{""ArrowUp,ArrowLeft"":23,""ArrowUp,ArrowRight"":10,""ArrowDown,ArrowLeft"":8,""ArrowDown,ArrowRight"":30}","true","ArrowUp,ArrowLeft","","","","original","1","22","","",""
"html-keyboard-response","242","1184449","0.0-4.0-4.0-1.11","spark_pilot_2","7426","7","18","Male","","","","","","","null","<div style=""font-size:60px;"">+</div>","null","fixation","","","","","","","","","","","23","","",""
"revaluation","243","1188466","0.0-4.0-4.0-0.12","spark_pilot_2","7426","7","18","Male","","false","","","","","[566.3999999985099]","./assets/img/canyon/animals/lion.jpg","[""ArrowLeft""]","revaluation","canyon","23","{""ArrowUp,ArrowLeft"":23,""ArrowUp,ArrowRight"":10,""ArrowDown,ArrowLeft"":8,""ArrowDown,ArrowRight"":30}","true","ArrowUp,ArrowLeft","","","","original","1","24","","",""
"html-keyboard-response","244","1188977","0.0-4.0-4.0-1.12","spark_pilot_2","7426","7","18","Male","","","","","","","null","<div style=""font-size:60px;"">+</div>","null","fixation","","","","","","","","","","","25","","",""
"revaluation","245","1192994","0.0-4.0-4.0-0.13","spark_pilot_2","7426","7","18","Male","","false","","","","","[686.6999999992549]","./assets/img/canyon/animals/lion.jpg","[""ArrowLeft""]","revaluation","canyon","23","{""ArrowUp,ArrowLeft"":23,""ArrowUp,ArrowRight"":10,""ArrowDown,ArrowLeft"":8,""ArrowDown,ArrowRight"":30}","true","ArrowUp,ArrowLeft","","","","original","1","26","","",""
"html-keyboard-response","246","1193505","0.0-4.0-4.0-1.13","spark_pilot_2","7426","7","18","Male","","","","","","","null","<div style=""font-size:60px;"">+</div>","null","fixation","","","","","","","","","","","27","","",""
"revaluation","247","1197522","0.0-4.0-4.0-0.14","spark_pilot_2","7426","7","18","Male","","false","","","","","[672.6000000014901]","./assets/img/canyon/animals/giraffe.jpg","[""ArrowRight""]","revaluation","canyon","30","{""ArrowUp,ArrowLeft"":23,""ArrowUp,ArrowRight"":10,""ArrowDown,ArrowLeft"":8,""ArrowDown,ArrowRight"":30}","true","ArrowDown,ArrowRight","","","","original","1","28","","",""
"html-keyboard-response","248","1198033","0.0-4.0-4.0-1.14","spark_pilot_2","7426","7","18","Male","","","","","","","null","<div style=""font-size:60px;"">+</div>","null","fixation","","","","","","","","","","","29","","",""
"revaluation","249","1202050","0.0-4.0-4.0-0.15","spark_pilot_2","7426","7","18","Male","","false","","","","","[730.5]","./assets/img/canyon/animals/giraffe.jpg","[""ArrowRight""]","revaluation","canyon","30","{""ArrowUp,ArrowLeft"":23,""ArrowUp,ArrowRight"":10,""ArrowDown,ArrowLeft"":8,""ArrowDown,ArrowRight"":30}","true","ArrowDown,ArrowRight","","","","original","1","30","","",""
"html-keyboard-response","250","1202561","0.0-4.0-4.0-1.15","spark_pilot_2","7426","7","18","Male","","","","","","","null","<div style=""font-size:60px;"">+</div>","null","fixation","","","","","","","","","","","31","","",""
"revaluation","251","1206578","0.0-4.0-4.0-0.16","spark_pilot_2","7426","7","18","Male","","false","","","","","[671.3000000007451]","./assets/img/canyon/animals/giraffe.jpg","[""ArrowRight""]","revaluation","canyon","30","{""ArrowUp,ArrowLeft"":23,""ArrowUp,ArrowRight"":10,""ArrowDown,ArrowLeft"":8,""ArrowDown,ArrowRight"":30}","true","ArrowDown,ArrowRight","","","","original","1","32","","",""
"html-keyboard-response","252","1207089","0.0-4.0-4.0-1.16","spark_pilot_2","7426","7","18","Male","","","","","","","null","<div style=""font-size:60px;"">+</div>","null","fixation","","","","","","","","","","","33","","",""
"revaluation","253","1211106","0.0-4.0-4.0-0.17","spark_pilot_2","7426","7","18","Male","","false","","","","","[566.6000000014901]","./assets/img/canyon/animals/giraffe.jpg","[""ArrowRight""]","revaluation","canyon","30","{""ArrowUp,ArrowLeft"":23,""ArrowUp,ArrowRight"":10,""ArrowDown,ArrowLeft"":8,""ArrowDown,ArrowRight"":30}","true","ArrowDown,ArrowRight","","","","original","1","34","","",""
"html-keyboard-response","254","1211617","0.0-4.0-4.0-1.17","spark_pilot_2","7426","7","18","Male","","","","","","","null","<div style=""font-size:60px;"">+</div>","null","fixation","","","","","","","","","","","35","","",""
"learning-instructions","255","1230811","0.0-4.0-5.0-0.0","spark_pilot_2","7426","7","18","Male","","","","","","","1403.6000000014901","<p> Time to play the dot game! </p>
            <p> For one minute, click the red dots on the following screen as they appear. </p>
            <p><b> Don't look away, as you will earn bonus for clicking dots</b>. </p>","","instructions","","","","","","","","","","","","","",""
"revaluation","256","1290817","0.0-4.0-6.0-0.0","spark_pilot_2","7426","7","18","Male","","","","","","","[72,79,63,127,80,82]","","","rest","","60","","","","","0","60000","","","","","",""
"learning-instructions","257","1297671","0.0-4.0-7.0-0.0","spark_pilot_2","7426","7","18","Male","","","","","","","647.1000000014901","<p> You have almost finished this part of the game! </p>
            <p> We are going to ask you to make a few more choices. </p>","","instructions","","","","","","","","","","","","","",""
"learning-instructions","258","1313813","0.0-4.0-7.0-0.1","spark_pilot_2","7426","7","18","Male","","","","","","","2171.7000000029802","<p> First, you need to decide whether to go up or down. When you see each picture, use the arrow keys to make your choice. </p>
            <p><b>You will not see which animal you found, but try to get to the one that will give you the most treasure.</b></p>","","instructions","","","","","","","","","","","","","",""
"revaluation","259","1314861","0.0-4.0-8.0-0.0","spark_pilot_2","7426","7","18","Male","","false","","","","","[1044.800000000745]","./assets/img/canyon/test/0.jpg","[""ArrowUp""]","first stage test","canyon","0","{""ArrowUp,ArrowLeft"":23,""ArrowUp,ArrowRight"":10,""ArrowDown,ArrowLeft"":8,""ArrowDown,ArrowRight"":30}","false","ArrowUp","false","","","original","1","","","",""
"html-keyboard-response","260","1315374","0.0-4.0-8.0-1.0","spark_pilot_2","7426","7","18","Male","","","","","","","null","<div style=""font-size:60px;"">+</div>","null","fixation","","","","","","","","","","","","","",""
"revaluation","261","1316135","0.0-4.0-8.0-0.1","spark_pilot_2","7426","7","18","Male","","false","","","","","[757.1999999992549]","./assets/img/canyon/test/2.jpg","[""ArrowUp""]","first stage test","canyon","0","{""ArrowUp,ArrowLeft"":23,""ArrowUp,ArrowRight"":10,""ArrowDown,ArrowLeft"":8,""ArrowDown,ArrowRight"":30}","false","ArrowUp","false","","","original","1","","","",""
"html-keyboard-response","262","1316645","0.0-4.0-8.0-1.1","spark_pilot_2","7426","7","18","Male","","","","","","","null","<div style=""font-size:60px;"">+</div>","null","fixation","","","","","","","","","","","","","",""
"revaluation","263","1317266","0.0-4.0-8.0-0.2","spark_pilot_2","7426","7","18","Male","","false","","","","","[617.5]","./assets/img/canyon/test/1.jpg","[""ArrowUp""]","first stage test","canyon","0","{""ArrowUp,ArrowLeft"":23,""ArrowUp,ArrowRight"":10,""ArrowDown,ArrowLeft"":8,""ArrowDown,ArrowRight"":30}","false","ArrowUp","false","","","original","1","","","",""
"html-keyboard-response","264","1317772","0.0-4.0-8.0-1.2","spark_pilot_2","7426","7","18","Male","","","","","","","null","<div style=""font-size:60px;"">+</div>","null","fixation","","","","","","","","","","","","","",""
"revaluation","265","1318443","0.0-4.0-8.0-0.3","spark_pilot_2","7426","7","18","Male","","false","","","","","[668]","./assets/img/canyon/test/3.jpg","[""ArrowUp""]","first stage test","canyon","0","{""ArrowUp,ArrowLeft"":23,""ArrowUp,ArrowRight"":10,""ArrowDown,ArrowLeft"":8,""ArrowDown,ArrowRight"":30}","false","ArrowUp","false","","","original","1","","","",""
"html-keyboard-response","266","1318950","0.0-4.0-8.0-1.3","spark_pilot_2","7426","7","18","Male","","","","","","","null","<div style=""font-size:60px;"">+</div>","null","fixation","","","","","","","","","","","","","",""
"learning-instructions","267","1331922","0.0-4.0-9.0-0.0","spark_pilot_2","7426","7","18","Male","","","","","","","1628.5","<p> Now you will see the animals again and can search their chests for treasure. </p>
            <p> This time, you will not see how much treasure you earned, but you will earn more bonus money for making better choices. </p>","","instructions","","","","","","","","","","","","","",""
"revaluation","268","1332390","0.0-4.0-10.0-0.0","spark_pilot_2","7426","7","18","Male","","false","","","","","[464.69999999925494]","./assets/img/canyon/animals/lion.jpg","[""ArrowLeft""]","second stage test","canyon","0","{""ArrowUp,ArrowLeft"":23,""ArrowUp,ArrowRight"":10,""ArrowDown,ArrowLeft"":8,""ArrowDown,ArrowRight"":30}","true","ArrowUp,ArrowLeft","","","","original","1","","","",""
"html-keyboard-response","269","1332894","0.0-4.0-10.0-1.0","spark_pilot_2","7426","7","18","Male","","","","","","","null","<div style=""font-size:60px;"">+</div>","null","fixation","","","","","","","","","","","","","",""
"revaluation","270","1333536","0.0-4.0-10.0-0.1","spark_pilot_2","7426","7","18","Male","","false","","","","","[638.6000000014901]","./assets/img/canyon/animals/lion.jpg","[""ArrowLeft""]","second stage test","canyon","0","{""ArrowUp,ArrowLeft"":23,""ArrowUp,ArrowRight"":10,""ArrowDown,ArrowLeft"":8,""ArrowDown,ArrowRight"":30}","true","ArrowUp,ArrowLeft","","","","original","1","","","",""
"html-keyboard-response","271","1334043","0.0-4.0-10.0-1.1","spark_pilot_2","7426","7","18","Male","","","","","","","null","<div style=""font-size:60px;"">+</div>","null","fixation","","","","","","","","","","","","","",""
"revaluation","272","1334350","0.0-4.0-10.0-0.2","spark_pilot_2","7426","7","18","Male","","false","","","","","[303.29999999701977]","./assets/img/canyon/animals/lion.jpg","[""ArrowLeft""]","second stage test","canyon","0","{""ArrowUp,ArrowLeft"":23,""ArrowUp,ArrowRight"":10,""ArrowDown,ArrowLeft"":8,""ArrowDown,ArrowRight"":30}","true","ArrowUp,ArrowLeft","","","","original","1","","","",""
"html-keyboard-response","273","1334859","0.0-4.0-10.0-1.2","spark_pilot_2","7426","7","18","Male","","","","","","","null","<div style=""font-size:60px;"">+</div>","null","fixation","","","","","","","","","","","","","",""
"revaluation","274","1335203","0.0-4.0-10.0-0.3","spark_pilot_2","7426","7","18","Male","","false","","","","","[340.5]","./assets/img/canyon/animals/lion.jpg","[""ArrowLeft""]","second stage test","canyon","0","{""ArrowUp,ArrowLeft"":23,""ArrowUp,ArrowRight"":10,""ArrowDown,ArrowLeft"":8,""ArrowDown,ArrowRight"":30}","true","ArrowUp,ArrowLeft","","","","original","1","","","",""
"html-keyboard-response","275","1335709","0.0-4.0-10.0-1.3","spark_pilot_2","7426","7","18","Male","","","","","","","null","<div style=""font-size:60px;"">+</div>","null","fixation","","","","","","","","","","","","","",""
"revaluation","276","1336253","0.0-4.0-10.0-0.4","spark_pilot_2","7426","7","18","Male","","false","","","","","[541]","./assets/img/canyon/animals/giraffe.jpg","[""ArrowRight""]","second stage test","canyon","0","{""ArrowUp,ArrowLeft"":23,""ArrowUp,ArrowRight"":10,""ArrowDown,ArrowLeft"":8,""ArrowDown,ArrowRight"":30}","true","ArrowDown,ArrowRight","","","","original","1","","","",""
"html-keyboard-response","277","1336754","0.0-4.0-10.0-1.4","spark_pilot_2","7426","7","18","Male","","","","","","","null","<div style=""font-size:60px;"">+</div>","null","fixation","","","","","","","","","","","","","",""
"revaluation","278","1337213","0.0-4.0-10.0-0.5","spark_pilot_2","7426","7","18","Male","","false","","","","","[454.69999999925494]","./assets/img/canyon/animals/giraffe.jpg","[""ArrowRight""]","second stage test","canyon","0","{""ArrowUp,ArrowLeft"":23,""ArrowUp,ArrowRight"":10,""ArrowDown,ArrowLeft"":8,""ArrowDown,ArrowRight"":30}","true","ArrowDown,ArrowRight","","","","original","1","","","",""
"html-keyboard-response","279","1337718","0.0-4.0-10.0-1.5","spark_pilot_2","7426","7","18","Male","","","","","","","null","<div style=""font-size:60px;"">+</div>","null","fixation","","","","","","","","","","","","","",""
"revaluation","280","1338255","0.0-4.0-10.0-0.6","spark_pilot_2","7426","7","18","Male","","false","","","","","[533.4000000022352]","./assets/img/canyon/animals/giraffe.jpg","[""ArrowRight""]","second stage test","canyon","0","{""ArrowUp,ArrowLeft"":23,""ArrowUp,ArrowRight"":10,""ArrowDown,ArrowLeft"":8,""ArrowDown,ArrowRight"":30}","true","ArrowDown,ArrowRight","","","","original","1","","","",""
"html-keyboard-response","281","1338763","0.0-4.0-10.0-1.6","spark_pilot_2","7426","7","18","Male","","","","","","","null","<div style=""font-size:60px;"">+</div>","null","fixation","","","","","","","","","","","","","",""
"revaluation","282","1339157","0.0-4.0-10.0-0.7","spark_pilot_2","7426","7","18","Male","","false","","","","","[390.3999999985099]","./assets/img/canyon/animals/giraffe.jpg","[""ArrowRight""]","second stage test","canyon","0","{""ArrowUp,ArrowLeft"":23,""ArrowUp,ArrowRight"":10,""ArrowDown,ArrowLeft"":8,""ArrowDown,ArrowRight"":30}","true","ArrowDown,ArrowRight","","","","original","1","","","",""
"html-keyboard-response","283","1339663","0.0-4.0-10.0-1.7","spark_pilot_2","7426","7","18","Male","","","","","","","null","<div style=""font-size:60px;"">+</div>","null","fixation","","","","","","","","","","","","","",""
"learning-instructions","284","1344423","0.0-4.0-0.1-0.2","spark_pilot_2","7426","7","18","Male","","","","","","","2043.300000000745","<p> This time you are searching for treasure in the <b>ocean</b>.</p>","","instructions","","","","","","","","","","","","","",""
"learning-instructions","285","1363858","0.0-4.0-0.1-0.3","spark_pilot_2","7426","7","18","Male","","","","","","","2181.599999997765","<p><b>New</b> animals with <b>new</b> treasure chests live here. You need to explore to discover where the animal with the best treasure chest is.</p>
                    <p> Like before, once you figure out which animal has the chest with the most treasure, you should try to get to that animal and select that chest! </p>","","instructions","","","","","","","","","","","","","",""
"learning-instructions","286","1379385","0.0-4.0-1.1-0.1","spark_pilot_2","7426","7","18","Male","","","","","","","792.0999999977648","<p> Remember, when you see a picture of the place, use the up and down keys to <b>find an animal</b>.</p>
            <p> When you encounter an animal, you should use the left and right keys to <b>select a treasure chest</b>.</p>
            <p> Don't forget to look out for the robber! </p>","","instructions","","","","","","","","","","","","","",""
"revaluation","287","1383399","0.0-4.0-2.1-0.50","spark_pilot_2","7426","7","18","Male","","false","","","","","[396.19999999925494]","./assets/img/ocean/catch/1.jpg","[""spaceBar""]","value training","ocean","0","{""ArrowUp,ArrowLeft"":26,""ArrowUp,ArrowRight"":10,""ArrowDown,ArrowLeft"":5,""ArrowDown,ArrowRight"":17}","true","spaceBar","true","","","revaluation","2","0","","",""
"html-keyboard-response","288","1383910","0.0-4.0-2.1-1.50","spark_pilot_2","7426","7","18","Male","","","","","","","null","<div style=""font-size:60px;"">+</div>","null","fixation","","","","","","","","","","","1","","",""
"revaluation","289","1389926","0.0-4.0-2.1-0.51","spark_pilot_2","7426","7","18","Male","","false","","","","","[725,340.80000000074506]","./assets/img/ocean/memory/13.jpg","[""ArrowUp"",""ArrowRight""]","value training","ocean","10","{""ArrowUp,ArrowLeft"":26,""ArrowUp,ArrowRight"":10,""ArrowDown,ArrowLeft"":5,""ArrowDown,ArrowRight"":17}","false","ArrowUp,ArrowRight","false","","","revaluation","2","2","","",""
"html-keyboard-response","290","1390429","0.0-4.0-2.1-1.51","spark_pilot_2","7426","7","18","Male","","","","","","","null","<div style=""font-size:60px;"">+</div>","null","fixation","","","","","","","","","","","3","","",""
"revaluation","291","1396452","0.0-4.0-2.1-0.52","spark_pilot_2","7426","7","18","Male","","false","","","","","[709.5,367.4000000022352]","./assets/img/ocean/memory/13.jpg","[""ArrowUp"",""ArrowLeft""]","value training","ocean","26","{""ArrowUp,ArrowLeft"":26,""ArrowUp,ArrowRight"":10,""ArrowDown,ArrowLeft"":5,""ArrowDown,ArrowRight"":17}","true","ArrowUp,ArrowLeft","false","","","revaluation","2","4","","",""
"html-keyboard-response","292","1396957","0.0-4.0-2.1-1.52","spark_pilot_2","7426","7","18","Male","","","","","","","null","<div style=""font-size:60px;"">+</div>","null","fixation","","","","","","","","","","","5","","",""
"revaluation","293","1402986","0.0-4.0-2.1-0.53","spark_pilot_2","7426","7","18","Male","","false","","","","","[571.2999999970198,338.70000000298023]","./assets/img/ocean/memory/25.jpg","[""ArrowDown"",""ArrowRight""]","value training","ocean","17","{""ArrowUp,ArrowLeft"":26,""ArrowUp,ArrowRight"":10,""ArrowDown,ArrowLeft"":5,""ArrowDown,ArrowRight"":17}","false","ArrowDown,ArrowRight","false","","","revaluation","2","6","","",""
"html-keyboard-response","294","1403496","0.0-4.0-2.1-1.53","spark_pilot_2","7426","7","18","Male","","","","","","","null","<div style=""font-size:60px;"">+</div>","null","fixation","","","","","","","","","","","7","","",""
"revaluation","295","1409517","0.0-4.0-2.1-0.54","spark_pilot_2","7426","7","18","Male","","false","","","","","[618.1999999992549,308.8999999985099]","./assets/img/ocean/memory/35.jpg","[""ArrowDown"",""ArrowLeft""]","value training","ocean","5","{""ArrowUp,ArrowLeft"":26,""ArrowUp,ArrowRight"":10,""ArrowDown,ArrowLeft"":5,""ArrowDown,ArrowRight"":17}","false","ArrowDown,ArrowLeft","false","","","revaluation","2","8","","",""
"html-keyboard-response","296","1410022","0.0-4.0-2.1-1.54","spark_pilot_2","7426","7","18","Male","","","","","","","null","<div style=""font-size:60px;"">+</div>","null","fixation","","","","","","","","","","","9","","",""
"revaluation","297","1416048","0.0-4.0-2.1-0.55","spark_pilot_2","7426","7","18","Male","","false","","","","","[992.1000000014901,789.8999999985099]","./assets/img/ocean/memory/19.jpg","[""ArrowUp"",""ArrowRight""]","value training","ocean","10","{""ArrowUp,ArrowLeft"":26,""ArrowUp,ArrowRight"":10,""ArrowDown,ArrowLeft"":5,""ArrowDown,ArrowRight"":17}","false","ArrowUp,ArrowRight","false","","","revaluation","2","10","","",""
"html-keyboard-response","298","1416558","0.0-4.0-2.1-1.55","spark_pilot_2","7426","7","18","Male","","","","","","","null","<div style=""font-size:60px;"">+</div>","null","fixation","","","","","","","","","","","11","","",""
"revaluation","299","1422584","0.0-4.0-2.1-0.56","spark_pilot_2","7426","7","18","Male","","false","","","","","[1121.300000000745,546.5]","./assets/img/ocean/memory/15.jpg","[""ArrowUp"",""ArrowLeft""]","value training","ocean","26","{""ArrowUp,ArrowLeft"":26,""ArrowUp,ArrowRight"":10,""ArrowDown,ArrowLeft"":5,""ArrowDown,ArrowRight"":17}","true","ArrowUp,ArrowLeft","false","","","revaluation","2","12","","",""
"html-keyboard-response","300","1423095","0.0-4.0-2.1-1.56","spark_pilot_2","7426","7","18","Male","","","","","","","null","<div style=""font-size:60px;"">+</div>","null","fixation","","","","","","","","","","","13","","",""
"revaluation","301","1429121","0.0-4.0-2.1-0.57","spark_pilot_2","7426","7","18","Male","","false","","","","","[790.4000000022352,319.6000000014901]","./assets/img/ocean/memory/9.jpg","[""ArrowUp"",""ArrowLeft""]","value training","ocean","26","{""ArrowUp,ArrowLeft"":26,""ArrowUp,ArrowRight"":10,""ArrowDown,ArrowLeft"":5,""ArrowDown,ArrowRight"":17}","true","ArrowUp,ArrowLeft","false","","","revaluation","2","14","","",""
"html-keyboard-response","302","1429632","0.0-4.0-2.1-1.57","spark_pilot_2","7426","7","18","Male","","","","","","","null","<div style=""font-size:60px;"">+</div>","null","fixation","","","","","","","","","","","15","","",""
"revaluation","303","1435658","0.0-4.0-2.1-0.58","spark_pilot_2","7426","7","18","Male","","false","","","","","[620.5999999977648,378.1000000014901]","./assets/img/ocean/memory/15.jpg","[""ArrowUp"",""ArrowLeft""]","value training","ocean","26","{""ArrowUp,ArrowLeft"":26,""ArrowUp,ArrowRight"":10,""ArrowDown,ArrowLeft"":5,""ArrowDown,ArrowRight"":17}","true","ArrowUp,ArrowLeft","false","","","revaluation","2","16","","",""
"html-keyboard-response","304","1436168","0.0-4.0-2.1-1.58","spark_pilot_2","7426","7","18","Male","","","","","","","null","<div style=""font-size:60px;"">+</div>","null","fixation","","","","","","","","","","","17","","",""
"revaluation","305","1442194","0.0-4.0-2.1-0.59","spark_pilot_2","7426","7","18","Male","","false","","","","","[617.3000000007451,270.1000000014901]","./assets/img/ocean/memory/14.jpg","[""ArrowUp"",""ArrowLeft""]","value training","ocean","26","{""ArrowUp,ArrowLeft"":26,""ArrowUp,ArrowRight"":10,""ArrowDown,ArrowLeft"":5,""ArrowDown,ArrowRight"":17}","true","ArrowUp,ArrowLeft","false","","","revaluation","2","18","","",""
"html-keyboard-response","306","1442705","0.0-4.0-2.1-1.59","spark_pilot_2","7426","7","18","Male","","","","","","","null","<div style=""font-size:60px;"">+</div>","null","fixation","","","","","","","","","","","19","","",""
"revaluation","307","1446723","0.0-4.0-2.1-0.60","spark_pilot_2","7426","7","18","Male","","false","","","","","[279.30000000074506]","./assets/img/ocean/catch/3.jpg","[""spaceBar""]","value training","ocean","0","{""ArrowUp,ArrowLeft"":26,""ArrowUp,ArrowRight"":10,""ArrowDown,ArrowLeft"":5,""ArrowDown,ArrowRight"":17}","true","spaceBar","true","","","revaluation","2","20","","",""
"html-keyboard-response","308","1447233","0.0-4.0-2.1-1.60","spark_pilot_2","7426","7","18","Male","","","","","","","null","<div style=""font-size:60px;"">+</div>","null","fixation","","","","","","","","","","","21","","",""
