"trial_type","trial_index","time_elapsed","internal_node_id","task_version","subject_id","assigned_condition","age","gender","success","timeout","failed_images","failed_audio","failed_video","browser_interaction","rt","stimulus","response","task_part","environment","score","rewardMap","correct","fullState","isCatch","numberMissed","duration","condition","order","trial_num","key_press","ground_truth","bonus"
"pavlovia","0","1042","0.0-0.0","spark_pilot_2","7401","6","16","Female","","","","","","","","","","","","","","","","","","","","","","","",""
"preload","1","11444","0.0-1.0","spark_pilot_2","7401","6","16","Female","true","false","[]","[]","[]","[{""event"":""fullscreenenter"",""trial"":2,""time"":20630}]","","","","","","","","","","","","","","","","","",""
"fullscreen","2","21555","0.0-2.0","spark_pilot_2","7401","6","16","Female","true","","","","","","","","","","","","","","","","","","","","","","",""
"audio-button-response","3","24498","0.0-3.0-0.0-0.0","spark_pilot_2","7401","6","16","Female","","","","","","","2840","./assets/audio/audiotest/turtle.mp3","2","audio_test","","","","","","","","","","","","","",""
"learning-instructions","4","35050","0.0-3.0-1.0-0.0","spark_pilot_2","7401","6","16","Female","","","","","","","3574.199999988079","<p> Welcome! Please remember to stay in fullscreen mode and don't click away from the experiment. </p>","","instructions","","","","","","","","","","","","","",""
"learning-instructions","5","53235","0.0-3.0-1.0-0.1","spark_pilot_2","7401","6","16","Female","","","","","","","9768.59999999404","<p> Today you will be playing a game to earn treasure. </p>
            <p> At the end of the experiment, you will earn a bonus based on how much treasure you find. </p>
            <img src='./assets/img/instructions/treasure.jpg' class='instructions-image'>","","instructions","","","","","","","","","","","","","",""
"learning-instructions","6","64634","0.0-3.0-1.0-0.2","spark_pilot_2","7401","6","16","Female","","","","","","","3127.0999999940395","<p> Animals have hidden treasure in treasure chests. </p>
            <p> You need to first find an animal and then choose which of their treasure chests to search. </p>
            <img src='./assets/img/space/animals/cat.jpg' class='instructions-image'>","","instructions","","","","","","","","","","","","","",""
"learning-instructions","7","79914","0.0-3.0-1.0-0.3","spark_pilot_2","7401","6","16","Female","","","","","","","2117.5","<p> In each round, you will search for treasure in a different place. In the real game, there will be two rounds. </p>
            <p> You will begin with a separate, practice round where you will search for treasure in outer space. </p>
            <img src='./assets/img/space/0.jpg' class='instructions-image'>","","instructions","","","","","","","","","","","","","",""
"learning-instructions","8","93154","0.0-3.0-1.0-0.4","spark_pilot_2","7401","6","16","Female","","","","","","","1807.4000000059605","<p> On every turn, you will see a picture of the place that you are in, but the specific image may be different each time. </p>
            <p> For example, both of these images mean you are in outer space. </p>
            <img src='./assets/img/instructions/outerspace.jpg' class='instructions-image'>","","instructions","","","","","","","","","","","","","",""
"learning-instructions","9","102706","0.0-3.0-1.0-0.5","spark_pilot_2","7401","6","16","Female","","","","","","","1719.0999999940395","<p> You need to decide which direction to travel in. </p>
            <p> You can choose between going <b>up or down</b> by using the arrow keys. </p>
            <img src='./assets/img/instructions/updown.jpg' class='instructions-image'>","","instructions","","","","","","","","","","","","","",""
"learning-instructions","10","113962","0.0-3.0-1.0-0.6","spark_pilot_2","7401","6","16","Female","","","","","","","2445.6000000089407","<p> You will have <b>2 seconds</b> to make your choice. </p>
            <p> If you do not make a choice within 2 seconds, you will not find an animal or earn treasure. </p>
            <img src='./assets/img/instructions/2seconds.jpg' class='instructions-image'>","","instructions","","","","","","","","","","","","","",""
"learning-instructions","11","124313","0.0-3.0-1.0-0.7","spark_pilot_2","7401","6","16","Female","","","","","","","3317.2000000029802","<p> Let’s try practicing that now! </p>
            <p> When you see a picture of the place you are in, press the <b>up</b> key to travel up. </p>
            <img src='./assets/img/instructions/pressUp.jpg' class='instructions-image'>","","instructions","","","","","","","","","","","","","",""
"revaluation","12","128346","0.0-3.0-2.0-0.0","spark_pilot_2","7401","6","16","Female","","false","","","","","[1415.0999999940395]","./assets/img/space/0.jpg","[""ArrowUp""]","first stage practice","space","0","null","null","ArrowUp","false","","","","","","","",""
"html-keyboard-response","13","128850","0.0-3.0-2.0-1.0","spark_pilot_2","7401","6","16","Female","","","","","","","null","<div style=""font-size:60px;"">+</div>","null","fixation","","","","","","","","","","","","","",""
"revaluation","14","132875","0.0-3.0-2.0-0.1","spark_pilot_2","7401","6","16","Female","","false","","","","","[865.5]","./assets/img/space/1.jpg","[""ArrowUp""]","first stage practice","space","0","null","null","ArrowUp","false","","","","","","","",""
"html-keyboard-response","15","133383","0.0-3.0-2.0-1.1","spark_pilot_2","7401","6","16","Female","","","","","","","null","<div style=""font-size:60px;"">+</div>","null","fixation","","","","","","","","","","","","","",""
"revaluation","16","137405","0.0-3.0-2.0-0.2","spark_pilot_2","7401","6","16","Female","","false","","","","","[1104.0999999940395]","./assets/img/space/2.jpg","[""ArrowUp""]","first stage practice","space","0","null","null","ArrowUp","false","","","","","","","",""
"html-keyboard-response","17","137916","0.0-3.0-2.0-1.2","spark_pilot_2","7401","6","16","Female","","","","","","","null","<div style=""font-size:60px;"">+</div>","null","fixation","","","","","","","","","","","","","",""
"learning-instructions","18","145617","0.0-3.0-3.0-0.0","spark_pilot_2","7401","6","16","Female","","","","","","","2981.2999999970198","<p> Great job! Now try pressing the <b>down</b> key to travel down. </p>
            <img src='./assets/img/instructions/pressDown.jpg' class='instructions-image'>","","instructions","","","","","","","","","","","","","",""
"revaluation","19","149640","0.0-3.0-4.0-0.0","spark_pilot_2","7401","6","16","Female","","false","","","","","[1591.5]","./assets/img/space/3.jpg","[""ArrowDown""]","first stage practice","space","0","null","null","ArrowDown","false","","","","","","","",""
"html-keyboard-response","20","150149","0.0-3.0-4.0-1.0","spark_pilot_2","7401","6","16","Female","","","","","","","null","<div style=""font-size:60px;"">+</div>","null","fixation","","","","","","","","","","","","","",""
"revaluation","21","154173","0.0-3.0-4.0-0.1","spark_pilot_2","7401","6","16","Female","","false","","","","","[1100.800000011921]","./assets/img/space/4.jpg","[""ArrowDown""]","first stage practice","space","0","null","null","ArrowDown","false","","","","","","","",""
"html-keyboard-response","22","154683","0.0-3.0-4.0-1.1","spark_pilot_2","7401","6","16","Female","","","","","","","null","<div style=""font-size:60px;"">+</div>","null","fixation","","","","","","","","","","","","","",""
"revaluation","23","158707","0.0-3.0-4.0-0.2","spark_pilot_2","7401","6","16","Female","","false","","","","","[633]","./assets/img/space/5.jpg","[""ArrowDown""]","first stage practice","space","0","null","null","ArrowDown","false","","","","","","","",""
"html-keyboard-response","24","159216","0.0-3.0-4.0-1.2","spark_pilot_2","7401","6","16","Female","","","","","","","null","<div style=""font-size:60px;"">+</div>","null","fixation","","","","","","","","","","","","","",""
"learning-instructions","25","172033","0.0-3.0-5.0-0.0","spark_pilot_2","7401","6","16","Female","","","","","","","2927.9000000059605","<p> The animals don’t move, so the animal in the upper part of a place will stay in the upper part of a place, and the animal in the lower part of a place will stay in the lower part of a place. </p>","","instructions","","","","","","","","","","","","","",""
"learning-instructions","26","187306","0.0-3.0-5.0-0.1","spark_pilot_2","7401","6","16","Female","","","","","","","6130.0999999940395","<p> Each animal has two treasure chests for you to choose from. </p>
            <p> The amount of treasure in each chest can range from <b> 0 to 40 pieces.</b></p>","","instructions","","","","","","","","","","","","","",""
"learning-instructions","27","202970","0.0-3.0-5.0-0.2","spark_pilot_2","7401","6","16","Female","","","","","","","4463.79999999702","<p> You should decide which chest to search for treasure by using the <b>left</b> and <b>right</b> arrow keys. </p>
            <p><b> Pay attention to which animal is on the screen, as the animals have different treasure chests. </b></p>
            <img src='./assets/img/instructions/leftright.jpg' class='instructions-image'>","","instructions","","","","","","","","","","","","","",""
"learning-instructions","28","211850","0.0-3.0-5.0-0.3","spark_pilot_2","7401","6","16","Female","","","","","","","2503.2999999970198","<p> Let’s try practicing that now. </p>
            <p> When you see an animal, choose which chest to search for treasure. </p>
            <img src='./assets/img/instructions/chooseChest.jpg' class='instructions-image'>","","instructions","","","","","","","","","","","","","",""
"revaluation","29","215854","0.0-3.0-6.0-0.0","spark_pilot_2","7401","6","16","Female","","true","","","","","[]","./assets/img/space/animals/cat.jpg","[]","second stage practice","space","-5","{""ArrowUp,ArrowLeft"":3,""ArrowUp,ArrowRight"":36,""ArrowDown,ArrowLeft"":15,""ArrowDown,ArrowRight"":23}","false","ArrowUp","","","","","","","","",""
"html-keyboard-response","30","216355","0.0-3.0-6.0-1.0","spark_pilot_2","7401","6","16","Female","","","","","","","null","<div style=""font-size:60px;"">+</div>","null","fixation","","","","","","","","","","","","","",""
"revaluation","31","220376","0.0-3.0-6.0-0.1","spark_pilot_2","7401","6","16","Female","","true","","","","","[]","./assets/img/space/animals/rabbit.jpg","[]","second stage practice","space","-5","{""ArrowUp,ArrowLeft"":3,""ArrowUp,ArrowRight"":36,""ArrowDown,ArrowLeft"":15,""ArrowDown,ArrowRight"":23}","false","ArrowDown","","","","","","","","",""
"html-keyboard-response","32","220878","0.0-3.0-6.0-1.1","spark_pilot_2","7401","6","16","Female","","","","","","","null","<div style=""font-size:60px;"">+</div>","null","fixation","","","","","","","","","","","","","",""
"revaluation","33","224895","0.0-3.0-6.0-0.2","spark_pilot_2","7401","6","16","Female","","false","","","","","[1778.0999999940395]","./assets/img/space/animals/cat.jpg","[""ArrowRight""]","second stage practice","space","36","{""ArrowUp,ArrowLeft"":3,""ArrowUp,ArrowRight"":36,""ArrowDown,ArrowLeft"":15,""ArrowDown,ArrowRight"":23}","true","ArrowUp,ArrowRight","","","","","","","","",""
"html-keyboard-response","34","225401","0.0-3.0-6.0-1.2","spark_pilot_2","7401","6","16","Female","","","","","","","null","<div style=""font-size:60px;"">+</div>","null","fixation","","","","","","","","","","","","","",""
"revaluation","35","229426","0.0-3.0-6.0-0.3","spark_pilot_2","7401","6","16","Female","","false","","","","","[948.0999999940395]","./assets/img/space/animals/rabbit.jpg","[""ArrowRight""]","second stage practice","space","23","{""ArrowUp,ArrowLeft"":3,""ArrowUp,ArrowRight"":36,""ArrowDown,ArrowLeft"":15,""ArrowDown,ArrowRight"":23}","true","ArrowDown,ArrowRight","","","","","","","","",""
"html-keyboard-response","36","229936","0.0-3.0-6.0-1.3","spark_pilot_2","7401","6","16","Female","","","","","","","null","<div style=""font-size:60px;"">+</div>","null","fixation","","","","","","","","","","","","","",""
"learning-instructions","37","250419","0.0-3.0-7.0-0.0","spark_pilot_2","7401","6","16","Female","","","","","","","3632","<p> Great job. Now let’s try putting it together. </p>
            <p> On each turn, you will first see a picture to remind you of the place you are in, and you need to choose whether to go up or down. </p>
            <p> Then you will see an animal and choose which of its chests to search for treasure. </p>","","instructions","","","","","","","","","","","","","",""
"learning-instructions","38","261683","0.0-3.0-7.0-0.1","spark_pilot_2","7401","6","16","Female","","","","","","","3006.5","<p> When you choose whether to go up or down, try to go to the animal with the chest with the most treasure. </p>
            <p> Try practicing that now! </p>","","instructions","","","","","","","","","","","","","",""
"revaluation","39","267708","0.0-3.0-8.0-0.0","spark_pilot_2","7401","6","16","Female","","false","","","","","[1399.4000000059605,1842]","./assets/img/space/6.jpg","[""ArrowUp"",""ArrowRight""]","full practice","space","36","{""ArrowUp,ArrowLeft"":3,""ArrowUp,ArrowRight"":36,""ArrowDown,ArrowLeft"":15,""ArrowDown,ArrowRight"":23}","true","ArrowUp,ArrowRight","false","","","","","","","",""
"html-keyboard-response","40","268217","0.0-3.0-8.0-1.0","spark_pilot_2","7401","6","16","Female","","","","","","","null","<div style=""font-size:60px;"">+</div>","null","fixation","","","","","","","","","","","","","",""
"revaluation","41","274258","0.0-3.0-8.0-0.1","spark_pilot_2","7401","6","16","Female","","false","","","","","[1492.199999988079,1057.5999999940395]","./assets/img/space/7.jpg","[""ArrowUp"",""ArrowRight""]","full practice","space","36","{""ArrowUp,ArrowLeft"":3,""ArrowUp,ArrowRight"":36,""ArrowDown,ArrowLeft"":15,""ArrowDown,ArrowRight"":23}","true","ArrowUp,ArrowRight","false","","","","","","","",""
"html-keyboard-response","42","274768","0.0-3.0-8.0-1.1","spark_pilot_2","7401","6","16","Female","","","","","","","null","<div style=""font-size:60px;"">+</div>","null","fixation","","","","","","","","","","","","","",""
"revaluation","43","280808","0.0-3.0-8.0-0.2","spark_pilot_2","7401","6","16","Female","","false","","","","","[729.8999999910593,586.2000000029802]","./assets/img/space/8.jpg","[""ArrowUp"",""ArrowRight""]","full practice","space","36","{""ArrowUp,ArrowLeft"":3,""ArrowUp,ArrowRight"":36,""ArrowDown,ArrowLeft"":15,""ArrowDown,ArrowRight"":23}","true","ArrowUp,ArrowRight","false","","","","","","","",""
"html-keyboard-response","44","281317","0.0-3.0-8.0-1.2","spark_pilot_2","7401","6","16","Female","","","","","","","null","<div style=""font-size:60px;"">+</div>","null","fixation","","","","","","","","","","","","","",""
"revaluation","45","287362","0.0-3.0-8.0-0.3","spark_pilot_2","7401","6","16","Female","","false","","","","","[640.8999999910593,536.4000000059605]","./assets/img/space/9.jpg","[""ArrowUp"",""ArrowRight""]","full practice","space","36","{""ArrowUp,ArrowLeft"":3,""ArrowUp,ArrowRight"":36,""ArrowDown,ArrowLeft"":15,""ArrowDown,ArrowRight"":23}","true","ArrowUp,ArrowRight","false","","","","","","","",""
"html-keyboard-response","46","287867","0.0-3.0-8.0-1.3","spark_pilot_2","7401","6","16","Female","","","","","","","null","<div style=""font-size:60px;"">+</div>","null","fixation","","","","","","","","","","","","","",""
"revaluation","47","293877","0.0-3.0-8.0-0.4","spark_pilot_2","7401","6","16","Female","","false","","","","","[589.2999999970198,449.70000000298023]","./assets/img/space/10.jpg","[""ArrowUp"",""ArrowRight""]","full practice","space","36","{""ArrowUp,ArrowLeft"":3,""ArrowUp,ArrowRight"":36,""ArrowDown,ArrowLeft"":15,""ArrowDown,ArrowRight"":23}","true","ArrowUp,ArrowRight","false","","","","","","","",""
"html-keyboard-response","48","294379","0.0-3.0-8.0-1.4","spark_pilot_2","7401","6","16","Female","","","","","","","null","<div style=""font-size:60px;"">+</div>","null","fixation","","","","","","","","","","","","","",""
"learning-instructions","49","308331","0.0-3.0-9.0-0.0","spark_pilot_2","7401","6","16","Female","","","","","","","3561.699999988079","<p> One last thing: sometimes, you will see a robber. The robber can be anywhere in the picture. </p>
            <p> If you do not stop them, you will lose treasure. </p>
            <img src='./assets/img/instructions/robber.jpg' class='instructions-image'>","","instructions","","","","","","","","","","","","","",""
"learning-instructions","50","318123","0.0-3.0-9.0-0.1","spark_pilot_2","7401","6","16","Female","","","","","","","2623.9000000059605","<p> If you see the robber, you should <b>press the space bar</b> rather than using the arrow keys. </p>
            <p> Try practicing that now! </p>","","instructions","","","","","","","","","","","","","",""
"revaluation","51","322146","0.0-3.0-10.0-0.0","spark_pilot_2","7401","6","16","Female","","true","","","","","[]","./assets/img/space/catch/0.jpg","[]","catch practice","space","-5","{""ArrowUp,ArrowLeft"":3,""ArrowUp,ArrowRight"":36,""ArrowDown,ArrowLeft"":15,""ArrowDown,ArrowRight"":23}","false","","true","","","","","","","",""
"html-keyboard-response","52","322652","0.0-3.0-10.0-1.0","spark_pilot_2","7401","6","16","Female","","","","","","","null","<div style=""font-size:60px;"">+</div>","null","fixation","","","","","","","","","","","","","",""
"revaluation","53","326662","0.0-3.0-10.0-0.1","spark_pilot_2","7401","6","16","Female","","false","","","","","[926.5]","./assets/img/space/catch/1.jpg","[""ArrowUp""]","catch practice","space","-10","{""ArrowUp,ArrowLeft"":3,""ArrowUp,ArrowRight"":36,""ArrowDown,ArrowLeft"":15,""ArrowDown,ArrowRight"":23}","false","ArrowUp","true","","","","","","","",""
"html-keyboard-response","54","327169","0.0-3.0-10.0-1.1","spark_pilot_2","7401","6","16","Female","","","","","","","null","<div style=""font-size:60px;"">+</div>","null","fixation","","","","","","","","","","","","","",""
"revaluation","55","331206","0.0-3.0-10.0-0.2","spark_pilot_2","7401","6","16","Female","","false","","","","","[1229.7000000029802]","./assets/img/space/catch/2.jpg","[""spaceBar""]","catch practice","space","0","{""ArrowUp,ArrowLeft"":3,""ArrowUp,ArrowRight"":36,""ArrowDown,ArrowLeft"":15,""ArrowDown,ArrowRight"":23}","true","spaceBar","true","","","","","","","",""
"html-keyboard-response","56","331720","0.0-3.0-10.0-1.2","spark_pilot_2","7401","6","16","Female","","","","","","","null","<div style=""font-size:60px;"">+</div>","null","fixation","","","","","","","","","","","","","",""
"learning-instructions","57","347603","0.0-3.0-11.0-0.0","spark_pilot_2","7401","6","16","Female","","","","","","","2243.5","<p> After you explore a place to find treasure, it will be time to play a different game. </p>
            <p> During this game, red dots will appear on the screen and fall down slowly. </p>
            <p><b> You must click on them before they reach the bottom. </b></p>
            <img src='./assets/img/instructions/dotGame.jpg' class='instructions-image'>","","instructions","","","","","","","","","","","","","",""
"learning-instructions","58","354723","0.0-3.0-11.0-0.1","spark_pilot_2","7401","6","16","Female","","","","","","","1444.0999999940395","<p> For every dot you click, you will earn additional treasure. </p>
            <p> Let’s try practicing that now. </p>","","instructions","","","","","","","","","","","","","",""
"revaluation","59","369732","0.0-3.0-12.0-0.0","spark_pilot_2","7401","6","16","Female","","","","","","","[113]","","","rest practice","","10","","","","","0","15000","","","","","",""
"learning-instructions","60","376675","0.0-3.0-13.0-0.0-0.0","spark_pilot_2","7401","6","16","Female","","","","","","","1666.0999999940395","<p> Now, you will practice a shortened version of the game to get a sense of how it all fits together. </p>","","instructions","","","","","","","","","","","","","",""
"learning-instructions","61","381507","0.0-3.0-13.0-0.0-0.1","spark_pilot_2","7401","6","16","Female","","","","","","","1648","<p>This time you are searching for treasure in outer space.</p>","","instructions","","","","","","","","","","","","","",""
"learning-instructions","62","397891","0.0-3.0-13.0-1.0-0.0","spark_pilot_2","7401","6","16","Female","","","","","","","1601.7999999970198","<p> Remember, when you see a picture of the place, use the up and down keys to <b>find an animal</b>.</p>
            <p> When you encounter an animal, you should use the left and right keys to <b>select a treasure chest</b>.</p>
            <p> Don't forget to look out for the robber! </p>","","instructions","","","","","","","","","","","","","",""
"revaluation","63","403921","0.0-3.0-13.0-2.0-0.0","spark_pilot_2","7401","6","16","Female","","false","","","","","[1367.800000011921,1024.2999999970198]","./assets/img/space/11.jpg","[""ArrowUp"",""ArrowRight""]","practice block","space","36","{""ArrowUp,ArrowLeft"":3,""ArrowUp,ArrowRight"":36,""ArrowDown,ArrowLeft"":15,""ArrowDown,ArrowRight"":23}","true","ArrowUp,ArrowRight","false","","","","","","","",""
"html-keyboard-response","64","404437","0.0-3.0-13.0-2.0-1.0","spark_pilot_2","7401","6","16","Female","","","","","","","null","<div style=""font-size:60px;"">+</div>","null","fixation","","","","","","","","","","","","","",""
"revaluation","65","410473","0.0-3.0-13.0-2.0-0.1","spark_pilot_2","7401","6","16","Female","","false","","","","","[657,578]","./assets/img/space/12.jpg","[""ArrowUp"",""ArrowRight""]","practice block","space","36","{""ArrowUp,ArrowLeft"":3,""ArrowUp,ArrowRight"":36,""ArrowDown,ArrowLeft"":15,""ArrowDown,ArrowRight"":23}","true","ArrowUp,ArrowRight","false","","","","","","","",""
"html-keyboard-response","66","410986","0.0-3.0-13.0-2.0-1.1","spark_pilot_2","7401","6","16","Female","","","","","","","null","<div style=""font-size:60px;"">+</div>","null","fixation","","","","","","","","","","","","","",""
"revaluation","67","417010","0.0-3.0-13.0-2.0-0.2","spark_pilot_2","7401","6","16","Female","","false","","","","","[607.5,684.2000000029802]","./assets/img/space/13.jpg","[""ArrowUp"",""ArrowRight""]","practice block","space","36","{""ArrowUp,ArrowLeft"":3,""ArrowUp,ArrowRight"":36,""ArrowDown,ArrowLeft"":15,""ArrowDown,ArrowRight"":23}","true","ArrowUp,ArrowRight","false","","","","","","","",""
"html-keyboard-response","68","417517","0.0-3.0-13.0-2.0-1.2","spark_pilot_2","7401","6","16","Female","","","","","","","null","<div style=""font-size:60px;"">+</div>","null","fixation","","","","","","","","","","","","","",""
"revaluation","69","423552","0.0-3.0-13.0-2.0-0.3","spark_pilot_2","7401","6","16","Female","","false","","","","","[582.2999999970198,686.9000000059605]","./assets/img/space/14.jpg","[""ArrowUp"",""ArrowRight""]","practice block","space","36","{""ArrowUp,ArrowLeft"":3,""ArrowUp,ArrowRight"":36,""ArrowDown,ArrowLeft"":15,""ArrowDown,ArrowRight"":23}","true","ArrowUp,ArrowRight","false","","","","","","","",""
"html-keyboard-response","70","424065","0.0-3.0-13.0-2.0-1.3","spark_pilot_2","7401","6","16","Female","","","","","","","null","<div style=""font-size:60px;"">+</div>","null","fixation","","","","","","","","","","","","","",""
"revaluation","71","430083","0.0-3.0-13.0-2.0-0.4","spark_pilot_2","7401","6","16","Female","","false","","","","","[620.2999999970198,602.1000000089407]","./assets/img/space/11.jpg","[""ArrowUp"",""ArrowRight""]","practice block","space","36","{""ArrowUp,ArrowLeft"":3,""ArrowUp,ArrowRight"":36,""ArrowDown,ArrowLeft"":15,""ArrowDown,ArrowRight"":23}","true","ArrowUp,ArrowRight","false","","","","","","","",""
"html-keyboard-response","72","430585","0.0-3.0-13.0-2.0-1.4","spark_pilot_2","7401","6","16","Female","","","","","","","null","<div style=""font-size:60px;"">+</div>","null","fixation","","","","","","","","","","","","","",""
"revaluation","73","436594","0.0-3.0-13.0-2.0-0.5","spark_pilot_2","7401","6","16","Female","","false","","","","","[676.8999999910593,676.6000000089407]","./assets/img/space/12.jpg","[""ArrowUp"",""ArrowRight""]","practice block","space","36","{""ArrowUp,ArrowLeft"":3,""ArrowUp,ArrowRight"":36,""ArrowDown,ArrowLeft"":15,""ArrowDown,ArrowRight"":23}","true","ArrowUp,ArrowRight","false","","","","","","","",""
"html-keyboard-response","74","437096","0.0-3.0-13.0-2.0-1.5","spark_pilot_2","7401","6","16","Female","","","","","","","null","<div style=""font-size:60px;"">+</div>","null","fixation","","","","","","","","","","","","","",""
"revaluation","75","441103","0.0-3.0-13.0-2.0-0.6","spark_pilot_2","7401","6","16","Female","","true","","","","","[]","./assets/img/space/13.jpg","[]","practice block","space","-5","{""ArrowUp,ArrowLeft"":3,""ArrowUp,ArrowRight"":36,""ArrowDown,ArrowLeft"":15,""ArrowDown,ArrowRight"":23}","false","","false","","","","","","","",""
"html-keyboard-response","76","441605","0.0-3.0-13.0-2.0-1.6","spark_pilot_2","7401","6","16","Female","","","","","","","null","<div style=""font-size:60px;"">+</div>","null","fixation","","","","","","","","","","","","","",""
"revaluation","77","447612","0.0-3.0-13.0-2.0-0.7","spark_pilot_2","7401","6","16","Female","","false","","","","","[546.2999999970198,1272.5999999940395]","./assets/img/space/14.jpg","[""ArrowUp"",""ArrowRight""]","practice block","space","36","{""ArrowUp,ArrowLeft"":3,""ArrowUp,ArrowRight"":36,""ArrowDown,ArrowLeft"":15,""ArrowDown,ArrowRight"":23}","true","ArrowUp,ArrowRight","false","","","","","","","",""
"html-keyboard-response","78","448115","0.0-3.0-13.0-2.0-1.7","spark_pilot_2","7401","6","16","Female","","","","","","","null","<div style=""font-size:60px;"">+</div>","null","fixation","","","","","","","","","","","","","",""
"revaluation","79","452123","0.0-3.0-13.0-2.0-0.8","spark_pilot_2","7401","6","16","Female","","false","","","","","[442.09999999403954]","./assets/img/space/catch/3.jpg","[""ArrowUp""]","practice block","space","-10","{""ArrowUp,ArrowLeft"":3,""ArrowUp,ArrowRight"":36,""ArrowDown,ArrowLeft"":15,""ArrowDown,ArrowRight"":23}","false","ArrowUp","true","","","","","","","",""
"html-keyboard-response","80","452625","0.0-3.0-13.0-2.0-1.8","spark_pilot_2","7401","6","16","Female","","","","","","","null","<div style=""font-size:60px;"">+</div>","null","fixation","","","","","","","","","","","","","",""
"learning-instructions","81","472579","0.0-3.0-13.0-3.0-0.0","spark_pilot_2","7401","6","16","Female","","","","","","","6976.79999999702","<p> Now, you will travel with a friend who will choose whether you go up or down first. </p>
            <p> On these turns, you will just see the animal that they found. You will still get to choose which chest to search for treasure.</p>","","instructions","","","","","","","","","","","","","",""
"revaluation","82","476610","0.0-3.0-13.0-4.0-0.0","spark_pilot_2","7401","6","16","Female","","false","","","","","[1272.2999999970198]","./assets/img/space/animals/rabbit.jpg","[""ArrowRight""]","practice block","space","23","{""ArrowUp,ArrowLeft"":3,""ArrowUp,ArrowRight"":36,""ArrowDown,ArrowLeft"":15,""ArrowDown,ArrowRight"":23}","true","ArrowDown,ArrowRight","","","","","","","","",""
"html-keyboard-response","83","477119","0.0-3.0-13.0-4.0-1.0","spark_pilot_2","7401","6","16","Female","","","","","","","null","<div style=""font-size:60px;"">+</div>","null","fixation","","","","","","","","","","","","","",""
"revaluation","84","481141","0.0-3.0-13.0-4.0-0.1","spark_pilot_2","7401","6","16","Female","","false","","","","","[487.59999999403954]","./assets/img/space/animals/rabbit.jpg","[""ArrowRight""]","practice block","space","23","{""ArrowUp,ArrowLeft"":3,""ArrowUp,ArrowRight"":36,""ArrowDown,ArrowLeft"":15,""ArrowDown,ArrowRight"":23}","true","ArrowDown,ArrowRight","","","","","","","","",""
"html-keyboard-response","85","481652","0.0-3.0-13.0-4.0-1.1","spark_pilot_2","7401","6","16","Female","","","","","","","null","<div style=""font-size:60px;"">+</div>","null","fixation","","","","","","","","","","","","","",""
"revaluation","86","485675","0.0-3.0-13.0-4.0-0.2","spark_pilot_2","7401","6","16","Female","","false","","","","","[854]","./assets/img/space/animals/cat.jpg","[""ArrowLeft""]","practice block","space","3","{""ArrowUp,ArrowLeft"":3,""ArrowUp,ArrowRight"":36,""ArrowDown,ArrowLeft"":15,""ArrowDown,ArrowRight"":23}","false","ArrowUp,ArrowLeft","","","","","","","","",""
"html-keyboard-response","87","486187","0.0-3.0-13.0-4.0-1.2","spark_pilot_2","7401","6","16","Female","","","","","","","null","<div style=""font-size:60px;"">+</div>","null","fixation","","","","","","","","","","","","","",""
"revaluation","88","490199","0.0-3.0-13.0-4.0-0.3","spark_pilot_2","7401","6","16","Female","","false","","","","","[507]","./assets/img/space/animals/cat.jpg","[""ArrowRight""]","practice block","space","36","{""ArrowUp,ArrowLeft"":3,""ArrowUp,ArrowRight"":36,""ArrowDown,ArrowLeft"":15,""ArrowDown,ArrowRight"":23}","true","ArrowUp,ArrowRight","","","","","","","","",""
"html-keyboard-response","89","490704","0.0-3.0-13.0-4.0-1.3","spark_pilot_2","7401","6","16","Female","","","","","","","null","<div style=""font-size:60px;"">+</div>","null","fixation","","","","","","","","","","","","","",""
"learning-instructions","90","500315","0.0-3.0-13.0-5.0-0.0","spark_pilot_2","7401","6","16","Female","","","","","","","2212.9000000059605","<p> Time to play the dot game! </p>
            <p> For 15 seconds, click the red dots on the following screen as they appear. </p>","","instructions","","","","","","","","","","","","","",""
"revaluation","91","515316","0.0-3.0-13.0-6.0-0.0","spark_pilot_2","7401","6","16","Female","","","","","","","[75,93]","","","rest practice","","20","","","","","0","15000","","","","","",""
"learning-instructions","92","524675","0.0-3.0-13.0-7.0-0.0","spark_pilot_2","7401","6","16","Female","","","","","","","3223.2000000029802","<p> You have almost finished this part of the game! </p>
            <p> We are going to ask you to make a few more choices. </p>","","instructions","","","","","","","","","","","","","",""
"learning-instructions","93","540715","0.0-3.0-13.0-7.0-0.1","spark_pilot_2","7401","6","16","Female","","","","","","","2023.2000000029802","<p> First, you need to decide whether to go up or down. When you see each picture, use the arrow keys to make your choice. </p>
            <p><b>You will not see which animal you found, but try to get to the one that will give you the most treasure.</b></p>","","instructions","","","","","","","","","","","","","",""
"revaluation","94","542021","0.0-3.0-13.0-8.0","spark_pilot_2","7401","6","16","Female","","false","","","","","[1303.5]","./assets/img/space/15.jpg","[""ArrowUp""]","practice block","space","0","{""ArrowUp,ArrowLeft"":3,""ArrowUp,ArrowRight"":36,""ArrowDown,ArrowLeft"":15,""ArrowDown,ArrowRight"":23}","true","ArrowUp","false","","","","","","","",""
"html-keyboard-response","95","542539","0.0-3.0-13.0-9.0","spark_pilot_2","7401","6","16","Female","","","","","","","null","<div style=""font-size:60px;"">+</div>","null","fixation","","","","","","","","","","","","","",""
"learning-instructions","96","555547","0.0-3.0-13.0-10.0-0.0","spark_pilot_2","7401","6","16","Female","","","","","","","1575.2000000029802","<p> Now you will see the animals again and can search their chests for treasure. </p>
            <p> This time, you will not see how much treasure you earned, but you will earn more bonus money for making better choices. </p>","","instructions","","","","","","","","","","","","","",""
"revaluation","97","556981","0.0-3.0-13.0-11.0-0.0","spark_pilot_2","7401","6","16","Female","","false","","","","","[1432.0999999940395]","./assets/img/space/animals/cat.jpg","[""ArrowRight""]","practice block","space","0","{""ArrowUp,ArrowLeft"":3,""ArrowUp,ArrowRight"":36,""ArrowDown,ArrowLeft"":15,""ArrowDown,ArrowRight"":23}","true","ArrowUp,ArrowRight","","","","","","","","",""
"html-keyboard-response","98","557485","0.0-3.0-13.0-11.0-1.0","spark_pilot_2","7401","6","16","Female","","","","","","","null","<div style=""font-size:60px;"">+</div>","null","fixation","","","","","","","","","","","","","",""
"revaluation","99","558995","0.0-3.0-13.0-11.0-0.1","spark_pilot_2","7401","6","16","Female","","false","","","","","[1504.7999999970198]","./assets/img/space/animals/rabbit.jpg","[""ArrowRight""]","practice block","space","0","{""ArrowUp,ArrowLeft"":3,""ArrowUp,ArrowRight"":36,""ArrowDown,ArrowLeft"":15,""ArrowDown,ArrowRight"":23}","true","ArrowDown,ArrowRight","","","","","","","","",""
"html-keyboard-response","100","559502","0.0-3.0-13.0-11.0-1.1","spark_pilot_2","7401","6","16","Female","","","","","","","null","<div style=""font-size:60px;"">+</div>","null","fixation","","","","","","","","","","","","","",""
"learning-instructions","101","566931","0.0-3.0-14.0-0.0","spark_pilot_2","7401","6","16","Female","","","","","","","2829.2000000029802","<p> Before you start, we're going to ask you a few questions about how the game works. </p>","","instructions","","","","","","","","","","","","","",""
"comp-q","102","574635","0.0-3.0-15.0-0.0-0.0","spark_pilot_2","7401","6","16","Female","","","","","","","2107.8999999910593","<p> <b> True or False? </b> </p>
            <p> There can be 50 pieces of treasure in a given animal's chest. </p>","0","comp_question","","","","false","","","","","","","","","",""
"comp-q","103","582915","0.0-3.0-15.0-0.0-1.0","spark_pilot_2","7401","6","16","Female","","","","","","","1743.1000000089407","<p> <b>Incorrect.</b> The amount of treasure in each chest can range from 0 to 40 pieces. </p>","0","comp_answer","","","","","","","","","","","","","",""
"comp-q","104","591491","0.0-3.0-15.0-0.1-0.1","spark_pilot_2","7401","6","16","Female","","","","","","","3018.2000000029802","<p> <b> True or False? </b> </p>
            <p> There can be 50 pieces of treasure in a given animal's chest. </p>","1","comp_question","","","","true","","","","","","","","","",""
"comp-q","105","606675","0.0-3.0-15.0-0.1-1.1","spark_pilot_2","7401","6","16","Female","","","","","","","8533.10000000894","<p> <b> That's right! </b> The amount of treasure in each chest can range from 0 to 40 pieces. </p>","0","comp_answer","","","","","","","","","","","","","",""
"comp-q","106","625355","0.0-3.0-15.0-0.2-0.2","spark_pilot_2","7401","6","16","Female","","","","","","","11553.09999999404","<p> <b> True or False? </b> </p><p> In this game, all animals have the same amount of treasure in their left and right chests. </p>","1","comp_question","","","","true","","","","","","","","","",""
"comp-q","107","633898","0.0-3.0-15.0-0.2-1.2","spark_pilot_2","7401","6","16","Female","","","","","","","3297.1000000089407","<p> <b> That's right! </b> Animals have different amounts of treasure in their treasure chests. </p>","0","comp_answer","","","","","","","","","","","","","",""
"comp-q","108","643139","0.0-3.0-15.0-0.3-0.3","spark_pilot_2","7401","6","16","Female","","","","","","","3397.3999999910593","<p> <b> True or False? </b> </p><p> The same animal will always be there if you go up in the same place. </p>","1","comp_question","","","","false","","","","","","","","","",""
"comp-q","109","656562","0.0-3.0-15.0-0.3-1.3","spark_pilot_2","7401","6","16","Female","","","","","","","7120.79999999702","<p> <b>Incorrect.</b> One animal lives in the upper part and one lives in the lower part of every place. </p>","0","comp_answer","","","","","","","","","","","","","",""
"comp-q","110","666867","0.0-3.0-15.0-0.4-0.4","spark_pilot_2","7401","6","16","Female","","","","","","","4485.5","<p> <b> True or False? </b> </p><p> The same animal will always be there if you go up in the same place. </p>","0","comp_question","","","","true","","","","","","","","","",""
"comp-q","111","681906","0.0-3.0-15.0-0.4-1.4","spark_pilot_2","7401","6","16","Female","","","","","","","8585.20000000298","<p> <b> That's right! </b> One animal lives in the upper part and one lives in the lower part of every place. </p>","0","comp_answer","","","","","","","","","","","","","",""
"comp-q","112","688371","0.0-3.0-15.0-0.5-0.5","spark_pilot_2","7401","6","16","Female","","","","","","","929.3000000119209","<p> <b> True or False? </b> </p><p> If you see a different picture, it means you are in a new place. </p>","0","comp_question","","","","false","","","","","","","","","",""
"comp-q","113","728563","0.0-3.0-15.0-0.5-1.5","spark_pilot_2","7401","6","16","Female","","","","","","","29081.90000000596","<p> <b>Incorrect.</b> Lots of different images may show the same place. For example,  you may see three different images that all remind you that you are in outer space. </p>","0","comp_answer","","","","","","","","","","","","","",""
"comp-q","114","734842","0.0-3.0-15.0-0.6-0.6","spark_pilot_2","7401","6","16","Female","","","","","","","781","<p> <b> True or False? </b> </p><p> If you see a different picture, it means you are in a new place. </p>","1","comp_question","","","","true","","","","","","","","","",""
"comp-q","115","749139","0.0-3.0-15.0-0.6-1.6","spark_pilot_2","7401","6","16","Female","","","","","","","3058.0999999940395","<p> <b> That's right! </b> Lots of different images may show the same place. For example,  you may see three different images that all remind you that you are in outer space. </p>","0","comp_answer","","","","","","","","","","","","","",""
"learning-instructions","116","773906","0.0-3.0-16.0-0.0","spark_pilot_2","7401","6","16","Female","","","","","","","14905","<p> Good job. Remember to do your best because the amount of treasure you earn will be converted into bonus money. </p>
            <p> It’s time to start the real game! </p>","","instructions","","","","","","","","","","","","","",""
"learning-instructions","117","779522","0.0-4.0-0.0-0.0","spark_pilot_2","7401","6","16","Female","","","","","","","2831.0999999940395","<p> This time you are searching for treasure in the <b>canyon</b>.</p>","","instructions","","","","","","","","","","","","","",""
"learning-instructions","118","818626","0.0-4.0-0.0-0.1","spark_pilot_2","7401","6","16","Female","","","","","","","21784.5","<p><b>New</b> animals with <b>new</b> treasure chests live here. You need to explore to discover where the animal with the best treasure chest is.</p>
                    <p> Like before, once you figure out which animal has the chest with the most treasure, you should try to get to that animal and select that chest! </p>","","instructions","","","","","","","","","","","","","",""
"learning-instructions","119","837882","0.0-4.0-1.0-0.0","spark_pilot_2","7401","6","16","Female","","","","","","","4520.79999999702","<p> Remember, when you see a picture of the place, use the up and down keys to <b>find an animal</b>.</p>
            <p> When you encounter an animal, you should use the left and right keys to <b>select a treasure chest</b>.</p>
            <p> Don't forget to look out for the robber! </p>","","instructions","","","","","","","","","","","","","",""
"revaluation","120","843908","0.0-4.0-2.0-0.0","spark_pilot_2","7401","6","16","Female","","false","","","","","[1239.7999999970198,705.4000000059605]","./assets/img/canyon/memory/32.jpg","[""ArrowUp"",""ArrowRight""]","value training","canyon","10","{""ArrowUp,ArrowLeft"":23,""ArrowUp,ArrowRight"":10,""ArrowDown,ArrowLeft"":8,""ArrowDown,ArrowRight"":30}","false","ArrowUp,ArrowRight","false","","","revaluation","1","0","","",""
"html-keyboard-response","121","844419","0.0-4.0-2.0-1.0","spark_pilot_2","7401","6","16","Female","","","","","","","null","<div style=""font-size:60px;"">+</div>","null","fixation","","","","","","","","","","","1","","",""
"revaluation","122","850445","0.0-4.0-2.0-0.1","spark_pilot_2","7401","6","16","Female","","false","","","","","[1123.199999988079,479.3999999910593]","./assets/img/canyon/memory/11.jpg","[""ArrowUp"",""ArrowRight""]","value training","canyon","10","{""ArrowUp,ArrowLeft"":23,""ArrowUp,ArrowRight"":10,""ArrowDown,ArrowLeft"":8,""ArrowDown,ArrowRight"":30}","false","ArrowUp,ArrowRight","false","","","revaluation","1","2","","",""
"html-keyboard-response","123","850951","0.0-4.0-2.0-1.1","spark_pilot_2","7401","6","16","Female","","","","","","","null","<div style=""font-size:60px;"">+</div>","null","fixation","","","","","","","","","","","3","","",""
"revaluation","124","856977","0.0-4.0-2.0-0.2","spark_pilot_2","7401","6","16","Female","","false","","","","","[537,409.40000000596046]","./assets/img/canyon/memory/36.jpg","[""ArrowUp"",""ArrowLeft""]","value training","canyon","23","{""ArrowUp,ArrowLeft"":23,""ArrowUp,ArrowRight"":10,""ArrowDown,ArrowLeft"":8,""ArrowDown,ArrowRight"":30}","false","ArrowUp,ArrowLeft","false","","","revaluation","1","4","","",""
"html-keyboard-response","125","857486","0.0-4.0-2.0-1.2","spark_pilot_2","7401","6","16","Female","","","","","","","null","<div style=""font-size:60px;"">+</div>","null","fixation","","","","","","","","","","","5","","",""
"revaluation","126","861509","0.0-4.0-2.0-0.3","spark_pilot_2","7401","6","16","Female","","false","","","","","[65.90000000596046]","./assets/img/canyon/catch/3.jpg","[""ArrowUp""]","value training","canyon","-10","{""ArrowUp,ArrowLeft"":23,""ArrowUp,ArrowRight"":10,""ArrowDown,ArrowLeft"":8,""ArrowDown,ArrowRight"":30}","false","ArrowUp","true","","","revaluation","1","6","","",""
"html-keyboard-response","127","862019","0.0-4.0-2.0-1.3","spark_pilot_2","7401","6","16","Female","","","","","","","null","<div style=""font-size:60px;"">+</div>","null","fixation","","","","","","","","","","","7","","",""
"revaluation","128","868027","0.0-4.0-2.0-0.4","spark_pilot_2","7401","6","16","Female","","false","","","","","[1078.2999999970198,922.0999999940395]","./assets/img/canyon/memory/22.jpg","[""ArrowUp"",""ArrowLeft""]","value training","canyon","23","{""ArrowUp,ArrowLeft"":23,""ArrowUp,ArrowRight"":10,""ArrowDown,ArrowLeft"":8,""ArrowDown,ArrowRight"":30}","false","ArrowUp,ArrowLeft","false","","","revaluation","1","8","","",""
"html-keyboard-response","129","868530","0.0-4.0-2.0-1.4","spark_pilot_2","7401","6","16","Female","","","","","","","null","<div style=""font-size:60px;"">+</div>","null","fixation","","","","","","","","","","","9","","",""
"revaluation","130","874539","0.0-4.0-2.0-0.5","spark_pilot_2","7401","6","16","Female","","false","","","","","[540.4000000059605,883.0999999940395]","./assets/img/canyon/memory/38.jpg","[""ArrowUp"",""ArrowLeft""]","value training","canyon","23","{""ArrowUp,ArrowLeft"":23,""ArrowUp,ArrowRight"":10,""ArrowDown,ArrowLeft"":8,""ArrowDown,ArrowRight"":30}","false","ArrowUp,ArrowLeft","false","","","revaluation","1","10","","",""
"html-keyboard-response","131","875041","0.0-4.0-2.0-1.5","spark_pilot_2","7401","6","16","Female","","","","","","","null","<div style=""font-size:60px;"">+</div>","null","fixation","","","","","","","","","","","11","","",""
"revaluation","132","881049","0.0-4.0-2.0-0.6","spark_pilot_2","7401","6","16","Female","","false","","","","","[560.2999999970198,908.5]","./assets/img/canyon/memory/9.jpg","[""ArrowUp"",""ArrowLeft""]","value training","canyon","23","{""ArrowUp,ArrowLeft"":23,""ArrowUp,ArrowRight"":10,""ArrowDown,ArrowLeft"":8,""ArrowDown,ArrowRight"":30}","false","ArrowUp,ArrowLeft","false","","","revaluation","1","12","","",""
"html-keyboard-response","133","881550","0.0-4.0-2.0-1.6","spark_pilot_2","7401","6","16","Female","","","","","","","null","<div style=""font-size:60px;"">+</div>","null","fixation","","","","","","","","","","","13","","",""
"revaluation","134","887558","0.0-4.0-2.0-0.7","spark_pilot_2","7401","6","16","Female","","false","","","","","[1199.5999999940395,694.8000000119209]","./assets/img/canyon/memory/36.jpg","[""ArrowUp"",""ArrowLeft""]","value training","canyon","23","{""ArrowUp,ArrowLeft"":23,""ArrowUp,ArrowRight"":10,""ArrowDown,ArrowLeft"":8,""ArrowDown,ArrowRight"":30}","false","ArrowUp,ArrowLeft","false","","","revaluation","1","14","","",""
"html-keyboard-response","135","888060","0.0-4.0-2.0-1.7","spark_pilot_2","7401","6","16","Female","","","","","","","null","<div style=""font-size:60px;"">+</div>","null","fixation","","","","","","","","","","","15","","",""
"revaluation","136","894069","0.0-4.0-2.0-0.8","spark_pilot_2","7401","6","16","Female","","false","","","","","[508.70000000298023,544.9000000059605]","./assets/img/canyon/memory/39.jpg","[""ArrowUp"",""ArrowLeft""]","value training","canyon","23","{""ArrowUp,ArrowLeft"":23,""ArrowUp,ArrowRight"":10,""ArrowDown,ArrowLeft"":8,""ArrowDown,ArrowRight"":30}","false","ArrowUp,ArrowLeft","false","","","revaluation","1","16","","",""
"html-keyboard-response","137","894571","0.0-4.0-2.0-1.8","spark_pilot_2","7401","6","16","Female","","","","","","","null","<div style=""font-size:60px;"">+</div>","null","fixation","","","","","","","","","","","17","","",""
"revaluation","138","900579","0.0-4.0-2.0-0.9","spark_pilot_2","7401","6","16","Female","","false","","","","","[507.70000000298023,499]","./assets/img/canyon/memory/39.jpg","[""ArrowUp"",""ArrowLeft""]","value training","canyon","23","{""ArrowUp,ArrowLeft"":23,""ArrowUp,ArrowRight"":10,""ArrowDown,ArrowLeft"":8,""ArrowDown,ArrowRight"":30}","false","ArrowUp,ArrowLeft","false","","","revaluation","1","18","","",""
"html-keyboard-response","139","901081","0.0-4.0-2.0-1.9","spark_pilot_2","7401","6","16","Female","","","","","","","null","<div style=""font-size:60px;"">+</div>","null","fixation","","","","","","","","","","","19","","",""
"revaluation","140","907097","0.0-4.0-2.0-0.10","spark_pilot_2","7401","6","16","Female","","false","","","","","[472.5,445.29999999701977]","./assets/img/canyon/memory/11.jpg","[""ArrowUp"",""ArrowLeft""]","value training","canyon","23","{""ArrowUp,ArrowLeft"":23,""ArrowUp,ArrowRight"":10,""ArrowDown,ArrowLeft"":8,""ArrowDown,ArrowRight"":30}","false","ArrowUp,ArrowLeft","false","","","revaluation","1","20","","",""
"html-keyboard-response","141","907599","0.0-4.0-2.0-1.10","spark_pilot_2","7401","6","16","Female","","","","","","","null","<div style=""font-size:60px;"">+</div>","null","fixation","","","","","","","","","","","21","","",""
"revaluation","142","913608","0.0-4.0-2.0-0.11","spark_pilot_2","7401","6","16","Female","","false","","","","","[464,566.5]","./assets/img/canyon/memory/41.jpg","[""ArrowUp"",""ArrowLeft""]","value training","canyon","23","{""ArrowUp,ArrowLeft"":23,""ArrowUp,ArrowRight"":10,""ArrowDown,ArrowLeft"":8,""ArrowDown,ArrowRight"":30}","false","ArrowUp,ArrowLeft","false","","","revaluation","1","22","","",""
"html-keyboard-response","143","914109","0.0-4.0-2.0-1.11","spark_pilot_2","7401","6","16","Female","","","","","","","null","<div style=""font-size:60px;"">+</div>","null","fixation","","","","","","","","","","","23","","",""
"revaluation","144","920117","0.0-4.0-2.0-0.12","spark_pilot_2","7401","6","16","Female","","false","","","","","[484.19999998807907,520.9000000059605]","./assets/img/canyon/memory/13.jpg","[""ArrowUp"",""ArrowLeft""]","value training","canyon","23","{""ArrowUp,ArrowLeft"":23,""ArrowUp,ArrowRight"":10,""ArrowDown,ArrowLeft"":8,""ArrowDown,ArrowRight"":30}","false","ArrowUp,ArrowLeft","false","","","revaluation","1","24","","",""
"html-keyboard-response","145","920619","0.0-4.0-2.0-1.12","spark_pilot_2","7401","6","16","Female","","","","","","","null","<div style=""font-size:60px;"">+</div>","null","fixation","","","","","","","","","","","25","","",""
"revaluation","146","926628","0.0-4.0-2.0-0.13","spark_pilot_2","7401","6","16","Female","","false","","","","","[1067.2999999970198,578.2000000029802]","./assets/img/canyon/memory/25.jpg","[""ArrowUp"",""ArrowLeft""]","value training","canyon","23","{""ArrowUp,ArrowLeft"":23,""ArrowUp,ArrowRight"":10,""ArrowDown,ArrowLeft"":8,""ArrowDown,ArrowRight"":30}","false","ArrowUp,ArrowLeft","false","","","revaluation","1","26","","",""
"html-keyboard-response","147","927130","0.0-4.0-2.0-1.13","spark_pilot_2","7401","6","16","Female","","","","","","","null","<div style=""font-size:60px;"">+</div>","null","fixation","","","","","","","","","","","27","","",""
"revaluation","148","933138","0.0-4.0-2.0-0.14","spark_pilot_2","7401","6","16","Female","","false","","","","","[703.8000000119209,588]","./assets/img/canyon/memory/23.jpg","[""ArrowUp"",""ArrowLeft""]","value training","canyon","23","{""ArrowUp,ArrowLeft"":23,""ArrowUp,ArrowRight"":10,""ArrowDown,ArrowLeft"":8,""ArrowDown,ArrowRight"":30}","false","ArrowUp,ArrowLeft","false","","","revaluation","1","28","","",""
"html-keyboard-response","149","933640","0.0-4.0-2.0-1.14","spark_pilot_2","7401","6","16","Female","","","","","","","null","<div style=""font-size:60px;"">+</div>","null","fixation","","","","","","","","","","","29","","",""
"revaluation","150","939647","0.0-4.0-2.0-0.15","spark_pilot_2","7401","6","16","Female","","false","","","","","[879,510.70000000298023]","./assets/img/canyon/memory/8.jpg","[""ArrowUp"",""ArrowLeft""]","value training","canyon","23","{""ArrowUp,ArrowLeft"":23,""ArrowUp,ArrowRight"":10,""ArrowDown,ArrowLeft"":8,""ArrowDown,ArrowRight"":30}","false","ArrowUp,ArrowLeft","false","","","revaluation","1","30","","",""
"html-keyboard-response","151","940149","0.0-4.0-2.0-1.15","spark_pilot_2","7401","6","16","Female","","","","","","","null","<div style=""font-size:60px;"">+</div>","null","fixation","","","","","","","","","","","31","","",""
"revaluation","152","946160","0.0-4.0-2.0-0.16","spark_pilot_2","7401","6","16","Female","","false","","","","","[964.3999999910593,573.7999999970198]","./assets/img/canyon/memory/3.jpg","[""ArrowUp"",""ArrowLeft""]","value training","canyon","23","{""ArrowUp,ArrowLeft"":23,""ArrowUp,ArrowRight"":10,""ArrowDown,ArrowLeft"":8,""ArrowDown,ArrowRight"":30}","false","ArrowUp,ArrowLeft","false","","","revaluation","1","32","","",""
"html-keyboard-response","153","946661","0.0-4.0-2.0-1.16","spark_pilot_2","7401","6","16","Female","","","","","","","null","<div style=""font-size:60px;"">+</div>","null","fixation","","","","","","","","","","","33","","",""
"revaluation","154","952669","0.0-4.0-2.0-0.17","spark_pilot_2","7401","6","16","Female","","false","","","","","[513.2999999970198,697.0999999940395]","./assets/img/canyon/memory/2.jpg","[""ArrowUp"",""ArrowLeft""]","value training","canyon","23","{""ArrowUp,ArrowLeft"":23,""ArrowUp,ArrowRight"":10,""ArrowDown,ArrowLeft"":8,""ArrowDown,ArrowRight"":30}","false","ArrowUp,ArrowLeft","false","","","revaluation","1","34","","",""
"html-keyboard-response","155","953176","0.0-4.0-2.0-1.17","spark_pilot_2","7401","6","16","Female","","","","","","","null","<div style=""font-size:60px;"">+</div>","null","fixation","","","","","","","","","","","35","","",""
"revaluation","156","957183","0.0-4.0-2.0-0.18","spark_pilot_2","7401","6","16","Female","","false","","","","","[490.29999999701977]","./assets/img/canyon/catch/4.jpg","[""ArrowUp""]","value training","canyon","-10","{""ArrowUp,ArrowLeft"":23,""ArrowUp,ArrowRight"":10,""ArrowDown,ArrowLeft"":8,""ArrowDown,ArrowRight"":30}","false","ArrowUp","true","","","revaluation","1","36","","",""
"html-keyboard-response","157","957685","0.0-4.0-2.0-1.18","spark_pilot_2","7401","6","16","Female","","","","","","","null","<div style=""font-size:60px;"">+</div>","null","fixation","","","","","","","","","","","37","","",""
"revaluation","158","963691","0.0-4.0-2.0-0.19","spark_pilot_2","7401","6","16","Female","","false","","","","","[675.6999999880791,555.2999999970198]","./assets/img/canyon/memory/41.jpg","[""ArrowUp"",""ArrowLeft""]","value training","canyon","23","{""ArrowUp,ArrowLeft"":23,""ArrowUp,ArrowRight"":10,""ArrowDown,ArrowLeft"":8,""ArrowDown,ArrowRight"":30}","false","ArrowUp,ArrowLeft","false","","","revaluation","1","38","","",""
"html-keyboard-response","159","964192","0.0-4.0-2.0-1.19","spark_pilot_2","7401","6","16","Female","","","","","","","null","<div style=""font-size:60px;"">+</div>","null","fixation","","","","","","","","","","","39","","",""
"revaluation","160","970199","0.0-4.0-2.0-0.20","spark_pilot_2","7401","6","16","Female","","false","","","","","[1361.4000000059605,925.7000000029802]","./assets/img/canyon/memory/2.jpg","[""ArrowUp"",""ArrowLeft""]","value training","canyon","23","{""ArrowUp,ArrowLeft"":23,""ArrowUp,ArrowRight"":10,""ArrowDown,ArrowLeft"":8,""ArrowDown,ArrowRight"":30}","false","ArrowUp,ArrowLeft","false","","","revaluation","1","40","","",""
"html-keyboard-response","161","970700","0.0-4.0-2.0-1.20","spark_pilot_2","7401","6","16","Female","","","","","","","null","<div style=""font-size:60px;"">+</div>","null","fixation","","","","","","","","","","","41","","",""
"revaluation","162","976710","0.0-4.0-2.0-0.21","spark_pilot_2","7401","6","16","Female","","false","","","","","[881.5999999940395,648.0999999940395]","./assets/img/canyon/memory/8.jpg","[""ArrowUp"",""ArrowLeft""]","value training","canyon","23","{""ArrowUp,ArrowLeft"":23,""ArrowUp,ArrowRight"":10,""ArrowDown,ArrowLeft"":8,""ArrowDown,ArrowRight"":30}","false","ArrowUp,ArrowLeft","false","","","revaluation","1","42","","",""
"html-keyboard-response","163","977212","0.0-4.0-2.0-1.21","spark_pilot_2","7401","6","16","Female","","","","","","","null","<div style=""font-size:60px;"">+</div>","null","fixation","","","","","","","","","","","43","","",""
"revaluation","164","983221","0.0-4.0-2.0-0.22","spark_pilot_2","7401","6","16","Female","","false","","","","","[956.7000000029802,609.5999999940395]","./assets/img/canyon/memory/24.jpg","[""ArrowUp"",""ArrowLeft""]","value training","canyon","23","{""ArrowUp,ArrowLeft"":23,""ArrowUp,ArrowRight"":10,""ArrowDown,ArrowLeft"":8,""ArrowDown,ArrowRight"":30}","false","ArrowUp,ArrowLeft","false","","","revaluation","1","44","","",""
"html-keyboard-response","165","983723","0.0-4.0-2.0-1.22","spark_pilot_2","7401","6","16","Female","","","","","","","null","<div style=""font-size:60px;"">+</div>","null","fixation","","","","","","","","","","","45","","",""
"revaluation","166","989732","0.0-4.0-2.0-0.23","spark_pilot_2","7401","6","16","Female","","false","","","","","[939.2999999970198,739]","./assets/img/canyon/memory/23.jpg","[""ArrowUp"",""ArrowLeft""]","value training","canyon","23","{""ArrowUp,ArrowLeft"":23,""ArrowUp,ArrowRight"":10,""ArrowDown,ArrowLeft"":8,""ArrowDown,ArrowRight"":30}","false","ArrowUp,ArrowLeft","false","","","revaluation","1","46","","",""
"html-keyboard-response","167","990233","0.0-4.0-2.0-1.23","spark_pilot_2","7401","6","16","Female","","","","","","","null","<div style=""font-size:60px;"">+</div>","null","fixation","","","","","","","","","","","47","","",""
"revaluation","168","996242","0.0-4.0-2.0-0.24","spark_pilot_2","7401","6","16","Female","","false","","","","","[807.5,772.2000000029802]","./assets/img/canyon/memory/35.jpg","[""ArrowUp"",""ArrowLeft""]","value training","canyon","23","{""ArrowUp,ArrowLeft"":23,""ArrowUp,ArrowRight"":10,""ArrowDown,ArrowLeft"":8,""ArrowDown,ArrowRight"":30}","false","ArrowUp,ArrowLeft","false","","","revaluation","1","48","","",""
"html-keyboard-response","169","996744","0.0-4.0-2.0-1.24","spark_pilot_2","7401","6","16","Female","","","","","","","null","<div style=""font-size:60px;"">+</div>","null","fixation","","","","","","","","","","","49","","",""
"revaluation","170","1002751","0.0-4.0-2.0-0.25","spark_pilot_2","7401","6","16","Female","","false","","","","","[590.5,790.1999999880791]","./assets/img/canyon/memory/20.jpg","[""ArrowUp"",""ArrowLeft""]","value training","canyon","23","{""ArrowUp,ArrowLeft"":23,""ArrowUp,ArrowRight"":10,""ArrowDown,ArrowLeft"":8,""ArrowDown,ArrowRight"":30}","false","ArrowUp,ArrowLeft","false","","","revaluation","1","50","","",""
"html-keyboard-response","171","1003254","0.0-4.0-2.0-1.25","spark_pilot_2","7401","6","16","Female","","","","","","","null","<div style=""font-size:60px;"">+</div>","null","fixation","","","","","","","","","","","51","","",""
"revaluation","172","1009261","0.0-4.0-2.0-0.26","spark_pilot_2","7401","6","16","Female","","false","","","","","[940.8999999910593,953]","./assets/img/canyon/memory/29.jpg","[""ArrowUp"",""ArrowLeft""]","value training","canyon","23","{""ArrowUp,ArrowLeft"":23,""ArrowUp,ArrowRight"":10,""ArrowDown,ArrowLeft"":8,""ArrowDown,ArrowRight"":30}","false","ArrowUp,ArrowLeft","false","","","revaluation","1","52","","",""
"html-keyboard-response","173","1009763","0.0-4.0-2.0-1.26","spark_pilot_2","7401","6","16","Female","","","","","","","null","<div style=""font-size:60px;"">+</div>","null","fixation","","","","","","","","","","","53","","",""
"revaluation","174","1013769","0.0-4.0-2.0-0.27","spark_pilot_2","7401","6","16","Female","","false","","","","","[1228]","./assets/img/canyon/catch/6.jpg","[""spaceBar""]","value training","canyon","0","{""ArrowUp,ArrowLeft"":23,""ArrowUp,ArrowRight"":10,""ArrowDown,ArrowLeft"":8,""ArrowDown,ArrowRight"":30}","true","spaceBar","true","","","revaluation","1","54","","",""
"html-keyboard-response","175","1014273","0.0-4.0-2.0-1.27","spark_pilot_2","7401","6","16","Female","","","","","","","null","<div style=""font-size:60px;"">+</div>","null","fixation","","","","","","","","","","","55","","",""
"revaluation","176","1018281","0.0-4.0-2.0-0.28","spark_pilot_2","7401","6","16","Female","","false","","","","","[1840.199999988079]","./assets/img/canyon/catch/1.jpg","[""spaceBar""]","value training","canyon","0","{""ArrowUp,ArrowLeft"":23,""ArrowUp,ArrowRight"":10,""ArrowDown,ArrowLeft"":8,""ArrowDown,ArrowRight"":30}","true","spaceBar","true","","","revaluation","1","56","","",""
"html-keyboard-response","177","1018784","0.0-4.0-2.0-1.28","spark_pilot_2","7401","6","16","Female","","","","","","","null","<div style=""font-size:60px;"">+</div>","null","fixation","","","","","","","","","","","57","","",""
"revaluation","178","1024794","0.0-4.0-2.0-0.29","spark_pilot_2","7401","6","16","Female","","false","","","","","[1382.7999999970198,1245]","./assets/img/canyon/memory/9.jpg","[""ArrowUp"",""ArrowLeft""]","value training","canyon","23","{""ArrowUp,ArrowLeft"":23,""ArrowUp,ArrowRight"":10,""ArrowDown,ArrowLeft"":8,""ArrowDown,ArrowRight"":30}","false","ArrowUp,ArrowLeft","false","","","revaluation","1","58","","",""
"html-keyboard-response","179","1025295","0.0-4.0-2.0-1.29","spark_pilot_2","7401","6","16","Female","","","","","","","null","<div style=""font-size:60px;"">+</div>","null","fixation","","","","","","","","","","","59","","",""
"revaluation","180","1031305","0.0-4.0-2.0-0.30","spark_pilot_2","7401","6","16","Female","","false","","","","","[1033.7000000029802,685.6999999880791]","./assets/img/canyon/memory/21.jpg","[""ArrowUp"",""ArrowLeft""]","value training","canyon","23","{""ArrowUp,ArrowLeft"":23,""ArrowUp,ArrowRight"":10,""ArrowDown,ArrowLeft"":8,""ArrowDown,ArrowRight"":30}","false","ArrowUp,ArrowLeft","false","","","revaluation","1","60","","",""
"html-keyboard-response","181","1031806","0.0-4.0-2.0-1.30","spark_pilot_2","7401","6","16","Female","","","","","","","null","<div style=""font-size:60px;"">+</div>","null","fixation","","","","","","","","","","","61","","",""
"revaluation","182","1037815","0.0-4.0-2.0-0.31","spark_pilot_2","7401","6","16","Female","","false","","","","","[1017.2000000029802,799.7000000029802]","./assets/img/canyon/memory/29.jpg","[""ArrowUp"",""ArrowLeft""]","value training","canyon","23","{""ArrowUp,ArrowLeft"":23,""ArrowUp,ArrowRight"":10,""ArrowDown,ArrowLeft"":8,""ArrowDown,ArrowRight"":30}","false","ArrowUp,ArrowLeft","false","","","revaluation","1","62","","",""
"html-keyboard-response","183","1038316","0.0-4.0-2.0-1.31","spark_pilot_2","7401","6","16","Female","","","","","","","null","<div style=""font-size:60px;"">+</div>","null","fixation","","","","","","","","","","","63","","",""
"revaluation","184","1044325","0.0-4.0-2.0-0.32","spark_pilot_2","7401","6","16","Female","","false","","","","","[1101.6000000089407,970]","./assets/img/canyon/memory/25.jpg","[""ArrowUp"",""ArrowLeft""]","value training","canyon","23","{""ArrowUp,ArrowLeft"":23,""ArrowUp,ArrowRight"":10,""ArrowDown,ArrowLeft"":8,""ArrowDown,ArrowRight"":30}","false","ArrowUp,ArrowLeft","false","","","revaluation","1","64","","",""
"html-keyboard-response","185","1044827","0.0-4.0-2.0-1.32","spark_pilot_2","7401","6","16","Female","","","","","","","null","<div style=""font-size:60px;"">+</div>","null","fixation","","","","","","","","","","","65","","",""
"revaluation","186","1048836","0.0-4.0-2.0-0.33","spark_pilot_2","7401","6","16","Female","","false","","","","","[1379.4000000059605]","./assets/img/canyon/catch/2.jpg","[""spaceBar""]","value training","canyon","0","{""ArrowUp,ArrowLeft"":23,""ArrowUp,ArrowRight"":10,""ArrowDown,ArrowLeft"":8,""ArrowDown,ArrowRight"":30}","true","spaceBar","true","","","revaluation","1","66","","",""
"html-keyboard-response","187","1049338","0.0-4.0-2.0-1.33","spark_pilot_2","7401","6","16","Female","","","","","","","null","<div style=""font-size:60px;"">+</div>","null","fixation","","","","","","","","","","","67","","",""
"revaluation","188","1053351","0.0-4.0-2.0-0.34","spark_pilot_2","7401","6","16","Female","","true","","","","","[]","./assets/img/canyon/memory/22.jpg","[]","value training","canyon","-5","{""ArrowUp,ArrowLeft"":23,""ArrowUp,ArrowRight"":10,""ArrowDown,ArrowLeft"":8,""ArrowDown,ArrowRight"":30}","false","","false","","","revaluation","1","68","","",""
"html-keyboard-response","189","1053852","0.0-4.0-2.0-1.34","spark_pilot_2","7401","6","16","Female","","","","","","","null","<div style=""font-size:60px;"">+</div>","null","fixation","","","","","","","","","","","69","","",""
"revaluation","190","1059859","0.0-4.0-2.0-0.35","spark_pilot_2","7401","6","16","Female","","false","","","","","[1180.7999999970198,1281.2000000029802]","./assets/img/canyon/memory/3.jpg","[""ArrowUp"",""ArrowLeft""]","value training","canyon","23","{""ArrowUp,ArrowLeft"":23,""ArrowUp,ArrowRight"":10,""ArrowDown,ArrowLeft"":8,""ArrowDown,ArrowRight"":30}","false","ArrowUp,ArrowLeft","false","","","revaluation","1","70","","",""
"html-keyboard-response","191","1060362","0.0-4.0-2.0-1.35","spark_pilot_2","7401","6","16","Female","","","","","","","null","<div style=""font-size:60px;"">+</div>","null","fixation","","","","","","","","","","","71","","",""
"revaluation","192","1066371","0.0-4.0-2.0-0.36","spark_pilot_2","7401","6","16","Female","","false","","","","","[1060.2999999970198,571.8999999910593]","./assets/img/canyon/memory/20.jpg","[""ArrowUp"",""ArrowLeft""]","value training","canyon","23","{""ArrowUp,ArrowLeft"":23,""ArrowUp,ArrowRight"":10,""ArrowDown,ArrowLeft"":8,""ArrowDown,ArrowRight"":30}","false","ArrowUp,ArrowLeft","false","","","revaluation","1","72","","",""
"html-keyboard-response","193","1066872","0.0-4.0-2.0-1.36","spark_pilot_2","7401","6","16","Female","","","","","","","null","<div style=""font-size:60px;"">+</div>","null","fixation","","","","","","","","","","","73","","",""
"revaluation","194","1072880","0.0-4.0-2.0-0.37","spark_pilot_2","7401","6","16","Female","","false","","","","","[1657.0999999940395,1270]","./assets/img/canyon/memory/32.jpg","[""ArrowUp"",""ArrowLeft""]","value training","canyon","23","{""ArrowUp,ArrowLeft"":23,""ArrowUp,ArrowRight"":10,""ArrowDown,ArrowLeft"":8,""ArrowDown,ArrowRight"":30}","false","ArrowUp,ArrowLeft","false","","","revaluation","1","74","","",""
"html-keyboard-response","195","1073381","0.0-4.0-2.0-1.37","spark_pilot_2","7401","6","16","Female","","","","","","","null","<div style=""font-size:60px;"">+</div>","null","fixation","","","","","","","","","","","75","","",""
"revaluation","196","1079389","0.0-4.0-2.0-0.38","spark_pilot_2","7401","6","16","Female","","false","","","","","[601.0999999940395,568.7999999970198]","./assets/img/canyon/memory/7.jpg","[""ArrowDown"",""ArrowRight""]","value training","canyon","30","{""ArrowUp,ArrowLeft"":23,""ArrowUp,ArrowRight"":10,""ArrowDown,ArrowLeft"":8,""ArrowDown,ArrowRight"":30}","true","ArrowDown,ArrowRight","false","","","revaluation","1","76","","",""
"html-keyboard-response","197","1079890","0.0-4.0-2.0-1.38","spark_pilot_2","7401","6","16","Female","","","","","","","null","<div style=""font-size:60px;"">+</div>","null","fixation","","","","","","","","","","","77","","",""
"revaluation","198","1085899","0.0-4.0-2.0-0.39","spark_pilot_2","7401","6","16","Female","","false","","","","","[1047.2000000029802,803.1999999880791]","./assets/img/canyon/memory/35.jpg","[""ArrowDown"",""ArrowLeft""]","value training","canyon","8","{""ArrowUp,ArrowLeft"":23,""ArrowUp,ArrowRight"":10,""ArrowDown,ArrowLeft"":8,""ArrowDown,ArrowRight"":30}","false","ArrowDown,ArrowLeft","false","","","revaluation","1","78","","",""
"html-keyboard-response","199","1086401","0.0-4.0-2.0-1.39","spark_pilot_2","7401","6","16","Female","","","","","","","null","<div style=""font-size:60px;"">+</div>","null","fixation","","","","","","","","","","","79","","",""
"revaluation","200","1092411","0.0-4.0-2.0-0.40","spark_pilot_2","7401","6","16","Female","","false","","","","","[685.0999999940395,507.20000000298023]","./assets/img/canyon/memory/13.jpg","[""ArrowDown"",""ArrowRight""]","value training","canyon","30","{""ArrowUp,ArrowLeft"":23,""ArrowUp,ArrowRight"":10,""ArrowDown,ArrowLeft"":8,""ArrowDown,ArrowRight"":30}","true","ArrowDown,ArrowRight","false","","","revaluation","1","80","","",""
"html-keyboard-response","201","1092912","0.0-4.0-2.0-1.40","spark_pilot_2","7401","6","16","Female","","","","","","","null","<div style=""font-size:60px;"">+</div>","null","fixation","","","","","","","","","","","81","","",""
"revaluation","202","1096920","0.0-4.0-2.0-0.41","spark_pilot_2","7401","6","16","Female","","false","","","","","[561.2000000029802]","./assets/img/canyon/catch/5.jpg","[""ArrowDown""]","value training","canyon","-10","{""ArrowUp,ArrowLeft"":23,""ArrowUp,ArrowRight"":10,""ArrowDown,ArrowLeft"":8,""ArrowDown,ArrowRight"":30}","false","ArrowDown","true","","","revaluation","1","82","","",""
"html-keyboard-response","203","1097422","0.0-4.0-2.0-1.41","spark_pilot_2","7401","6","16","Female","","","","","","","null","<div style=""font-size:60px;"">+</div>","null","fixation","","","","","","","","","","","83","","",""
"revaluation","204","1103430","0.0-4.0-2.0-0.42","spark_pilot_2","7401","6","16","Female","","false","","","","","[1913.300000011921,712.5]","./assets/img/canyon/memory/7.jpg","[""ArrowDown"",""ArrowRight""]","value training","canyon","30","{""ArrowUp,ArrowLeft"":23,""ArrowUp,ArrowRight"":10,""ArrowDown,ArrowLeft"":8,""ArrowDown,ArrowRight"":30}","true","ArrowDown,ArrowRight","false","","","revaluation","1","84","","",""
"html-keyboard-response","205","1103932","0.0-4.0-2.0-1.42","spark_pilot_2","7401","6","16","Female","","","","","","","null","<div style=""font-size:60px;"">+</div>","null","fixation","","","","","","","","","","","85","","",""
"revaluation","206","1109940","0.0-4.0-2.0-0.43","spark_pilot_2","7401","6","16","Female","","false","","","","","[1909.7999999970198,546.3999999910593]","./assets/img/canyon/memory/24.jpg","[""ArrowDown"",""ArrowRight""]","value training","canyon","30","{""ArrowUp,ArrowLeft"":23,""ArrowUp,ArrowRight"":10,""ArrowDown,ArrowLeft"":8,""ArrowDown,ArrowRight"":30}","true","ArrowDown,ArrowRight","false","","","revaluation","1","86","","",""
"html-keyboard-response","207","1110442","0.0-4.0-2.0-1.43","spark_pilot_2","7401","6","16","Female","","","","","","","null","<div style=""font-size:60px;"">+</div>","null","fixation","","","","","","","","","","","87","","",""
"revaluation","208","1116450","0.0-4.0-2.0-0.44","spark_pilot_2","7401","6","16","Female","","false","","","","","[1108.5999999940395,516.4000000059605]","./assets/img/canyon/memory/18.jpg","[""ArrowDown"",""ArrowRight""]","value training","canyon","30","{""ArrowUp,ArrowLeft"":23,""ArrowUp,ArrowRight"":10,""ArrowDown,ArrowLeft"":8,""ArrowDown,ArrowRight"":30}","true","ArrowDown,ArrowRight","false","","","revaluation","1","88","","",""
"html-keyboard-response","209","1116951","0.0-4.0-2.0-1.44","spark_pilot_2","7401","6","16","Female","","","","","","","null","<div style=""font-size:60px;"">+</div>","null","fixation","","","","","","","","","","","89","","",""
"revaluation","210","1122961","0.0-4.0-2.0-0.45","spark_pilot_2","7401","6","16","Female","","false","","","","","[1185.0999999940395,477.6000000089407]","./assets/img/canyon/memory/21.jpg","[""ArrowDown"",""ArrowRight""]","value training","canyon","30","{""ArrowUp,ArrowLeft"":23,""ArrowUp,ArrowRight"":10,""ArrowDown,ArrowLeft"":8,""ArrowDown,ArrowRight"":30}","true","ArrowDown,ArrowRight","false","","","revaluation","1","90","","",""
"html-keyboard-response","211","1123475","0.0-4.0-2.0-1.45","spark_pilot_2","7401","6","16","Female","","","","","","","null","<div style=""font-size:60px;"">+</div>","null","fixation","","","","","","","","","","","91","","",""
"revaluation","212","1127482","0.0-4.0-2.0-0.46","spark_pilot_2","7401","6","16","Female","","false","","","","","[1635.199999988079]","./assets/img/canyon/catch/0.jpg","[""spaceBar""]","value training","canyon","0","{""ArrowUp,ArrowLeft"":23,""ArrowUp,ArrowRight"":10,""ArrowDown,ArrowLeft"":8,""ArrowDown,ArrowRight"":30}","true","spaceBar","true","","","revaluation","1","92","","",""
"html-keyboard-response","213","1127984","0.0-4.0-2.0-1.46","spark_pilot_2","7401","6","16","Female","","","","","","","null","<div style=""font-size:60px;"">+</div>","null","fixation","","","","","","","","","","","93","","",""
"revaluation","214","1131993","0.0-4.0-2.0-0.47","spark_pilot_2","7401","6","16","Female","","false","","","","","[920.9000000059605]","./assets/img/canyon/catch/7.jpg","[""spaceBar""]","value training","canyon","0","{""ArrowUp,ArrowLeft"":23,""ArrowUp,ArrowRight"":10,""ArrowDown,ArrowLeft"":8,""ArrowDown,ArrowRight"":30}","true","spaceBar","true","","","revaluation","1","94","","",""
"html-keyboard-response","215","1132494","0.0-4.0-2.0-1.47","spark_pilot_2","7401","6","16","Female","","","","","","","null","<div style=""font-size:60px;"">+</div>","null","fixation","","","","","","","","","","","95","","",""
"revaluation","216","1138502","0.0-4.0-2.0-0.48","spark_pilot_2","7401","6","16","Female","","false","","","","","[1520.800000011921,856.3999999910593]","./assets/img/canyon/memory/38.jpg","[""ArrowDown"",""ArrowRight""]","value training","canyon","30","{""ArrowUp,ArrowLeft"":23,""ArrowUp,ArrowRight"":10,""ArrowDown,ArrowLeft"":8,""ArrowDown,ArrowRight"":30}","true","ArrowDown,ArrowRight","false","","","revaluation","1","96","","",""
"html-keyboard-response","217","1139003","0.0-4.0-2.0-1.48","spark_pilot_2","7401","6","16","Female","","","","","","","null","<div style=""font-size:60px;"">+</div>","null","fixation","","","","","","","","","","","97","","",""
"revaluation","218","1145025","0.0-4.0-2.0-0.49","spark_pilot_2","7401","6","16","Female","","false","","","","","[1534,1310.6000000089407]","./assets/img/canyon/memory/18.jpg","[""ArrowDown"",""ArrowRight""]","value training","canyon","30","{""ArrowUp,ArrowLeft"":23,""ArrowUp,ArrowRight"":10,""ArrowDown,ArrowLeft"":8,""ArrowDown,ArrowRight"":30}","true","ArrowDown,ArrowRight","false","","","revaluation","1","98","","",""
"html-keyboard-response","219","1145526","0.0-4.0-2.0-1.49","spark_pilot_2","7401","6","16","Female","","","","","","","null","<div style=""font-size:60px;"">+</div>","null","fixation","","","","","","","","","","","99","","",""
"learning-instructions","220","1176148","0.0-4.0-3.0-0.0","spark_pilot_2","7401","6","16","Female","","","","","","","17708","<p> Now, you will travel with a friend who will choose whether you go up or down first. </p>
            <p> On these turns, you will just see the animal that they found. You will still get to choose which chest to search for treasure.</p>","","instructions","","","","","","","","","","","","","",""
"revaluation","221","1180174","0.0-4.0-4.0-0.0","spark_pilot_2","7401","6","16","Female","","false","","","","","[1806.9000000059605]","./assets/img/canyon/animals/giraffe.jpg","[""ArrowRight""]","revaluation","canyon","15","{""ArrowUp,ArrowLeft"":27,""ArrowUp,ArrowRight"":15,""ArrowDown,ArrowLeft"":21,""ArrowDown,ArrowRight"":7}","false","ArrowUp,ArrowRight","","","","revaluation","1","0","","",""
"html-keyboard-response","222","1180685","0.0-4.0-4.0-1.0","spark_pilot_2","7401","6","16","Female","","","","","","","null","<div style=""font-size:60px;"">+</div>","null","fixation","","","","","","","","","","","1","","",""
"revaluation","223","1184706","0.0-4.0-4.0-0.1","spark_pilot_2","7401","6","16","Female","","false","","","","","[1008.2999999970198]","./assets/img/canyon/animals/lion.jpg","[""ArrowLeft""]","revaluation","canyon","21","{""ArrowUp,ArrowLeft"":27,""ArrowUp,ArrowRight"":15,""ArrowDown,ArrowLeft"":21,""ArrowDown,ArrowRight"":7}","true","ArrowDown,ArrowLeft","","","","revaluation","1","2","","",""
"html-keyboard-response","224","1185220","0.0-4.0-4.0-1.1","spark_pilot_2","7401","6","16","Female","","","","","","","null","<div style=""font-size:60px;"">+</div>","null","fixation","","","","","","","","","","","3","","",""
"revaluation","225","1189229","0.0-4.0-4.0-0.2","spark_pilot_2","7401","6","16","Female","","false","","","","","[466.59999999403954]","./assets/img/canyon/animals/giraffe.jpg","[""ArrowLeft""]","revaluation","canyon","27","{""ArrowUp,ArrowLeft"":27,""ArrowUp,ArrowRight"":15,""ArrowDown,ArrowLeft"":21,""ArrowDown,ArrowRight"":7}","true","ArrowUp,ArrowLeft","","","","revaluation","1","4","","",""
"html-keyboard-response","226","1189731","0.0-4.0-4.0-1.2","spark_pilot_2","7401","6","16","Female","","","","","","","null","<div style=""font-size:60px;"">+</div>","null","fixation","","","","","","","","","","","5","","",""
"revaluation","227","1193739","0.0-4.0-4.0-0.3","spark_pilot_2","7401","6","16","Female","","false","","","","","[710.7000000029802]","./assets/img/canyon/animals/lion.jpg","[""ArrowLeft""]","revaluation","canyon","21","{""ArrowUp,ArrowLeft"":27,""ArrowUp,ArrowRight"":15,""ArrowDown,ArrowLeft"":21,""ArrowDown,ArrowRight"":7}","true","ArrowDown,ArrowLeft","","","","revaluation","1","6","","",""
"html-keyboard-response","228","1194241","0.0-4.0-4.0-1.3","spark_pilot_2","7401","6","16","Female","","","","","","","null","<div style=""font-size:60px;"">+</div>","null","fixation","","","","","","","","","","","7","","",""
"revaluation","229","1198248","0.0-4.0-4.0-0.4","spark_pilot_2","7401","6","16","Female","","false","","","","","[661.6999999880791]","./assets/img/canyon/animals/lion.jpg","[""ArrowLeft""]","revaluation","canyon","21","{""ArrowUp,ArrowLeft"":27,""ArrowUp,ArrowRight"":15,""ArrowDown,ArrowLeft"":21,""ArrowDown,ArrowRight"":7}","true","ArrowDown,ArrowLeft","","","","revaluation","1","8","","",""
"html-keyboard-response","230","1198751","0.0-4.0-4.0-1.4","spark_pilot_2","7401","6","16","Female","","","","","","","null","<div style=""font-size:60px;"">+</div>","null","fixation","","","","","","","","","","","9","","",""
"revaluation","231","1202759","0.0-4.0-4.0-0.5","spark_pilot_2","7401","6","16","Female","","false","","","","","[1199.1000000089407]","./assets/img/canyon/animals/giraffe.jpg","[""ArrowLeft""]","revaluation","canyon","27","{""ArrowUp,ArrowLeft"":27,""ArrowUp,ArrowRight"":15,""ArrowDown,ArrowLeft"":21,""ArrowDown,ArrowRight"":7}","true","ArrowUp,ArrowLeft","","","","revaluation","1","10","","",""
"html-keyboard-response","232","1203261","0.0-4.0-4.0-1.5","spark_pilot_2","7401","6","16","Female","","","","","","","null","<div style=""font-size:60px;"">+</div>","null","fixation","","","","","","","","","","","11","","",""
"revaluation","233","1207269","0.0-4.0-4.0-0.6","spark_pilot_2","7401","6","16","Female","","false","","","","","[756.9000000059605]","./assets/img/canyon/animals/lion.jpg","[""ArrowLeft""]","revaluation","canyon","21","{""ArrowUp,ArrowLeft"":27,""ArrowUp,ArrowRight"":15,""ArrowDown,ArrowLeft"":21,""ArrowDown,ArrowRight"":7}","true","ArrowDown,ArrowLeft","","","","revaluation","1","12","","",""
"html-keyboard-response","234","1207771","0.0-4.0-4.0-1.6","spark_pilot_2","7401","6","16","Female","","","","","","","null","<div style=""font-size:60px;"">+</div>","null","fixation","","","","","","","","","","","13","","",""
"revaluation","235","1211777","0.0-4.0-4.0-0.7","spark_pilot_2","7401","6","16","Female","","false","","","","","[652.9000000059605]","./assets/img/canyon/animals/lion.jpg","[""ArrowLeft""]","revaluation","canyon","21","{""ArrowUp,ArrowLeft"":27,""ArrowUp,ArrowRight"":15,""ArrowDown,ArrowLeft"":21,""ArrowDown,ArrowRight"":7}","true","ArrowDown,ArrowLeft","","","","revaluation","1","14","","",""
"html-keyboard-response","236","1212279","0.0-4.0-4.0-1.7","spark_pilot_2","7401","6","16","Female","","","","","","","null","<div style=""font-size:60px;"">+</div>","null","fixation","","","","","","","","","","","15","","",""
"revaluation","237","1216287","0.0-4.0-4.0-0.8","spark_pilot_2","7401","6","16","Female","","false","","","","","[1135.5]","./assets/img/canyon/animals/giraffe.jpg","[""ArrowLeft""]","revaluation","canyon","27","{""ArrowUp,ArrowLeft"":27,""ArrowUp,ArrowRight"":15,""ArrowDown,ArrowLeft"":21,""ArrowDown,ArrowRight"":7}","true","ArrowUp,ArrowLeft","","","","revaluation","1","16","","",""
"html-keyboard-response","238","1216790","0.0-4.0-4.0-1.8","spark_pilot_2","7401","6","16","Female","","","","","","","null","<div style=""font-size:60px;"">+</div>","null","fixation","","","","","","","","","","","17","","",""
"revaluation","239","1220798","0.0-4.0-4.0-0.9","spark_pilot_2","7401","6","16","Female","","false","","","","","[779.1999999880791]","./assets/img/canyon/animals/lion.jpg","[""ArrowLeft""]","revaluation","canyon","21","{""ArrowUp,ArrowLeft"":27,""ArrowUp,ArrowRight"":15,""ArrowDown,ArrowLeft"":21,""ArrowDown,ArrowRight"":7}","true","ArrowDown,ArrowLeft","","","","revaluation","1","18","","",""
"html-keyboard-response","240","1221299","0.0-4.0-4.0-1.9","spark_pilot_2","7401","6","16","Female","","","","","","","null","<div style=""font-size:60px;"">+</div>","null","fixation","","","","","","","","","","","19","","",""
"revaluation","241","1225306","0.0-4.0-4.0-0.10","spark_pilot_2","7401","6","16","Female","","false","","","","","[867.7000000029802]","./assets/img/canyon/animals/giraffe.jpg","[""ArrowLeft""]","revaluation","canyon","27","{""ArrowUp,ArrowLeft"":27,""ArrowUp,ArrowRight"":15,""ArrowDown,ArrowLeft"":21,""ArrowDown,ArrowRight"":7}","true","ArrowUp,ArrowLeft","","","","revaluation","1","20","","",""
"html-keyboard-response","242","1225807","0.0-4.0-4.0-1.10","spark_pilot_2","7401","6","16","Female","","","","","","","null","<div style=""font-size:60px;"">+</div>","null","fixation","","","","","","","","","","","21","","",""
"revaluation","243","1229813","0.0-4.0-4.0-0.11","spark_pilot_2","7401","6","16","Female","","false","","","","","[1025.5999999940395]","./assets/img/canyon/animals/lion.jpg","[""ArrowLeft""]","revaluation","canyon","21","{""ArrowUp,ArrowLeft"":27,""ArrowUp,ArrowRight"":15,""ArrowDown,ArrowLeft"":21,""ArrowDown,ArrowRight"":7}","true","ArrowDown,ArrowLeft","","","","revaluation","1","22","","",""
"html-keyboard-response","244","1230315","0.0-4.0-4.0-1.11","spark_pilot_2","7401","6","16","Female","","","","","","","null","<div style=""font-size:60px;"">+</div>","null","fixation","","","","","","","","","","","23","","",""
"revaluation","245","1234324","0.0-4.0-4.0-0.12","spark_pilot_2","7401","6","16","Female","","false","","","","","[862]","./assets/img/canyon/animals/giraffe.jpg","[""ArrowLeft""]","revaluation","canyon","27","{""ArrowUp,ArrowLeft"":27,""ArrowUp,ArrowRight"":15,""ArrowDown,ArrowLeft"":21,""ArrowDown,ArrowRight"":7}","true","ArrowUp,ArrowLeft","","","","revaluation","1","24","","",""
"html-keyboard-response","246","1234825","0.0-4.0-4.0-1.12","spark_pilot_2","7401","6","16","Female","","","","","","","null","<div style=""font-size:60px;"">+</div>","null","fixation","","","","","","","","","","","25","","",""
"revaluation","247","1238832","0.0-4.0-4.0-0.13","spark_pilot_2","7401","6","16","Female","","false","","","","","[605.8999999910593]","./assets/img/canyon/animals/lion.jpg","[""ArrowLeft""]","revaluation","canyon","21","{""ArrowUp,ArrowLeft"":27,""ArrowUp,ArrowRight"":15,""ArrowDown,ArrowLeft"":21,""ArrowDown,ArrowRight"":7}","true","ArrowDown,ArrowLeft","","","","revaluation","1","26","","",""
"html-keyboard-response","248","1239334","0.0-4.0-4.0-1.13","spark_pilot_2","7401","6","16","Female","","","","","","","null","<div style=""font-size:60px;"">+</div>","null","fixation","","","","","","","","","","","27","","",""
"revaluation","249","1243343","0.0-4.0-4.0-0.14","spark_pilot_2","7401","6","16","Female","","false","","","","","[920]","./assets/img/canyon/animals/giraffe.jpg","[""ArrowLeft""]","revaluation","canyon","27","{""ArrowUp,ArrowLeft"":27,""ArrowUp,ArrowRight"":15,""ArrowDown,ArrowLeft"":21,""ArrowDown,ArrowRight"":7}","true","ArrowUp,ArrowLeft","","","","revaluation","1","28","","",""
"html-keyboard-response","250","1243844","0.0-4.0-4.0-1.14","spark_pilot_2","7401","6","16","Female","","","","","","","null","<div style=""font-size:60px;"">+</div>","null","fixation","","","","","","","","","","","29","","",""
"revaluation","251","1247851","0.0-4.0-4.0-0.15","spark_pilot_2","7401","6","16","Female","","false","","","","","[717.2999999970198]","./assets/img/canyon/animals/giraffe.jpg","[""ArrowLeft""]","revaluation","canyon","27","{""ArrowUp,ArrowLeft"":27,""ArrowUp,ArrowRight"":15,""ArrowDown,ArrowLeft"":21,""ArrowDown,ArrowRight"":7}","true","ArrowUp,ArrowLeft","","","","revaluation","1","30","","",""
"html-keyboard-response","252","1248353","0.0-4.0-4.0-1.15","spark_pilot_2","7401","6","16","Female","","","","","","","null","<div style=""font-size:60px;"">+</div>","null","fixation","","","","","","","","","","","31","","",""
"revaluation","253","1252360","0.0-4.0-4.0-0.16","spark_pilot_2","7401","6","16","Female","","false","","","","","[1126.2000000029802]","./assets/img/canyon/animals/lion.jpg","[""ArrowLeft""]","revaluation","canyon","21","{""ArrowUp,ArrowLeft"":27,""ArrowUp,ArrowRight"":15,""ArrowDown,ArrowLeft"":21,""ArrowDown,ArrowRight"":7}","true","ArrowDown,ArrowLeft","","","","revaluation","1","32","","",""
"html-keyboard-response","254","1252861","0.0-4.0-4.0-1.16","spark_pilot_2","7401","6","16","Female","","","","","","","null","<div style=""font-size:60px;"">+</div>","null","fixation","","","","","","","","","","","33","","",""
"revaluation","255","1256868","0.0-4.0-4.0-0.17","spark_pilot_2","7401","6","16","Female","","false","","","","","[945.5]","./assets/img/canyon/animals/giraffe.jpg","[""ArrowLeft""]","revaluation","canyon","27","{""ArrowUp,ArrowLeft"":27,""ArrowUp,ArrowRight"":15,""ArrowDown,ArrowLeft"":21,""ArrowDown,ArrowRight"":7}","true","ArrowUp,ArrowLeft","","","","revaluation","1","34","","",""
"html-keyboard-response","256","1257371","0.0-4.0-4.0-1.17","spark_pilot_2","7401","6","16","Female","","","","","","","null","<div style=""font-size:60px;"">+</div>","null","fixation","","","","","","","","","","","35","","",""
"learning-instructions","257","1270835","0.0-4.0-5.0-0.0","spark_pilot_2","7401","6","16","Female","","","","","","","2110.9000000059605","<p> Time to play the dot game! </p>
            <p> For one minute, click the red dots on the following screen as they appear. </p>
            <p><b> Don't look away, as you will earn bonus for clicking dots</b>. </p>","","instructions","","","","","","","","","","","","","",""
"revaluation","258","1330845","0.0-4.0-6.0-0.0","spark_pilot_2","7401","6","16","Female","","","","","","","[92,85,104,133,85,121,93]","","","rest","","70","","","","","0","60000","","","","","",""
"learning-instructions","259","1339923","0.0-4.0-7.0-0.0","spark_pilot_2","7401","6","16","Female","","","","","","","2953.2000000029802","<p> You have almost finished this part of the game! </p>
            <p> We are going to ask you to make a few more choices. </p>","","instructions","","","","","","","","","","","","","",""
"learning-instructions","260","1357339","0.0-4.0-7.0-0.1","spark_pilot_2","7401","6","16","Female","","","","","","","3449.2999999970198","<p> First, you need to decide whether to go up or down. When you see each picture, use the arrow keys to make your choice. </p>
            <p><b>You will not see which animal you found, but try to get to the one that will give you the most treasure.</b></p>","","instructions","","","","","","","","","","","","","",""
"revaluation","261","1359956","0.0-4.0-8.0-0.0","spark_pilot_2","7401","6","16","Female","","false","","","","","[2615.5]","./assets/img/canyon/test/0.jpg","[""ArrowDown""]","first stage test","canyon","0","{""ArrowUp,ArrowLeft"":27,""ArrowUp,ArrowRight"":15,""ArrowDown,ArrowLeft"":21,""ArrowDown,ArrowRight"":7}","false","ArrowDown","false","","","revaluation","1","","","",""
"html-keyboard-response","262","1360473","0.0-4.0-8.0-1.0","spark_pilot_2","7401","6","16","Female","","","","","","","null","<div style=""font-size:60px;"">+</div>","null","fixation","","","","","","","","","","","","","",""
"revaluation","263","1361764","0.0-4.0-8.0-0.1","spark_pilot_2","7401","6","16","Female","","false","","","","","[1285]","./assets/img/canyon/test/3.jpg","[""ArrowDown""]","first stage test","canyon","0","{""ArrowUp,ArrowLeft"":27,""ArrowUp,ArrowRight"":15,""ArrowDown,ArrowLeft"":21,""ArrowDown,ArrowRight"":7}","false","ArrowDown","false","","","revaluation","1","","","",""
"html-keyboard-response","264","1362268","0.0-4.0-8.0-1.1","spark_pilot_2","7401","6","16","Female","","","","","","","null","<div style=""font-size:60px;"">+</div>","null","fixation","","","","","","","","","","","","","",""
"revaluation","265","1363052","0.0-4.0-8.0-0.2","spark_pilot_2","7401","6","16","Female","","false","","","","","[777]","./assets/img/canyon/test/2.jpg","[""ArrowUp""]","first stage test","canyon","0","{""ArrowUp,ArrowLeft"":27,""ArrowUp,ArrowRight"":15,""ArrowDown,ArrowLeft"":21,""ArrowDown,ArrowRight"":7}","true","ArrowUp","false","","","revaluation","1","","","",""
"html-keyboard-response","266","1363553","0.0-4.0-8.0-1.2","spark_pilot_2","7401","6","16","Female","","","","","","","null","<div style=""font-size:60px;"">+</div>","null","fixation","","","","","","","","","","","","","",""
"revaluation","267","1364260","0.0-4.0-8.0-0.3","spark_pilot_2","7401","6","16","Female","","false","","","","","[701.2999999970198]","./assets/img/canyon/test/1.jpg","[""ArrowDown""]","first stage test","canyon","0","{""ArrowUp,ArrowLeft"":27,""ArrowUp,ArrowRight"":15,""ArrowDown,ArrowLeft"":21,""ArrowDown,ArrowRight"":7}","false","ArrowDown","false","","","revaluation","1","","","",""
"html-keyboard-response","268","1364771","0.0-4.0-8.0-1.3","spark_pilot_2","7401","6","16","Female","","","","","","","null","<div style=""font-size:60px;"">+</div>","null","fixation","","","","","","","","","","","","","",""
"learning-instructions","269","1378771","0.0-4.0-9.0-0.0","spark_pilot_2","7401","6","16","Female","","","","","","","2651.0999999940395","<p> Now you will see the animals again and can search their chests for treasure. </p>
            <p> This time, you will not see how much treasure you earned, but you will earn more bonus money for making better choices. </p>","","instructions","","","","","","","","","","","","","",""
"revaluation","270","1379844","0.0-4.0-10.0-0.0","spark_pilot_2","7401","6","16","Female","","false","","","","","[1071.0999999940395]","./assets/img/canyon/animals/giraffe.jpg","[""ArrowRight""]","second stage test","canyon","0","{""ArrowUp,ArrowLeft"":27,""ArrowUp,ArrowRight"":15,""ArrowDown,ArrowLeft"":21,""ArrowDown,ArrowRight"":7}","false","ArrowUp,ArrowRight","","","","revaluation","1","","","",""
"html-keyboard-response","271","1380354","0.0-4.0-10.0-1.0","spark_pilot_2","7401","6","16","Female","","","","","","","null","<div style=""font-size:60px;"">+</div>","null","fixation","","","","","","","","","","","","","",""
"revaluation","272","1380988","0.0-4.0-10.0-0.1","spark_pilot_2","7401","6","16","Female","","false","","","","","[629.8999999910593]","./assets/img/canyon/animals/giraffe.jpg","[""ArrowRight""]","second stage test","canyon","0","{""ArrowUp,ArrowLeft"":27,""ArrowUp,ArrowRight"":15,""ArrowDown,ArrowLeft"":21,""ArrowDown,ArrowRight"":7}","false","ArrowUp,ArrowRight","","","","revaluation","1","","","",""
"html-keyboard-response","273","1381503","0.0-4.0-10.0-1.1","spark_pilot_2","7401","6","16","Female","","","","","","","null","<div style=""font-size:60px;"">+</div>","null","fixation","","","","","","","","","","","","","",""
"revaluation","274","1381964","0.0-4.0-10.0-0.2","spark_pilot_2","7401","6","16","Female","","false","","","","","[455.29999999701977]","./assets/img/canyon/animals/giraffe.jpg","[""ArrowRight""]","second stage test","canyon","0","{""ArrowUp,ArrowLeft"":27,""ArrowUp,ArrowRight"":15,""ArrowDown,ArrowLeft"":21,""ArrowDown,ArrowRight"":7}","false","ArrowUp,ArrowRight","","","","revaluation","1","","","",""
"html-keyboard-response","275","1382470","0.0-4.0-10.0-1.2","spark_pilot_2","7401","6","16","Female","","","","","","","null","<div style=""font-size:60px;"">+</div>","null","fixation","","","","","","","","","","","","","",""
"revaluation","276","1382972","0.0-4.0-10.0-0.3","spark_pilot_2","7401","6","16","Female","","false","","","","","[496.79999999701977]","./assets/img/canyon/animals/giraffe.jpg","[""ArrowRight""]","second stage test","canyon","0","{""ArrowUp,ArrowLeft"":27,""ArrowUp,ArrowRight"":15,""ArrowDown,ArrowLeft"":21,""ArrowDown,ArrowRight"":7}","false","ArrowUp,ArrowRight","","","","revaluation","1","","","",""
"html-keyboard-response","277","1383487","0.0-4.0-10.0-1.3","spark_pilot_2","7401","6","16","Female","","","","","","","null","<div style=""font-size:60px;"">+</div>","null","fixation","","","","","","","","","","","","","",""
"revaluation","278","1384060","0.0-4.0-10.0-0.4","spark_pilot_2","7401","6","16","Female","","false","","","","","[568.2999999970198]","./assets/img/canyon/animals/lion.jpg","[""ArrowRight""]","second stage test","canyon","0","{""ArrowUp,ArrowLeft"":27,""ArrowUp,ArrowRight"":15,""ArrowDown,ArrowLeft"":21,""ArrowDown,ArrowRight"":7}","false","ArrowDown,ArrowRight","","","","revaluation","1","","","",""
"html-keyboard-response","279","1384570","0.0-4.0-10.0-1.4","spark_pilot_2","7401","6","16","Female","","","","","","","null","<div style=""font-size:60px;"">+</div>","null","fixation","","","","","","","","","","","","","",""
"revaluation","280","1385108","0.0-4.0-10.0-0.5","spark_pilot_2","7401","6","16","Female","","false","","","","","[532.9000000059605]","./assets/img/canyon/animals/lion.jpg","[""ArrowRight""]","second stage test","canyon","0","{""ArrowUp,ArrowLeft"":27,""ArrowUp,ArrowRight"":15,""ArrowDown,ArrowLeft"":21,""ArrowDown,ArrowRight"":7}","false","ArrowDown,ArrowRight","","","","revaluation","1","","","",""
"html-keyboard-response","281","1385621","0.0-4.0-10.0-1.5","spark_pilot_2","7401","6","16","Female","","","","","","","null","<div style=""font-size:60px;"">+</div>","null","fixation","","","","","","","","","","","","","",""
"revaluation","282","1386068","0.0-4.0-10.0-0.6","spark_pilot_2","7401","6","16","Female","","false","","","","","[441.29999999701977]","./assets/img/canyon/animals/lion.jpg","[""ArrowRight""]","second stage test","canyon","0","{""ArrowUp,ArrowLeft"":27,""ArrowUp,ArrowRight"":15,""ArrowDown,ArrowLeft"":21,""ArrowDown,ArrowRight"":7}","false","ArrowDown,ArrowRight","","","","revaluation","1","","","",""
"html-keyboard-response","283","1386571","0.0-4.0-10.0-1.6","spark_pilot_2","7401","6","16","Female","","","","","","","null","<div style=""font-size:60px;"">+</div>","null","fixation","","","","","","","","","","","","","",""
"revaluation","284","1387228","0.0-4.0-10.0-0.7","spark_pilot_2","7401","6","16","Female","","false","","","","","[651.4000000059605]","./assets/img/canyon/animals/lion.jpg","[""ArrowRight""]","second stage test","canyon","0","{""ArrowUp,ArrowLeft"":27,""ArrowUp,ArrowRight"":15,""ArrowDown,ArrowLeft"":21,""ArrowDown,ArrowRight"":7}","false","ArrowDown,ArrowRight","","","","revaluation","1","","","",""
"html-keyboard-response","285","1387734","0.0-4.0-10.0-1.7","spark_pilot_2","7401","6","16","Female","","","","","","","null","<div style=""font-size:60px;"">+</div>","null","fixation","","","","","","","","","","","","","",""
"learning-instructions","286","1395899","0.0-4.0-0.1-0.2","spark_pilot_2","7401","6","16","Female","","","","","","","5419.29999999702","<p> This time you are searching for treasure in the <b>ocean</b>.</p>","","instructions","","","","","","","","","","","","","",""
"learning-instructions","287","1417379","0.0-4.0-0.1-0.3","spark_pilot_2","7401","6","16","Female","","","","","","","4219.0999999940395","<p><b>New</b> animals with <b>new</b> treasure chests live here. You need to explore to discover where the animal with the best treasure chest is.</p>
                    <p> Like before, once you figure out which animal has the chest with the most treasure, you should try to get to that animal and select that chest! </p>","","instructions","","","","","","","","","","","","","",""
"learning-instructions","288","1436323","0.0-4.0-1.1-0.1","spark_pilot_2","7401","6","16","Female","","","","","","","4203.100000008941","<p> Remember, when you see a picture of the place, use the up and down keys to <b>find an animal</b>.</p>
            <p> When you encounter an animal, you should use the left and right keys to <b>select a treasure chest</b>.</p>
            <p> Don't forget to look out for the robber! </p>","","instructions","","","","","","","","","","","","","",""
"revaluation","289","1442345","0.0-4.0-2.1-0.50","spark_pilot_2","7401","6","16","Female","","false","","","","","[1231.7000000029802,1465.8999999910593]","./assets/img/ocean/memory/21.jpg","[""ArrowDown"",""ArrowRight""]","value training","ocean","17","{""ArrowUp,ArrowLeft"":26,""ArrowUp,ArrowRight"":10,""ArrowDown,ArrowLeft"":5,""ArrowDown,ArrowRight"":17}","false","ArrowDown,ArrowRight","false","","","original","2","0","","",""
"html-keyboard-response","290","1442851","0.0-4.0-2.1-1.50","spark_pilot_2","7401","6","16","Female","","","","","","","null","<div style=""font-size:60px;"">+</div>","null","fixation","","","","","","","","","","","1","","",""
"revaluation","291","1446879","0.0-4.0-2.1-0.51","spark_pilot_2","7401","6","16","Female","","false","","","","","[1073.9000000059605]","./assets/img/ocean/catch/5.jpg","[""ArrowUp""]","value training","ocean","-10","{""ArrowUp,ArrowLeft"":26,""ArrowUp,ArrowRight"":10,""ArrowDown,ArrowLeft"":5,""ArrowDown,ArrowRight"":17}","false","ArrowUp","true","","","original","2","2","","",""
"html-keyboard-response","292","1447387","0.0-4.0-2.1-1.51","spark_pilot_2","7401","6","16","Female","","","","","","","null","<div style=""font-size:60px;"">+</div>","null","fixation","","","","","","","","","","","3","","",""
"revaluation","293","1451411","0.0-4.0-2.1-0.52","spark_pilot_2","7401","6","16","Female","","false","","","","","[1222.2999999970198]","./assets/img/ocean/catch/6.jpg","[""spaceBar""]","value training","ocean","0","{""ArrowUp,ArrowLeft"":26,""ArrowUp,ArrowRight"":10,""ArrowDown,ArrowLeft"":5,""ArrowDown,ArrowRight"":17}","true","spaceBar","true","","","original","2","4","","",""
"html-keyboard-response","294","1451921","0.0-4.0-2.1-1.52","spark_pilot_2","7401","6","16","Female","","","","","","","null","<div style=""font-size:60px;"">+</div>","null","fixation","","","","","","","","","","","5","","",""
"revaluation","295","1457943","0.0-4.0-2.1-0.53","spark_pilot_2","7401","6","16","Female","","false","","","","","[1964.5999999940395,732.2999999970198]","./assets/img/ocean/memory/21.jpg","[""ArrowDown"",""ArrowRight""]","value training","ocean","17","{""ArrowUp,ArrowLeft"":26,""ArrowUp,ArrowRight"":10,""ArrowDown,ArrowLeft"":5,""ArrowDown,ArrowRight"":17}","false","ArrowDown,ArrowRight","false","","","original","2","6","","",""
"html-keyboard-response","296","1458454","0.0-4.0-2.1-1.53","spark_pilot_2","7401","6","16","Female","","","","","","","null","<div style=""font-size:60px;"">+</div>","null","fixation","","","","","","","","","","","7","","",""
"revaluation","297","1464467","0.0-4.0-2.1-0.54","spark_pilot_2","7401","6","16","Female","","false","","","","","[516.1000000089407,963.2000000029802]","./assets/img/ocean/memory/22.jpg","[""ArrowUp"",""ArrowLeft""]","value training","ocean","26","{""ArrowUp,ArrowLeft"":26,""ArrowUp,ArrowRight"":10,""ArrowDown,ArrowLeft"":5,""ArrowDown,ArrowRight"":17}","true","ArrowUp,ArrowLeft","false","","","original","2","8","","",""
"html-keyboard-response","298","1464968","0.0-4.0-2.1-1.54","spark_pilot_2","7401","6","16","Female","","","","","","","null","<div style=""font-size:60px;"">+</div>","null","fixation","","","","","","","","","","","9","","",""
"revaluation","299","1468977","0.0-4.0-2.1-0.55","spark_pilot_2","7401","6","16","Female","","false","","","","","[717.7999999970198]","./assets/img/ocean/catch/3.jpg","[""ArrowDown""]","value training","ocean","-10","{""ArrowUp,ArrowLeft"":26,""ArrowUp,ArrowRight"":10,""ArrowDown,ArrowLeft"":5,""ArrowDown,ArrowRight"":17}","false","ArrowDown","true","","","original","2","10","","",""
"html-keyboard-response","300","1469479","0.0-4.0-2.1-1.55","spark_pilot_2","7401","6","16","Female","","","","","","","null","<div style=""font-size:60px;"">+</div>","null","fixation","","","","","","","","","","","11","","",""
"revaluation","301","1475489","0.0-4.0-2.1-0.56","spark_pilot_2","7401","6","16","Female","","false","","","","","[1450.8999999910593,455]","./assets/img/ocean/memory/36.jpg","[""ArrowDown"",""ArrowRight""]","value training","ocean","17","{""ArrowUp,ArrowLeft"":26,""ArrowUp,ArrowRight"":10,""ArrowDown,ArrowLeft"":5,""ArrowDown,ArrowRight"":17}","false","ArrowDown,ArrowRight","false","","","original","2","12","","",""
"html-keyboard-response","302","1475991","0.0-4.0-2.1-1.56","spark_pilot_2","7401","6","16","Female","","","","","","","null","<div style=""font-size:60px;"">+</div>","null","fixation","","","","","","","","","","","13","","",""
"revaluation","303","1479998","0.0-4.0-2.1-0.57","spark_pilot_2","7401","6","16","Female","","false","","","","","[863.8000000119209]","./assets/img/ocean/catch/7.jpg","[""spaceBar""]","value training","ocean","0","{""ArrowUp,ArrowLeft"":26,""ArrowUp,ArrowRight"":10,""ArrowDown,ArrowLeft"":5,""ArrowDown,ArrowRight"":17}","true","spaceBar","true","","","original","2","14","","",""
"html-keyboard-response","304","1480502","0.0-4.0-2.1-1.57","spark_pilot_2","7401","6","16","Female","","","","","","","null","<div style=""font-size:60px;"">+</div>","null","fixation","","","","","","","","","","","15","","",""
"revaluation","305","1486511","0.0-4.0-2.1-0.58","spark_pilot_2","7401","6","16","Female","","false","","","","","[1186.8999999910593,743.1999999880791]","./assets/img/ocean/memory/8.jpg","[""ArrowDown"",""ArrowLeft""]","value training","ocean","5","{""ArrowUp,ArrowLeft"":26,""ArrowUp,ArrowRight"":10,""ArrowDown,ArrowLeft"":5,""ArrowDown,ArrowRight"":17}","false","ArrowDown,ArrowLeft","false","","","original","2","16","","",""
"html-keyboard-response","306","1487012","0.0-4.0-2.1-1.58","spark_pilot_2","7401","6","16","Female","","","","","","","null","<div style=""font-size:60px;"">+</div>","null","fixation","","","","","","","","","","","17","","",""
