"trial_type","trial_index","time_elapsed","internal_node_id","task_version","subject_id","assigned_condition","age","gender","success","timeout","failed_images","failed_audio","failed_video","browser_interaction","rt","stimulus","response","task_part","environment","score","rewardMap","correct","fullState","isCatch","numberMissed","duration","condition","order","trial_num","key_press","ground_truth","bonus"
"pavlovia","0","1238","0.0-0.0","spark_pilot_2","7281","7","10","Male","","","","","","","","","","","","","","","","","","","","","","","",""
"preload","1","30276","0.0-1.0","spark_pilot_2","7281","7","10","Male","true","false","[]","[]","[]","[{""event"":""fullscreenenter"",""trial"":2,""time"":36023},{""event"":""blur"",""trial"":421,""time"":1706301},{""event"":""fullscreenexit"",""trial"":421,""time"":1706304},{""event"":""focus"",""trial"":421,""time"":1706308}]","","","","","","","","","","","","","","","","","",""
"fullscreen","2","37014","0.0-2.0","spark_pilot_2","7281","7","10","Male","true","","","","","","","","","","","","","","","","","","","","","","",""
"audio-button-response","3","40462","0.0-3.0-0.0-0.0","spark_pilot_2","7281","7","10","Male","","","","","","","2909","./assets/audio/audiotest/turtle.mp3","2","audio_test","","","","","","","","","","","","","",""
"learning-instructions","4","50231","0.0-3.0-1.0-0.0","spark_pilot_2","7281","7","10","Male","","","","","","","2790.0999999940395","<p> Welcome! Please remember to stay in fullscreen mode and don't click away from the experiment. </p>","","instructions","","","","","","","","","","","","","",""
"learning-instructions","5","60070","0.0-3.0-1.0-0.1","spark_pilot_2","7281","7","10","Male","","","","","","","1431.4000000059605","<p> Today you will be playing a game to earn treasure. </p>
            <p> At the end of the experiment, you will earn a bonus based on how much treasure you find. </p>
            <img src='./assets/img/instructions/treasure.jpg' class='instructions-image'>","","instructions","","","","","","","","","","","","","",""
"learning-instructions","6","69560","0.0-3.0-1.0-0.2","spark_pilot_2","7281","7","10","Male","","","","","","","1209.699999988079","<p> Animals have hidden treasure in treasure chests. </p>
            <p> You need to first find an animal and then choose which of their treasure chests to search. </p>
            <img src='./assets/img/space/animals/cat.jpg' class='instructions-image'>","","instructions","","","","","","","","","","","","","",""
"learning-instructions","7","83515","0.0-3.0-1.0-0.3","spark_pilot_2","7281","7","10","Male","","","","","","","785.6000000238419","<p> In each round, you will search for treasure in a different place. In the real game, there will be two rounds. </p>
            <p> You will begin with a separate, practice round where you will search for treasure in outer space. </p>
            <img src='./assets/img/space/0.jpg' class='instructions-image'>","","instructions","","","","","","","","","","","","","",""
"learning-instructions","8","96858","0.0-3.0-1.0-0.4","spark_pilot_2","7281","7","10","Male","","","","","","","1909.300000011921","<p> On every turn, you will see a picture of the place that you are in, but the specific image may be different each time. </p>
            <p> For example, both of these images mean you are in outer space. </p>
            <img src='./assets/img/instructions/outerspace.jpg' class='instructions-image'>","","instructions","","","","","","","","","","","","","",""
"learning-instructions","9","106502","0.0-3.0-1.0-0.5","spark_pilot_2","7281","7","10","Male","","","","","","","1803.300000011921","<p> You need to decide which direction to travel in. </p>
            <p> You can choose between going <b>up or down</b> by using the arrow keys. </p>
            <img src='./assets/img/instructions/updown.jpg' class='instructions-image'>","","instructions","","","","","","","","","","","","","",""
"learning-instructions","10","117136","0.0-3.0-1.0-0.6","spark_pilot_2","7281","7","10","Male","","","","","","","1817.4000000059605","<p> You will have <b>2 seconds</b> to make your choice. </p>
            <p> If you do not make a choice within 2 seconds, you will not find an animal or earn treasure. </p>
            <img src='./assets/img/instructions/2seconds.jpg' class='instructions-image'>","","instructions","","","","","","","","","","","","","",""
"learning-instructions","11","125618","0.0-3.0-1.0-0.7","spark_pilot_2","7281","7","10","Male","","","","","","","1429","<p> Let’s try practicing that now! </p>
            <p> When you see a picture of the place you are in, press the <b>up</b> key to travel up. </p>
            <img src='./assets/img/instructions/pressUp.jpg' class='instructions-image'>","","instructions","","","","","","","","","","","","","",""
"revaluation","12","129639","0.0-3.0-2.0-0.0","spark_pilot_2","7281","7","10","Male","","false","","","","","[1942.4000000059605]","./assets/img/space/0.jpg","[""ArrowUp""]","first stage practice","space","0","null","null","ArrowUp","false","","","","","","","",""
"html-keyboard-response","13","130141","0.0-3.0-2.0-1.0","spark_pilot_2","7281","7","10","Male","","","","","","","null","<div style=""font-size:60px;"">+</div>","null","fixation","","","","","","","","","","","","","",""
"revaluation","14","134147","0.0-3.0-2.0-0.1","spark_pilot_2","7281","7","10","Male","","false","","","","","[1015.5999999940395]","./assets/img/space/1.jpg","[""ArrowUp""]","first stage practice","space","0","null","null","ArrowUp","false","","","","","","","",""
"html-keyboard-response","15","134648","0.0-3.0-2.0-1.1","spark_pilot_2","7281","7","10","Male","","","","","","","null","<div style=""font-size:60px;"">+</div>","null","fixation","","","","","","","","","","","","","",""
"revaluation","16","138653","0.0-3.0-2.0-0.2","spark_pilot_2","7281","7","10","Male","","false","","","","","[738.5999999940395]","./assets/img/space/2.jpg","[""ArrowUp""]","first stage practice","space","0","null","null","ArrowUp","false","","","","","","","",""
"html-keyboard-response","17","139155","0.0-3.0-2.0-1.2","spark_pilot_2","7281","7","10","Male","","","","","","","null","<div style=""font-size:60px;"">+</div>","null","fixation","","","","","","","","","","","","","",""
"learning-instructions","18","146366","0.0-3.0-3.0-0.0","spark_pilot_2","7281","7","10","Male","","","","","","","2507.5","<p> Great job! Now try pressing the <b>down</b> key to travel down. </p>
            <img src='./assets/img/instructions/pressDown.jpg' class='instructions-image'>","","instructions","","","","","","","","","","","","","",""
"revaluation","19","150371","0.0-3.0-4.0-0.0","spark_pilot_2","7281","7","10","Male","","false","","","","","[603.9000000059605]","./assets/img/space/3.jpg","[""ArrowDown""]","first stage practice","space","0","null","null","ArrowDown","false","","","","","","","",""
"html-keyboard-response","20","150872","0.0-3.0-4.0-1.0","spark_pilot_2","7281","7","10","Male","","","","","","","null","<div style=""font-size:60px;"">+</div>","null","fixation","","","","","","","","","","","","","",""
"revaluation","21","154878","0.0-3.0-4.0-0.1","spark_pilot_2","7281","7","10","Male","","false","","","","","[839.5]","./assets/img/space/4.jpg","[""ArrowDown""]","first stage practice","space","0","null","null","ArrowDown","false","","","","","","","",""
"html-keyboard-response","22","155380","0.0-3.0-4.0-1.1","spark_pilot_2","7281","7","10","Male","","","","","","","null","<div style=""font-size:60px;"">+</div>","null","fixation","","","","","","","","","","","","","",""
"revaluation","23","159384","0.0-3.0-4.0-0.2","spark_pilot_2","7281","7","10","Male","","false","","","","","[848.4000000059605]","./assets/img/space/5.jpg","[""ArrowDown""]","first stage practice","space","0","null","null","ArrowDown","false","","","","","","","",""
"html-keyboard-response","24","159887","0.0-3.0-4.0-1.2","spark_pilot_2","7281","7","10","Male","","","","","","","null","<div style=""font-size:60px;"">+</div>","null","fixation","","","","","","","","","","","","","",""
"learning-instructions","25","171532","0.0-3.0-5.0-0.0","spark_pilot_2","7281","7","10","Male","","","","","","","1773.5999999940395","<p> The animals don’t move, so the animal in the upper part of a place will stay in the upper part of a place, and the animal in the lower part of a place will stay in the lower part of a place. </p>","","instructions","","","","","","","","","","","","","",""
"learning-instructions","26","182462","0.0-3.0-5.0-0.1","spark_pilot_2","7281","7","10","Male","","","","","","","1793.699999988079","<p> Each animal has two treasure chests for you to choose from. </p>
            <p> The amount of treasure in each chest can range from <b> 0 to 40 pieces.</b></p>","","instructions","","","","","","","","","","","","","",""
"learning-instructions","27","194432","0.0-3.0-5.0-0.2","spark_pilot_2","7281","7","10","Male","","","","","","","763.4000000059605","<p> You should decide which chest to search for treasure by using the <b>left</b> and <b>right</b> arrow keys. </p>
            <p><b> Pay attention to which animal is on the screen, as the animals have different treasure chests. </b></p>
            <img src='./assets/img/instructions/leftright.jpg' class='instructions-image'>","","instructions","","","","","","","","","","","","","",""
"learning-instructions","28","202422","0.0-3.0-5.0-0.3","spark_pilot_2","7281","7","10","Male","","","","","","","1623.5","<p> Let’s try practicing that now. </p>
            <p> When you see an animal, choose which chest to search for treasure. </p>
            <img src='./assets/img/instructions/chooseChest.jpg' class='instructions-image'>","","instructions","","","","","","","","","","","","","",""
"revaluation","29","206425","0.0-3.0-6.0-0.0","spark_pilot_2","7281","7","10","Male","","false","","","","","[1152]","./assets/img/space/animals/cat.jpg","[""ArrowLeft""]","second stage practice","space","3","{""ArrowUp,ArrowLeft"":3,""ArrowUp,ArrowRight"":36,""ArrowDown,ArrowLeft"":15,""ArrowDown,ArrowRight"":23}","false","ArrowUp,ArrowLeft","","","","","","","","",""
"html-keyboard-response","30","206926","0.0-3.0-6.0-1.0","spark_pilot_2","7281","7","10","Male","","","","","","","null","<div style=""font-size:60px;"">+</div>","null","fixation","","","","","","","","","","","","","",""
"revaluation","31","210931","0.0-3.0-6.0-0.1","spark_pilot_2","7281","7","10","Male","","false","","","","","[1691.699999988079]","./assets/img/space/animals/cat.jpg","[""ArrowRight""]","second stage practice","space","36","{""ArrowUp,ArrowLeft"":3,""ArrowUp,ArrowRight"":36,""ArrowDown,ArrowLeft"":15,""ArrowDown,ArrowRight"":23}","true","ArrowUp,ArrowRight","","","","","","","","",""
"html-keyboard-response","32","211433","0.0-3.0-6.0-1.1","spark_pilot_2","7281","7","10","Male","","","","","","","null","<div style=""font-size:60px;"">+</div>","null","fixation","","","","","","","","","","","","","",""
"revaluation","33","215437","0.0-3.0-6.0-0.2","spark_pilot_2","7281","7","10","Male","","false","","","","","[1396.5]","./assets/img/space/animals/rabbit.jpg","[""ArrowRight""]","second stage practice","space","23","{""ArrowUp,ArrowLeft"":3,""ArrowUp,ArrowRight"":36,""ArrowDown,ArrowLeft"":15,""ArrowDown,ArrowRight"":23}","true","ArrowDown,ArrowRight","","","","","","","","",""
"html-keyboard-response","34","215939","0.0-3.0-6.0-1.2","spark_pilot_2","7281","7","10","Male","","","","","","","null","<div style=""font-size:60px;"">+</div>","null","fixation","","","","","","","","","","","","","",""
"revaluation","35","219944","0.0-3.0-6.0-0.3","spark_pilot_2","7281","7","10","Male","","false","","","","","[870.8999999761581]","./assets/img/space/animals/rabbit.jpg","[""ArrowLeft""]","second stage practice","space","15","{""ArrowUp,ArrowLeft"":3,""ArrowUp,ArrowRight"":36,""ArrowDown,ArrowLeft"":15,""ArrowDown,ArrowRight"":23}","false","ArrowDown,ArrowLeft","","","","","","","","",""
"html-keyboard-response","36","220445","0.0-3.0-6.0-1.3","spark_pilot_2","7281","7","10","Male","","","","","","","null","<div style=""font-size:60px;"">+</div>","null","fixation","","","","","","","","","","","","","",""
"learning-instructions","37","238690","0.0-3.0-7.0-0.0","spark_pilot_2","7281","7","10","Male","","","","","","","1421.5999999940395","<p> Great job. Now let’s try putting it together. </p>
            <p> On each turn, you will first see a picture to remind you of the place you are in, and you need to choose whether to go up or down. </p>
            <p> Then you will see an animal and choose which of its chests to search for treasure. </p>","","instructions","","","","","","","","","","","","","",""
"learning-instructions","38","248030","0.0-3.0-7.0-0.1","spark_pilot_2","7281","7","10","Male","","","","","","","1071.5999999940395","<p> When you choose whether to go up or down, try to go to the animal with the chest with the most treasure. </p>
            <p> Try practicing that now! </p>","","instructions","","","","","","","","","","","","","",""
"revaluation","39","254037","0.0-3.0-8.0-0.0","spark_pilot_2","7281","7","10","Male","","false","","","","","[1343.5,503.2999999821186]","./assets/img/space/6.jpg","[""ArrowUp"",""ArrowRight""]","full practice","space","36","{""ArrowUp,ArrowLeft"":3,""ArrowUp,ArrowRight"":36,""ArrowDown,ArrowLeft"":15,""ArrowDown,ArrowRight"":23}","true","ArrowUp,ArrowRight","false","","","","","","","",""
"html-keyboard-response","40","254539","0.0-3.0-8.0-1.0","spark_pilot_2","7281","7","10","Male","","","","","","","null","<div style=""font-size:60px;"">+</div>","null","fixation","","","","","","","","","","","","","",""
"revaluation","41","260544","0.0-3.0-8.0-0.1","spark_pilot_2","7281","7","10","Male","","false","","","","","[961.9000000059605,460.59999999403954]","./assets/img/space/7.jpg","[""ArrowDown"",""ArrowRight""]","full practice","space","23","{""ArrowUp,ArrowLeft"":3,""ArrowUp,ArrowRight"":36,""ArrowDown,ArrowLeft"":15,""ArrowDown,ArrowRight"":23}","false","ArrowDown,ArrowRight","false","","","","","","","",""
"html-keyboard-response","42","261046","0.0-3.0-8.0-1.1","spark_pilot_2","7281","7","10","Male","","","","","","","null","<div style=""font-size:60px;"">+</div>","null","fixation","","","","","","","","","","","","","",""
"revaluation","43","267052","0.0-3.0-8.0-0.2","spark_pilot_2","7281","7","10","Male","","false","","","","","[1185.4000000059605,1622.800000011921]","./assets/img/space/8.jpg","[""ArrowDown"",""ArrowRight""]","full practice","space","23","{""ArrowUp,ArrowLeft"":3,""ArrowUp,ArrowRight"":36,""ArrowDown,ArrowLeft"":15,""ArrowDown,ArrowRight"":23}","false","ArrowDown,ArrowRight","false","","","","","","","",""
"html-keyboard-response","44","267554","0.0-3.0-8.0-1.2","spark_pilot_2","7281","7","10","Male","","","","","","","null","<div style=""font-size:60px;"">+</div>","null","fixation","","","","","","","","","","","","","",""
"revaluation","45","273561","0.0-3.0-8.0-0.3","spark_pilot_2","7281","7","10","Male","","false","","","","","[1268.5999999940395,1653.9000000059605]","./assets/img/space/9.jpg","[""ArrowUp"",""ArrowLeft""]","full practice","space","3","{""ArrowUp,ArrowLeft"":3,""ArrowUp,ArrowRight"":36,""ArrowDown,ArrowLeft"":15,""ArrowDown,ArrowRight"":23}","false","ArrowUp,ArrowLeft","false","","","","","","","",""
"html-keyboard-response","46","274062","0.0-3.0-8.0-1.3","spark_pilot_2","7281","7","10","Male","","","","","","","null","<div style=""font-size:60px;"">+</div>","null","fixation","","","","","","","","","","","","","",""
"revaluation","47","280067","0.0-3.0-8.0-0.4","spark_pilot_2","7281","7","10","Male","","false","","","","","[1300.7999999821186,668.7999999821186]","./assets/img/space/10.jpg","[""ArrowDown"",""ArrowRight""]","full practice","space","23","{""ArrowUp,ArrowLeft"":3,""ArrowUp,ArrowRight"":36,""ArrowDown,ArrowLeft"":15,""ArrowDown,ArrowRight"":23}","false","ArrowDown,ArrowRight","false","","","","","","","",""
"html-keyboard-response","48","280568","0.0-3.0-8.0-1.4","spark_pilot_2","7281","7","10","Male","","","","","","","null","<div style=""font-size:60px;"">+</div>","null","fixation","","","","","","","","","","","","","",""
"learning-instructions","49","295314","0.0-3.0-9.0-0.0","spark_pilot_2","7281","7","10","Male","","","","","","","4441.199999988079","<p> One last thing: sometimes, you will see a robber. The robber can be anywhere in the picture. </p>
            <p> If you do not stop them, you will lose treasure. </p>
            <img src='./assets/img/instructions/robber.jpg' class='instructions-image'>","","instructions","","","","","","","","","","","","","",""
"learning-instructions","50","304375","0.0-3.0-9.0-0.1","spark_pilot_2","7281","7","10","Male","","","","","","","1882.4000000059605","<p> If you see the robber, you should <b>press the space bar</b> rather than using the arrow keys. </p>
            <p> Try practicing that now! </p>","","instructions","","","","","","","","","","","","","",""
"revaluation","51","308380","0.0-3.0-10.0-0.0","spark_pilot_2","7281","7","10","Male","","false","","","","","[1005.2999999821186]","./assets/img/space/catch/0.jpg","[""spaceBar""]","catch practice","space","0","{""ArrowUp,ArrowLeft"":3,""ArrowUp,ArrowRight"":36,""ArrowDown,ArrowLeft"":15,""ArrowDown,ArrowRight"":23}","true","spaceBar","true","","","","","","","",""
"html-keyboard-response","52","308881","0.0-3.0-10.0-1.0","spark_pilot_2","7281","7","10","Male","","","","","","","null","<div style=""font-size:60px;"">+</div>","null","fixation","","","","","","","","","","","","","",""
"revaluation","53","312885","0.0-3.0-10.0-0.1","spark_pilot_2","7281","7","10","Male","","false","","","","","[1326.9000000059605]","./assets/img/space/catch/1.jpg","[""spaceBar""]","catch practice","space","0","{""ArrowUp,ArrowLeft"":3,""ArrowUp,ArrowRight"":36,""ArrowDown,ArrowLeft"":15,""ArrowDown,ArrowRight"":23}","true","spaceBar","true","","","","","","","",""
"html-keyboard-response","54","313387","0.0-3.0-10.0-1.1","spark_pilot_2","7281","7","10","Male","","","","","","","null","<div style=""font-size:60px;"">+</div>","null","fixation","","","","","","","","","","","","","",""
"revaluation","55","317390","0.0-3.0-10.0-0.2","spark_pilot_2","7281","7","10","Male","","false","","","","","[533.4000000059605]","./assets/img/space/catch/2.jpg","[""spaceBar""]","catch practice","space","0","{""ArrowUp,ArrowLeft"":3,""ArrowUp,ArrowRight"":36,""ArrowDown,ArrowLeft"":15,""ArrowDown,ArrowRight"":23}","true","spaceBar","true","","","","","","","",""
"html-keyboard-response","56","317892","0.0-3.0-10.0-1.2","spark_pilot_2","7281","7","10","Male","","","","","","","null","<div style=""font-size:60px;"">+</div>","null","fixation","","","","","","","","","","","","","",""
"learning-instructions","57","335034","0.0-3.0-11.0-0.0","spark_pilot_2","7281","7","10","Male","","","","","","","3478.4000000059605","<p> After you explore a place to find treasure, it will be time to play a different game. </p>
            <p> During this game, red dots will appear on the screen and fall down slowly. </p>
            <p><b> You must click on them before they reach the bottom. </b></p>
            <img src='./assets/img/instructions/dotGame.jpg' class='instructions-image'>","","instructions","","","","","","","","","","","","","",""
"learning-instructions","58","342148","0.0-3.0-11.0-0.1","spark_pilot_2","7281","7","10","Male","","","","","","","1413","<p> For every dot you click, you will earn additional treasure. </p>
            <p> Let’s try practicing that now. </p>","","instructions","","","","","","","","","","","","","",""
"revaluation","59","357163","0.0-3.0-12.0-0.0","spark_pilot_2","7281","7","10","Male","","","","","","","[128]","","","rest practice","","10","","","","","0","15000","","","","","",""
"learning-instructions","60","363732","0.0-3.0-13.0-0.0-0.0","spark_pilot_2","7281","7","10","Male","","","","","","","1306.1000000238419","<p> Now, you will practice a shortened version of the game to get a sense of how it all fits together. </p>","","instructions","","","","","","","","","","","","","",""
"learning-instructions","61","367258","0.0-3.0-13.0-0.0-0.1","spark_pilot_2","7281","7","10","Male","","","","","","","321.90000000596046","<p>This time you are searching for treasure in outer space.</p>","","instructions","","","","","","","","","","","","","",""
"learning-instructions","62","383499","0.0-3.0-13.0-1.0-0.0","spark_pilot_2","7281","7","10","Male","","","","","","","1405.0999999940395","<p> Remember, when you see a picture of the place, use the up and down keys to <b>find an animal</b>.</p>
            <p> When you encounter an animal, you should use the left and right keys to <b>select a treasure chest</b>.</p>
            <p> Don't forget to look out for the robber! </p>","","instructions","","","","","","","","","","","","","",""
"revaluation","63","389504","0.0-3.0-13.0-2.0-0.0","spark_pilot_2","7281","7","10","Male","","false","","","","","[1577.7999999821186,993.4000000059605]","./assets/img/space/11.jpg","[""ArrowUp"",""ArrowRight""]","practice block","space","36","{""ArrowUp,ArrowLeft"":3,""ArrowUp,ArrowRight"":36,""ArrowDown,ArrowLeft"":15,""ArrowDown,ArrowRight"":23}","true","ArrowUp,ArrowRight","false","","","","","","","",""
"html-keyboard-response","64","390007","0.0-3.0-13.0-2.0-1.0","spark_pilot_2","7281","7","10","Male","","","","","","","null","<div style=""font-size:60px;"">+</div>","null","fixation","","","","","","","","","","","","","",""
"revaluation","65","396016","0.0-3.0-13.0-2.0-0.1","spark_pilot_2","7281","7","10","Male","","false","","","","","[504.30000001192093,1283.9000000059605]","./assets/img/space/12.jpg","[""ArrowDown"",""ArrowRight""]","practice block","space","23","{""ArrowUp,ArrowLeft"":3,""ArrowUp,ArrowRight"":36,""ArrowDown,ArrowLeft"":15,""ArrowDown,ArrowRight"":23}","false","ArrowDown,ArrowRight","false","","","","","","","",""
"html-keyboard-response","66","396519","0.0-3.0-13.0-2.0-1.1","spark_pilot_2","7281","7","10","Male","","","","","","","null","<div style=""font-size:60px;"">+</div>","null","fixation","","","","","","","","","","","","","",""
"revaluation","67","402527","0.0-3.0-13.0-2.0-0.2","spark_pilot_2","7281","7","10","Male","","false","","","","","[1008.9000000059605,536.2999999821186]","./assets/img/space/13.jpg","[""ArrowUp"",""ArrowRight""]","practice block","space","36","{""ArrowUp,ArrowLeft"":3,""ArrowUp,ArrowRight"":36,""ArrowDown,ArrowLeft"":15,""ArrowDown,ArrowRight"":23}","true","ArrowUp,ArrowRight","false","","","","","","","",""
"html-keyboard-response","68","403030","0.0-3.0-13.0-2.0-1.2","spark_pilot_2","7281","7","10","Male","","","","","","","null","<div style=""font-size:60px;"">+</div>","null","fixation","","","","","","","","","","","","","",""
"revaluation","69","409038","0.0-3.0-13.0-2.0-0.3","spark_pilot_2","7281","7","10","Male","","false","","","","","[539.2999999821186,435.80000001192093]","./assets/img/space/14.jpg","[""ArrowDown"",""ArrowRight""]","practice block","space","23","{""ArrowUp,ArrowLeft"":3,""ArrowUp,ArrowRight"":36,""ArrowDown,ArrowLeft"":15,""ArrowDown,ArrowRight"":23}","false","ArrowDown,ArrowRight","false","","","","","","","",""
"html-keyboard-response","70","409540","0.0-3.0-13.0-2.0-1.3","spark_pilot_2","7281","7","10","Male","","","","","","","null","<div style=""font-size:60px;"">+</div>","null","fixation","","","","","","","","","","","","","",""
"revaluation","71","415550","0.0-3.0-13.0-2.0-0.4","spark_pilot_2","7281","7","10","Male","","false","","","","","[1942,877.1000000238419]","./assets/img/space/11.jpg","[""ArrowUp"",""ArrowRight""]","practice block","space","36","{""ArrowUp,ArrowLeft"":3,""ArrowUp,ArrowRight"":36,""ArrowDown,ArrowLeft"":15,""ArrowDown,ArrowRight"":23}","true","ArrowUp,ArrowRight","false","","","","","","","",""
"html-keyboard-response","72","416052","0.0-3.0-13.0-2.0-1.4","spark_pilot_2","7281","7","10","Male","","","","","","","null","<div style=""font-size:60px;"">+</div>","null","fixation","","","","","","","","","","","","","",""
"revaluation","73","422061","0.0-3.0-13.0-2.0-0.5","spark_pilot_2","7281","7","10","Male","","false","","","","","[909.4000000059605,674.7000000178814]","./assets/img/space/12.jpg","[""ArrowDown"",""ArrowRight""]","practice block","space","23","{""ArrowUp,ArrowLeft"":3,""ArrowUp,ArrowRight"":36,""ArrowDown,ArrowLeft"":15,""ArrowDown,ArrowRight"":23}","false","ArrowDown,ArrowRight","false","","","","","","","",""
"html-keyboard-response","74","422563","0.0-3.0-13.0-2.0-1.5","spark_pilot_2","7281","7","10","Male","","","","","","","null","<div style=""font-size:60px;"">+</div>","null","fixation","","","","","","","","","","","","","",""
"revaluation","75","428573","0.0-3.0-13.0-2.0-0.6","spark_pilot_2","7281","7","10","Male","","false","","","","","[1044.0999999940395,579.4000000059605]","./assets/img/space/13.jpg","[""ArrowUp"",""ArrowRight""]","practice block","space","36","{""ArrowUp,ArrowLeft"":3,""ArrowUp,ArrowRight"":36,""ArrowDown,ArrowLeft"":15,""ArrowDown,ArrowRight"":23}","true","ArrowUp,ArrowRight","false","","","","","","","",""
"html-keyboard-response","76","429075","0.0-3.0-13.0-2.0-1.6","spark_pilot_2","7281","7","10","Male","","","","","","","null","<div style=""font-size:60px;"">+</div>","null","fixation","","","","","","","","","","","","","",""
"revaluation","77","435083","0.0-3.0-13.0-2.0-0.7","spark_pilot_2","7281","7","10","Male","","false","","","","","[908.0999999940395,612.3999999761581]","./assets/img/space/14.jpg","[""ArrowDown"",""ArrowRight""]","practice block","space","23","{""ArrowUp,ArrowLeft"":3,""ArrowUp,ArrowRight"":36,""ArrowDown,ArrowLeft"":15,""ArrowDown,ArrowRight"":23}","false","ArrowDown,ArrowRight","false","","","","","","","",""
"html-keyboard-response","78","435586","0.0-3.0-13.0-2.0-1.7","spark_pilot_2","7281","7","10","Male","","","","","","","null","<div style=""font-size:60px;"">+</div>","null","fixation","","","","","","","","","","","","","",""
"revaluation","79","439595","0.0-3.0-13.0-2.0-0.8","spark_pilot_2","7281","7","10","Male","","false","","","","","[951.5]","./assets/img/space/catch/3.jpg","[""spaceBar""]","practice block","space","0","{""ArrowUp,ArrowLeft"":3,""ArrowUp,ArrowRight"":36,""ArrowDown,ArrowLeft"":15,""ArrowDown,ArrowRight"":23}","true","spaceBar","true","","","","","","","",""
"html-keyboard-response","80","440097","0.0-3.0-13.0-2.0-1.8","spark_pilot_2","7281","7","10","Male","","","","","","","null","<div style=""font-size:60px;"">+</div>","null","fixation","","","","","","","","","","","","","",""
"learning-instructions","81","455327","0.0-3.0-13.0-3.0-0.0","spark_pilot_2","7281","7","10","Male","","","","","","","1698.7999999821186","<p> Now, you will travel with a friend who will choose whether you go up or down first. </p>
            <p> On these turns, you will just see the animal that they found. You will still get to choose which chest to search for treasure.</p>","","instructions","","","","","","","","","","","","","",""
"revaluation","82","459332","0.0-3.0-13.0-4.0-0.0","spark_pilot_2","7281","7","10","Male","","false","","","","","[1602.0999999940395]","./assets/img/space/animals/rabbit.jpg","[""ArrowRight""]","practice block","space","23","{""ArrowUp,ArrowLeft"":3,""ArrowUp,ArrowRight"":36,""ArrowDown,ArrowLeft"":15,""ArrowDown,ArrowRight"":23}","true","ArrowDown,ArrowRight","","","","","","","","",""
"html-keyboard-response","83","459835","0.0-3.0-13.0-4.0-1.0","spark_pilot_2","7281","7","10","Male","","","","","","","null","<div style=""font-size:60px;"">+</div>","null","fixation","","","","","","","","","","","","","",""
"revaluation","84","463841","0.0-3.0-13.0-4.0-0.1","spark_pilot_2","7281","7","10","Male","","false","","","","","[417.2999999821186]","./assets/img/space/animals/cat.jpg","[""ArrowRight""]","practice block","space","36","{""ArrowUp,ArrowLeft"":3,""ArrowUp,ArrowRight"":36,""ArrowDown,ArrowLeft"":15,""ArrowDown,ArrowRight"":23}","true","ArrowUp,ArrowRight","","","","","","","","",""
"html-keyboard-response","85","464344","0.0-3.0-13.0-4.0-1.1","spark_pilot_2","7281","7","10","Male","","","","","","","null","<div style=""font-size:60px;"">+</div>","null","fixation","","","","","","","","","","","","","",""
"revaluation","86","468353","0.0-3.0-13.0-4.0-0.2","spark_pilot_2","7281","7","10","Male","","false","","","","","[29.30000001192093]","./assets/img/space/animals/cat.jpg","[""ArrowRight""]","practice block","space","36","{""ArrowUp,ArrowLeft"":3,""ArrowUp,ArrowRight"":36,""ArrowDown,ArrowLeft"":15,""ArrowDown,ArrowRight"":23}","true","ArrowUp,ArrowRight","","","","","","","","",""
"html-keyboard-response","87","468855","0.0-3.0-13.0-4.0-1.2","spark_pilot_2","7281","7","10","Male","","","","","","","null","<div style=""font-size:60px;"">+</div>","null","fixation","","","","","","","","","","","","","",""
"revaluation","88","472864","0.0-3.0-13.0-4.0-0.3","spark_pilot_2","7281","7","10","Male","","false","","","","","[522.7000000178814]","./assets/img/space/animals/rabbit.jpg","[""ArrowRight""]","practice block","space","23","{""ArrowUp,ArrowLeft"":3,""ArrowUp,ArrowRight"":36,""ArrowDown,ArrowLeft"":15,""ArrowDown,ArrowRight"":23}","true","ArrowDown,ArrowRight","","","","","","","","",""
"html-keyboard-response","89","473366","0.0-3.0-13.0-4.0-1.3","spark_pilot_2","7281","7","10","Male","","","","","","","null","<div style=""font-size:60px;"">+</div>","null","fixation","","","","","","","","","","","","","",""
"learning-instructions","90","482791","0.0-3.0-13.0-5.0-0.0","spark_pilot_2","7281","7","10","Male","","","","","","","2013","<p> Time to play the dot game! </p>
            <p> For 15 seconds, click the red dots on the following screen as they appear. </p>","","instructions","","","","","","","","","","","","","",""
"revaluation","91","497794","0.0-3.0-13.0-6.0-0.0","spark_pilot_2","7281","7","10","Male","","","","","","","[108,125]","","","rest practice","","20","","","","","0","15000","","","","","",""
"learning-instructions","92","505968","0.0-3.0-13.0-7.0-0.0","spark_pilot_2","7281","7","10","Male","","","","","","","2029.0999999940395","<p> You have almost finished this part of the game! </p>
            <p> We are going to ask you to make a few more choices. </p>","","instructions","","","","","","","","","","","","","",""
"learning-instructions","93","521991","0.0-3.0-13.0-7.0-0.1","spark_pilot_2","7281","7","10","Male","","","","","","","1941.9000000059605","<p> First, you need to decide whether to go up or down. When you see each picture, use the arrow keys to make your choice. </p>
            <p><b>You will not see which animal you found, but try to get to the one that will give you the most treasure.</b></p>","","instructions","","","","","","","","","","","","","",""
"revaluation","94","527050","0.0-3.0-13.0-8.0","spark_pilot_2","7281","7","10","Male","","false","","","","","[5055.800000011921]","./assets/img/space/15.jpg","[""ArrowUp""]","practice block","space","0","{""ArrowUp,ArrowLeft"":3,""ArrowUp,ArrowRight"":36,""ArrowDown,ArrowLeft"":15,""ArrowDown,ArrowRight"":23}","true","ArrowUp","false","","","","","","","",""
"html-keyboard-response","95","527553","0.0-3.0-13.0-9.0","spark_pilot_2","7281","7","10","Male","","","","","","","null","<div style=""font-size:60px;"">+</div>","null","fixation","","","","","","","","","","","","","",""
"learning-instructions","96","542412","0.0-3.0-13.0-10.0-0.0","spark_pilot_2","7281","7","10","Male","","","","","","","3442.399999976158","<p> Now you will see the animals again and can search their chests for treasure. </p>
            <p> This time, you will not see how much treasure you earned, but you will earn more bonus money for making better choices. </p>","","instructions","","","","","","","","","","","","","",""
"revaluation","97","544164","0.0-3.0-13.0-11.0-0.0","spark_pilot_2","7281","7","10","Male","","false","","","","","[1749.9000000059605]","./assets/img/space/animals/cat.jpg","[""ArrowRight""]","practice block","space","0","{""ArrowUp,ArrowLeft"":3,""ArrowUp,ArrowRight"":36,""ArrowDown,ArrowLeft"":15,""ArrowDown,ArrowRight"":23}","true","ArrowUp,ArrowRight","","","","","","","","",""
"html-keyboard-response","98","544667","0.0-3.0-13.0-11.0-1.0","spark_pilot_2","7281","7","10","Male","","","","","","","null","<div style=""font-size:60px;"">+</div>","null","fixation","","","","","","","","","","","","","",""
"revaluation","99","547000","0.0-3.0-13.0-11.0-0.1","spark_pilot_2","7281","7","10","Male","","false","","","","","[2327.0999999940395]","./assets/img/space/animals/rabbit.jpg","[""ArrowRight""]","practice block","space","0","{""ArrowUp,ArrowLeft"":3,""ArrowUp,ArrowRight"":36,""ArrowDown,ArrowLeft"":15,""ArrowDown,ArrowRight"":23}","true","ArrowDown,ArrowRight","","","","","","","","",""
"html-keyboard-response","100","547503","0.0-3.0-13.0-11.0-1.1","spark_pilot_2","7281","7","10","Male","","","","","","","null","<div style=""font-size:60px;"">+</div>","null","fixation","","","","","","","","","","","","","",""
"learning-instructions","101","554546","0.0-3.0-14.0-0.0","spark_pilot_2","7281","7","10","Male","","","","","","","2437","<p> Before you start, we're going to ask you a few questions about how the game works. </p>","","instructions","","","","","","","","","","","","","",""
"comp-q","102","561888","0.0-3.0-15.0-0.0-0.0","spark_pilot_2","7281","7","10","Male","","","","","","","1721.9000000059605","<p> <b> True or False? </b> </p>
            <p> There can be 50 pieces of treasure in a given animal's chest. </p>","1","comp_question","","","","true","","","","","","","","","",""
"comp-q","103","573103","0.0-3.0-15.0-0.0-1.0","spark_pilot_2","7281","7","10","Male","","","","","","","4524.100000023842","<p> <b> That's right! </b> The amount of treasure in each chest can range from 0 to 40 pieces. </p>","0","comp_answer","","","","","","","","","","","","","",""
"comp-q","104","581865","0.0-3.0-15.0-0.1-0.1","spark_pilot_2","7281","7","10","Male","","","","","","","1616.7000000178814","<p> <b> True or False? </b> </p><p> In this game, all animals have the same amount of treasure in their left and right chests. </p>","1","comp_question","","","","true","","","","","","","","","",""
"comp-q","105","594086","0.0-3.0-15.0-0.1-1.1","spark_pilot_2","7281","7","10","Male","","","","","","","6956.699999988079","<p> <b> That's right! </b> Animals have different amounts of treasure in their treasure chests. </p>","0","comp_answer","","","","","","","","","","","","","",""
"comp-q","106","601543","0.0-3.0-15.0-0.2-0.2","spark_pilot_2","7281","7","10","Male","","","","","","","1605.5999999940395","<p> <b> True or False? </b> </p><p> The same animal will always be there if you go up in the same place. </p>","0","comp_question","","","","true","","","","","","","","","",""
"comp-q","107","613744","0.0-3.0-15.0-0.2-1.2","spark_pilot_2","7281","7","10","Male","","","","","","","5725.800000011921","<p> <b> That's right! </b> One animal lives in the upper part and one lives in the lower part of every place. </p>","0","comp_answer","","","","","","","","","","","","","",""
"comp-q","108","621323","0.0-3.0-15.0-0.3-0.3","spark_pilot_2","7281","7","10","Male","","","","","","","2025.800000011921","<p> <b> True or False? </b> </p><p> If you see a different picture, it means you are in a new place. </p>","1","comp_question","","","","true","","","","","","","","","",""
"comp-q","109","634904","0.0-3.0-15.0-0.3-1.3","spark_pilot_2","7281","7","10","Male","","","","","","","2245.399999976158","<p> <b> That's right! </b> Lots of different images may show the same place. For example,  you may see three different images that all remind you that you are in outer space. </p>","0","comp_answer","","","","","","","","","","","","","",""
"learning-instructions","110","646982","0.0-3.0-16.0-0.0","spark_pilot_2","7281","7","10","Male","","","","","","","2203.5999999940395","<p> Good job. Remember to do your best because the amount of treasure you earn will be converted into bonus money. </p>
            <p> It’s time to start the real game! </p>","","instructions","","","","","","","","","","","","","",""
"learning-instructions","111","651142","0.0-4.0-0.0-0.0","spark_pilot_2","7281","7","10","Male","","","","","","","1364.5","<p> This time you are searching for treasure in the <b>canyon</b>.</p>","","instructions","","","","","","","","","","","","","",""
"learning-instructions","112","669784","0.0-4.0-0.0-0.1","spark_pilot_2","7281","7","10","Male","","","","","","","1315","<p><b>New</b> animals with <b>new</b> treasure chests live here. You need to explore to discover where the animal with the best treasure chest is.</p>
                    <p> Like before, once you figure out which animal has the chest with the most treasure, you should try to get to that animal and select that chest! </p>","","instructions","","","","","","","","","","","","","",""
"learning-instructions","113","685681","0.0-4.0-1.0-0.0","spark_pilot_2","7281","7","10","Male","","","","","","","1173.4000000059605","<p> Remember, when you see a picture of the place, use the up and down keys to <b>find an animal</b>.</p>
            <p> When you encounter an animal, you should use the left and right keys to <b>select a treasure chest</b>.</p>
            <p> Don't forget to look out for the robber! </p>","","instructions","","","","","","","","","","","","","",""
"revaluation","114","691690","0.0-4.0-2.0-0.0","spark_pilot_2","7281","7","10","Male","","false","","","","","[1026.0999999940395,952.5999999940395]","./assets/img/canyon/memory/36.jpg","[""ArrowUp"",""ArrowRight""]","value training","canyon","10","{""ArrowUp,ArrowLeft"":23,""ArrowUp,ArrowRight"":10,""ArrowDown,ArrowLeft"":8,""ArrowDown,ArrowRight"":30}","false","ArrowUp,ArrowRight","false","","","original","1","0","","",""
"html-keyboard-response","115","692199","0.0-4.0-2.0-1.0","spark_pilot_2","7281","7","10","Male","","","","","","","null","<div style=""font-size:60px;"">+</div>","null","fixation","","","","","","","","","","","1","","",""
"revaluation","116","698208","0.0-4.0-2.0-0.1","spark_pilot_2","7281","7","10","Male","","false","","","","","[586.3000000119209,897.1000000238419]","./assets/img/canyon/memory/15.jpg","[""ArrowDown"",""ArrowRight""]","value training","canyon","30","{""ArrowUp,ArrowLeft"":23,""ArrowUp,ArrowRight"":10,""ArrowDown,ArrowLeft"":8,""ArrowDown,ArrowRight"":30}","true","ArrowDown,ArrowRight","false","","","original","1","2","","",""
"html-keyboard-response","117","698711","0.0-4.0-2.0-1.1","spark_pilot_2","7281","7","10","Male","","","","","","","null","<div style=""font-size:60px;"">+</div>","null","fixation","","","","","","","","","","","3","","",""
"revaluation","118","704718","0.0-4.0-2.0-0.2","spark_pilot_2","7281","7","10","Male","","false","","","","","[532.1999999880791,552.5]","./assets/img/canyon/memory/20.jpg","[""ArrowUp"",""ArrowLeft""]","value training","canyon","23","{""ArrowUp,ArrowLeft"":23,""ArrowUp,ArrowRight"":10,""ArrowDown,ArrowLeft"":8,""ArrowDown,ArrowRight"":30}","false","ArrowUp,ArrowLeft","false","","","original","1","4","","",""
"html-keyboard-response","119","705221","0.0-4.0-2.0-1.2","spark_pilot_2","7281","7","10","Male","","","","","","","null","<div style=""font-size:60px;"">+</div>","null","fixation","","","","","","","","","","","5","","",""
"revaluation","120","711230","0.0-4.0-2.0-0.3","spark_pilot_2","7281","7","10","Male","","false","","","","","[806.5999999940395,577]","./assets/img/canyon/memory/26.jpg","[""ArrowDown"",""ArrowLeft""]","value training","canyon","8","{""ArrowUp,ArrowLeft"":23,""ArrowUp,ArrowRight"":10,""ArrowDown,ArrowLeft"":8,""ArrowDown,ArrowRight"":30}","false","ArrowDown,ArrowLeft","false","","","original","1","6","","",""
"html-keyboard-response","121","711733","0.0-4.0-2.0-1.3","spark_pilot_2","7281","7","10","Male","","","","","","","null","<div style=""font-size:60px;"">+</div>","null","fixation","","","","","","","","","","","7","","",""
"revaluation","122","717741","0.0-4.0-2.0-0.4","spark_pilot_2","7281","7","10","Male","","false","","","","","[442.2000000178814,305.59999999403954]","./assets/img/canyon/memory/14.jpg","[""ArrowDown"",""ArrowRight""]","value training","canyon","30","{""ArrowUp,ArrowLeft"":23,""ArrowUp,ArrowRight"":10,""ArrowDown,ArrowLeft"":8,""ArrowDown,ArrowRight"":30}","true","ArrowDown,ArrowRight","false","","","original","1","8","","",""
"html-keyboard-response","123","718244","0.0-4.0-2.0-1.4","spark_pilot_2","7281","7","10","Male","","","","","","","null","<div style=""font-size:60px;"">+</div>","null","fixation","","","","","","","","","","","9","","",""
"revaluation","124","724253","0.0-4.0-2.0-0.5","spark_pilot_2","7281","7","10","Male","","false","","","","","[802.8000000119209,512.6999999880791]","./assets/img/canyon/memory/12.jpg","[""ArrowDown"",""ArrowRight""]","value training","canyon","30","{""ArrowUp,ArrowLeft"":23,""ArrowUp,ArrowRight"":10,""ArrowDown,ArrowLeft"":8,""ArrowDown,ArrowRight"":30}","true","ArrowDown,ArrowRight","false","","","original","1","10","","",""
"html-keyboard-response","125","724756","0.0-4.0-2.0-1.5","spark_pilot_2","7281","7","10","Male","","","","","","","null","<div style=""font-size:60px;"">+</div>","null","fixation","","","","","","","","","","","11","","",""
"revaluation","126","730765","0.0-4.0-2.0-0.6","spark_pilot_2","7281","7","10","Male","","false","","","","","[779.5,428.09999999403954]","./assets/img/canyon/memory/1.jpg","[""ArrowDown"",""ArrowRight""]","value training","canyon","30","{""ArrowUp,ArrowLeft"":23,""ArrowUp,ArrowRight"":10,""ArrowDown,ArrowLeft"":8,""ArrowDown,ArrowRight"":30}","true","ArrowDown,ArrowRight","false","","","original","1","12","","",""
"html-keyboard-response","127","731268","0.0-4.0-2.0-1.6","spark_pilot_2","7281","7","10","Male","","","","","","","null","<div style=""font-size:60px;"">+</div>","null","fixation","","","","","","","","","","","13","","",""
"revaluation","128","737283","0.0-4.0-2.0-0.7","spark_pilot_2","7281","7","10","Male","","false","","","","","[632.6999999880791,339.40000000596046]","./assets/img/canyon/memory/12.jpg","[""ArrowDown"",""ArrowRight""]","value training","canyon","30","{""ArrowUp,ArrowLeft"":23,""ArrowUp,ArrowRight"":10,""ArrowDown,ArrowLeft"":8,""ArrowDown,ArrowRight"":30}","true","ArrowDown,ArrowRight","false","","","original","1","14","","",""
"html-keyboard-response","129","737786","0.0-4.0-2.0-1.7","spark_pilot_2","7281","7","10","Male","","","","","","","null","<div style=""font-size:60px;"">+</div>","null","fixation","","","","","","","","","","","15","","",""
"revaluation","130","743792","0.0-4.0-2.0-0.8","spark_pilot_2","7281","7","10","Male","","false","","","","","[1219.800000011921,550.2999999821186]","./assets/img/canyon/memory/11.jpg","[""ArrowDown"",""ArrowRight""]","value training","canyon","30","{""ArrowUp,ArrowLeft"":23,""ArrowUp,ArrowRight"":10,""ArrowDown,ArrowLeft"":8,""ArrowDown,ArrowRight"":30}","true","ArrowDown,ArrowRight","false","","","original","1","16","","",""
"html-keyboard-response","131","744295","0.0-4.0-2.0-1.8","spark_pilot_2","7281","7","10","Male","","","","","","","null","<div style=""font-size:60px;"">+</div>","null","fixation","","","","","","","","","","","17","","",""
"revaluation","132","750303","0.0-4.0-2.0-0.9","spark_pilot_2","7281","7","10","Male","","false","","","","","[896.9000000059605,402.19999998807907]","./assets/img/canyon/memory/2.jpg","[""ArrowDown"",""ArrowRight""]","value training","canyon","30","{""ArrowUp,ArrowLeft"":23,""ArrowUp,ArrowRight"":10,""ArrowDown,ArrowLeft"":8,""ArrowDown,ArrowRight"":30}","true","ArrowDown,ArrowRight","false","","","original","1","18","","",""
"html-keyboard-response","133","750805","0.0-4.0-2.0-1.9","spark_pilot_2","7281","7","10","Male","","","","","","","null","<div style=""font-size:60px;"">+</div>","null","fixation","","","","","","","","","","","19","","",""
"revaluation","134","756814","0.0-4.0-2.0-0.10","spark_pilot_2","7281","7","10","Male","","false","","","","","[726.4000000059605,395.2999999821186]","./assets/img/canyon/memory/39.jpg","[""ArrowDown"",""ArrowRight""]","value training","canyon","30","{""ArrowUp,ArrowLeft"":23,""ArrowUp,ArrowRight"":10,""ArrowDown,ArrowLeft"":8,""ArrowDown,ArrowRight"":30}","true","ArrowDown,ArrowRight","false","","","original","1","20","","",""
"html-keyboard-response","135","757316","0.0-4.0-2.0-1.10","spark_pilot_2","7281","7","10","Male","","","","","","","null","<div style=""font-size:60px;"">+</div>","null","fixation","","","","","","","","","","","21","","",""
"revaluation","136","763325","0.0-4.0-2.0-0.11","spark_pilot_2","7281","7","10","Male","","false","","","","","[535.3000000119209,487.2000000178814]","./assets/img/canyon/memory/7.jpg","[""ArrowDown"",""ArrowRight""]","value training","canyon","30","{""ArrowUp,ArrowLeft"":23,""ArrowUp,ArrowRight"":10,""ArrowDown,ArrowLeft"":8,""ArrowDown,ArrowRight"":30}","true","ArrowDown,ArrowRight","false","","","original","1","22","","",""
"html-keyboard-response","137","763829","0.0-4.0-2.0-1.11","spark_pilot_2","7281","7","10","Male","","","","","","","null","<div style=""font-size:60px;"">+</div>","null","fixation","","","","","","","","","","","23","","",""
"revaluation","138","769848","0.0-4.0-2.0-0.12","spark_pilot_2","7281","7","10","Male","","false","","","","","[736.5,544.5999999940395]","./assets/img/canyon/memory/1.jpg","[""ArrowDown"",""ArrowRight""]","value training","canyon","30","{""ArrowUp,ArrowLeft"":23,""ArrowUp,ArrowRight"":10,""ArrowDown,ArrowLeft"":8,""ArrowDown,ArrowRight"":30}","true","ArrowDown,ArrowRight","false","","","original","1","24","","",""
"html-keyboard-response","139","770351","0.0-4.0-2.0-1.12","spark_pilot_2","7281","7","10","Male","","","","","","","null","<div style=""font-size:60px;"">+</div>","null","fixation","","","","","","","","","","","25","","",""
"revaluation","140","776361","0.0-4.0-2.0-0.13","spark_pilot_2","7281","7","10","Male","","false","","","","","[902.1999999880791,613.0999999940395]","./assets/img/canyon/memory/15.jpg","[""ArrowDown"",""ArrowRight""]","value training","canyon","30","{""ArrowUp,ArrowLeft"":23,""ArrowUp,ArrowRight"":10,""ArrowDown,ArrowLeft"":8,""ArrowDown,ArrowRight"":30}","true","ArrowDown,ArrowRight","false","","","original","1","26","","",""
"html-keyboard-response","141","776865","0.0-4.0-2.0-1.13","spark_pilot_2","7281","7","10","Male","","","","","","","null","<div style=""font-size:60px;"">+</div>","null","fixation","","","","","","","","","","","27","","",""
"revaluation","142","782875","0.0-4.0-2.0-0.14","spark_pilot_2","7281","7","10","Male","","false","","","","","[750.0999999940395,729.4000000059605]","./assets/img/canyon/memory/20.jpg","[""ArrowDown"",""ArrowRight""]","value training","canyon","30","{""ArrowUp,ArrowLeft"":23,""ArrowUp,ArrowRight"":10,""ArrowDown,ArrowLeft"":8,""ArrowDown,ArrowRight"":30}","true","ArrowDown,ArrowRight","false","","","original","1","28","","",""
"html-keyboard-response","143","783380","0.0-4.0-2.0-1.14","spark_pilot_2","7281","7","10","Male","","","","","","","null","<div style=""font-size:60px;"">+</div>","null","fixation","","","","","","","","","","","29","","",""
"revaluation","144","789394","0.0-4.0-2.0-0.15","spark_pilot_2","7281","7","10","Male","","false","","","","","[652.0999999940395,369]","./assets/img/canyon/memory/16.jpg","[""ArrowDown"",""ArrowRight""]","value training","canyon","30","{""ArrowUp,ArrowLeft"":23,""ArrowUp,ArrowRight"":10,""ArrowDown,ArrowLeft"":8,""ArrowDown,ArrowRight"":30}","true","ArrowDown,ArrowRight","false","","","original","1","30","","",""
"html-keyboard-response","145","789898","0.0-4.0-2.0-1.15","spark_pilot_2","7281","7","10","Male","","","","","","","null","<div style=""font-size:60px;"">+</div>","null","fixation","","","","","","","","","","","31","","",""
"revaluation","146","795908","0.0-4.0-2.0-0.16","spark_pilot_2","7281","7","10","Male","","false","","","","","[891.5,630.2999999821186]","./assets/img/canyon/memory/35.jpg","[""ArrowDown"",""ArrowRight""]","value training","canyon","30","{""ArrowUp,ArrowLeft"":23,""ArrowUp,ArrowRight"":10,""ArrowDown,ArrowLeft"":8,""ArrowDown,ArrowRight"":30}","true","ArrowDown,ArrowRight","false","","","original","1","32","","",""
"html-keyboard-response","147","796411","0.0-4.0-2.0-1.16","spark_pilot_2","7281","7","10","Male","","","","","","","null","<div style=""font-size:60px;"">+</div>","null","fixation","","","","","","","","","","","33","","",""
"revaluation","148","800419","0.0-4.0-2.0-0.17","spark_pilot_2","7281","7","10","Male","","false","","","","","[673.5999999940395]","./assets/img/canyon/catch/6.jpg","[""spaceBar""]","value training","canyon","0","{""ArrowUp,ArrowLeft"":23,""ArrowUp,ArrowRight"":10,""ArrowDown,ArrowLeft"":8,""ArrowDown,ArrowRight"":30}","true","spaceBar","true","","","original","1","34","","",""
"html-keyboard-response","149","800921","0.0-4.0-2.0-1.17","spark_pilot_2","7281","7","10","Male","","","","","","","null","<div style=""font-size:60px;"">+</div>","null","fixation","","","","","","","","","","","35","","",""
"revaluation","150","806929","0.0-4.0-2.0-0.18","spark_pilot_2","7281","7","10","Male","","false","","","","","[1290,609.9000000059605]","./assets/img/canyon/memory/26.jpg","[""ArrowDown"",""ArrowRight""]","value training","canyon","30","{""ArrowUp,ArrowLeft"":23,""ArrowUp,ArrowRight"":10,""ArrowDown,ArrowLeft"":8,""ArrowDown,ArrowRight"":30}","true","ArrowDown,ArrowRight","false","","","original","1","36","","",""
"html-keyboard-response","151","807432","0.0-4.0-2.0-1.18","spark_pilot_2","7281","7","10","Male","","","","","","","null","<div style=""font-size:60px;"">+</div>","null","fixation","","","","","","","","","","","37","","",""
"revaluation","152","813441","0.0-4.0-2.0-0.19","spark_pilot_2","7281","7","10","Male","","false","","","","","[678.9000000059605,510.10000002384186]","./assets/img/canyon/memory/4.jpg","[""ArrowDown"",""ArrowRight""]","value training","canyon","30","{""ArrowUp,ArrowLeft"":23,""ArrowUp,ArrowRight"":10,""ArrowDown,ArrowLeft"":8,""ArrowDown,ArrowRight"":30}","true","ArrowDown,ArrowRight","false","","","original","1","38","","",""
"html-keyboard-response","153","813943","0.0-4.0-2.0-1.19","spark_pilot_2","7281","7","10","Male","","","","","","","null","<div style=""font-size:60px;"">+</div>","null","fixation","","","","","","","","","","","39","","",""
"revaluation","154","819953","0.0-4.0-2.0-0.20","spark_pilot_2","7281","7","10","Male","","false","","","","","[655.5999999940395,368.19999998807907]","./assets/img/canyon/memory/11.jpg","[""ArrowDown"",""ArrowRight""]","value training","canyon","30","{""ArrowUp,ArrowLeft"":23,""ArrowUp,ArrowRight"":10,""ArrowDown,ArrowLeft"":8,""ArrowDown,ArrowRight"":30}","true","ArrowDown,ArrowRight","false","","","original","1","40","","",""
"html-keyboard-response","155","820456","0.0-4.0-2.0-1.20","spark_pilot_2","7281","7","10","Male","","","","","","","null","<div style=""font-size:60px;"">+</div>","null","fixation","","","","","","","","","","","41","","",""
"revaluation","156","826464","0.0-4.0-2.0-0.21","spark_pilot_2","7281","7","10","Male","","false","","","","","[544,425.2999999821186]","./assets/img/canyon/memory/33.jpg","[""ArrowDown"",""ArrowRight""]","value training","canyon","30","{""ArrowUp,ArrowLeft"":23,""ArrowUp,ArrowRight"":10,""ArrowDown,ArrowLeft"":8,""ArrowDown,ArrowRight"":30}","true","ArrowDown,ArrowRight","false","","","original","1","42","","",""
"html-keyboard-response","157","826966","0.0-4.0-2.0-1.21","spark_pilot_2","7281","7","10","Male","","","","","","","null","<div style=""font-size:60px;"">+</div>","null","fixation","","","","","","","","","","","43","","",""
"revaluation","158","830973","0.0-4.0-2.0-0.22","spark_pilot_2","7281","7","10","Male","","false","","","","","[928]","./assets/img/canyon/catch/4.jpg","[""spaceBar""]","value training","canyon","0","{""ArrowUp,ArrowLeft"":23,""ArrowUp,ArrowRight"":10,""ArrowDown,ArrowLeft"":8,""ArrowDown,ArrowRight"":30}","true","spaceBar","true","","","original","1","44","","",""
"html-keyboard-response","159","831475","0.0-4.0-2.0-1.22","spark_pilot_2","7281","7","10","Male","","","","","","","null","<div style=""font-size:60px;"">+</div>","null","fixation","","","","","","","","","","","45","","",""
"revaluation","160","835483","0.0-4.0-2.0-0.23","spark_pilot_2","7281","7","10","Male","","false","","","","","[769]","./assets/img/canyon/catch/5.jpg","[""spaceBar""]","value training","canyon","0","{""ArrowUp,ArrowLeft"":23,""ArrowUp,ArrowRight"":10,""ArrowDown,ArrowLeft"":8,""ArrowDown,ArrowRight"":30}","true","spaceBar","true","","","original","1","46","","",""
"html-keyboard-response","161","835985","0.0-4.0-2.0-1.23","spark_pilot_2","7281","7","10","Male","","","","","","","null","<div style=""font-size:60px;"">+</div>","null","fixation","","","","","","","","","","","47","","",""
"revaluation","162","841994","0.0-4.0-2.0-0.24","spark_pilot_2","7281","7","10","Male","","false","","","","","[692.2000000178814,258]","./assets/img/canyon/memory/37.jpg","[""ArrowDown"",""ArrowRight""]","value training","canyon","30","{""ArrowUp,ArrowLeft"":23,""ArrowUp,ArrowRight"":10,""ArrowDown,ArrowLeft"":8,""ArrowDown,ArrowRight"":30}","true","ArrowDown,ArrowRight","false","","","original","1","48","","",""
"html-keyboard-response","163","842496","0.0-4.0-2.0-1.24","spark_pilot_2","7281","7","10","Male","","","","","","","null","<div style=""font-size:60px;"">+</div>","null","fixation","","","","","","","","","","","49","","",""
"revaluation","164","846505","0.0-4.0-2.0-0.25","spark_pilot_2","7281","7","10","Male","","false","","","","","[671.2999999821186]","./assets/img/canyon/catch/7.jpg","[""spaceBar""]","value training","canyon","0","{""ArrowUp,ArrowLeft"":23,""ArrowUp,ArrowRight"":10,""ArrowDown,ArrowLeft"":8,""ArrowDown,ArrowRight"":30}","true","spaceBar","true","","","original","1","50","","",""
"html-keyboard-response","165","847008","0.0-4.0-2.0-1.25","spark_pilot_2","7281","7","10","Male","","","","","","","null","<div style=""font-size:60px;"">+</div>","null","fixation","","","","","","","","","","","51","","",""
"revaluation","166","853016","0.0-4.0-2.0-0.26","spark_pilot_2","7281","7","10","Male","","false","","","","","[983.8000000119209,436.5]","./assets/img/canyon/memory/25.jpg","[""ArrowDown"",""ArrowRight""]","value training","canyon","30","{""ArrowUp,ArrowLeft"":23,""ArrowUp,ArrowRight"":10,""ArrowDown,ArrowLeft"":8,""ArrowDown,ArrowRight"":30}","true","ArrowDown,ArrowRight","false","","","original","1","52","","",""
"html-keyboard-response","167","853519","0.0-4.0-2.0-1.26","spark_pilot_2","7281","7","10","Male","","","","","","","null","<div style=""font-size:60px;"">+</div>","null","fixation","","","","","","","","","","","53","","",""
"revaluation","168","859528","0.0-4.0-2.0-0.27","spark_pilot_2","7281","7","10","Male","","false","","","","","[1039,654.4000000059605]","./assets/img/canyon/memory/2.jpg","[""ArrowDown"",""ArrowRight""]","value training","canyon","30","{""ArrowUp,ArrowLeft"":23,""ArrowUp,ArrowRight"":10,""ArrowDown,ArrowLeft"":8,""ArrowDown,ArrowRight"":30}","true","ArrowDown,ArrowRight","false","","","original","1","54","","",""
"html-keyboard-response","169","860031","0.0-4.0-2.0-1.27","spark_pilot_2","7281","7","10","Male","","","","","","","null","<div style=""font-size:60px;"">+</div>","null","fixation","","","","","","","","","","","55","","",""
"revaluation","170","866039","0.0-4.0-2.0-0.28","spark_pilot_2","7281","7","10","Male","","false","","","","","[1105.5999999940395,714.1999999880791]","./assets/img/canyon/memory/7.jpg","[""ArrowDown"",""ArrowRight""]","value training","canyon","30","{""ArrowUp,ArrowLeft"":23,""ArrowUp,ArrowRight"":10,""ArrowDown,ArrowLeft"":8,""ArrowDown,ArrowRight"":30}","true","ArrowDown,ArrowRight","false","","","original","1","56","","",""
"html-keyboard-response","171","866543","0.0-4.0-2.0-1.28","spark_pilot_2","7281","7","10","Male","","","","","","","null","<div style=""font-size:60px;"">+</div>","null","fixation","","","","","","","","","","","57","","",""
"revaluation","172","872552","0.0-4.0-2.0-0.29","spark_pilot_2","7281","7","10","Male","","false","","","","","[674.2999999821186,572.5999999940395]","./assets/img/canyon/memory/39.jpg","[""ArrowDown"",""ArrowRight""]","value training","canyon","30","{""ArrowUp,ArrowLeft"":23,""ArrowUp,ArrowRight"":10,""ArrowDown,ArrowLeft"":8,""ArrowDown,ArrowRight"":30}","true","ArrowDown,ArrowRight","false","","","original","1","58","","",""
"html-keyboard-response","173","873055","0.0-4.0-2.0-1.29","spark_pilot_2","7281","7","10","Male","","","","","","","null","<div style=""font-size:60px;"">+</div>","null","fixation","","","","","","","","","","","59","","",""
"revaluation","174","879064","0.0-4.0-2.0-0.30","spark_pilot_2","7281","7","10","Male","","false","","","","","[795.8000000119209,427.2999999821186]","./assets/img/canyon/memory/16.jpg","[""ArrowDown"",""ArrowRight""]","value training","canyon","30","{""ArrowUp,ArrowLeft"":23,""ArrowUp,ArrowRight"":10,""ArrowDown,ArrowLeft"":8,""ArrowDown,ArrowRight"":30}","true","ArrowDown,ArrowRight","false","","","original","1","60","","",""
"html-keyboard-response","175","879568","0.0-4.0-2.0-1.30","spark_pilot_2","7281","7","10","Male","","","","","","","null","<div style=""font-size:60px;"">+</div>","null","fixation","","","","","","","","","","","61","","",""
"revaluation","176","885577","0.0-4.0-2.0-0.31","spark_pilot_2","7281","7","10","Male","","false","","","","","[716.9000000059605,636.7999999821186]","./assets/img/canyon/memory/4.jpg","[""ArrowDown"",""ArrowRight""]","value training","canyon","30","{""ArrowUp,ArrowLeft"":23,""ArrowUp,ArrowRight"":10,""ArrowDown,ArrowLeft"":8,""ArrowDown,ArrowRight"":30}","true","ArrowDown,ArrowRight","false","","","original","1","62","","",""
"html-keyboard-response","177","886079","0.0-4.0-2.0-1.31","spark_pilot_2","7281","7","10","Male","","","","","","","null","<div style=""font-size:60px;"">+</div>","null","fixation","","","","","","","","","","","63","","",""
"revaluation","178","890088","0.0-4.0-2.0-0.32","spark_pilot_2","7281","7","10","Male","","false","","","","","[1058.5999999940395]","./assets/img/canyon/catch/2.jpg","[""spaceBar""]","value training","canyon","0","{""ArrowUp,ArrowLeft"":23,""ArrowUp,ArrowRight"":10,""ArrowDown,ArrowLeft"":8,""ArrowDown,ArrowRight"":30}","true","spaceBar","true","","","original","1","64","","",""
"html-keyboard-response","179","890590","0.0-4.0-2.0-1.32","spark_pilot_2","7281","7","10","Male","","","","","","","null","<div style=""font-size:60px;"">+</div>","null","fixation","","","","","","","","","","","65","","",""
"revaluation","180","896599","0.0-4.0-2.0-0.33","spark_pilot_2","7281","7","10","Male","","false","","","","","[674.7000000178814,520.4000000059605]","./assets/img/canyon/memory/14.jpg","[""ArrowDown"",""ArrowRight""]","value training","canyon","30","{""ArrowUp,ArrowLeft"":23,""ArrowUp,ArrowRight"":10,""ArrowDown,ArrowLeft"":8,""ArrowDown,ArrowRight"":30}","true","ArrowDown,ArrowRight","false","","","original","1","66","","",""
"html-keyboard-response","181","897103","0.0-4.0-2.0-1.33","spark_pilot_2","7281","7","10","Male","","","","","","","null","<div style=""font-size:60px;"">+</div>","null","fixation","","","","","","","","","","","67","","",""
"revaluation","182","903112","0.0-4.0-2.0-0.34","spark_pilot_2","7281","7","10","Male","","false","","","","","[1031.0999999940395,489.89999997615814]","./assets/img/canyon/memory/38.jpg","[""ArrowDown"",""ArrowRight""]","value training","canyon","30","{""ArrowUp,ArrowLeft"":23,""ArrowUp,ArrowRight"":10,""ArrowDown,ArrowLeft"":8,""ArrowDown,ArrowRight"":30}","true","ArrowDown,ArrowRight","false","","","original","1","68","","",""
"html-keyboard-response","183","903615","0.0-4.0-2.0-1.34","spark_pilot_2","7281","7","10","Male","","","","","","","null","<div style=""font-size:60px;"">+</div>","null","fixation","","","","","","","","","","","69","","",""
"revaluation","184","909624","0.0-4.0-2.0-0.35","spark_pilot_2","7281","7","10","Male","","false","","","","","[878,1103.5999999940395]","./assets/img/canyon/memory/17.jpg","[""ArrowDown"",""ArrowRight""]","value training","canyon","30","{""ArrowUp,ArrowLeft"":23,""ArrowUp,ArrowRight"":10,""ArrowDown,ArrowLeft"":8,""ArrowDown,ArrowRight"":30}","true","ArrowDown,ArrowRight","false","","","original","1","70","","",""
"html-keyboard-response","185","910127","0.0-4.0-2.0-1.35","spark_pilot_2","7281","7","10","Male","","","","","","","null","<div style=""font-size:60px;"">+</div>","null","fixation","","","","","","","","","","","71","","",""
"revaluation","186","916137","0.0-4.0-2.0-0.36","spark_pilot_2","7281","7","10","Male","","false","","","","","[830.6999999880791,722.6000000238419]","./assets/img/canyon/memory/9.jpg","[""ArrowDown"",""ArrowRight""]","value training","canyon","30","{""ArrowUp,ArrowLeft"":23,""ArrowUp,ArrowRight"":10,""ArrowDown,ArrowLeft"":8,""ArrowDown,ArrowRight"":30}","true","ArrowDown,ArrowRight","false","","","original","1","72","","",""
"html-keyboard-response","187","916641","0.0-4.0-2.0-1.36","spark_pilot_2","7281","7","10","Male","","","","","","","null","<div style=""font-size:60px;"">+</div>","null","fixation","","","","","","","","","","","73","","",""
"revaluation","188","920649","0.0-4.0-2.0-0.37","spark_pilot_2","7281","7","10","Male","","false","","","","","[612.9000000059605]","./assets/img/canyon/catch/3.jpg","[""spaceBar""]","value training","canyon","0","{""ArrowUp,ArrowLeft"":23,""ArrowUp,ArrowRight"":10,""ArrowDown,ArrowLeft"":8,""ArrowDown,ArrowRight"":30}","true","spaceBar","true","","","original","1","74","","",""
"html-keyboard-response","189","921151","0.0-4.0-2.0-1.37","spark_pilot_2","7281","7","10","Male","","","","","","","null","<div style=""font-size:60px;"">+</div>","null","fixation","","","","","","","","","","","75","","",""
"revaluation","190","925159","0.0-4.0-2.0-0.38","spark_pilot_2","7281","7","10","Male","","false","","","","","[1083.4000000059605]","./assets/img/canyon/catch/0.jpg","[""spaceBar""]","value training","canyon","0","{""ArrowUp,ArrowLeft"":23,""ArrowUp,ArrowRight"":10,""ArrowDown,ArrowLeft"":8,""ArrowDown,ArrowRight"":30}","true","spaceBar","true","","","original","1","76","","",""
"html-keyboard-response","191","925662","0.0-4.0-2.0-1.38","spark_pilot_2","7281","7","10","Male","","","","","","","null","<div style=""font-size:60px;"">+</div>","null","fixation","","","","","","","","","","","77","","",""
"revaluation","192","931673","0.0-4.0-2.0-0.39","spark_pilot_2","7281","7","10","Male","","false","","","","","[616.1999999880791,409.59999999403954]","./assets/img/canyon/memory/30.jpg","[""ArrowDown"",""ArrowRight""]","value training","canyon","30","{""ArrowUp,ArrowLeft"":23,""ArrowUp,ArrowRight"":10,""ArrowDown,ArrowLeft"":8,""ArrowDown,ArrowRight"":30}","true","ArrowDown,ArrowRight","false","","","original","1","78","","",""
"html-keyboard-response","193","932175","0.0-4.0-2.0-1.39","spark_pilot_2","7281","7","10","Male","","","","","","","null","<div style=""font-size:60px;"">+</div>","null","fixation","","","","","","","","","","","79","","",""
"revaluation","194","938185","0.0-4.0-2.0-0.40","spark_pilot_2","7281","7","10","Male","","false","","","","","[751.6999999880791,623.6999999880791]","./assets/img/canyon/memory/30.jpg","[""ArrowDown"",""ArrowRight""]","value training","canyon","30","{""ArrowUp,ArrowLeft"":23,""ArrowUp,ArrowRight"":10,""ArrowDown,ArrowLeft"":8,""ArrowDown,ArrowRight"":30}","true","ArrowDown,ArrowRight","false","","","original","1","80","","",""
"html-keyboard-response","195","938688","0.0-4.0-2.0-1.40","spark_pilot_2","7281","7","10","Male","","","","","","","null","<div style=""font-size:60px;"">+</div>","null","fixation","","","","","","","","","","","81","","",""
"revaluation","196","944696","0.0-4.0-2.0-0.41","spark_pilot_2","7281","7","10","Male","","false","","","","","[1479.5999999940395,1683.2000000178814]","./assets/img/canyon/memory/25.jpg","[""ArrowDown"",""ArrowRight""]","value training","canyon","30","{""ArrowUp,ArrowLeft"":23,""ArrowUp,ArrowRight"":10,""ArrowDown,ArrowLeft"":8,""ArrowDown,ArrowRight"":30}","true","ArrowDown,ArrowRight","false","","","original","1","82","","",""
"html-keyboard-response","197","945199","0.0-4.0-2.0-1.41","spark_pilot_2","7281","7","10","Male","","","","","","","null","<div style=""font-size:60px;"">+</div>","null","fixation","","","","","","","","","","","83","","",""
"revaluation","198","949208","0.0-4.0-2.0-0.42","spark_pilot_2","7281","7","10","Male","","false","","","","","[747.0999999940395]","./assets/img/canyon/catch/1.jpg","[""spaceBar""]","value training","canyon","0","{""ArrowUp,ArrowLeft"":23,""ArrowUp,ArrowRight"":10,""ArrowDown,ArrowLeft"":8,""ArrowDown,ArrowRight"":30}","true","spaceBar","true","","","original","1","84","","",""
"html-keyboard-response","199","949711","0.0-4.0-2.0-1.42","spark_pilot_2","7281","7","10","Male","","","","","","","null","<div style=""font-size:60px;"">+</div>","null","fixation","","","","","","","","","","","85","","",""
"revaluation","200","955720","0.0-4.0-2.0-0.43","spark_pilot_2","7281","7","10","Male","","false","","","","","[820.9000000059605,328.80000001192093]","./assets/img/canyon/memory/38.jpg","[""ArrowDown"",""ArrowRight""]","value training","canyon","30","{""ArrowUp,ArrowLeft"":23,""ArrowUp,ArrowRight"":10,""ArrowDown,ArrowLeft"":8,""ArrowDown,ArrowRight"":30}","true","ArrowDown,ArrowRight","false","","","original","1","86","","",""
"html-keyboard-response","201","956223","0.0-4.0-2.0-1.43","spark_pilot_2","7281","7","10","Male","","","","","","","null","<div style=""font-size:60px;"">+</div>","null","fixation","","","","","","","","","","","87","","",""
"revaluation","202","962233","0.0-4.0-2.0-0.44","spark_pilot_2","7281","7","10","Male","","false","","","","","[1102.199999988079,1006.7999999821186]","./assets/img/canyon/memory/35.jpg","[""ArrowDown"",""ArrowRight""]","value training","canyon","30","{""ArrowUp,ArrowLeft"":23,""ArrowUp,ArrowRight"":10,""ArrowDown,ArrowLeft"":8,""ArrowDown,ArrowRight"":30}","true","ArrowDown,ArrowRight","false","","","original","1","88","","",""
"html-keyboard-response","203","962736","0.0-4.0-2.0-1.44","spark_pilot_2","7281","7","10","Male","","","","","","","null","<div style=""font-size:60px;"">+</div>","null","fixation","","","","","","","","","","","89","","",""
"revaluation","204","968746","0.0-4.0-2.0-0.45","spark_pilot_2","7281","7","10","Male","","false","","","","","[780.1999999880791,882.1999999880791]","./assets/img/canyon/memory/17.jpg","[""ArrowDown"",""ArrowRight""]","value training","canyon","30","{""ArrowUp,ArrowLeft"":23,""ArrowUp,ArrowRight"":10,""ArrowDown,ArrowLeft"":8,""ArrowDown,ArrowRight"":30}","true","ArrowDown,ArrowRight","false","","","original","1","90","","",""
"html-keyboard-response","205","969250","0.0-4.0-2.0-1.45","spark_pilot_2","7281","7","10","Male","","","","","","","null","<div style=""font-size:60px;"">+</div>","null","fixation","","","","","","","","","","","91","","",""
"revaluation","206","975259","0.0-4.0-2.0-0.46","spark_pilot_2","7281","7","10","Male","","false","","","","","[894.5,724]","./assets/img/canyon/memory/33.jpg","[""ArrowDown"",""ArrowRight""]","value training","canyon","30","{""ArrowUp,ArrowLeft"":23,""ArrowUp,ArrowRight"":10,""ArrowDown,ArrowLeft"":8,""ArrowDown,ArrowRight"":30}","true","ArrowDown,ArrowRight","false","","","original","1","92","","",""
"html-keyboard-response","207","975762","0.0-4.0-2.0-1.46","spark_pilot_2","7281","7","10","Male","","","","","","","null","<div style=""font-size:60px;"">+</div>","null","fixation","","","","","","","","","","","93","","",""
"revaluation","208","981772","0.0-4.0-2.0-0.47","spark_pilot_2","7281","7","10","Male","","false","","","","","[1251,761.5999999940395]","./assets/img/canyon/memory/36.jpg","[""ArrowDown"",""ArrowRight""]","value training","canyon","30","{""ArrowUp,ArrowLeft"":23,""ArrowUp,ArrowRight"":10,""ArrowDown,ArrowLeft"":8,""ArrowDown,ArrowRight"":30}","true","ArrowDown,ArrowRight","false","","","original","1","94","","",""
"html-keyboard-response","209","982274","0.0-4.0-2.0-1.47","spark_pilot_2","7281","7","10","Male","","","","","","","null","<div style=""font-size:60px;"">+</div>","null","fixation","","","","","","","","","","","95","","",""
"revaluation","210","988283","0.0-4.0-2.0-0.48","spark_pilot_2","7281","7","10","Male","","false","","","","","[1759.8999999761581,813.7000000178814]","./assets/img/canyon/memory/37.jpg","[""ArrowDown"",""ArrowRight""]","value training","canyon","30","{""ArrowUp,ArrowLeft"":23,""ArrowUp,ArrowRight"":10,""ArrowDown,ArrowLeft"":8,""ArrowDown,ArrowRight"":30}","true","ArrowDown,ArrowRight","false","","","original","1","96","","",""
"html-keyboard-response","211","988786","0.0-4.0-2.0-1.48","spark_pilot_2","7281","7","10","Male","","","","","","","null","<div style=""font-size:60px;"">+</div>","null","fixation","","","","","","","","","","","97","","",""
"revaluation","212","994794","0.0-4.0-2.0-0.49","spark_pilot_2","7281","7","10","Male","","false","","","","","[844.5999999940395,528.4000000059605]","./assets/img/canyon/memory/9.jpg","[""ArrowDown"",""ArrowRight""]","value training","canyon","30","{""ArrowUp,ArrowLeft"":23,""ArrowUp,ArrowRight"":10,""ArrowDown,ArrowLeft"":8,""ArrowDown,ArrowRight"":30}","true","ArrowDown,ArrowRight","false","","","original","1","98","","",""
"html-keyboard-response","213","995298","0.0-4.0-2.0-1.49","spark_pilot_2","7281","7","10","Male","","","","","","","null","<div style=""font-size:60px;"">+</div>","null","fixation","","","","","","","","","","","99","","",""
"learning-instructions","214","1015790","0.0-4.0-3.0-0.0","spark_pilot_2","7281","7","10","Male","","","","","","","7036.300000011921","<p> Now, you will travel with a friend who will choose whether you go up or down first. </p>
            <p> On these turns, you will just see the animal that they found. You will still get to choose which chest to search for treasure.</p>","","instructions","","","","","","","","","","","","","",""
"revaluation","215","1019796","0.0-4.0-4.0-0.0","spark_pilot_2","7281","7","10","Male","","false","","","","","[1823.3999999761581]","./assets/img/canyon/animals/lion.jpg","[""ArrowRight""]","revaluation","canyon","30","{""ArrowUp,ArrowLeft"":23,""ArrowUp,ArrowRight"":10,""ArrowDown,ArrowLeft"":8,""ArrowDown,ArrowRight"":30}","true","ArrowDown,ArrowRight","","","","original","1","0","","",""
"html-keyboard-response","216","1020308","0.0-4.0-4.0-1.0","spark_pilot_2","7281","7","10","Male","","","","","","","null","<div style=""font-size:60px;"">+</div>","null","fixation","","","","","","","","","","","1","","",""
"revaluation","217","1024314","0.0-4.0-4.0-0.1","spark_pilot_2","7281","7","10","Male","","false","","","","","[563.5]","./assets/img/canyon/animals/lion.jpg","[""ArrowRight""]","revaluation","canyon","30","{""ArrowUp,ArrowLeft"":23,""ArrowUp,ArrowRight"":10,""ArrowDown,ArrowLeft"":8,""ArrowDown,ArrowRight"":30}","true","ArrowDown,ArrowRight","","","","original","1","2","","",""
"html-keyboard-response","218","1024817","0.0-4.0-4.0-1.1","spark_pilot_2","7281","7","10","Male","","","","","","","null","<div style=""font-size:60px;"">+</div>","null","fixation","","","","","","","","","","","3","","",""
"revaluation","219","1028825","0.0-4.0-4.0-0.2","spark_pilot_2","7281","7","10","Male","","false","","","","","[422.09999999403954]","./assets/img/canyon/animals/lion.jpg","[""ArrowLeft""]","revaluation","canyon","8","{""ArrowUp,ArrowLeft"":23,""ArrowUp,ArrowRight"":10,""ArrowDown,ArrowLeft"":8,""ArrowDown,ArrowRight"":30}","false","ArrowDown,ArrowLeft","","","","original","1","4","","",""
"html-keyboard-response","220","1029327","0.0-4.0-4.0-1.2","spark_pilot_2","7281","7","10","Male","","","","","","","null","<div style=""font-size:60px;"">+</div>","null","fixation","","","","","","","","","","","5","","",""
"revaluation","221","1033336","0.0-4.0-4.0-0.3","spark_pilot_2","7281","7","10","Male","","false","","","","","[484.5]","./assets/img/canyon/animals/lion.jpg","[""ArrowRight""]","revaluation","canyon","30","{""ArrowUp,ArrowLeft"":23,""ArrowUp,ArrowRight"":10,""ArrowDown,ArrowLeft"":8,""ArrowDown,ArrowRight"":30}","true","ArrowDown,ArrowRight","","","","original","1","6","","",""
"html-keyboard-response","222","1033839","0.0-4.0-4.0-1.3","spark_pilot_2","7281","7","10","Male","","","","","","","null","<div style=""font-size:60px;"">+</div>","null","fixation","","","","","","","","","","","7","","",""
"revaluation","223","1037848","0.0-4.0-4.0-0.4","spark_pilot_2","7281","7","10","Male","","false","","","","","[387]","./assets/img/canyon/animals/giraffe.jpg","[""ArrowRight""]","revaluation","canyon","10","{""ArrowUp,ArrowLeft"":23,""ArrowUp,ArrowRight"":10,""ArrowDown,ArrowLeft"":8,""ArrowDown,ArrowRight"":30}","false","ArrowUp,ArrowRight","","","","original","1","8","","",""
"html-keyboard-response","224","1038351","0.0-4.0-4.0-1.4","spark_pilot_2","7281","7","10","Male","","","","","","","null","<div style=""font-size:60px;"">+</div>","null","fixation","","","","","","","","","","","9","","",""
"revaluation","225","1042359","0.0-4.0-4.0-0.5","spark_pilot_2","7281","7","10","Male","","false","","","","","[936.7999999821186]","./assets/img/canyon/animals/giraffe.jpg","[""ArrowLeft""]","revaluation","canyon","23","{""ArrowUp,ArrowLeft"":23,""ArrowUp,ArrowRight"":10,""ArrowDown,ArrowLeft"":8,""ArrowDown,ArrowRight"":30}","true","ArrowUp,ArrowLeft","","","","original","1","10","","",""
"html-keyboard-response","226","1042861","0.0-4.0-4.0-1.5","spark_pilot_2","7281","7","10","Male","","","","","","","null","<div style=""font-size:60px;"">+</div>","null","fixation","","","","","","","","","","","11","","",""
"revaluation","227","1046872","0.0-4.0-4.0-0.6","spark_pilot_2","7281","7","10","Male","","false","","","","","[718.1000000238419]","./assets/img/canyon/animals/giraffe.jpg","[""ArrowLeft""]","revaluation","canyon","23","{""ArrowUp,ArrowLeft"":23,""ArrowUp,ArrowRight"":10,""ArrowDown,ArrowLeft"":8,""ArrowDown,ArrowRight"":30}","true","ArrowUp,ArrowLeft","","","","original","1","12","","",""
"html-keyboard-response","228","1047376","0.0-4.0-4.0-1.6","spark_pilot_2","7281","7","10","Male","","","","","","","null","<div style=""font-size:60px;"">+</div>","null","fixation","","","","","","","","","","","13","","",""
"revaluation","229","1051385","0.0-4.0-4.0-0.7","spark_pilot_2","7281","7","10","Male","","false","","","","","[570.3000000119209]","./assets/img/canyon/animals/lion.jpg","[""ArrowRight""]","revaluation","canyon","30","{""ArrowUp,ArrowLeft"":23,""ArrowUp,ArrowRight"":10,""ArrowDown,ArrowLeft"":8,""ArrowDown,ArrowRight"":30}","true","ArrowDown,ArrowRight","","","","original","1","14","","",""
"html-keyboard-response","230","1051889","0.0-4.0-4.0-1.7","spark_pilot_2","7281","7","10","Male","","","","","","","null","<div style=""font-size:60px;"">+</div>","null","fixation","","","","","","","","","","","15","","",""
"revaluation","231","1055898","0.0-4.0-4.0-0.8","spark_pilot_2","7281","7","10","Male","","false","","","","","[722.1999999880791]","./assets/img/canyon/animals/lion.jpg","[""ArrowLeft""]","revaluation","canyon","8","{""ArrowUp,ArrowLeft"":23,""ArrowUp,ArrowRight"":10,""ArrowDown,ArrowLeft"":8,""ArrowDown,ArrowRight"":30}","false","ArrowDown,ArrowLeft","","","","original","1","16","","",""
"html-keyboard-response","232","1056401","0.0-4.0-4.0-1.8","spark_pilot_2","7281","7","10","Male","","","","","","","null","<div style=""font-size:60px;"">+</div>","null","fixation","","","","","","","","","","","17","","",""
"revaluation","233","1060410","0.0-4.0-4.0-0.9","spark_pilot_2","7281","7","10","Male","","false","","","","","[1080.0999999940395]","./assets/img/canyon/animals/giraffe.jpg","[""ArrowLeft""]","revaluation","canyon","23","{""ArrowUp,ArrowLeft"":23,""ArrowUp,ArrowRight"":10,""ArrowDown,ArrowLeft"":8,""ArrowDown,ArrowRight"":30}","true","ArrowUp,ArrowLeft","","","","original","1","18","","",""
"html-keyboard-response","234","1060912","0.0-4.0-4.0-1.9","spark_pilot_2","7281","7","10","Male","","","","","","","null","<div style=""font-size:60px;"">+</div>","null","fixation","","","","","","","","","","","19","","",""
"revaluation","235","1064918","0.0-4.0-4.0-0.10","spark_pilot_2","7281","7","10","Male","","false","","","","","[854.1999999880791]","./assets/img/canyon/animals/giraffe.jpg","[""ArrowLeft""]","revaluation","canyon","23","{""ArrowUp,ArrowLeft"":23,""ArrowUp,ArrowRight"":10,""ArrowDown,ArrowLeft"":8,""ArrowDown,ArrowRight"":30}","true","ArrowUp,ArrowLeft","","","","original","1","20","","",""
"html-keyboard-response","236","1065421","0.0-4.0-4.0-1.10","spark_pilot_2","7281","7","10","Male","","","","","","","null","<div style=""font-size:60px;"">+</div>","null","fixation","","","","","","","","","","","21","","",""
"revaluation","237","1069427","0.0-4.0-4.0-0.11","spark_pilot_2","7281","7","10","Male","","false","","","","","[748.5999999940395]","./assets/img/canyon/animals/giraffe.jpg","[""ArrowLeft""]","revaluation","canyon","23","{""ArrowUp,ArrowLeft"":23,""ArrowUp,ArrowRight"":10,""ArrowDown,ArrowLeft"":8,""ArrowDown,ArrowRight"":30}","true","ArrowUp,ArrowLeft","","","","original","1","22","","",""
"html-keyboard-response","238","1069929","0.0-4.0-4.0-1.11","spark_pilot_2","7281","7","10","Male","","","","","","","null","<div style=""font-size:60px;"">+</div>","null","fixation","","","","","","","","","","","23","","",""
"revaluation","239","1073937","0.0-4.0-4.0-0.12","spark_pilot_2","7281","7","10","Male","","false","","","","","[831.5999999940395]","./assets/img/canyon/animals/lion.jpg","[""ArrowRight""]","revaluation","canyon","30","{""ArrowUp,ArrowLeft"":23,""ArrowUp,ArrowRight"":10,""ArrowDown,ArrowLeft"":8,""ArrowDown,ArrowRight"":30}","true","ArrowDown,ArrowRight","","","","original","1","24","","",""
"html-keyboard-response","240","1074440","0.0-4.0-4.0-1.12","spark_pilot_2","7281","7","10","Male","","","","","","","null","<div style=""font-size:60px;"">+</div>","null","fixation","","","","","","","","","","","25","","",""
"revaluation","241","1078449","0.0-4.0-4.0-0.13","spark_pilot_2","7281","7","10","Male","","false","","","","","[995.0999999940395]","./assets/img/canyon/animals/lion.jpg","[""ArrowRight""]","revaluation","canyon","30","{""ArrowUp,ArrowLeft"":23,""ArrowUp,ArrowRight"":10,""ArrowDown,ArrowLeft"":8,""ArrowDown,ArrowRight"":30}","true","ArrowDown,ArrowRight","","","","original","1","26","","",""
"html-keyboard-response","242","1078952","0.0-4.0-4.0-1.13","spark_pilot_2","7281","7","10","Male","","","","","","","null","<div style=""font-size:60px;"">+</div>","null","fixation","","","","","","","","","","","27","","",""
"revaluation","243","1082959","0.0-4.0-4.0-0.14","spark_pilot_2","7281","7","10","Male","","false","","","","","[921.2999999821186]","./assets/img/canyon/animals/lion.jpg","[""ArrowRight""]","revaluation","canyon","30","{""ArrowUp,ArrowLeft"":23,""ArrowUp,ArrowRight"":10,""ArrowDown,ArrowLeft"":8,""ArrowDown,ArrowRight"":30}","true","ArrowDown,ArrowRight","","","","original","1","28","","",""
"html-keyboard-response","244","1083461","0.0-4.0-4.0-1.14","spark_pilot_2","7281","7","10","Male","","","","","","","null","<div style=""font-size:60px;"">+</div>","null","fixation","","","","","","","","","","","29","","",""
"revaluation","245","1087468","0.0-4.0-4.0-0.15","spark_pilot_2","7281","7","10","Male","","false","","","","","[709.1999999880791]","./assets/img/canyon/animals/giraffe.jpg","[""ArrowRight""]","revaluation","canyon","10","{""ArrowUp,ArrowLeft"":23,""ArrowUp,ArrowRight"":10,""ArrowDown,ArrowLeft"":8,""ArrowDown,ArrowRight"":30}","false","ArrowUp,ArrowRight","","","","original","1","30","","",""
"html-keyboard-response","246","1087971","0.0-4.0-4.0-1.15","spark_pilot_2","7281","7","10","Male","","","","","","","null","<div style=""font-size:60px;"">+</div>","null","fixation","","","","","","","","","","","31","","",""
"revaluation","247","1091992","0.0-4.0-4.0-0.16","spark_pilot_2","7281","7","10","Male","","false","","","","","[974.3000000119209]","./assets/img/canyon/animals/giraffe.jpg","[""ArrowLeft""]","revaluation","canyon","23","{""ArrowUp,ArrowLeft"":23,""ArrowUp,ArrowRight"":10,""ArrowDown,ArrowLeft"":8,""ArrowDown,ArrowRight"":30}","true","ArrowUp,ArrowLeft","","","","original","1","32","","",""
"html-keyboard-response","248","1092494","0.0-4.0-4.0-1.16","spark_pilot_2","7281","7","10","Male","","","","","","","null","<div style=""font-size:60px;"">+</div>","null","fixation","","","","","","","","","","","33","","",""
"revaluation","249","1096502","0.0-4.0-4.0-0.17","spark_pilot_2","7281","7","10","Male","","false","","","","","[1090.4000000059605]","./assets/img/canyon/animals/giraffe.jpg","[""ArrowLeft""]","revaluation","canyon","23","{""ArrowUp,ArrowLeft"":23,""ArrowUp,ArrowRight"":10,""ArrowDown,ArrowLeft"":8,""ArrowDown,ArrowRight"":30}","true","ArrowUp,ArrowLeft","","","","original","1","34","","",""
"html-keyboard-response","250","1097005","0.0-4.0-4.0-1.17","spark_pilot_2","7281","7","10","Male","","","","","","","null","<div style=""font-size:60px;"">+</div>","null","fixation","","","","","","","","","","","35","","",""
"learning-instructions","251","1111433","0.0-4.0-5.0-0.0","spark_pilot_2","7281","7","10","Male","","","","","","","2423.300000011921","<p> Time to play the dot game! </p>
            <p> For one minute, click the red dots on the following screen as they appear. </p>
            <p><b> Don't look away, as you will earn bonus for clicking dots</b>. </p>","","instructions","","","","","","","","","","","","","",""
"revaluation","252","1171436","0.0-4.0-6.0-0.0","spark_pilot_2","7281","7","10","Male","","","","","","","[92,111,104,72,77,97,128]","","","rest","","70","","","","","0","60000","","","","","",""
"learning-instructions","253","1181731","0.0-4.0-7.0-0.0","spark_pilot_2","7281","7","10","Male","","","","","","","3638.5999999940395","<p> You have almost finished this part of the game! </p>
            <p> We are going to ask you to make a few more choices. </p>","","instructions","","","","","","","","","","","","","",""
"learning-instructions","254","1197303","0.0-4.0-7.0-0.1","spark_pilot_2","7281","7","10","Male","","","","","","","1601.800000011921","<p> First, you need to decide whether to go up or down. When you see each picture, use the arrow keys to make your choice. </p>
            <p><b>You will not see which animal you found, but try to get to the one that will give you the most treasure.</b></p>","","instructions","","","","","","","","","","","","","",""
"revaluation","255","1198778","0.0-4.0-8.0-0.0","spark_pilot_2","7281","7","10","Male","","false","","","","","[1472.699999988079]","./assets/img/canyon/test/2.jpg","[""ArrowDown""]","first stage test","canyon","0","{""ArrowUp,ArrowLeft"":23,""ArrowUp,ArrowRight"":10,""ArrowDown,ArrowLeft"":8,""ArrowDown,ArrowRight"":30}","true","ArrowDown","false","","","original","1","","","",""
"html-keyboard-response","256","1199281","0.0-4.0-8.0-1.0","spark_pilot_2","7281","7","10","Male","","","","","","","null","<div style=""font-size:60px;"">+</div>","null","fixation","","","","","","","","","","","","","",""
"revaluation","257","1200211","0.0-4.0-8.0-0.1","spark_pilot_2","7281","7","10","Male","","false","","","","","[925.5]","./assets/img/canyon/test/0.jpg","[""ArrowDown""]","first stage test","canyon","0","{""ArrowUp,ArrowLeft"":23,""ArrowUp,ArrowRight"":10,""ArrowDown,ArrowLeft"":8,""ArrowDown,ArrowRight"":30}","true","ArrowDown","false","","","original","1","","","",""
"html-keyboard-response","258","1200713","0.0-4.0-8.0-1.1","spark_pilot_2","7281","7","10","Male","","","","","","","null","<div style=""font-size:60px;"">+</div>","null","fixation","","","","","","","","","","","","","",""
"revaluation","259","1201211","0.0-4.0-8.0-0.2","spark_pilot_2","7281","7","10","Male","","false","","","","","[493.2999999821186]","./assets/img/canyon/test/3.jpg","[""ArrowDown""]","first stage test","canyon","0","{""ArrowUp,ArrowLeft"":23,""ArrowUp,ArrowRight"":10,""ArrowDown,ArrowLeft"":8,""ArrowDown,ArrowRight"":30}","true","ArrowDown","false","","","original","1","","","",""
"html-keyboard-response","260","1201714","0.0-4.0-8.0-1.2","spark_pilot_2","7281","7","10","Male","","","","","","","null","<div style=""font-size:60px;"">+</div>","null","fixation","","","","","","","","","","","","","",""
"revaluation","261","1202366","0.0-4.0-8.0-0.3","spark_pilot_2","7281","7","10","Male","","false","","","","","[646.5999999940395]","./assets/img/canyon/test/1.jpg","[""ArrowDown""]","first stage test","canyon","0","{""ArrowUp,ArrowLeft"":23,""ArrowUp,ArrowRight"":10,""ArrowDown,ArrowLeft"":8,""ArrowDown,ArrowRight"":30}","true","ArrowDown","false","","","original","1","","","",""
"html-keyboard-response","262","1202868","0.0-4.0-8.0-1.3","spark_pilot_2","7281","7","10","Male","","","","","","","null","<div style=""font-size:60px;"">+</div>","null","fixation","","","","","","","","","","","","","",""
"learning-instructions","263","1217251","0.0-4.0-9.0-0.0","spark_pilot_2","7281","7","10","Male","","","","","","","3040.0999999940395","<p> Now you will see the animals again and can search their chests for treasure. </p>
            <p> This time, you will not see how much treasure you earned, but you will earn more bonus money for making better choices. </p>","","instructions","","","","","","","","","","","","","",""
"revaluation","264","1218964","0.0-4.0-10.0-0.0","spark_pilot_2","7281","7","10","Male","","false","","","","","[1710.6000000238419]","./assets/img/canyon/animals/giraffe.jpg","[""ArrowRight""]","second stage test","canyon","0","{""ArrowUp,ArrowLeft"":23,""ArrowUp,ArrowRight"":10,""ArrowDown,ArrowLeft"":8,""ArrowDown,ArrowRight"":30}","false","ArrowUp,ArrowRight","","","","original","1","","","",""
"html-keyboard-response","265","1219467","0.0-4.0-10.0-1.0","spark_pilot_2","7281","7","10","Male","","","","","","","null","<div style=""font-size:60px;"">+</div>","null","fixation","","","","","","","","","","","","","",""
"revaluation","266","1222016","0.0-4.0-10.0-0.1","spark_pilot_2","7281","7","10","Male","","false","","","","","[2543.7999999821186]","./assets/img/canyon/animals/giraffe.jpg","[""ArrowLeft""]","second stage test","canyon","0","{""ArrowUp,ArrowLeft"":23,""ArrowUp,ArrowRight"":10,""ArrowDown,ArrowLeft"":8,""ArrowDown,ArrowRight"":30}","true","ArrowUp,ArrowLeft","","","","original","1","","","",""
"html-keyboard-response","267","1222519","0.0-4.0-10.0-1.1","spark_pilot_2","7281","7","10","Male","","","","","","","null","<div style=""font-size:60px;"">+</div>","null","fixation","","","","","","","","","","","","","",""
"revaluation","268","1223219","0.0-4.0-10.0-0.2","spark_pilot_2","7281","7","10","Male","","false","","","","","[694.1999999880791]","./assets/img/canyon/animals/giraffe.jpg","[""ArrowLeft""]","second stage test","canyon","0","{""ArrowUp,ArrowLeft"":23,""ArrowUp,ArrowRight"":10,""ArrowDown,ArrowLeft"":8,""ArrowDown,ArrowRight"":30}","true","ArrowUp,ArrowLeft","","","","original","1","","","",""
"html-keyboard-response","269","1223721","0.0-4.0-10.0-1.2","spark_pilot_2","7281","7","10","Male","","","","","","","null","<div style=""font-size:60px;"">+</div>","null","fixation","","","","","","","","","","","","","",""
"revaluation","270","1224220","0.0-4.0-10.0-0.3","spark_pilot_2","7281","7","10","Male","","false","","","","","[491.90000000596046]","./assets/img/canyon/animals/giraffe.jpg","[""ArrowLeft""]","second stage test","canyon","0","{""ArrowUp,ArrowLeft"":23,""ArrowUp,ArrowRight"":10,""ArrowDown,ArrowLeft"":8,""ArrowDown,ArrowRight"":30}","true","ArrowUp,ArrowLeft","","","","original","1","","","",""
"html-keyboard-response","271","1224723","0.0-4.0-10.0-1.3","spark_pilot_2","7281","7","10","Male","","","","","","","null","<div style=""font-size:60px;"">+</div>","null","fixation","","","","","","","","","","","","","",""
"revaluation","272","1226870","0.0-4.0-10.0-0.4","spark_pilot_2","7281","7","10","Male","","false","","","","","[2141.699999988079]","./assets/img/canyon/animals/lion.jpg","[""ArrowRight""]","second stage test","canyon","0","{""ArrowUp,ArrowLeft"":23,""ArrowUp,ArrowRight"":10,""ArrowDown,ArrowLeft"":8,""ArrowDown,ArrowRight"":30}","true","ArrowDown,ArrowRight","","","","original","1","","","",""
"html-keyboard-response","273","1227372","0.0-4.0-10.0-1.4","spark_pilot_2","7281","7","10","Male","","","","","","","null","<div style=""font-size:60px;"">+</div>","null","fixation","","","","","","","","","","","","","",""
"revaluation","274","1227781","0.0-4.0-10.0-0.5","spark_pilot_2","7281","7","10","Male","","false","","","","","[403.2000000178814]","./assets/img/canyon/animals/lion.jpg","[""ArrowRight""]","second stage test","canyon","0","{""ArrowUp,ArrowLeft"":23,""ArrowUp,ArrowRight"":10,""ArrowDown,ArrowLeft"":8,""ArrowDown,ArrowRight"":30}","true","ArrowDown,ArrowRight","","","","original","1","","","",""
"html-keyboard-response","275","1228284","0.0-4.0-10.0-1.5","spark_pilot_2","7281","7","10","Male","","","","","","","null","<div style=""font-size:60px;"">+</div>","null","fixation","","","","","","","","","","","","","",""
"revaluation","276","1228707","0.0-4.0-10.0-0.6","spark_pilot_2","7281","7","10","Male","","false","","","","","[418.30000001192093]","./assets/img/canyon/animals/lion.jpg","[""ArrowRight""]","second stage test","canyon","0","{""ArrowUp,ArrowLeft"":23,""ArrowUp,ArrowRight"":10,""ArrowDown,ArrowLeft"":8,""ArrowDown,ArrowRight"":30}","true","ArrowDown,ArrowRight","","","","original","1","","","",""
"html-keyboard-response","277","1229209","0.0-4.0-10.0-1.6","spark_pilot_2","7281","7","10","Male","","","","","","","null","<div style=""font-size:60px;"">+</div>","null","fixation","","","","","","","","","","","","","",""
"revaluation","278","1229731","0.0-4.0-10.0-0.7","spark_pilot_2","7281","7","10","Male","","false","","","","","[516.4000000059605]","./assets/img/canyon/animals/lion.jpg","[""ArrowRight""]","second stage test","canyon","0","{""ArrowUp,ArrowLeft"":23,""ArrowUp,ArrowRight"":10,""ArrowDown,ArrowLeft"":8,""ArrowDown,ArrowRight"":30}","true","ArrowDown,ArrowRight","","","","original","1","","","",""
"html-keyboard-response","279","1230234","0.0-4.0-10.0-1.7","spark_pilot_2","7281","7","10","Male","","","","","","","null","<div style=""font-size:60px;"">+</div>","null","fixation","","","","","","","","","","","","","",""
"learning-instructions","280","1237191","0.0-4.0-0.1-0.2","spark_pilot_2","7281","7","10","Male","","","","","","","4220","<p> This time you are searching for treasure in the <b>ocean</b>.</p>","","instructions","","","","","","","","","","","","","",""
"learning-instructions","281","1256670","0.0-4.0-0.1-0.3","spark_pilot_2","7281","7","10","Male","","","","","","","2228.4000000059605","<p><b>New</b> animals with <b>new</b> treasure chests live here. You need to explore to discover where the animal with the best treasure chest is.</p>
                    <p> Like before, once you figure out which animal has the chest with the most treasure, you should try to get to that animal and select that chest! </p>","","instructions","","","","","","","","","","","","","",""
"learning-instructions","282","1272299","0.0-4.0-1.1-0.1","spark_pilot_2","7281","7","10","Male","","","","","","","898","<p> Remember, when you see a picture of the place, use the up and down keys to <b>find an animal</b>.</p>
            <p> When you encounter an animal, you should use the left and right keys to <b>select a treasure chest</b>.</p>
            <p> Don't forget to look out for the robber! </p>","","instructions","","","","","","","","","","","","","",""
"revaluation","283","1278306","0.0-4.0-2.1-0.50","spark_pilot_2","7281","7","10","Male","","false","","","","","[1770.0999999940395,951.5999999940395]","./assets/img/ocean/memory/25.jpg","[""ArrowDown"",""ArrowRight""]","value training","ocean","17","{""ArrowUp,ArrowLeft"":26,""ArrowUp,ArrowRight"":10,""ArrowDown,ArrowLeft"":5,""ArrowDown,ArrowRight"":17}","false","ArrowDown,ArrowRight","false","","","revaluation","2","0","","",""
"html-keyboard-response","284","1278808","0.0-4.0-2.1-1.50","spark_pilot_2","7281","7","10","Male","","","","","","","null","<div style=""font-size:60px;"">+</div>","null","fixation","","","","","","","","","","","1","","",""
"revaluation","285","1284816","0.0-4.0-2.1-0.51","spark_pilot_2","7281","7","10","Male","","false","","","","","[728,350.40000000596046]","./assets/img/ocean/memory/11.jpg","[""ArrowDown"",""ArrowLeft""]","value training","ocean","5","{""ArrowUp,ArrowLeft"":26,""ArrowUp,ArrowRight"":10,""ArrowDown,ArrowLeft"":5,""ArrowDown,ArrowRight"":17}","false","ArrowDown,ArrowLeft","false","","","revaluation","2","2","","",""
"html-keyboard-response","286","1285318","0.0-4.0-2.1-1.51","spark_pilot_2","7281","7","10","Male","","","","","","","null","<div style=""font-size:60px;"">+</div>","null","fixation","","","","","","","","","","","3","","",""
"revaluation","287","1291331","0.0-4.0-2.1-0.52","spark_pilot_2","7281","7","10","Male","","false","","","","","[775.8999999761581,586.2000000178814]","./assets/img/ocean/memory/37.jpg","[""ArrowUp"",""ArrowRight""]","value training","ocean","10","{""ArrowUp,ArrowLeft"":26,""ArrowUp,ArrowRight"":10,""ArrowDown,ArrowLeft"":5,""ArrowDown,ArrowRight"":17}","false","ArrowUp,ArrowRight","false","","","revaluation","2","4","","",""
"html-keyboard-response","288","1291833","0.0-4.0-2.1-1.52","spark_pilot_2","7281","7","10","Male","","","","","","","null","<div style=""font-size:60px;"">+</div>","null","fixation","","","","","","","","","","","5","","",""
"revaluation","289","1297843","0.0-4.0-2.1-0.53","spark_pilot_2","7281","7","10","Male","","false","","","","","[502.89999997615814,448.30000001192093]","./assets/img/ocean/memory/9.jpg","[""ArrowUp"",""ArrowLeft""]","value training","ocean","26","{""ArrowUp,ArrowLeft"":26,""ArrowUp,ArrowRight"":10,""ArrowDown,ArrowLeft"":5,""ArrowDown,ArrowRight"":17}","true","ArrowUp,ArrowLeft","false","","","revaluation","2","6","","",""
"html-keyboard-response","290","1298345","0.0-4.0-2.1-1.53","spark_pilot_2","7281","7","10","Male","","","","","","","null","<div style=""font-size:60px;"">+</div>","null","fixation","","","","","","","","","","","7","","",""
"revaluation","291","1304356","0.0-4.0-2.1-0.54","spark_pilot_2","7281","7","10","Male","","false","","","","","[714.8000000119209,328.90000000596046]","./assets/img/ocean/memory/35.jpg","[""ArrowUp"",""ArrowLeft""]","value training","ocean","26","{""ArrowUp,ArrowLeft"":26,""ArrowUp,ArrowRight"":10,""ArrowDown,ArrowLeft"":5,""ArrowDown,ArrowRight"":17}","true","ArrowUp,ArrowLeft","false","","","revaluation","2","8","","",""
"html-keyboard-response","292","1304860","0.0-4.0-2.1-1.54","spark_pilot_2","7281","7","10","Male","","","","","","","null","<div style=""font-size:60px;"">+</div>","null","fixation","","","","","","","","","","","9","","",""
"revaluation","293","1310868","0.0-4.0-2.1-0.55","spark_pilot_2","7281","7","10","Male","","false","","","","","[298.09999999403954,107.5]","./assets/img/ocean/memory/25.jpg","[""ArrowUp"",""ArrowLeft""]","value training","ocean","26","{""ArrowUp,ArrowLeft"":26,""ArrowUp,ArrowRight"":10,""ArrowDown,ArrowLeft"":5,""ArrowDown,ArrowRight"":17}","true","ArrowUp,ArrowLeft","false","","","revaluation","2","10","","",""
"html-keyboard-response","294","1311372","0.0-4.0-2.1-1.55","spark_pilot_2","7281","7","10","Male","","","","","","","null","<div style=""font-size:60px;"">+</div>","null","fixation","","","","","","","","","","","11","","",""
"revaluation","295","1317383","0.0-4.0-2.1-0.56","spark_pilot_2","7281","7","10","Male","","false","","","","","[1368,1273]","./assets/img/ocean/memory/16.jpg","[""ArrowUp"",""ArrowLeft""]","value training","ocean","26","{""ArrowUp,ArrowLeft"":26,""ArrowUp,ArrowRight"":10,""ArrowDown,ArrowLeft"":5,""ArrowDown,ArrowRight"":17}","true","ArrowUp,ArrowLeft","false","","","revaluation","2","12","","",""
"html-keyboard-response","296","1317886","0.0-4.0-2.1-1.56","spark_pilot_2","7281","7","10","Male","","","","","","","null","<div style=""font-size:60px;"">+</div>","null","fixation","","","","","","","","","","","13","","",""
"revaluation","297","1323894","0.0-4.0-2.1-0.57","spark_pilot_2","7281","7","10","Male","","false","","","","","[951.6000000238419,1034.3999999761581]","./assets/img/ocean/memory/36.jpg","[""ArrowUp"",""ArrowLeft""]","value training","ocean","26","{""ArrowUp,ArrowLeft"":26,""ArrowUp,ArrowRight"":10,""ArrowDown,ArrowLeft"":5,""ArrowDown,ArrowRight"":17}","true","ArrowUp,ArrowLeft","false","","","revaluation","2","14","","",""
"html-keyboard-response","298","1324397","0.0-4.0-2.1-1.57","spark_pilot_2","7281","7","10","Male","","","","","","","null","<div style=""font-size:60px;"">+</div>","null","fixation","","","","","","","","","","","15","","",""
"revaluation","299","1330405","0.0-4.0-2.1-0.58","spark_pilot_2","7281","7","10","Male","","false","","","","","[571.5,619.7999999821186]","./assets/img/ocean/memory/1.jpg","[""ArrowUp"",""ArrowLeft""]","value training","ocean","26","{""ArrowUp,ArrowLeft"":26,""ArrowUp,ArrowRight"":10,""ArrowDown,ArrowLeft"":5,""ArrowDown,ArrowRight"":17}","true","ArrowUp,ArrowLeft","false","","","revaluation","2","16","","",""
"html-keyboard-response","300","1330909","0.0-4.0-2.1-1.58","spark_pilot_2","7281","7","10","Male","","","","","","","null","<div style=""font-size:60px;"">+</div>","null","fixation","","","","","","","","","","","17","","",""
"revaluation","301","1336917","0.0-4.0-2.1-0.59","spark_pilot_2","7281","7","10","Male","","false","","","","","[728.6999999880791,453.90000000596046]","./assets/img/ocean/memory/2.jpg","[""ArrowUp"",""ArrowLeft""]","value training","ocean","26","{""ArrowUp,ArrowLeft"":26,""ArrowUp,ArrowRight"":10,""ArrowDown,ArrowLeft"":5,""ArrowDown,ArrowRight"":17}","true","ArrowUp,ArrowLeft","false","","","revaluation","2","18","","",""
"html-keyboard-response","302","1337419","0.0-4.0-2.1-1.59","spark_pilot_2","7281","7","10","Male","","","","","","","null","<div style=""font-size:60px;"">+</div>","null","fixation","","","","","","","","","","","19","","",""
"revaluation","303","1343425","0.0-4.0-2.1-0.60","spark_pilot_2","7281","7","10","Male","","false","","","","","[857.3000000119209,716.6999999880791]","./assets/img/ocean/memory/7.jpg","[""ArrowUp"",""ArrowLeft""]","value training","ocean","26","{""ArrowUp,ArrowLeft"":26,""ArrowUp,ArrowRight"":10,""ArrowDown,ArrowLeft"":5,""ArrowDown,ArrowRight"":17}","true","ArrowUp,ArrowLeft","false","","","revaluation","2","20","","",""
"html-keyboard-response","304","1343928","0.0-4.0-2.1-1.60","spark_pilot_2","7281","7","10","Male","","","","","","","null","<div style=""font-size:60px;"">+</div>","null","fixation","","","","","","","","","","","21","","",""
"revaluation","305","1349936","0.0-4.0-2.1-0.61","spark_pilot_2","7281","7","10","Male","","false","","","","","[816.9000000059605,639.5999999940395]","./assets/img/ocean/memory/33.jpg","[""ArrowUp"",""ArrowLeft""]","value training","ocean","26","{""ArrowUp,ArrowLeft"":26,""ArrowUp,ArrowRight"":10,""ArrowDown,ArrowLeft"":5,""ArrowDown,ArrowRight"":17}","true","ArrowUp,ArrowLeft","false","","","revaluation","2","22","","",""
"html-keyboard-response","306","1350440","0.0-4.0-2.1-1.61","spark_pilot_2","7281","7","10","Male","","","","","","","null","<div style=""font-size:60px;"">+</div>","null","fixation","","","","","","","","","","","23","","",""
