"trial_type","trial_index","time_elapsed","internal_node_id","task_version","subject_id","assigned_condition","age","gender","success","timeout","failed_images","failed_audio","failed_video","browser_interaction","rt","stimulus","response","task_part","environment","score","rewardMap","correct","fullState","isCatch","numberMissed","duration","condition","order","trial_num","key_press","ground_truth","bonus"
"pavlovia","0","1523","0.0-0.0","spark_pilot_2","7388","7","16","Male","","","","","","","","","","","","","","","","","","","","","","","",""
"preload","1","9306","0.0-1.0","spark_pilot_2","7388","7","16","Male","true","false","[]","[]","[]","[{""event"":""fullscreenenter"",""trial"":2,""time"":11801}]","","","","","","","","","","","","","","","","","",""
"fullscreen","2","12786","0.0-2.0","spark_pilot_2","7388","7","16","Male","true","","","","","","","","","","","","","","","","","","","","","","",""
"audio-button-response","3","14751","0.0-3.0-0.0-0.0","spark_pilot_2","7388","7","16","Male","","","","","","","1956","./assets/audio/audiotest/turtle.mp3","2","audio_test","","","","","","","","","","","","","",""
"learning-instructions","4","23500","0.0-3.0-1.0-0.0","spark_pilot_2","7388","7","16","Male","","","","","","","1732.300000011921","<p> Welcome! Please remember to stay in fullscreen mode and don't click away from the experiment. </p>","","instructions","","","","","","","","","","","","","",""
"learning-instructions","5","32931","0.0-3.0-1.0-0.1","spark_pilot_2","7388","7","16","Male","","","","","","","996.5","<p> Today you will be playing a game to earn treasure. </p>
            <p> At the end of the experiment, you will earn a bonus based on how much treasure you find. </p>
            <img src='./assets/img/instructions/treasure.jpg' class='instructions-image'>","","instructions","","","","","","","","","","","","","",""
"learning-instructions","6","41715","0.0-3.0-1.0-0.2","spark_pilot_2","7388","7","16","Male","","","","","","","496.39999997615814","<p> Animals have hidden treasure in treasure chests. </p>
            <p> You need to first find an animal and then choose which of their treasure chests to search. </p>
            <img src='./assets/img/space/animals/cat.jpg' class='instructions-image'>","","instructions","","","","","","","","","","","","","",""
"learning-instructions","7","55478","0.0-3.0-1.0-0.3","spark_pilot_2","7388","7","16","Male","","","","","","","555","<p> In each round, you will search for treasure in a different place. In the real game, there will be two rounds. </p>
            <p> You will begin with a separate, practice round where you will search for treasure in outer space. </p>
            <img src='./assets/img/space/0.jpg' class='instructions-image'>","","instructions","","","","","","","","","","","","","",""
"learning-instructions","8","67730","0.0-3.0-1.0-0.4","spark_pilot_2","7388","7","16","Male","","","","","","","797","<p> On every turn, you will see a picture of the place that you are in, but the specific image may be different each time. </p>
            <p> For example, both of these images mean you are in outer space. </p>
            <img src='./assets/img/instructions/outerspace.jpg' class='instructions-image'>","","instructions","","","","","","","","","","","","","",""
"learning-instructions","9","76158","0.0-3.0-1.0-0.5","spark_pilot_2","7388","7","16","Male","","","","","","","575.1999999880791","<p> You need to decide which direction to travel in. </p>
            <p> You can choose between going <b>up or down</b> by using the arrow keys. </p>
            <img src='./assets/img/instructions/updown.jpg' class='instructions-image'>","","instructions","","","","","","","","","","","","","",""
"learning-instructions","10","88288","0.0-3.0-1.0-0.6","spark_pilot_2","7388","7","16","Male","","","","","","","3289.400000035763","<p> You will have <b>2 seconds</b> to make your choice. </p>
            <p> If you do not make a choice within 2 seconds, you will not find an animal or earn treasure. </p>
            <img src='./assets/img/instructions/2seconds.jpg' class='instructions-image'>","","instructions","","","","","","","","","","","","","",""
"learning-instructions","11","96191","0.0-3.0-1.0-0.7","spark_pilot_2","7388","7","16","Male","","","","","","","841.5","<p> Let’s try practicing that now! </p>
            <p> When you see a picture of the place you are in, press the <b>up</b> key to travel up. </p>
            <img src='./assets/img/instructions/pressUp.jpg' class='instructions-image'>","","instructions","","","","","","","","","","","","","",""
"revaluation","12","100214","0.0-3.0-2.0-0.0","spark_pilot_2","7388","7","16","Male","","false","","","","","[680.3999999761581]","./assets/img/space/0.jpg","[""ArrowUp""]","first stage practice","space","0","null","null","ArrowUp","false","","","","","","","",""
"html-keyboard-response","13","100724","0.0-3.0-2.0-1.0","spark_pilot_2","7388","7","16","Male","","","","","","","null","<div style=""font-size:60px;"">+</div>","null","fixation","","","","","","","","","","","","","",""
"revaluation","14","104740","0.0-3.0-2.0-0.1","spark_pilot_2","7388","7","16","Male","","true","","","","","[]","./assets/img/space/1.jpg","[]","first stage practice","space","-5","null","null","","false","","","","","","","",""
"html-keyboard-response","15","105246","0.0-3.0-2.0-1.1","spark_pilot_2","7388","7","16","Male","","","","","","","null","<div style=""font-size:60px;"">+</div>","null","fixation","","","","","","","","","","","","","",""
"revaluation","16","109259","0.0-3.0-2.0-0.2","spark_pilot_2","7388","7","16","Male","","true","","","","","[]","./assets/img/space/2.jpg","[]","first stage practice","space","-5","null","null","","false","","","","","","","",""
"html-keyboard-response","17","109767","0.0-3.0-2.0-1.2","spark_pilot_2","7388","7","16","Male","","","","","","","null","<div style=""font-size:60px;"">+</div>","null","fixation","","","","","","","","","","","","","",""
"learning-instructions","18","115287","0.0-3.0-3.0-0.0","spark_pilot_2","7388","7","16","Male","","","","","","","804.6999999880791","<p> Great job! Now try pressing the <b>down</b> key to travel down. </p>
            <img src='./assets/img/instructions/pressDown.jpg' class='instructions-image'>","","instructions","","","","","","","","","","","","","",""
"revaluation","19","119300","0.0-3.0-4.0-0.0","spark_pilot_2","7388","7","16","Male","","false","","","","","[652.1000000238419]","./assets/img/space/3.jpg","[""ArrowDown""]","first stage practice","space","0","null","null","ArrowDown","false","","","","","","","",""
"html-keyboard-response","20","119805","0.0-3.0-4.0-1.0","spark_pilot_2","7388","7","16","Male","","","","","","","null","<div style=""font-size:60px;"">+</div>","null","fixation","","","","","","","","","","","","","",""
"revaluation","21","123823","0.0-3.0-4.0-0.1","spark_pilot_2","7388","7","16","Male","","false","","","","","[360.5]","./assets/img/space/4.jpg","[""ArrowDown""]","first stage practice","space","0","null","null","ArrowDown","false","","","","","","","",""
"html-keyboard-response","22","124333","0.0-3.0-4.0-1.1","spark_pilot_2","7388","7","16","Male","","","","","","","null","<div style=""font-size:60px;"">+</div>","null","fixation","","","","","","","","","","","","","",""
"revaluation","23","128348","0.0-3.0-4.0-0.2","spark_pilot_2","7388","7","16","Male","","false","","","","","[343.30000001192093]","./assets/img/space/5.jpg","[""ArrowDown""]","first stage practice","space","0","null","null","ArrowDown","false","","","","","","","",""
"html-keyboard-response","24","128852","0.0-3.0-4.0-1.2","spark_pilot_2","7388","7","16","Male","","","","","","","null","<div style=""font-size:60px;"">+</div>","null","fixation","","","","","","","","","","","","","",""
"learning-instructions","25","141554","0.0-3.0-5.0-0.0","spark_pilot_2","7388","7","16","Male","","","","","","","2823.5","<p> The animals don’t move, so the animal in the upper part of a place will stay in the upper part of a place, and the animal in the lower part of a place will stay in the lower part of a place. </p>","","instructions","","","","","","","","","","","","","",""
"learning-instructions","26","152572","0.0-3.0-5.0-0.1","spark_pilot_2","7388","7","16","Male","","","","","","","529.8000000119209","<p> Each animal has two treasure chests for you to choose from. </p>
            <p> The amount of treasure in each chest can range from <b> 0 to 40 pieces.</b></p>","","instructions","","","","","","","","","","","","","",""
"learning-instructions","27","164455","0.0-3.0-5.0-0.2","spark_pilot_2","7388","7","16","Male","","","","","","","663.4000000357628","<p> You should decide which chest to search for treasure by using the <b>left</b> and <b>right</b> arrow keys. </p>
            <p><b> Pay attention to which animal is on the screen, as the animals have different treasure chests. </b></p>
            <img src='./assets/img/instructions/leftright.jpg' class='instructions-image'>","","instructions","","","","","","","","","","","","","",""
"learning-instructions","28","171705","0.0-3.0-5.0-0.3","spark_pilot_2","7388","7","16","Male","","","","","","","859.5","<p> Let’s try practicing that now. </p>
            <p> When you see an animal, choose which chest to search for treasure. </p>
            <img src='./assets/img/instructions/chooseChest.jpg' class='instructions-image'>","","instructions","","","","","","","","","","","","","",""
"revaluation","29","175724","0.0-3.0-6.0-0.0","spark_pilot_2","7388","7","16","Male","","false","","","","","[620.5999999642372]","./assets/img/space/animals/rabbit.jpg","[""ArrowRight""]","second stage practice","space","23","{""ArrowUp,ArrowLeft"":3,""ArrowUp,ArrowRight"":36,""ArrowDown,ArrowLeft"":15,""ArrowDown,ArrowRight"":23}","true","ArrowDown,ArrowRight","","","","","","","","",""
"html-keyboard-response","30","176231","0.0-3.0-6.0-1.0","spark_pilot_2","7388","7","16","Male","","","","","","","null","<div style=""font-size:60px;"">+</div>","null","fixation","","","","","","","","","","","","","",""
"revaluation","31","180244","0.0-3.0-6.0-0.1","spark_pilot_2","7388","7","16","Male","","false","","","","","[644.5999999642372]","./assets/img/space/animals/cat.jpg","[""ArrowLeft""]","second stage practice","space","3","{""ArrowUp,ArrowLeft"":3,""ArrowUp,ArrowRight"":36,""ArrowDown,ArrowLeft"":15,""ArrowDown,ArrowRight"":23}","false","ArrowUp,ArrowLeft","","","","","","","","",""
"html-keyboard-response","32","180748","0.0-3.0-6.0-1.1","spark_pilot_2","7388","7","16","Male","","","","","","","null","<div style=""font-size:60px;"">+</div>","null","fixation","","","","","","","","","","","","","",""
"revaluation","33","184767","0.0-3.0-6.0-0.2","spark_pilot_2","7388","7","16","Male","","false","","","","","[1094.1000000238419]","./assets/img/space/animals/rabbit.jpg","[""ArrowLeft""]","second stage practice","space","15","{""ArrowUp,ArrowLeft"":3,""ArrowUp,ArrowRight"":36,""ArrowDown,ArrowLeft"":15,""ArrowDown,ArrowRight"":23}","false","ArrowDown,ArrowLeft","","","","","","","","",""
"html-keyboard-response","34","185270","0.0-3.0-6.0-1.2","spark_pilot_2","7388","7","16","Male","","","","","","","null","<div style=""font-size:60px;"">+</div>","null","fixation","","","","","","","","","","","","","",""
"revaluation","35","189287","0.0-3.0-6.0-0.3","spark_pilot_2","7388","7","16","Male","","false","","","","","[378.80000001192093]","./assets/img/space/animals/cat.jpg","[""ArrowRight""]","second stage practice","space","36","{""ArrowUp,ArrowLeft"":3,""ArrowUp,ArrowRight"":36,""ArrowDown,ArrowLeft"":15,""ArrowDown,ArrowRight"":23}","true","ArrowUp,ArrowRight","","","","","","","","",""
"html-keyboard-response","36","189799","0.0-3.0-6.0-1.3","spark_pilot_2","7388","7","16","Male","","","","","","","null","<div style=""font-size:60px;"">+</div>","null","fixation","","","","","","","","","","","","","",""
"learning-instructions","37","208522","0.0-3.0-7.0-0.0","spark_pilot_2","7388","7","16","Male","","","","","","","1865.199999988079","<p> Great job. Now let’s try putting it together. </p>
            <p> On each turn, you will first see a picture to remind you of the place you are in, and you need to choose whether to go up or down. </p>
            <p> Then you will see an animal and choose which of its chests to search for treasure. </p>","","instructions","","","","","","","","","","","","","",""
"learning-instructions","38","217405","0.0-3.0-7.0-0.1","spark_pilot_2","7388","7","16","Male","","","","","","","595.5","<p> When you choose whether to go up or down, try to go to the animal with the chest with the most treasure. </p>
            <p> Try practicing that now! </p>","","instructions","","","","","","","","","","","","","",""
"revaluation","39","223433","0.0-3.0-8.0-0.0","spark_pilot_2","7388","7","16","Male","","false","","","","","[830.1999999880791,948.3000000119209]","./assets/img/space/6.jpg","[""ArrowDown"",""ArrowRight""]","full practice","space","23","{""ArrowUp,ArrowLeft"":3,""ArrowUp,ArrowRight"":36,""ArrowDown,ArrowLeft"":15,""ArrowDown,ArrowRight"":23}","false","ArrowDown,ArrowRight","false","","","","","","","",""
"html-keyboard-response","40","223944","0.0-3.0-8.0-1.0","spark_pilot_2","7388","7","16","Male","","","","","","","null","<div style=""font-size:60px;"">+</div>","null","fixation","","","","","","","","","","","","","",""
"revaluation","41","229969","0.0-3.0-8.0-0.1","spark_pilot_2","7388","7","16","Male","","false","","","","","[763.4000000357628,695.3999999761581]","./assets/img/space/7.jpg","[""ArrowUp"",""ArrowRight""]","full practice","space","36","{""ArrowUp,ArrowLeft"":3,""ArrowUp,ArrowRight"":36,""ArrowDown,ArrowLeft"":15,""ArrowDown,ArrowRight"":23}","true","ArrowUp,ArrowRight","false","","","","","","","",""
"html-keyboard-response","42","230478","0.0-3.0-8.0-1.1","spark_pilot_2","7388","7","16","Male","","","","","","","null","<div style=""font-size:60px;"">+</div>","null","fixation","","","","","","","","","","","","","",""
"revaluation","43","236506","0.0-3.0-8.0-0.2","spark_pilot_2","7388","7","16","Male","","false","","","","","[694.6999999880791,804.3999999761581]","./assets/img/space/8.jpg","[""ArrowUp"",""ArrowRight""]","full practice","space","36","{""ArrowUp,ArrowLeft"":3,""ArrowUp,ArrowRight"":36,""ArrowDown,ArrowLeft"":15,""ArrowDown,ArrowRight"":23}","true","ArrowUp,ArrowRight","false","","","","","","","",""
"html-keyboard-response","44","237017","0.0-3.0-8.0-1.2","spark_pilot_2","7388","7","16","Male","","","","","","","null","<div style=""font-size:60px;"">+</div>","null","fixation","","","","","","","","","","","","","",""
"revaluation","45","243042","0.0-3.0-8.0-0.3","spark_pilot_2","7388","7","16","Male","","false","","","","","[672.1999999880791,614.1999999880791]","./assets/img/space/9.jpg","[""ArrowDown"",""ArrowRight""]","full practice","space","23","{""ArrowUp,ArrowLeft"":3,""ArrowUp,ArrowRight"":36,""ArrowDown,ArrowLeft"":15,""ArrowDown,ArrowRight"":23}","false","ArrowDown,ArrowRight","false","","","","","","","",""
"html-keyboard-response","46","243551","0.0-3.0-8.0-1.3","spark_pilot_2","7388","7","16","Male","","","","","","","null","<div style=""font-size:60px;"">+</div>","null","fixation","","","","","","","","","","","","","",""
"revaluation","47","249575","0.0-3.0-8.0-0.4","spark_pilot_2","7388","7","16","Male","","false","","","","","[877.5999999642372,752.1000000238419]","./assets/img/space/10.jpg","[""ArrowUp"",""ArrowRight""]","full practice","space","36","{""ArrowUp,ArrowLeft"":3,""ArrowUp,ArrowRight"":36,""ArrowDown,ArrowLeft"":15,""ArrowDown,ArrowRight"":23}","true","ArrowUp,ArrowRight","false","","","","","","","",""
"html-keyboard-response","48","250079","0.0-3.0-8.0-1.4","spark_pilot_2","7388","7","16","Male","","","","","","","null","<div style=""font-size:60px;"">+</div>","null","fixation","","","","","","","","","","","","","",""
"learning-instructions","49","261063","0.0-3.0-9.0-0.0","spark_pilot_2","7388","7","16","Male","","","","","","","641.3000000119209","<p> One last thing: sometimes, you will see a robber. The robber can be anywhere in the picture. </p>
            <p> If you do not stop them, you will lose treasure. </p>
            <img src='./assets/img/instructions/robber.jpg' class='instructions-image'>","","instructions","","","","","","","","","","","","","",""
"learning-instructions","50","268704","0.0-3.0-9.0-0.1","spark_pilot_2","7388","7","16","Male","","","","","","","456.89999997615814","<p> If you see the robber, you should <b>press the space bar</b> rather than using the arrow keys. </p>
            <p> Try practicing that now! </p>","","instructions","","","","","","","","","","","","","",""
"revaluation","51","272723","0.0-3.0-10.0-0.0","spark_pilot_2","7388","7","16","Male","","false","","","","","[1167.3999999761581]","./assets/img/space/catch/0.jpg","[""spaceBar""]","catch practice","space","0","{""ArrowUp,ArrowLeft"":3,""ArrowUp,ArrowRight"":36,""ArrowDown,ArrowLeft"":15,""ArrowDown,ArrowRight"":23}","true","spaceBar","true","","","","","","","",""
"html-keyboard-response","52","273233","0.0-3.0-10.0-1.0","spark_pilot_2","7388","7","16","Male","","","","","","","null","<div style=""font-size:60px;"">+</div>","null","fixation","","","","","","","","","","","","","",""
"revaluation","53","277247","0.0-3.0-10.0-0.1","spark_pilot_2","7388","7","16","Male","","false","","","","","[607.9000000357628]","./assets/img/space/catch/1.jpg","[""spaceBar""]","catch practice","space","0","{""ArrowUp,ArrowLeft"":3,""ArrowUp,ArrowRight"":36,""ArrowDown,ArrowLeft"":15,""ArrowDown,ArrowRight"":23}","true","spaceBar","true","","","","","","","",""
"html-keyboard-response","54","277750","0.0-3.0-10.0-1.1","spark_pilot_2","7388","7","16","Male","","","","","","","null","<div style=""font-size:60px;"">+</div>","null","fixation","","","","","","","","","","","","","",""
"revaluation","55","281774","0.0-3.0-10.0-0.2","spark_pilot_2","7388","7","16","Male","","false","","","","","[366.19999998807907]","./assets/img/space/catch/2.jpg","[""spaceBar""]","catch practice","space","0","{""ArrowUp,ArrowLeft"":3,""ArrowUp,ArrowRight"":36,""ArrowDown,ArrowLeft"":15,""ArrowDown,ArrowRight"":23}","true","spaceBar","true","","","","","","","",""
"html-keyboard-response","56","282281","0.0-3.0-10.0-1.2","spark_pilot_2","7388","7","16","Male","","","","","","","null","<div style=""font-size:60px;"">+</div>","null","fixation","","","","","","","","","","","","","",""
"learning-instructions","57","296823","0.0-3.0-11.0-0.0","spark_pilot_2","7388","7","16","Male","","","","","","","896.5","<p> After you explore a place to find treasure, it will be time to play a different game. </p>
            <p> During this game, red dots will appear on the screen and fall down slowly. </p>
            <p><b> You must click on them before they reach the bottom. </b></p>
            <img src='./assets/img/instructions/dotGame.jpg' class='instructions-image'>","","instructions","","","","","","","","","","","","","",""
"learning-instructions","58","303070","0.0-3.0-11.0-0.1","spark_pilot_2","7388","7","16","Male","","","","","","","555.0999999642372","<p> For every dot you click, you will earn additional treasure. </p>
            <p> Let’s try practicing that now. </p>","","instructions","","","","","","","","","","","","","",""
"revaluation","59","318083","0.0-3.0-12.0-0.0","spark_pilot_2","7388","7","16","Male","","","","","","","[105]","","","rest practice","","10","","","","","0","15000","","","","","",""
"learning-instructions","60","324394","0.0-3.0-13.0-0.0-0.0","spark_pilot_2","7388","7","16","Male","","","","","","","1067","<p> Now, you will practice a shortened version of the game to get a sense of how it all fits together. </p>","","instructions","","","","","","","","","","","","","",""
"learning-instructions","61","328369","0.0-3.0-13.0-0.0-0.1","spark_pilot_2","7388","7","16","Male","","","","","","","769.8000000119209","<p>This time you are searching for treasure in outer space.</p>","","instructions","","","","","","","","","","","","","",""
"learning-instructions","62","343927","0.0-3.0-13.0-1.0-0.0","spark_pilot_2","7388","7","16","Male","","","","","","","741.3000000119209","<p> Remember, when you see a picture of the place, use the up and down keys to <b>find an animal</b>.</p>
            <p> When you encounter an animal, you should use the left and right keys to <b>select a treasure chest</b>.</p>
            <p> Don't forget to look out for the robber! </p>","","instructions","","","","","","","","","","","","","",""
"revaluation","63","349954","0.0-3.0-13.0-2.0-0.0","spark_pilot_2","7388","7","16","Male","","false","","","","","[1362.199999988079,1072.8999999761581]","./assets/img/space/11.jpg","[""ArrowUp"",""ArrowRight""]","practice block","space","36","{""ArrowUp,ArrowLeft"":3,""ArrowUp,ArrowRight"":36,""ArrowDown,ArrowLeft"":15,""ArrowDown,ArrowRight"":23}","true","ArrowUp,ArrowRight","false","","","","","","","",""
"html-keyboard-response","64","350459","0.0-3.0-13.0-2.0-1.0","spark_pilot_2","7388","7","16","Male","","","","","","","null","<div style=""font-size:60px;"">+</div>","null","fixation","","","","","","","","","","","","","",""
"revaluation","65","356482","0.0-3.0-13.0-2.0-0.1","spark_pilot_2","7388","7","16","Male","","false","","","","","[771.5,662.8999999761581]","./assets/img/space/12.jpg","[""ArrowDown"",""ArrowRight""]","practice block","space","23","{""ArrowUp,ArrowLeft"":3,""ArrowUp,ArrowRight"":36,""ArrowDown,ArrowLeft"":15,""ArrowDown,ArrowRight"":23}","false","ArrowDown,ArrowRight","false","","","","","","","",""
"html-keyboard-response","66","356984","0.0-3.0-13.0-2.0-1.1","spark_pilot_2","7388","7","16","Male","","","","","","","null","<div style=""font-size:60px;"">+</div>","null","fixation","","","","","","","","","","","","","",""
"revaluation","67","363010","0.0-3.0-13.0-2.0-0.2","spark_pilot_2","7388","7","16","Male","","false","","","","","[675.5999999642372,531.1999999880791]","./assets/img/space/13.jpg","[""ArrowUp"",""ArrowRight""]","practice block","space","36","{""ArrowUp,ArrowLeft"":3,""ArrowUp,ArrowRight"":36,""ArrowDown,ArrowLeft"":15,""ArrowDown,ArrowRight"":23}","true","ArrowUp,ArrowRight","false","","","","","","","",""
"html-keyboard-response","68","363515","0.0-3.0-13.0-2.0-1.2","spark_pilot_2","7388","7","16","Male","","","","","","","null","<div style=""font-size:60px;"">+</div>","null","fixation","","","","","","","","","","","","","",""
"revaluation","69","369538","0.0-3.0-13.0-2.0-0.3","spark_pilot_2","7388","7","16","Male","","false","","","","","[772.6000000238419,623.3000000119209]","./assets/img/space/14.jpg","[""ArrowUp"",""ArrowRight""]","practice block","space","36","{""ArrowUp,ArrowLeft"":3,""ArrowUp,ArrowRight"":36,""ArrowDown,ArrowLeft"":15,""ArrowDown,ArrowRight"":23}","true","ArrowUp,ArrowRight","false","","","","","","","",""
"html-keyboard-response","70","370040","0.0-3.0-13.0-2.0-1.3","spark_pilot_2","7388","7","16","Male","","","","","","","null","<div style=""font-size:60px;"">+</div>","null","fixation","","","","","","","","","","","","","",""
"revaluation","71","376067","0.0-3.0-13.0-2.0-0.4","spark_pilot_2","7388","7","16","Male","","false","","","","","[1096,483]","./assets/img/space/11.jpg","[""ArrowUp"",""ArrowRight""]","practice block","space","36","{""ArrowUp,ArrowLeft"":3,""ArrowUp,ArrowRight"":36,""ArrowDown,ArrowLeft"":15,""ArrowDown,ArrowRight"":23}","true","ArrowUp,ArrowRight","false","","","","","","","",""
"html-keyboard-response","72","376571","0.0-3.0-13.0-2.0-1.4","spark_pilot_2","7388","7","16","Male","","","","","","","null","<div style=""font-size:60px;"">+</div>","null","fixation","","","","","","","","","","","","","",""
"revaluation","73","382597","0.0-3.0-13.0-2.0-0.5","spark_pilot_2","7388","7","16","Male","","false","","","","","[1064.3999999761581,463.19999998807907]","./assets/img/space/12.jpg","[""ArrowUp"",""ArrowRight""]","practice block","space","36","{""ArrowUp,ArrowLeft"":3,""ArrowUp,ArrowRight"":36,""ArrowDown,ArrowLeft"":15,""ArrowDown,ArrowRight"":23}","true","ArrowUp,ArrowRight","false","","","","","","","",""
"html-keyboard-response","74","383108","0.0-3.0-13.0-2.0-1.5","spark_pilot_2","7388","7","16","Male","","","","","","","null","<div style=""font-size:60px;"">+</div>","null","fixation","","","","","","","","","","","","","",""
"revaluation","75","389131","0.0-3.0-13.0-2.0-0.6","spark_pilot_2","7388","7","16","Male","","false","","","","","[829.3000000119209,458.10000002384186]","./assets/img/space/13.jpg","[""ArrowUp"",""ArrowRight""]","practice block","space","36","{""ArrowUp,ArrowLeft"":3,""ArrowUp,ArrowRight"":36,""ArrowDown,ArrowLeft"":15,""ArrowDown,ArrowRight"":23}","true","ArrowUp,ArrowRight","false","","","","","","","",""
"html-keyboard-response","76","389633","0.0-3.0-13.0-2.0-1.6","spark_pilot_2","7388","7","16","Male","","","","","","","null","<div style=""font-size:60px;"">+</div>","null","fixation","","","","","","","","","","","","","",""
"revaluation","77","395659","0.0-3.0-13.0-2.0-0.7","spark_pilot_2","7388","7","16","Male","","false","","","","","[833.8000000119209,296.0999999642372]","./assets/img/space/14.jpg","[""ArrowUp"",""ArrowRight""]","practice block","space","36","{""ArrowUp,ArrowLeft"":3,""ArrowUp,ArrowRight"":36,""ArrowDown,ArrowLeft"":15,""ArrowDown,ArrowRight"":23}","true","ArrowUp,ArrowRight","false","","","","","","","",""
"html-keyboard-response","78","396164","0.0-3.0-13.0-2.0-1.7","spark_pilot_2","7388","7","16","Male","","","","","","","null","<div style=""font-size:60px;"">+</div>","null","fixation","","","","","","","","","","","","","",""
"revaluation","79","400181","0.0-3.0-13.0-2.0-0.8","spark_pilot_2","7388","7","16","Male","","false","","","","","[582.0999999642372]","./assets/img/space/catch/3.jpg","[""spaceBar""]","practice block","space","0","{""ArrowUp,ArrowLeft"":3,""ArrowUp,ArrowRight"":36,""ArrowDown,ArrowLeft"":15,""ArrowDown,ArrowRight"":23}","true","spaceBar","true","","","","","","","",""
"html-keyboard-response","80","400692","0.0-3.0-13.0-2.0-1.8","spark_pilot_2","7388","7","16","Male","","","","","","","null","<div style=""font-size:60px;"">+</div>","null","fixation","","","","","","","","","","","","","",""
"learning-instructions","81","414333","0.0-3.0-13.0-3.0-0.0","spark_pilot_2","7388","7","16","Male","","","","","","","683.8999999761581","<p> Now, you will travel with a friend who will choose whether you go up or down first. </p>
            <p> On these turns, you will just see the animal that they found. You will still get to choose which chest to search for treasure.</p>","","instructions","","","","","","","","","","","","","",""
"revaluation","82","418346","0.0-3.0-13.0-4.0-0.0","spark_pilot_2","7388","7","16","Male","","false","","","","","[1314.1000000238419]","./assets/img/space/animals/rabbit.jpg","[""ArrowRight""]","practice block","space","23","{""ArrowUp,ArrowLeft"":3,""ArrowUp,ArrowRight"":36,""ArrowDown,ArrowLeft"":15,""ArrowDown,ArrowRight"":23}","true","ArrowDown,ArrowRight","","","","","","","","",""
"html-keyboard-response","83","418850","0.0-3.0-13.0-4.0-1.0","spark_pilot_2","7388","7","16","Male","","","","","","","null","<div style=""font-size:60px;"">+</div>","null","fixation","","","","","","","","","","","","","",""
"revaluation","84","422867","0.0-3.0-13.0-4.0-0.1","spark_pilot_2","7388","7","16","Male","","false","","","","","[543.5999999642372]","./assets/img/space/animals/cat.jpg","[""ArrowRight""]","practice block","space","36","{""ArrowUp,ArrowLeft"":3,""ArrowUp,ArrowRight"":36,""ArrowDown,ArrowLeft"":15,""ArrowDown,ArrowRight"":23}","true","ArrowUp,ArrowRight","","","","","","","","",""
"html-keyboard-response","85","423373","0.0-3.0-13.0-4.0-1.1","spark_pilot_2","7388","7","16","Male","","","","","","","null","<div style=""font-size:60px;"">+</div>","null","fixation","","","","","","","","","","","","","",""
"revaluation","86","427389","0.0-3.0-13.0-4.0-0.2","spark_pilot_2","7388","7","16","Male","","false","","","","","[525.3999999761581]","./assets/img/space/animals/cat.jpg","[""ArrowRight""]","practice block","space","36","{""ArrowUp,ArrowLeft"":3,""ArrowUp,ArrowRight"":36,""ArrowDown,ArrowLeft"":15,""ArrowDown,ArrowRight"":23}","true","ArrowUp,ArrowRight","","","","","","","","",""
"html-keyboard-response","87","427900","0.0-3.0-13.0-4.0-1.2","spark_pilot_2","7388","7","16","Male","","","","","","","null","<div style=""font-size:60px;"">+</div>","null","fixation","","","","","","","","","","","","","",""
"revaluation","88","431917","0.0-3.0-13.0-4.0-0.3","spark_pilot_2","7388","7","16","Male","","false","","","","","[403.10000002384186]","./assets/img/space/animals/rabbit.jpg","[""ArrowRight""]","practice block","space","23","{""ArrowUp,ArrowLeft"":3,""ArrowUp,ArrowRight"":36,""ArrowDown,ArrowLeft"":15,""ArrowDown,ArrowRight"":23}","true","ArrowDown,ArrowRight","","","","","","","","",""
"html-keyboard-response","89","432428","0.0-3.0-13.0-4.0-1.3","spark_pilot_2","7388","7","16","Male","","","","","","","null","<div style=""font-size:60px;"">+</div>","null","fixation","","","","","","","","","","","","","",""
"learning-instructions","90","441572","0.0-3.0-13.0-5.0-0.0","spark_pilot_2","7388","7","16","Male","","","","","","","1753.199999988079","<p> Time to play the dot game! </p>
            <p> For 15 seconds, click the red dots on the following screen as they appear. </p>","","instructions","","","","","","","","","","","","","",""
"revaluation","91","456576","0.0-3.0-13.0-6.0-0.0","spark_pilot_2","7388","7","16","Male","","","","","","","[73,68]","","","rest practice","","20","","","","","0","15000","","","","","",""
"learning-instructions","92","463962","0.0-3.0-13.0-7.0-0.0","spark_pilot_2","7388","7","16","Male","","","","","","","1155.199999988079","<p> You have almost finished this part of the game! </p>
            <p> We are going to ask you to make a few more choices. </p>","","instructions","","","","","","","","","","","","","",""
"learning-instructions","93","478714","0.0-3.0-13.0-7.0-0.1","spark_pilot_2","7388","7","16","Male","","","","","","","691.8999999761581","<p> First, you need to decide whether to go up or down. When you see each picture, use the arrow keys to make your choice. </p>
            <p><b>You will not see which animal you found, but try to get to the one that will give you the most treasure.</b></p>","","instructions","","","","","","","","","","","","","",""
"revaluation","94","479822","0.0-3.0-13.0-8.0","spark_pilot_2","7388","7","16","Male","","false","","","","","[1106.699999988079]","./assets/img/space/15.jpg","[""ArrowUp""]","practice block","space","0","{""ArrowUp,ArrowLeft"":3,""ArrowUp,ArrowRight"":36,""ArrowDown,ArrowLeft"":15,""ArrowDown,ArrowRight"":23}","true","ArrowUp","false","","","","","","","",""
"html-keyboard-response","95","480326","0.0-3.0-13.0-9.0","spark_pilot_2","7388","7","16","Male","","","","","","","null","<div style=""font-size:60px;"">+</div>","null","fixation","","","","","","","","","","","","","",""
"learning-instructions","96","492735","0.0-3.0-13.0-10.0-0.0","spark_pilot_2","7388","7","16","Male","","","","","","","995.8000000119209","<p> Now you will see the animals again and can search their chests for treasure. </p>
            <p> This time, you will not see how much treasure you earned, but you will earn more bonus money for making better choices. </p>","","instructions","","","","","","","","","","","","","",""
"revaluation","97","493640","0.0-3.0-13.0-11.0-0.0","spark_pilot_2","7388","7","16","Male","","false","","","","","[902.1999999880791]","./assets/img/space/animals/cat.jpg","[""ArrowRight""]","practice block","space","0","{""ArrowUp,ArrowLeft"":3,""ArrowUp,ArrowRight"":36,""ArrowDown,ArrowLeft"":15,""ArrowDown,ArrowRight"":23}","true","ArrowUp,ArrowRight","","","","","","","","",""
"html-keyboard-response","98","494150","0.0-3.0-13.0-11.0-1.0","spark_pilot_2","7388","7","16","Male","","","","","","","null","<div style=""font-size:60px;"">+</div>","null","fixation","","","","","","","","","","","","","",""
"revaluation","99","494948","0.0-3.0-13.0-11.0-0.1","spark_pilot_2","7388","7","16","Male","","false","","","","","[795.9000000357628]","./assets/img/space/animals/rabbit.jpg","[""ArrowRight""]","practice block","space","0","{""ArrowUp,ArrowLeft"":3,""ArrowUp,ArrowRight"":36,""ArrowDown,ArrowLeft"":15,""ArrowDown,ArrowRight"":23}","true","ArrowDown,ArrowRight","","","","","","","","",""
"html-keyboard-response","100","495454","0.0-3.0-13.0-11.0-1.1","spark_pilot_2","7388","7","16","Male","","","","","","","null","<div style=""font-size:60px;"">+</div>","null","fixation","","","","","","","","","","","","","",""
"learning-instructions","101","500561","0.0-3.0-14.0-0.0","spark_pilot_2","7388","7","16","Male","","","","","","","514","<p> Before you start, we're going to ask you a few questions about how the game works. </p>","","instructions","","","","","","","","","","","","","",""
"comp-q","102","507446","0.0-3.0-15.0-0.0-0.0","spark_pilot_2","7388","7","16","Male","","","","","","","1283.1000000238419","<p> <b> True or False? </b> </p>
            <p> There can be 50 pieces of treasure in a given animal's chest. </p>","1","comp_question","","","","true","","","","","","","","","",""
"comp-q","103","515466","0.0-3.0-15.0-0.0-1.0","spark_pilot_2","7388","7","16","Male","","","","","","","1336.300000011921","<p> <b> That's right! </b> The amount of treasure in each chest can range from 0 to 40 pieces. </p>","0","comp_answer","","","","","","","","","","","","","",""
"comp-q","104","523102","0.0-3.0-15.0-0.1-0.1","spark_pilot_2","7388","7","16","Male","","","","","","","490.69999998807907","<p> <b> True or False? </b> </p><p> In this game, all animals have the same amount of treasure in their left and right chests. </p>","1","comp_question","","","","true","","","","","","","","","",""
"comp-q","105","529234","0.0-3.0-15.0-0.1-1.1","spark_pilot_2","7388","7","16","Male","","","","","","","880.9000000357628","<p> <b> That's right! </b> Animals have different amounts of treasure in their treasure chests. </p>","0","comp_answer","","","","","","","","","","","","","",""
"comp-q","106","538219","0.0-3.0-15.0-0.2-0.2","spark_pilot_2","7388","7","16","Male","","","","","","","3120.5","<p> <b> True or False? </b> </p><p> The same animal will always be there if you go up in the same place. </p>","0","comp_question","","","","true","","","","","","","","","",""
"comp-q","107","546189","0.0-3.0-15.0-0.2-1.2","spark_pilot_2","7388","7","16","Male","","","","","","","1506.5999999642372","<p> <b> That's right! </b> One animal lives in the upper part and one lives in the lower part of every place. </p>","0","comp_answer","","","","","","","","","","","","","",""
"comp-q","108","553015","0.0-3.0-15.0-0.3-0.3","spark_pilot_2","7388","7","16","Male","","","","","","","1284.5999999642372","<p> <b> True or False? </b> </p><p> If you see a different picture, it means you are in a new place. </p>","0","comp_question","","","","false","","","","","","","","","",""
"comp-q","109","565499","0.0-3.0-15.0-0.3-1.3","spark_pilot_2","7388","7","16","Male","","","","","","","1352.199999988079","<p> <b>Incorrect.</b> Lots of different images may show the same place. For example,  you may see three different images that all remind you that you are in outer space. </p>","0","comp_answer","","","","","","","","","","","","","",""
"comp-q","110","572274","0.0-3.0-15.0-0.4-0.4","spark_pilot_2","7388","7","16","Male","","","","","","","1271.699999988079","<p> <b> True or False? </b> </p><p> If you see a different picture, it means you are in a new place. </p>","1","comp_question","","","","true","","","","","","","","","",""
"comp-q","111","585435","0.0-3.0-15.0-0.4-1.4","spark_pilot_2","7388","7","16","Male","","","","","","","1898.9000000357628","<p> <b> That's right! </b> Lots of different images may show the same place. For example,  you may see three different images that all remind you that you are in outer space. </p>","0","comp_answer","","","","","","","","","","","","","",""
"learning-instructions","112","596232","0.0-3.0-16.0-0.0","spark_pilot_2","7388","7","16","Male","","","","","","","917.5","<p> Good job. Remember to do your best because the amount of treasure you earn will be converted into bonus money. </p>
            <p> It’s time to start the real game! </p>","","instructions","","","","","","","","","","","","","",""
"learning-instructions","113","600287","0.0-4.0-0.0-0.0","spark_pilot_2","7388","7","16","Male","","","","","","","1274","<p> This time you are searching for treasure in the <b>canyon</b>.</p>","","instructions","","","","","","","","","","","","","",""
"learning-instructions","114","621744","0.0-4.0-0.0-0.1","spark_pilot_2","7388","7","16","Male","","","","","","","4114","<p><b>New</b> animals with <b>new</b> treasure chests live here. You need to explore to discover where the animal with the best treasure chest is.</p>
                    <p> Like before, once you figure out which animal has the chest with the most treasure, you should try to get to that animal and select that chest! </p>","","instructions","","","","","","","","","","","","","",""
"learning-instructions","115","687961","0.0-4.0-1.0-0.0","spark_pilot_2","7388","7","16","Male","","","","","","","51481.299999952316","<p> Remember, when you see a picture of the place, use the up and down keys to <b>find an animal</b>.</p>
            <p> When you encounter an animal, you should use the left and right keys to <b>select a treasure chest</b>.</p>
            <p> Don't forget to look out for the robber! </p>","","instructions","","","","","","","","","","","","","",""
"revaluation","116","691976","0.0-4.0-2.0-0.0","spark_pilot_2","7388","7","16","Male","","false","","","","","[1219.800000011921]","./assets/img/canyon/catch/1.jpg","[""ArrowUp""]","value training","canyon","-10","{""ArrowUp,ArrowLeft"":23,""ArrowUp,ArrowRight"":10,""ArrowDown,ArrowLeft"":8,""ArrowDown,ArrowRight"":30}","false","ArrowUp","true","","","original","1","0","","",""
"html-keyboard-response","117","692491","0.0-4.0-2.0-1.0","spark_pilot_2","7388","7","16","Male","","","","","","","null","<div style=""font-size:60px;"">+</div>","null","fixation","","","","","","","","","","","1","","",""
"revaluation","118","698513","0.0-4.0-2.0-0.1","spark_pilot_2","7388","7","16","Male","","false","","","","","[1146.4000000357628,766.1999999880791]","./assets/img/canyon/memory/39.jpg","[""ArrowUp"",""ArrowRight""]","value training","canyon","10","{""ArrowUp,ArrowLeft"":23,""ArrowUp,ArrowRight"":10,""ArrowDown,ArrowLeft"":8,""ArrowDown,ArrowRight"":30}","false","ArrowUp,ArrowRight","false","","","original","1","2","","",""
"html-keyboard-response","119","699019","0.0-4.0-2.0-1.1","spark_pilot_2","7388","7","16","Male","","","","","","","null","<div style=""font-size:60px;"">+</div>","null","fixation","","","","","","","","","","","3","","",""
"revaluation","120","705044","0.0-4.0-2.0-0.2","spark_pilot_2","7388","7","16","Male","","false","","","","","[898.8000000119209,631.6000000238419]","./assets/img/canyon/memory/16.jpg","[""ArrowDown"",""ArrowLeft""]","value training","canyon","8","{""ArrowUp,ArrowLeft"":23,""ArrowUp,ArrowRight"":10,""ArrowDown,ArrowLeft"":8,""ArrowDown,ArrowRight"":30}","false","ArrowDown,ArrowLeft","false","","","original","1","4","","",""
"html-keyboard-response","121","705555","0.0-4.0-2.0-1.2","spark_pilot_2","7388","7","16","Male","","","","","","","null","<div style=""font-size:60px;"">+</div>","null","fixation","","","","","","","","","","","5","","",""
"revaluation","122","711580","0.0-4.0-2.0-0.3","spark_pilot_2","7388","7","16","Male","","false","","","","","[663.5,348.5]","./assets/img/canyon/memory/13.jpg","[""ArrowUp"",""ArrowLeft""]","value training","canyon","23","{""ArrowUp,ArrowLeft"":23,""ArrowUp,ArrowRight"":10,""ArrowDown,ArrowLeft"":8,""ArrowDown,ArrowRight"":30}","false","ArrowUp,ArrowLeft","false","","","original","1","6","","",""
"html-keyboard-response","123","712091","0.0-4.0-2.0-1.3","spark_pilot_2","7388","7","16","Male","","","","","","","null","<div style=""font-size:60px;"">+</div>","null","fixation","","","","","","","","","","","7","","",""
"revaluation","124","718117","0.0-4.0-2.0-0.4","spark_pilot_2","7388","7","16","Male","","false","","","","","[634,370.2000000476837]","./assets/img/canyon/memory/29.jpg","[""ArrowDown"",""ArrowRight""]","value training","canyon","30","{""ArrowUp,ArrowLeft"":23,""ArrowUp,ArrowRight"":10,""ArrowDown,ArrowLeft"":8,""ArrowDown,ArrowRight"":30}","true","ArrowDown,ArrowRight","false","","","original","1","8","","",""
"html-keyboard-response","125","718628","0.0-4.0-2.0-1.4","spark_pilot_2","7388","7","16","Male","","","","","","","null","<div style=""font-size:60px;"">+</div>","null","fixation","","","","","","","","","","","9","","",""
"revaluation","126","722645","0.0-4.0-2.0-0.5","spark_pilot_2","7388","7","16","Male","","false","","","","","[812.3999999761581]","./assets/img/canyon/catch/3.jpg","[""spaceBar""]","value training","canyon","0","{""ArrowUp,ArrowLeft"":23,""ArrowUp,ArrowRight"":10,""ArrowDown,ArrowLeft"":8,""ArrowDown,ArrowRight"":30}","true","spaceBar","true","","","original","1","10","","",""
"html-keyboard-response","127","723155","0.0-4.0-2.0-1.5","spark_pilot_2","7388","7","16","Male","","","","","","","null","<div style=""font-size:60px;"">+</div>","null","fixation","","","","","","","","","","","11","","",""
"revaluation","128","729182","0.0-4.0-2.0-0.6","spark_pilot_2","7388","7","16","Male","","false","","","","","[482.10000002384186,421.39999997615814]","./assets/img/canyon/memory/39.jpg","[""ArrowDown"",""ArrowRight""]","value training","canyon","30","{""ArrowUp,ArrowLeft"":23,""ArrowUp,ArrowRight"":10,""ArrowDown,ArrowLeft"":8,""ArrowDown,ArrowRight"":30}","true","ArrowDown,ArrowRight","false","","","original","1","12","","",""
"html-keyboard-response","129","729692","0.0-4.0-2.0-1.6","spark_pilot_2","7388","7","16","Male","","","","","","","null","<div style=""font-size:60px;"">+</div>","null","fixation","","","","","","","","","","","13","","",""
"revaluation","130","735718","0.0-4.0-2.0-0.7","spark_pilot_2","7388","7","16","Male","","false","","","","","[547,297.80000001192093]","./assets/img/canyon/memory/38.jpg","[""ArrowDown"",""ArrowRight""]","value training","canyon","30","{""ArrowUp,ArrowLeft"":23,""ArrowUp,ArrowRight"":10,""ArrowDown,ArrowLeft"":8,""ArrowDown,ArrowRight"":30}","true","ArrowDown,ArrowRight","false","","","original","1","14","","",""
"html-keyboard-response","131","736229","0.0-4.0-2.0-1.7","spark_pilot_2","7388","7","16","Male","","","","","","","null","<div style=""font-size:60px;"">+</div>","null","fixation","","","","","","","","","","","15","","",""
"revaluation","132","742249","0.0-4.0-2.0-0.8","spark_pilot_2","7388","7","16","Male","","false","","","","","[838.7000000476837,929.3999999761581]","./assets/img/canyon/memory/12.jpg","[""ArrowDown"",""ArrowRight""]","value training","canyon","30","{""ArrowUp,ArrowLeft"":23,""ArrowUp,ArrowRight"":10,""ArrowDown,ArrowLeft"":8,""ArrowDown,ArrowRight"":30}","true","ArrowDown,ArrowRight","false","","","original","1","16","","",""
"html-keyboard-response","133","742754","0.0-4.0-2.0-1.8","spark_pilot_2","7388","7","16","Male","","","","","","","null","<div style=""font-size:60px;"">+</div>","null","fixation","","","","","","","","","","","17","","",""
"revaluation","134","748780","0.0-4.0-2.0-0.9","spark_pilot_2","7388","7","16","Male","","false","","","","","[679.8999999761581,364.80000001192093]","./assets/img/canyon/memory/9.jpg","[""ArrowDown"",""ArrowRight""]","value training","canyon","30","{""ArrowUp,ArrowLeft"":23,""ArrowUp,ArrowRight"":10,""ArrowDown,ArrowLeft"":8,""ArrowDown,ArrowRight"":30}","true","ArrowDown,ArrowRight","false","","","original","1","18","","",""
"html-keyboard-response","135","749284","0.0-4.0-2.0-1.9","spark_pilot_2","7388","7","16","Male","","","","","","","null","<div style=""font-size:60px;"">+</div>","null","fixation","","","","","","","","","","","19","","",""
"revaluation","136","753302","0.0-4.0-2.0-0.10","spark_pilot_2","7388","7","16","Male","","false","","","","","[493.30000001192093]","./assets/img/canyon/catch/6.jpg","[""spaceBar""]","value training","canyon","0","{""ArrowUp,ArrowLeft"":23,""ArrowUp,ArrowRight"":10,""ArrowDown,ArrowLeft"":8,""ArrowDown,ArrowRight"":30}","true","spaceBar","true","","","original","1","20","","",""
"html-keyboard-response","137","753812","0.0-4.0-2.0-1.10","spark_pilot_2","7388","7","16","Male","","","","","","","null","<div style=""font-size:60px;"">+</div>","null","fixation","","","","","","","","","","","21","","",""
"revaluation","138","759835","0.0-4.0-2.0-0.11","spark_pilot_2","7388","7","16","Male","","false","","","","","[542.3999999761581,535.6999999880791]","./assets/img/canyon/memory/29.jpg","[""ArrowDown"",""ArrowRight""]","value training","canyon","30","{""ArrowUp,ArrowLeft"":23,""ArrowUp,ArrowRight"":10,""ArrowDown,ArrowLeft"":8,""ArrowDown,ArrowRight"":30}","true","ArrowDown,ArrowRight","false","","","original","1","22","","",""
"html-keyboard-response","139","760337","0.0-4.0-2.0-1.11","spark_pilot_2","7388","7","16","Male","","","","","","","null","<div style=""font-size:60px;"">+</div>","null","fixation","","","","","","","","","","","23","","",""
"revaluation","140","766366","0.0-4.0-2.0-0.12","spark_pilot_2","7388","7","16","Male","","false","","","","","[656.5999999642372,740.1000000238419]","./assets/img/canyon/memory/21.jpg","[""ArrowDown"",""ArrowRight""]","value training","canyon","30","{""ArrowUp,ArrowLeft"":23,""ArrowUp,ArrowRight"":10,""ArrowDown,ArrowLeft"":8,""ArrowDown,ArrowRight"":30}","true","ArrowDown,ArrowRight","false","","","original","1","24","","",""
"html-keyboard-response","141","766874","0.0-4.0-2.0-1.12","spark_pilot_2","7388","7","16","Male","","","","","","","null","<div style=""font-size:60px;"">+</div>","null","fixation","","","","","","","","","","","25","","",""
"revaluation","142","772900","0.0-4.0-2.0-0.13","spark_pilot_2","7388","7","16","Male","","false","","","","","[589.3999999761581,372.5]","./assets/img/canyon/memory/15.jpg","[""ArrowDown"",""ArrowRight""]","value training","canyon","30","{""ArrowUp,ArrowLeft"":23,""ArrowUp,ArrowRight"":10,""ArrowDown,ArrowLeft"":8,""ArrowDown,ArrowRight"":30}","true","ArrowDown,ArrowRight","false","","","original","1","26","","",""
"html-keyboard-response","143","773405","0.0-4.0-2.0-1.13","spark_pilot_2","7388","7","16","Male","","","","","","","null","<div style=""font-size:60px;"">+</div>","null","fixation","","","","","","","","","","","27","","",""
"revaluation","144","779431","0.0-4.0-2.0-0.14","spark_pilot_2","7388","7","16","Male","","false","","","","","[1057.7000000476837,412.5]","./assets/img/canyon/memory/34.jpg","[""ArrowDown"",""ArrowRight""]","value training","canyon","30","{""ArrowUp,ArrowLeft"":23,""ArrowUp,ArrowRight"":10,""ArrowDown,ArrowLeft"":8,""ArrowDown,ArrowRight"":30}","true","ArrowDown,ArrowRight","false","","","original","1","28","","",""
"html-keyboard-response","145","779942","0.0-4.0-2.0-1.14","spark_pilot_2","7388","7","16","Male","","","","","","","null","<div style=""font-size:60px;"">+</div>","null","fixation","","","","","","","","","","","29","","",""
"revaluation","146","783959","0.0-4.0-2.0-0.15","spark_pilot_2","7388","7","16","Male","","false","","","","","[864.4000000357628]","./assets/img/canyon/catch/0.jpg","[""spaceBar""]","value training","canyon","0","{""ArrowUp,ArrowLeft"":23,""ArrowUp,ArrowRight"":10,""ArrowDown,ArrowLeft"":8,""ArrowDown,ArrowRight"":30}","true","spaceBar","true","","","original","1","30","","",""
"html-keyboard-response","147","784469","0.0-4.0-2.0-1.15","spark_pilot_2","7388","7","16","Male","","","","","","","null","<div style=""font-size:60px;"">+</div>","null","fixation","","","","","","","","","","","31","","",""
"revaluation","148","790494","0.0-4.0-2.0-0.16","spark_pilot_2","7388","7","16","Male","","false","","","","","[661.3000000119209,196.69999998807907]","./assets/img/canyon/memory/41.jpg","[""ArrowDown"",""ArrowRight""]","value training","canyon","30","{""ArrowUp,ArrowLeft"":23,""ArrowUp,ArrowRight"":10,""ArrowDown,ArrowLeft"":8,""ArrowDown,ArrowRight"":30}","true","ArrowDown,ArrowRight","false","","","original","1","32","","",""
"html-keyboard-response","149","791006","0.0-4.0-2.0-1.16","spark_pilot_2","7388","7","16","Male","","","","","","","null","<div style=""font-size:60px;"">+</div>","null","fixation","","","","","","","","","","","33","","",""
"revaluation","150","797026","0.0-4.0-2.0-0.17","spark_pilot_2","7388","7","16","Male","","false","","","","","[518,226.60000002384186]","./assets/img/canyon/memory/0.jpg","[""ArrowDown"",""ArrowRight""]","value training","canyon","30","{""ArrowUp,ArrowLeft"":23,""ArrowUp,ArrowRight"":10,""ArrowDown,ArrowLeft"":8,""ArrowDown,ArrowRight"":30}","true","ArrowDown,ArrowRight","false","","","original","1","34","","",""
"html-keyboard-response","151","797534","0.0-4.0-2.0-1.17","spark_pilot_2","7388","7","16","Male","","","","","","","null","<div style=""font-size:60px;"">+</div>","null","fixation","","","","","","","","","","","35","","",""
"revaluation","152","803557","0.0-4.0-2.0-0.18","spark_pilot_2","7388","7","16","Male","","false","","","","","[720.6000000238419,444.30000001192093]","./assets/img/canyon/memory/24.jpg","[""ArrowDown"",""ArrowRight""]","value training","canyon","30","{""ArrowUp,ArrowLeft"":23,""ArrowUp,ArrowRight"":10,""ArrowDown,ArrowLeft"":8,""ArrowDown,ArrowRight"":30}","true","ArrowDown,ArrowRight","false","","","original","1","36","","",""
"html-keyboard-response","153","804061","0.0-4.0-2.0-1.18","spark_pilot_2","7388","7","16","Male","","","","","","","null","<div style=""font-size:60px;"">+</div>","null","fixation","","","","","","","","","","","37","","",""
"revaluation","154","810086","0.0-4.0-2.0-0.19","spark_pilot_2","7388","7","16","Male","","false","","","","","[556.8000000119209,490]","./assets/img/canyon/memory/27.jpg","[""ArrowDown"",""ArrowRight""]","value training","canyon","30","{""ArrowUp,ArrowLeft"":23,""ArrowUp,ArrowRight"":10,""ArrowDown,ArrowLeft"":8,""ArrowDown,ArrowRight"":30}","true","ArrowDown,ArrowRight","false","","","original","1","38","","",""
"html-keyboard-response","155","810598","0.0-4.0-2.0-1.19","spark_pilot_2","7388","7","16","Male","","","","","","","null","<div style=""font-size:60px;"">+</div>","null","fixation","","","","","","","","","","","39","","",""
"revaluation","156","816623","0.0-4.0-2.0-0.20","spark_pilot_2","7388","7","16","Male","","false","","","","","[614.3000000119209,11.800000011920929]","./assets/img/canyon/memory/18.jpg","[""ArrowDown"",""ArrowRight""]","value training","canyon","30","{""ArrowUp,ArrowLeft"":23,""ArrowUp,ArrowRight"":10,""ArrowDown,ArrowLeft"":8,""ArrowDown,ArrowRight"":30}","true","ArrowDown,ArrowRight","false","","","original","1","40","","",""
"html-keyboard-response","157","817134","0.0-4.0-2.0-1.20","spark_pilot_2","7388","7","16","Male","","","","","","","null","<div style=""font-size:60px;"">+</div>","null","fixation","","","","","","","","","","","41","","",""
"revaluation","158","823166","0.0-4.0-2.0-0.21","spark_pilot_2","7388","7","16","Male","","false","","","","","[814,72.19999998807907]","./assets/img/canyon/memory/10.jpg","[""ArrowDown"",""ArrowRight""]","value training","canyon","30","{""ArrowUp,ArrowLeft"":23,""ArrowUp,ArrowRight"":10,""ArrowDown,ArrowLeft"":8,""ArrowDown,ArrowRight"":30}","true","ArrowDown,ArrowRight","false","","","original","1","42","","",""
"html-keyboard-response","159","823677","0.0-4.0-2.0-1.21","spark_pilot_2","7388","7","16","Male","","","","","","","null","<div style=""font-size:60px;"">+</div>","null","fixation","","","","","","","","","","","43","","",""
"revaluation","160","829702","0.0-4.0-2.0-0.22","spark_pilot_2","7388","7","16","Male","","false","","","","","[548.8999999761581,593]","./assets/img/canyon/memory/15.jpg","[""ArrowDown"",""ArrowRight""]","value training","canyon","30","{""ArrowUp,ArrowLeft"":23,""ArrowUp,ArrowRight"":10,""ArrowDown,ArrowLeft"":8,""ArrowDown,ArrowRight"":30}","true","ArrowDown,ArrowRight","false","","","original","1","44","","",""
"html-keyboard-response","161","830213","0.0-4.0-2.0-1.22","spark_pilot_2","7388","7","16","Male","","","","","","","null","<div style=""font-size:60px;"">+</div>","null","fixation","","","","","","","","","","","45","","",""
"revaluation","162","836240","0.0-4.0-2.0-0.23","spark_pilot_2","7388","7","16","Male","","false","","","","","[728.1999999880791,362.2000000476837]","./assets/img/canyon/memory/10.jpg","[""ArrowDown"",""ArrowRight""]","value training","canyon","30","{""ArrowUp,ArrowLeft"":23,""ArrowUp,ArrowRight"":10,""ArrowDown,ArrowLeft"":8,""ArrowDown,ArrowRight"":30}","true","ArrowDown,ArrowRight","false","","","original","1","46","","",""
"html-keyboard-response","163","836750","0.0-4.0-2.0-1.23","spark_pilot_2","7388","7","16","Male","","","","","","","null","<div style=""font-size:60px;"">+</div>","null","fixation","","","","","","","","","","","47","","",""
"revaluation","164","842776","0.0-4.0-2.0-0.24","spark_pilot_2","7388","7","16","Male","","false","","","","","[897.7999999523163,390.19999998807907]","./assets/img/canyon/memory/38.jpg","[""ArrowDown"",""ArrowRight""]","value training","canyon","30","{""ArrowUp,ArrowLeft"":23,""ArrowUp,ArrowRight"":10,""ArrowDown,ArrowLeft"":8,""ArrowDown,ArrowRight"":30}","true","ArrowDown,ArrowRight","false","","","original","1","48","","",""
"html-keyboard-response","165","843287","0.0-4.0-2.0-1.24","spark_pilot_2","7388","7","16","Male","","","","","","","null","<div style=""font-size:60px;"">+</div>","null","fixation","","","","","","","","","","","49","","",""
"revaluation","166","849310","0.0-4.0-2.0-0.25","spark_pilot_2","7388","7","16","Male","","false","","","","","[873.6999999880791,438.9000000357628]","./assets/img/canyon/memory/0.jpg","[""ArrowDown"",""ArrowRight""]","value training","canyon","30","{""ArrowUp,ArrowLeft"":23,""ArrowUp,ArrowRight"":10,""ArrowDown,ArrowLeft"":8,""ArrowDown,ArrowRight"":30}","true","ArrowDown,ArrowRight","false","","","original","1","50","","",""
"html-keyboard-response","167","849812","0.0-4.0-2.0-1.25","spark_pilot_2","7388","7","16","Male","","","","","","","null","<div style=""font-size:60px;"">+</div>","null","fixation","","","","","","","","","","","51","","",""
"revaluation","168","855838","0.0-4.0-2.0-0.26","spark_pilot_2","7388","7","16","Male","","false","","","","","[684.2000000476837,225.20000004768372]","./assets/img/canyon/memory/35.jpg","[""ArrowDown"",""ArrowRight""]","value training","canyon","30","{""ArrowUp,ArrowLeft"":23,""ArrowUp,ArrowRight"":10,""ArrowDown,ArrowLeft"":8,""ArrowDown,ArrowRight"":30}","true","ArrowDown,ArrowRight","false","","","original","1","52","","",""
"html-keyboard-response","169","856342","0.0-4.0-2.0-1.26","spark_pilot_2","7388","7","16","Male","","","","","","","null","<div style=""font-size:60px;"">+</div>","null","fixation","","","","","","","","","","","53","","",""
"revaluation","170","862368","0.0-4.0-2.0-0.27","spark_pilot_2","7388","7","16","Male","","false","","","","","[823,478.19999998807907]","./assets/img/canyon/memory/13.jpg","[""ArrowDown"",""ArrowRight""]","value training","canyon","30","{""ArrowUp,ArrowLeft"":23,""ArrowUp,ArrowRight"":10,""ArrowDown,ArrowLeft"":8,""ArrowDown,ArrowRight"":30}","true","ArrowDown,ArrowRight","false","","","original","1","54","","",""
"html-keyboard-response","171","862879","0.0-4.0-2.0-1.27","spark_pilot_2","7388","7","16","Male","","","","","","","null","<div style=""font-size:60px;"">+</div>","null","fixation","","","","","","","","","","","55","","",""
"revaluation","172","868903","0.0-4.0-2.0-0.28","spark_pilot_2","7388","7","16","Male","","false","","","","","[693,1189.8999999761581]","./assets/img/canyon/memory/16.jpg","[""ArrowDown"",""ArrowRight""]","value training","canyon","30","{""ArrowUp,ArrowLeft"":23,""ArrowUp,ArrowRight"":10,""ArrowDown,ArrowLeft"":8,""ArrowDown,ArrowRight"":30}","true","ArrowDown,ArrowRight","false","","","original","1","56","","",""
"html-keyboard-response","173","869416","0.0-4.0-2.0-1.28","spark_pilot_2","7388","7","16","Male","","","","","","","null","<div style=""font-size:60px;"">+</div>","null","fixation","","","","","","","","","","","57","","",""
"revaluation","174","875439","0.0-4.0-2.0-0.29","spark_pilot_2","7388","7","16","Male","","false","","","","","[504.19999998807907,190]","./assets/img/canyon/memory/14.jpg","[""ArrowDown"",""ArrowRight""]","value training","canyon","30","{""ArrowUp,ArrowLeft"":23,""ArrowUp,ArrowRight"":10,""ArrowDown,ArrowLeft"":8,""ArrowDown,ArrowRight"":30}","true","ArrowDown,ArrowRight","false","","","original","1","58","","",""
"html-keyboard-response","175","875952","0.0-4.0-2.0-1.29","spark_pilot_2","7388","7","16","Male","","","","","","","null","<div style=""font-size:60px;"">+</div>","null","fixation","","","","","","","","","","","59","","",""
"revaluation","176","881976","0.0-4.0-2.0-0.30","spark_pilot_2","7388","7","16","Male","","false","","","","","[789.0999999642372,254.19999998807907]","./assets/img/canyon/memory/41.jpg","[""ArrowDown"",""ArrowRight""]","value training","canyon","30","{""ArrowUp,ArrowLeft"":23,""ArrowUp,ArrowRight"":10,""ArrowDown,ArrowLeft"":8,""ArrowDown,ArrowRight"":30}","true","ArrowDown,ArrowRight","false","","","original","1","60","","",""
"html-keyboard-response","177","882489","0.0-4.0-2.0-1.30","spark_pilot_2","7388","7","16","Male","","","","","","","null","<div style=""font-size:60px;"">+</div>","null","fixation","","","","","","","","","","","61","","",""
"revaluation","178","886500","0.0-4.0-2.0-0.31","spark_pilot_2","7388","7","16","Male","","false","","","","","[667.1000000238419]","./assets/img/canyon/catch/7.jpg","[""spaceBar""]","value training","canyon","0","{""ArrowUp,ArrowLeft"":23,""ArrowUp,ArrowRight"":10,""ArrowDown,ArrowLeft"":8,""ArrowDown,ArrowRight"":30}","true","spaceBar","true","","","original","1","62","","",""
"html-keyboard-response","179","887005","0.0-4.0-2.0-1.31","spark_pilot_2","7388","7","16","Male","","","","","","","null","<div style=""font-size:60px;"">+</div>","null","fixation","","","","","","","","","","","63","","",""
"revaluation","180","893031","0.0-4.0-2.0-0.32","spark_pilot_2","7388","7","16","Male","","false","","","","","[651,451.30000001192093]","./assets/img/canyon/memory/7.jpg","[""ArrowDown"",""ArrowRight""]","value training","canyon","30","{""ArrowUp,ArrowLeft"":23,""ArrowUp,ArrowRight"":10,""ArrowDown,ArrowLeft"":8,""ArrowDown,ArrowRight"":30}","true","ArrowDown,ArrowRight","false","","","original","1","64","","",""
"html-keyboard-response","181","893542","0.0-4.0-2.0-1.32","spark_pilot_2","7388","7","16","Male","","","","","","","null","<div style=""font-size:60px;"">+</div>","null","fixation","","","","","","","","","","","65","","",""
"revaluation","182","899635","0.0-4.0-2.0-0.33","spark_pilot_2","7388","7","16","Male","","false","","","","","[715.0999999642372,736.8000000119209]","./assets/img/canyon/memory/20.jpg","[""ArrowDown"",""ArrowRight""]","value training","canyon","30","{""ArrowUp,ArrowLeft"":23,""ArrowUp,ArrowRight"":10,""ArrowDown,ArrowLeft"":8,""ArrowDown,ArrowRight"":30}","true","ArrowDown,ArrowRight","false","","","original","1","66","","",""
"html-keyboard-response","183","900146","0.0-4.0-2.0-1.33","spark_pilot_2","7388","7","16","Male","","","","","","","null","<div style=""font-size:60px;"">+</div>","null","fixation","","","","","","","","","","","67","","",""
"revaluation","184","906172","0.0-4.0-2.0-0.34","spark_pilot_2","7388","7","16","Male","","false","","","","","[544.6999999880791,544.6999999880791]","./assets/img/canyon/memory/22.jpg","[""ArrowDown"",""ArrowRight""]","value training","canyon","30","{""ArrowUp,ArrowLeft"":23,""ArrowUp,ArrowRight"":10,""ArrowDown,ArrowLeft"":8,""ArrowDown,ArrowRight"":30}","true","ArrowDown,ArrowRight","false","","","original","1","68","","",""
"html-keyboard-response","185","906682","0.0-4.0-2.0-1.34","spark_pilot_2","7388","7","16","Male","","","","","","","null","<div style=""font-size:60px;"">+</div>","null","fixation","","","","","","","","","","","69","","",""
"revaluation","186","912708","0.0-4.0-2.0-0.35","spark_pilot_2","7388","7","16","Male","","false","","","","","[977.1000000238419,521.6000000238419]","./assets/img/canyon/memory/14.jpg","[""ArrowDown"",""ArrowRight""]","value training","canyon","30","{""ArrowUp,ArrowLeft"":23,""ArrowUp,ArrowRight"":10,""ArrowDown,ArrowLeft"":8,""ArrowDown,ArrowRight"":30}","true","ArrowDown,ArrowRight","false","","","original","1","70","","",""
"html-keyboard-response","187","913219","0.0-4.0-2.0-1.35","spark_pilot_2","7388","7","16","Male","","","","","","","null","<div style=""font-size:60px;"">+</div>","null","fixation","","","","","","","","","","","71","","",""
"revaluation","188","919245","0.0-4.0-2.0-0.36","spark_pilot_2","7388","7","16","Male","","false","","","","","[934.1999999880791,569.1999999880791]","./assets/img/canyon/memory/34.jpg","[""ArrowDown"",""ArrowRight""]","value training","canyon","30","{""ArrowUp,ArrowLeft"":23,""ArrowUp,ArrowRight"":10,""ArrowDown,ArrowLeft"":8,""ArrowDown,ArrowRight"":30}","true","ArrowDown,ArrowRight","false","","","original","1","72","","",""
"html-keyboard-response","189","919755","0.0-4.0-2.0-1.36","spark_pilot_2","7388","7","16","Male","","","","","","","null","<div style=""font-size:60px;"">+</div>","null","fixation","","","","","","","","","","","73","","",""
"revaluation","190","925781","0.0-4.0-2.0-0.37","spark_pilot_2","7388","7","16","Male","","false","","","","","[722,774.1999999880791]","./assets/img/canyon/memory/35.jpg","[""ArrowDown"",""ArrowRight""]","value training","canyon","30","{""ArrowUp,ArrowLeft"":23,""ArrowUp,ArrowRight"":10,""ArrowDown,ArrowLeft"":8,""ArrowDown,ArrowRight"":30}","true","ArrowDown,ArrowRight","false","","","original","1","74","","",""
"html-keyboard-response","191","926292","0.0-4.0-2.0-1.37","spark_pilot_2","7388","7","16","Male","","","","","","","null","<div style=""font-size:60px;"">+</div>","null","fixation","","","","","","","","","","","75","","",""
"revaluation","192","930309","0.0-4.0-2.0-0.38","spark_pilot_2","7388","7","16","Male","","false","","","","","[1232.5]","./assets/img/canyon/catch/2.jpg","[""spaceBar""]","value training","canyon","0","{""ArrowUp,ArrowLeft"":23,""ArrowUp,ArrowRight"":10,""ArrowDown,ArrowLeft"":8,""ArrowDown,ArrowRight"":30}","true","spaceBar","true","","","original","1","76","","",""
"html-keyboard-response","193","930820","0.0-4.0-2.0-1.38","spark_pilot_2","7388","7","16","Male","","","","","","","null","<div style=""font-size:60px;"">+</div>","null","fixation","","","","","","","","","","","77","","",""
"revaluation","194","936846","0.0-4.0-2.0-0.39","spark_pilot_2","7388","7","16","Male","","false","","","","","[1045.2000000476837,282]","./assets/img/canyon/memory/22.jpg","[""ArrowDown"",""ArrowRight""]","value training","canyon","30","{""ArrowUp,ArrowLeft"":23,""ArrowUp,ArrowRight"":10,""ArrowDown,ArrowLeft"":8,""ArrowDown,ArrowRight"":30}","true","ArrowDown,ArrowRight","false","","","original","1","78","","",""
"html-keyboard-response","195","937356","0.0-4.0-2.0-1.39","spark_pilot_2","7388","7","16","Male","","","","","","","null","<div style=""font-size:60px;"">+</div>","null","fixation","","","","","","","","","","","79","","",""
"revaluation","196","943377","0.0-4.0-2.0-0.40","spark_pilot_2","7388","7","16","Male","","false","","","","","[635.1000000238419,333.30000001192093]","./assets/img/canyon/memory/9.jpg","[""ArrowDown"",""ArrowRight""]","value training","canyon","30","{""ArrowUp,ArrowLeft"":23,""ArrowUp,ArrowRight"":10,""ArrowDown,ArrowLeft"":8,""ArrowDown,ArrowRight"":30}","true","ArrowDown,ArrowRight","false","","","original","1","80","","",""
"html-keyboard-response","197","943881","0.0-4.0-2.0-1.40","spark_pilot_2","7388","7","16","Male","","","","","","","null","<div style=""font-size:60px;"">+</div>","null","fixation","","","","","","","","","","","81","","",""
"revaluation","198","949907","0.0-4.0-2.0-0.41","spark_pilot_2","7388","7","16","Male","","false","","","","","[644.5,295.69999998807907]","./assets/img/canyon/memory/27.jpg","[""ArrowDown"",""ArrowRight""]","value training","canyon","30","{""ArrowUp,ArrowLeft"":23,""ArrowUp,ArrowRight"":10,""ArrowDown,ArrowLeft"":8,""ArrowDown,ArrowRight"":30}","true","ArrowDown,ArrowRight","false","","","original","1","82","","",""
"html-keyboard-response","199","950412","0.0-4.0-2.0-1.41","spark_pilot_2","7388","7","16","Male","","","","","","","null","<div style=""font-size:60px;"">+</div>","null","fixation","","","","","","","","","","","83","","",""
"revaluation","200","954429","0.0-4.0-2.0-0.42","spark_pilot_2","7388","7","16","Male","","false","","","","","[1024.699999988079]","./assets/img/canyon/catch/5.jpg","[""spaceBar""]","value training","canyon","0","{""ArrowUp,ArrowLeft"":23,""ArrowUp,ArrowRight"":10,""ArrowDown,ArrowLeft"":8,""ArrowDown,ArrowRight"":30}","true","spaceBar","true","","","original","1","84","","",""
"html-keyboard-response","201","954940","0.0-4.0-2.0-1.42","spark_pilot_2","7388","7","16","Male","","","","","","","null","<div style=""font-size:60px;"">+</div>","null","fixation","","","","","","","","","","","85","","",""
"revaluation","202","960966","0.0-4.0-2.0-0.43","spark_pilot_2","7388","7","16","Male","","false","","","","","[1061.699999988079,826.8999999761581]","./assets/img/canyon/memory/7.jpg","[""ArrowDown"",""ArrowRight""]","value training","canyon","30","{""ArrowUp,ArrowLeft"":23,""ArrowUp,ArrowRight"":10,""ArrowDown,ArrowLeft"":8,""ArrowDown,ArrowRight"":30}","true","ArrowDown,ArrowRight","false","","","original","1","86","","",""
"html-keyboard-response","203","961477","0.0-4.0-2.0-1.43","spark_pilot_2","7388","7","16","Male","","","","","","","null","<div style=""font-size:60px;"">+</div>","null","fixation","","","","","","","","","","","87","","",""
"revaluation","204","965494","0.0-4.0-2.0-0.44","spark_pilot_2","7388","7","16","Male","","false","","","","","[815]","./assets/img/canyon/catch/4.jpg","[""spaceBar""]","value training","canyon","0","{""ArrowUp,ArrowLeft"":23,""ArrowUp,ArrowRight"":10,""ArrowDown,ArrowLeft"":8,""ArrowDown,ArrowRight"":30}","true","spaceBar","true","","","original","1","88","","",""
"html-keyboard-response","205","966005","0.0-4.0-2.0-1.44","spark_pilot_2","7388","7","16","Male","","","","","","","null","<div style=""font-size:60px;"">+</div>","null","fixation","","","","","","","","","","","89","","",""
"revaluation","206","972031","0.0-4.0-2.0-0.45","spark_pilot_2","7388","7","16","Male","","false","","","","","[1194,996.3000000119209]","./assets/img/canyon/memory/20.jpg","[""ArrowDown"",""ArrowRight""]","value training","canyon","30","{""ArrowUp,ArrowLeft"":23,""ArrowUp,ArrowRight"":10,""ArrowDown,ArrowLeft"":8,""ArrowDown,ArrowRight"":30}","true","ArrowDown,ArrowRight","false","","","original","1","90","","",""
"html-keyboard-response","207","972541","0.0-4.0-2.0-1.45","spark_pilot_2","7388","7","16","Male","","","","","","","null","<div style=""font-size:60px;"">+</div>","null","fixation","","","","","","","","","","","91","","",""
"revaluation","208","978567","0.0-4.0-2.0-0.46","spark_pilot_2","7388","7","16","Male","","false","","","","","[1356.5,723]","./assets/img/canyon/memory/18.jpg","[""ArrowDown"",""ArrowRight""]","value training","canyon","30","{""ArrowUp,ArrowLeft"":23,""ArrowUp,ArrowRight"":10,""ArrowDown,ArrowLeft"":8,""ArrowDown,ArrowRight"":30}","true","ArrowDown,ArrowRight","false","","","original","1","92","","",""
"html-keyboard-response","209","979078","0.0-4.0-2.0-1.46","spark_pilot_2","7388","7","16","Male","","","","","","","null","<div style=""font-size:60px;"">+</div>","null","fixation","","","","","","","","","","","93","","",""
"revaluation","210","985098","0.0-4.0-2.0-0.47","spark_pilot_2","7388","7","16","Male","","false","","","","","[1182,592.0999999642372]","./assets/img/canyon/memory/12.jpg","[""ArrowDown"",""ArrowRight""]","value training","canyon","30","{""ArrowUp,ArrowLeft"":23,""ArrowUp,ArrowRight"":10,""ArrowDown,ArrowLeft"":8,""ArrowDown,ArrowRight"":30}","true","ArrowDown,ArrowRight","false","","","original","1","94","","",""
"html-keyboard-response","211","985603","0.0-4.0-2.0-1.47","spark_pilot_2","7388","7","16","Male","","","","","","","null","<div style=""font-size:60px;"">+</div>","null","fixation","","","","","","","","","","","95","","",""
"revaluation","212","989620","0.0-4.0-2.0-0.48","spark_pilot_2","7388","7","16","Male","","true","","","","","[]","./assets/img/canyon/memory/24.jpg","[]","value training","canyon","-5","{""ArrowUp,ArrowLeft"":23,""ArrowUp,ArrowRight"":10,""ArrowDown,ArrowLeft"":8,""ArrowDown,ArrowRight"":30}","false","","false","","","original","1","96","","",""
"html-keyboard-response","213","990125","0.0-4.0-2.0-1.48","spark_pilot_2","7388","7","16","Male","","","","","","","null","<div style=""font-size:60px;"">+</div>","null","fixation","","","","","","","","","","","97","","",""
"revaluation","214","996151","0.0-4.0-2.0-0.49","spark_pilot_2","7388","7","16","Male","","false","","","","","[1253.800000011921,720]","./assets/img/canyon/memory/21.jpg","[""ArrowDown"",""ArrowRight""]","value training","canyon","30","{""ArrowUp,ArrowLeft"":23,""ArrowUp,ArrowRight"":10,""ArrowDown,ArrowLeft"":8,""ArrowDown,ArrowRight"":30}","true","ArrowDown,ArrowRight","false","","","original","1","98","","",""
"html-keyboard-response","215","996661","0.0-4.0-2.0-1.49","spark_pilot_2","7388","7","16","Male","","","","","","","null","<div style=""font-size:60px;"">+</div>","null","fixation","","","","","","","","","","","99","","",""
"learning-instructions","216","1011665","0.0-4.0-3.0-0.0","spark_pilot_2","7388","7","16","Male","","","","","","","2011.9000000357628","<p> Now, you will travel with a friend who will choose whether you go up or down first. </p>
            <p> On these turns, you will just see the animal that they found. You will still get to choose which chest to search for treasure.</p>","","instructions","","","","","","","","","","","","","",""
"revaluation","217","1015684","0.0-4.0-4.0-0.0","spark_pilot_2","7388","7","16","Male","","false","","","","","[976.3999999761581]","./assets/img/canyon/animals/giraffe.jpg","[""ArrowRight""]","revaluation","canyon","30","{""ArrowUp,ArrowLeft"":23,""ArrowUp,ArrowRight"":10,""ArrowDown,ArrowLeft"":8,""ArrowDown,ArrowRight"":30}","true","ArrowDown,ArrowRight","","","","original","1","0","","",""
"html-keyboard-response","218","1016195","0.0-4.0-4.0-1.0","spark_pilot_2","7388","7","16","Male","","","","","","","null","<div style=""font-size:60px;"">+</div>","null","fixation","","","","","","","","","","","1","","",""
"revaluation","219","1020212","0.0-4.0-4.0-0.1","spark_pilot_2","7388","7","16","Male","","false","","","","","[799.3999999761581]","./assets/img/canyon/animals/lion.jpg","[""ArrowLeft""]","revaluation","canyon","23","{""ArrowUp,ArrowLeft"":23,""ArrowUp,ArrowRight"":10,""ArrowDown,ArrowLeft"":8,""ArrowDown,ArrowRight"":30}","true","ArrowUp,ArrowLeft","","","","original","1","2","","",""
"html-keyboard-response","220","1020717","0.0-4.0-4.0-1.1","spark_pilot_2","7388","7","16","Male","","","","","","","null","<div style=""font-size:60px;"">+</div>","null","fixation","","","","","","","","","","","3","","",""
"revaluation","221","1024731","0.0-4.0-4.0-0.2","spark_pilot_2","7388","7","16","Male","","false","","","","","[907]","./assets/img/canyon/animals/lion.jpg","[""ArrowLeft""]","revaluation","canyon","23","{""ArrowUp,ArrowLeft"":23,""ArrowUp,ArrowRight"":10,""ArrowDown,ArrowLeft"":8,""ArrowDown,ArrowRight"":30}","true","ArrowUp,ArrowLeft","","","","original","1","4","","",""
"html-keyboard-response","222","1025239","0.0-4.0-4.0-1.2","spark_pilot_2","7388","7","16","Male","","","","","","","null","<div style=""font-size:60px;"">+</div>","null","fixation","","","","","","","","","","","5","","",""
"revaluation","223","1029254","0.0-4.0-4.0-0.3","spark_pilot_2","7388","7","16","Male","","false","","","","","[953]","./assets/img/canyon/animals/giraffe.jpg","[""ArrowRight""]","revaluation","canyon","30","{""ArrowUp,ArrowLeft"":23,""ArrowUp,ArrowRight"":10,""ArrowDown,ArrowLeft"":8,""ArrowDown,ArrowRight"":30}","true","ArrowDown,ArrowRight","","","","original","1","6","","",""
"html-keyboard-response","224","1029766","0.0-4.0-4.0-1.3","spark_pilot_2","7388","7","16","Male","","","","","","","null","<div style=""font-size:60px;"">+</div>","null","fixation","","","","","","","","","","","7","","",""
"revaluation","225","1033779","0.0-4.0-4.0-0.4","spark_pilot_2","7388","7","16","Male","","false","","","","","[937.2999999523163]","./assets/img/canyon/animals/giraffe.jpg","[""ArrowRight""]","revaluation","canyon","30","{""ArrowUp,ArrowLeft"":23,""ArrowUp,ArrowRight"":10,""ArrowDown,ArrowLeft"":8,""ArrowDown,ArrowRight"":30}","true","ArrowDown,ArrowRight","","","","original","1","8","","",""
"html-keyboard-response","226","1034285","0.0-4.0-4.0-1.4","spark_pilot_2","7388","7","16","Male","","","","","","","null","<div style=""font-size:60px;"">+</div>","null","fixation","","","","","","","","","","","9","","",""
"revaluation","227","1038301","0.0-4.0-4.0-0.5","spark_pilot_2","7388","7","16","Male","","false","","","","","[1107.8999999761581]","./assets/img/canyon/animals/lion.jpg","[""ArrowLeft""]","revaluation","canyon","23","{""ArrowUp,ArrowLeft"":23,""ArrowUp,ArrowRight"":10,""ArrowDown,ArrowLeft"":8,""ArrowDown,ArrowRight"":30}","true","ArrowUp,ArrowLeft","","","","original","1","10","","",""
"html-keyboard-response","228","1038804","0.0-4.0-4.0-1.5","spark_pilot_2","7388","7","16","Male","","","","","","","null","<div style=""font-size:60px;"">+</div>","null","fixation","","","","","","","","","","","11","","",""
"revaluation","229","1042823","0.0-4.0-4.0-0.6","spark_pilot_2","7388","7","16","Male","","false","","","","","[556.6000000238419]","./assets/img/canyon/animals/lion.jpg","[""ArrowLeft""]","revaluation","canyon","23","{""ArrowUp,ArrowLeft"":23,""ArrowUp,ArrowRight"":10,""ArrowDown,ArrowLeft"":8,""ArrowDown,ArrowRight"":30}","true","ArrowUp,ArrowLeft","","","","original","1","12","","",""
"html-keyboard-response","230","1043335","0.0-4.0-4.0-1.6","spark_pilot_2","7388","7","16","Male","","","","","","","null","<div style=""font-size:60px;"">+</div>","null","fixation","","","","","","","","","","","13","","",""
"revaluation","231","1047352","0.0-4.0-4.0-0.7","spark_pilot_2","7388","7","16","Male","","false","","","","","[875.7999999523163]","./assets/img/canyon/animals/giraffe.jpg","[""ArrowRight""]","revaluation","canyon","30","{""ArrowUp,ArrowLeft"":23,""ArrowUp,ArrowRight"":10,""ArrowDown,ArrowLeft"":8,""ArrowDown,ArrowRight"":30}","true","ArrowDown,ArrowRight","","","","original","1","14","","",""
"html-keyboard-response","232","1047863","0.0-4.0-4.0-1.7","spark_pilot_2","7388","7","16","Male","","","","","","","null","<div style=""font-size:60px;"">+</div>","null","fixation","","","","","","","","","","","15","","",""
"revaluation","233","1051878","0.0-4.0-4.0-0.8","spark_pilot_2","7388","7","16","Male","","false","","","","","[1706.699999988079]","./assets/img/canyon/animals/giraffe.jpg","[""ArrowRight""]","revaluation","canyon","30","{""ArrowUp,ArrowLeft"":23,""ArrowUp,ArrowRight"":10,""ArrowDown,ArrowLeft"":8,""ArrowDown,ArrowRight"":30}","true","ArrowDown,ArrowRight","","","","original","1","16","","",""
"html-keyboard-response","234","1052379","0.0-4.0-4.0-1.8","spark_pilot_2","7388","7","16","Male","","","","","","","null","<div style=""font-size:60px;"">+</div>","null","fixation","","","","","","","","","","","17","","",""
"revaluation","235","1056397","0.0-4.0-4.0-0.9","spark_pilot_2","7388","7","16","Male","","false","","","","","[959.8999999761581]","./assets/img/canyon/animals/giraffe.jpg","[""ArrowRight""]","revaluation","canyon","30","{""ArrowUp,ArrowLeft"":23,""ArrowUp,ArrowRight"":10,""ArrowDown,ArrowLeft"":8,""ArrowDown,ArrowRight"":30}","true","ArrowDown,ArrowRight","","","","original","1","18","","",""
"html-keyboard-response","236","1056902","0.0-4.0-4.0-1.9","spark_pilot_2","7388","7","16","Male","","","","","","","null","<div style=""font-size:60px;"">+</div>","null","fixation","","","","","","","","","","","19","","",""
"revaluation","237","1060918","0.0-4.0-4.0-0.10","spark_pilot_2","7388","7","16","Male","","false","","","","","[1102.9000000357628]","./assets/img/canyon/animals/lion.jpg","[""ArrowLeft""]","revaluation","canyon","23","{""ArrowUp,ArrowLeft"":23,""ArrowUp,ArrowRight"":10,""ArrowDown,ArrowLeft"":8,""ArrowDown,ArrowRight"":30}","true","ArrowUp,ArrowLeft","","","","original","1","20","","",""
"html-keyboard-response","238","1061432","0.0-4.0-4.0-1.10","spark_pilot_2","7388","7","16","Male","","","","","","","null","<div style=""font-size:60px;"">+</div>","null","fixation","","","","","","","","","","","21","","",""
"revaluation","239","1065447","0.0-4.0-4.0-0.11","spark_pilot_2","7388","7","16","Male","","false","","","","","[928.6999999880791]","./assets/img/canyon/animals/giraffe.jpg","[""ArrowRight""]","revaluation","canyon","30","{""ArrowUp,ArrowLeft"":23,""ArrowUp,ArrowRight"":10,""ArrowDown,ArrowLeft"":8,""ArrowDown,ArrowRight"":30}","true","ArrowDown,ArrowRight","","","","original","1","22","","",""
"html-keyboard-response","240","1065958","0.0-4.0-4.0-1.11","spark_pilot_2","7388","7","16","Male","","","","","","","null","<div style=""font-size:60px;"">+</div>","null","fixation","","","","","","","","","","","23","","",""
"revaluation","241","1069975","0.0-4.0-4.0-0.12","spark_pilot_2","7388","7","16","Male","","false","","","","","[1229.5]","./assets/img/canyon/animals/giraffe.jpg","[""ArrowRight""]","revaluation","canyon","30","{""ArrowUp,ArrowLeft"":23,""ArrowUp,ArrowRight"":10,""ArrowDown,ArrowLeft"":8,""ArrowDown,ArrowRight"":30}","true","ArrowDown,ArrowRight","","","","original","1","24","","",""
"html-keyboard-response","242","1070487","0.0-4.0-4.0-1.12","spark_pilot_2","7388","7","16","Male","","","","","","","null","<div style=""font-size:60px;"">+</div>","null","fixation","","","","","","","","","","","25","","",""
"revaluation","243","1074502","0.0-4.0-4.0-0.13","spark_pilot_2","7388","7","16","Male","","false","","","","","[1158.300000011921]","./assets/img/canyon/animals/lion.jpg","[""ArrowLeft""]","revaluation","canyon","23","{""ArrowUp,ArrowLeft"":23,""ArrowUp,ArrowRight"":10,""ArrowDown,ArrowLeft"":8,""ArrowDown,ArrowRight"":30}","true","ArrowUp,ArrowLeft","","","","original","1","26","","",""
"html-keyboard-response","244","1075008","0.0-4.0-4.0-1.13","spark_pilot_2","7388","7","16","Male","","","","","","","null","<div style=""font-size:60px;"">+</div>","null","fixation","","","","","","","","","","","27","","",""
"revaluation","245","1079024","0.0-4.0-4.0-0.14","spark_pilot_2","7388","7","16","Male","","false","","","","","[1107.6000000238419]","./assets/img/canyon/animals/lion.jpg","[""ArrowLeft""]","revaluation","canyon","23","{""ArrowUp,ArrowLeft"":23,""ArrowUp,ArrowRight"":10,""ArrowDown,ArrowLeft"":8,""ArrowDown,ArrowRight"":30}","true","ArrowUp,ArrowLeft","","","","original","1","28","","",""
"html-keyboard-response","246","1079536","0.0-4.0-4.0-1.14","spark_pilot_2","7388","7","16","Male","","","","","","","null","<div style=""font-size:60px;"">+</div>","null","fixation","","","","","","","","","","","29","","",""
"revaluation","247","1083553","0.0-4.0-4.0-0.15","spark_pilot_2","7388","7","16","Male","","false","","","","","[1074.5]","./assets/img/canyon/animals/giraffe.jpg","[""ArrowRight""]","revaluation","canyon","30","{""ArrowUp,ArrowLeft"":23,""ArrowUp,ArrowRight"":10,""ArrowDown,ArrowLeft"":8,""ArrowDown,ArrowRight"":30}","true","ArrowDown,ArrowRight","","","","original","1","30","","",""
"html-keyboard-response","248","1084064","0.0-4.0-4.0-1.15","spark_pilot_2","7388","7","16","Male","","","","","","","null","<div style=""font-size:60px;"">+</div>","null","fixation","","","","","","","","","","","31","","",""
"revaluation","249","1088079","0.0-4.0-4.0-0.16","spark_pilot_2","7388","7","16","Male","","false","","","","","[1128.5]","./assets/img/canyon/animals/lion.jpg","[""ArrowLeft""]","revaluation","canyon","23","{""ArrowUp,ArrowLeft"":23,""ArrowUp,ArrowRight"":10,""ArrowDown,ArrowLeft"":8,""ArrowDown,ArrowRight"":30}","true","ArrowUp,ArrowLeft","","","","original","1","32","","",""
"html-keyboard-response","250","1088592","0.0-4.0-4.0-1.16","spark_pilot_2","7388","7","16","Male","","","","","","","null","<div style=""font-size:60px;"">+</div>","null","fixation","","","","","","","","","","","33","","",""
"revaluation","251","1092609","0.0-4.0-4.0-0.17","spark_pilot_2","7388","7","16","Male","","true","","","","","[]","./assets/img/canyon/animals/lion.jpg","[]","revaluation","canyon","-5","{""ArrowUp,ArrowLeft"":23,""ArrowUp,ArrowRight"":10,""ArrowDown,ArrowLeft"":8,""ArrowDown,ArrowRight"":30}","false","ArrowUp","","","","original","1","34","","",""
"html-keyboard-response","252","1093120","0.0-4.0-4.0-1.17","spark_pilot_2","7388","7","16","Male","","","","","","","null","<div style=""font-size:60px;"">+</div>","null","fixation","","","","","","","","","","","35","","",""
"learning-instructions","253","1106014","0.0-4.0-5.0-0.0","spark_pilot_2","7388","7","16","Male","","","","","","","1376.5","<p> Time to play the dot game! </p>
            <p> For one minute, click the red dots on the following screen as they appear. </p>
            <p><b> Don't look away, as you will earn bonus for clicking dots</b>. </p>","","instructions","","","","","","","","","","","","","",""
"revaluation","254","1166022","0.0-4.0-6.0-0.0","spark_pilot_2","7388","7","16","Male","","","","","","","[80,101,63,64,64,100]","","","rest","","60","","","","","0","60000","","","","","",""
"learning-instructions","255","1175130","0.0-4.0-7.0-0.0","spark_pilot_2","7388","7","16","Male","","","","","","","2900.899999976158","<p> You have almost finished this part of the game! </p>
            <p> We are going to ask you to make a few more choices. </p>","","instructions","","","","","","","","","","","","","",""
"learning-instructions","256","1190193","0.0-4.0-7.0-0.1","spark_pilot_2","7388","7","16","Male","","","","","","","1088.5","<p> First, you need to decide whether to go up or down. When you see each picture, use the arrow keys to make your choice. </p>
            <p><b>You will not see which animal you found, but try to get to the one that will give you the most treasure.</b></p>","","instructions","","","","","","","","","","","","","",""
"revaluation","257","1190982","0.0-4.0-8.0-0.0","spark_pilot_2","7388","7","16","Male","","false","","","","","[788.1000000238419]","./assets/img/canyon/test/1.jpg","[""ArrowUp""]","first stage test","canyon","0","{""ArrowUp,ArrowLeft"":23,""ArrowUp,ArrowRight"":10,""ArrowDown,ArrowLeft"":8,""ArrowDown,ArrowRight"":30}","false","ArrowUp","false","","","original","1","","","",""
"html-keyboard-response","258","1191487","0.0-4.0-8.0-1.0","spark_pilot_2","7388","7","16","Male","","","","","","","null","<div style=""font-size:60px;"">+</div>","null","fixation","","","","","","","","","","","","","",""
"revaluation","259","1193051","0.0-4.0-8.0-0.1","spark_pilot_2","7388","7","16","Male","","false","","","","","[1562.5]","./assets/img/canyon/test/2.jpg","[""ArrowUp""]","first stage test","canyon","0","{""ArrowUp,ArrowLeft"":23,""ArrowUp,ArrowRight"":10,""ArrowDown,ArrowLeft"":8,""ArrowDown,ArrowRight"":30}","false","ArrowUp","false","","","original","1","","","",""
"html-keyboard-response","260","1193562","0.0-4.0-8.0-1.1","spark_pilot_2","7388","7","16","Male","","","","","","","null","<div style=""font-size:60px;"">+</div>","null","fixation","","","","","","","","","","","","","",""
"revaluation","261","1194778","0.0-4.0-8.0-0.2","spark_pilot_2","7388","7","16","Male","","false","","","","","[1212.699999988079]","./assets/img/canyon/test/3.jpg","[""ArrowUp""]","first stage test","canyon","0","{""ArrowUp,ArrowLeft"":23,""ArrowUp,ArrowRight"":10,""ArrowDown,ArrowLeft"":8,""ArrowDown,ArrowRight"":30}","false","ArrowUp","false","","","original","1","","","",""
"html-keyboard-response","262","1195282","0.0-4.0-8.0-1.2","spark_pilot_2","7388","7","16","Male","","","","","","","null","<div style=""font-size:60px;"">+</div>","null","fixation","","","","","","","","","","","","","",""
"revaluation","263","1196398","0.0-4.0-8.0-0.3","spark_pilot_2","7388","7","16","Male","","false","","","","","[1113.1000000238419]","./assets/img/canyon/test/0.jpg","[""ArrowUp""]","first stage test","canyon","0","{""ArrowUp,ArrowLeft"":23,""ArrowUp,ArrowRight"":10,""ArrowDown,ArrowLeft"":8,""ArrowDown,ArrowRight"":30}","false","ArrowUp","false","","","original","1","","","",""
"html-keyboard-response","264","1196906","0.0-4.0-8.0-1.3","spark_pilot_2","7388","7","16","Male","","","","","","","null","<div style=""font-size:60px;"">+</div>","null","fixation","","","","","","","","","","","","","",""
"learning-instructions","265","1209356","0.0-4.0-9.0-0.0","spark_pilot_2","7388","7","16","Male","","","","","","","1106.1000000238419","<p> Now you will see the animals again and can search their chests for treasure. </p>
            <p> This time, you will not see how much treasure you earned, but you will earn more bonus money for making better choices. </p>","","instructions","","","","","","","","","","","","","",""
"revaluation","266","1211089","0.0-4.0-10.0-0.0","spark_pilot_2","7388","7","16","Male","","false","","","","","[1731.4000000357628]","./assets/img/canyon/animals/lion.jpg","[""ArrowLeft""]","second stage test","canyon","0","{""ArrowUp,ArrowLeft"":23,""ArrowUp,ArrowRight"":10,""ArrowDown,ArrowLeft"":8,""ArrowDown,ArrowRight"":30}","true","ArrowUp,ArrowLeft","","","","original","1","","","",""
"html-keyboard-response","267","1211593","0.0-4.0-10.0-1.0","spark_pilot_2","7388","7","16","Male","","","","","","","null","<div style=""font-size:60px;"">+</div>","null","fixation","","","","","","","","","","","","","",""
"revaluation","268","1212518","0.0-4.0-10.0-0.1","spark_pilot_2","7388","7","16","Male","","false","","","","","[923.5999999642372]","./assets/img/canyon/animals/lion.jpg","[""ArrowLeft""]","second stage test","canyon","0","{""ArrowUp,ArrowLeft"":23,""ArrowUp,ArrowRight"":10,""ArrowDown,ArrowLeft"":8,""ArrowDown,ArrowRight"":30}","true","ArrowUp,ArrowLeft","","","","original","1","","","",""
"html-keyboard-response","269","1213024","0.0-4.0-10.0-1.1","spark_pilot_2","7388","7","16","Male","","","","","","","null","<div style=""font-size:60px;"">+</div>","null","fixation","","","","","","","","","","","","","",""
"revaluation","270","1213686","0.0-4.0-10.0-0.2","spark_pilot_2","7388","7","16","Male","","false","","","","","[659]","./assets/img/canyon/animals/lion.jpg","[""ArrowLeft""]","second stage test","canyon","0","{""ArrowUp,ArrowLeft"":23,""ArrowUp,ArrowRight"":10,""ArrowDown,ArrowLeft"":8,""ArrowDown,ArrowRight"":30}","true","ArrowUp,ArrowLeft","","","","original","1","","","",""
"html-keyboard-response","271","1214191","0.0-4.0-10.0-1.2","spark_pilot_2","7388","7","16","Male","","","","","","","null","<div style=""font-size:60px;"">+</div>","null","fixation","","","","","","","","","","","","","",""
"revaluation","272","1214659","0.0-4.0-10.0-0.3","spark_pilot_2","7388","7","16","Male","","false","","","","","[465.69999998807907]","./assets/img/canyon/animals/lion.jpg","[""ArrowLeft""]","second stage test","canyon","0","{""ArrowUp,ArrowLeft"":23,""ArrowUp,ArrowRight"":10,""ArrowDown,ArrowLeft"":8,""ArrowDown,ArrowRight"":30}","true","ArrowUp,ArrowLeft","","","","original","1","","","",""
"html-keyboard-response","273","1215163","0.0-4.0-10.0-1.3","spark_pilot_2","7388","7","16","Male","","","","","","","null","<div style=""font-size:60px;"">+</div>","null","fixation","","","","","","","","","","","","","",""
"revaluation","274","1216116","0.0-4.0-10.0-0.4","spark_pilot_2","7388","7","16","Male","","false","","","","","[950.9000000357628]","./assets/img/canyon/animals/giraffe.jpg","[""ArrowRight""]","second stage test","canyon","0","{""ArrowUp,ArrowLeft"":23,""ArrowUp,ArrowRight"":10,""ArrowDown,ArrowLeft"":8,""ArrowDown,ArrowRight"":30}","true","ArrowDown,ArrowRight","","","","original","1","","","",""
"html-keyboard-response","275","1216626","0.0-4.0-10.0-1.4","spark_pilot_2","7388","7","16","Male","","","","","","","null","<div style=""font-size:60px;"">+</div>","null","fixation","","","","","","","","","","","","","",""
"revaluation","276","1217260","0.0-4.0-10.0-0.5","spark_pilot_2","7388","7","16","Male","","false","","","","","[631.2000000476837]","./assets/img/canyon/animals/giraffe.jpg","[""ArrowRight""]","second stage test","canyon","0","{""ArrowUp,ArrowLeft"":23,""ArrowUp,ArrowRight"":10,""ArrowDown,ArrowLeft"":8,""ArrowDown,ArrowRight"":30}","true","ArrowDown,ArrowRight","","","","original","1","","","",""
"html-keyboard-response","277","1217768","0.0-4.0-10.0-1.5","spark_pilot_2","7388","7","16","Male","","","","","","","null","<div style=""font-size:60px;"">+</div>","null","fixation","","","","","","","","","","","","","",""
"revaluation","278","1218426","0.0-4.0-10.0-0.6","spark_pilot_2","7388","7","16","Male","","false","","","","","[657.1000000238419]","./assets/img/canyon/animals/giraffe.jpg","[""ArrowRight""]","second stage test","canyon","0","{""ArrowUp,ArrowLeft"":23,""ArrowUp,ArrowRight"":10,""ArrowDown,ArrowLeft"":8,""ArrowDown,ArrowRight"":30}","true","ArrowDown,ArrowRight","","","","original","1","","","",""
"html-keyboard-response","279","1218927","0.0-4.0-10.0-1.6","spark_pilot_2","7388","7","16","Male","","","","","","","null","<div style=""font-size:60px;"">+</div>","null","fixation","","","","","","","","","","","","","",""
"revaluation","280","1219415","0.0-4.0-10.0-0.7","spark_pilot_2","7388","7","16","Male","","false","","","","","[485.5999999642372]","./assets/img/canyon/animals/giraffe.jpg","[""ArrowRight""]","second stage test","canyon","0","{""ArrowUp,ArrowLeft"":23,""ArrowUp,ArrowRight"":10,""ArrowDown,ArrowLeft"":8,""ArrowDown,ArrowRight"":30}","true","ArrowDown,ArrowRight","","","","original","1","","","",""
"html-keyboard-response","281","1219923","0.0-4.0-10.0-1.7","spark_pilot_2","7388","7","16","Male","","","","","","","null","<div style=""font-size:60px;"">+</div>","null","fixation","","","","","","","","","","","","","",""
"learning-instructions","282","1223784","0.0-4.0-0.1-0.2","spark_pilot_2","7388","7","16","Male","","","","","","","1148.3999999761581","<p> This time you are searching for treasure in the <b>ocean</b>.</p>","","instructions","","","","","","","","","","","","","",""
"learning-instructions","283","1241653","0.0-4.0-0.1-0.3","spark_pilot_2","7388","7","16","Male","","","","","","","615.8999999761581","<p><b>New</b> animals with <b>new</b> treasure chests live here. You need to explore to discover where the animal with the best treasure chest is.</p>
                    <p> Like before, once you figure out which animal has the chest with the most treasure, you should try to get to that animal and select that chest! </p>","","instructions","","","","","","","","","","","","","",""
"learning-instructions","284","1258159","0.0-4.0-1.1-0.1","spark_pilot_2","7388","7","16","Male","","","","","","","1772.5999999642372","<p> Remember, when you see a picture of the place, use the up and down keys to <b>find an animal</b>.</p>
            <p> When you encounter an animal, you should use the left and right keys to <b>select a treasure chest</b>.</p>
            <p> Don't forget to look out for the robber! </p>","","instructions","","","","","","","","","","","","","",""
"revaluation","285","1264188","0.0-4.0-2.1-0.50","spark_pilot_2","7388","7","16","Male","","false","","","","","[1381.699999988079,754.7999999523163]","./assets/img/ocean/memory/41.jpg","[""ArrowUp"",""ArrowRight""]","value training","ocean","10","{""ArrowUp,ArrowLeft"":26,""ArrowUp,ArrowRight"":10,""ArrowDown,ArrowLeft"":5,""ArrowDown,ArrowRight"":17}","false","ArrowUp,ArrowRight","false","","","revaluation","2","0","","",""
"html-keyboard-response","286","1264700","0.0-4.0-2.1-1.50","spark_pilot_2","7388","7","16","Male","","","","","","","null","<div style=""font-size:60px;"">+</div>","null","fixation","","","","","","","","","","","1","","",""
"revaluation","287","1270721","0.0-4.0-2.1-0.51","spark_pilot_2","7388","7","16","Male","","false","","","","","[732.7999999523163,386.2999999523163]","./assets/img/ocean/memory/9.jpg","[""ArrowUp"",""ArrowLeft""]","value training","ocean","26","{""ArrowUp,ArrowLeft"":26,""ArrowUp,ArrowRight"":10,""ArrowDown,ArrowLeft"":5,""ArrowDown,ArrowRight"":17}","true","ArrowUp,ArrowLeft","false","","","revaluation","2","2","","",""
"html-keyboard-response","288","1271225","0.0-4.0-2.1-1.51","spark_pilot_2","7388","7","16","Male","","","","","","","null","<div style=""font-size:60px;"">+</div>","null","fixation","","","","","","","","","","","3","","",""
"revaluation","289","1277249","0.0-4.0-2.1-0.52","spark_pilot_2","7388","7","16","Male","","false","","","","","[899.8000000119209,413.7000000476837]","./assets/img/ocean/memory/14.jpg","[""ArrowDown"",""ArrowRight""]","value training","ocean","17","{""ArrowUp,ArrowLeft"":26,""ArrowUp,ArrowRight"":10,""ArrowDown,ArrowLeft"":5,""ArrowDown,ArrowRight"":17}","false","ArrowDown,ArrowRight","false","","","revaluation","2","4","","",""
"html-keyboard-response","290","1277756","0.0-4.0-2.1-1.52","spark_pilot_2","7388","7","16","Male","","","","","","","null","<div style=""font-size:60px;"">+</div>","null","fixation","","","","","","","","","","","5","","",""
"revaluation","291","1283780","0.0-4.0-2.1-0.53","spark_pilot_2","7388","7","16","Male","","false","","","","","[704.1999999880791,359.5999999642372]","./assets/img/ocean/memory/21.jpg","[""ArrowDown"",""ArrowLeft""]","value training","ocean","5","{""ArrowUp,ArrowLeft"":26,""ArrowUp,ArrowRight"":10,""ArrowDown,ArrowLeft"":5,""ArrowDown,ArrowRight"":17}","false","ArrowDown,ArrowLeft","false","","","revaluation","2","6","","",""
"html-keyboard-response","292","1284293","0.0-4.0-2.1-1.53","spark_pilot_2","7388","7","16","Male","","","","","","","null","<div style=""font-size:60px;"">+</div>","null","fixation","","","","","","","","","","","7","","",""
"revaluation","293","1290318","0.0-4.0-2.1-0.54","spark_pilot_2","7388","7","16","Male","","false","","","","","[663.2999999523163,332.80000001192093]","./assets/img/ocean/memory/13.jpg","[""ArrowUp"",""ArrowLeft""]","value training","ocean","26","{""ArrowUp,ArrowLeft"":26,""ArrowUp,ArrowRight"":10,""ArrowDown,ArrowLeft"":5,""ArrowDown,ArrowRight"":17}","true","ArrowUp,ArrowLeft","false","","","revaluation","2","8","","",""
"html-keyboard-response","294","1290829","0.0-4.0-2.1-1.54","spark_pilot_2","7388","7","16","Male","","","","","","","null","<div style=""font-size:60px;"">+</div>","null","fixation","","","","","","","","","","","9","","",""
"revaluation","295","1296849","0.0-4.0-2.1-0.55","spark_pilot_2","7388","7","16","Male","","false","","","","","[831.2999999523163,467.10000002384186]","./assets/img/ocean/memory/7.jpg","[""ArrowUp"",""ArrowLeft""]","value training","ocean","26","{""ArrowUp,ArrowLeft"":26,""ArrowUp,ArrowRight"":10,""ArrowDown,ArrowLeft"":5,""ArrowDown,ArrowRight"":17}","true","ArrowUp,ArrowLeft","false","","","revaluation","2","10","","",""
"html-keyboard-response","296","1297353","0.0-4.0-2.1-1.55","spark_pilot_2","7388","7","16","Male","","","","","","","null","<div style=""font-size:60px;"">+</div>","null","fixation","","","","","","","","","","","11","","",""
"revaluation","297","1303379","0.0-4.0-2.1-0.56","spark_pilot_2","7388","7","16","Male","","false","","","","","[853.8999999761581,365.30000001192093]","./assets/img/ocean/memory/18.jpg","[""ArrowUp"",""ArrowLeft""]","value training","ocean","26","{""ArrowUp,ArrowLeft"":26,""ArrowUp,ArrowRight"":10,""ArrowDown,ArrowLeft"":5,""ArrowDown,ArrowRight"":17}","true","ArrowUp,ArrowLeft","false","","","revaluation","2","12","","",""
"html-keyboard-response","298","1303886","0.0-4.0-2.1-1.56","spark_pilot_2","7388","7","16","Male","","","","","","","null","<div style=""font-size:60px;"">+</div>","null","fixation","","","","","","","","","","","13","","",""
"revaluation","299","1309910","0.0-4.0-2.1-0.57","spark_pilot_2","7388","7","16","Male","","false","","","","","[716.6999999880791,750.3999999761581]","./assets/img/ocean/memory/10.jpg","[""ArrowUp"",""ArrowLeft""]","value training","ocean","26","{""ArrowUp,ArrowLeft"":26,""ArrowUp,ArrowRight"":10,""ArrowDown,ArrowLeft"":5,""ArrowDown,ArrowRight"":17}","true","ArrowUp,ArrowLeft","false","","","revaluation","2","14","","",""
"html-keyboard-response","300","1310420","0.0-4.0-2.1-1.57","spark_pilot_2","7388","7","16","Male","","","","","","","null","<div style=""font-size:60px;"">+</div>","null","fixation","","","","","","","","","","","15","","",""
"revaluation","301","1316442","0.0-4.0-2.1-0.58","spark_pilot_2","7388","7","16","Male","","false","","","","","[653.0999999642372,349.80000001192093]","./assets/img/ocean/memory/13.jpg","[""ArrowUp"",""ArrowLeft""]","value training","ocean","26","{""ArrowUp,ArrowLeft"":26,""ArrowUp,ArrowRight"":10,""ArrowDown,ArrowLeft"":5,""ArrowDown,ArrowRight"":17}","true","ArrowUp,ArrowLeft","false","","","revaluation","2","16","","",""
"html-keyboard-response","302","1316945","0.0-4.0-2.1-1.58","spark_pilot_2","7388","7","16","Male","","","","","","","null","<div style=""font-size:60px;"">+</div>","null","fixation","","","","","","","","","","","17","","",""
"revaluation","303","1322971","0.0-4.0-2.1-0.59","spark_pilot_2","7388","7","16","Male","","false","","","","","[586.8000000119209,440]","./assets/img/ocean/memory/27.jpg","[""ArrowUp"",""ArrowLeft""]","value training","ocean","26","{""ArrowUp,ArrowLeft"":26,""ArrowUp,ArrowRight"":10,""ArrowDown,ArrowLeft"":5,""ArrowDown,ArrowRight"":17}","true","ArrowUp,ArrowLeft","false","","","revaluation","2","18","","",""
"html-keyboard-response","304","1323476","0.0-4.0-2.1-1.59","spark_pilot_2","7388","7","16","Male","","","","","","","null","<div style=""font-size:60px;"">+</div>","null","fixation","","","","","","","","","","","19","","",""
"revaluation","305","1329502","0.0-4.0-2.1-0.60","spark_pilot_2","7388","7","16","Male","","false","","","","","[589.4000000357628,374.5]","./assets/img/ocean/memory/27.jpg","[""ArrowUp"",""ArrowLeft""]","value training","ocean","26","{""ArrowUp,ArrowLeft"":26,""ArrowUp,ArrowRight"":10,""ArrowDown,ArrowLeft"":5,""ArrowDown,ArrowRight"":17}","true","ArrowUp,ArrowLeft","false","","","revaluation","2","20","","",""
"html-keyboard-response","306","1330012","0.0-4.0-2.1-1.60","spark_pilot_2","7388","7","16","Male","","","","","","","null","<div style=""font-size:60px;"">+</div>","null","fixation","","","","","","","","","","","21","","",""
"revaluation","307","1336039","0.0-4.0-2.1-0.61","spark_pilot_2","7388","7","16","Male","","false","","","","","[516.6000000238419,583.5]","./assets/img/ocean/memory/39.jpg","[""ArrowUp"",""ArrowLeft""]","value training","ocean","26","{""ArrowUp,ArrowLeft"":26,""ArrowUp,ArrowRight"":10,""ArrowDown,ArrowLeft"":5,""ArrowDown,ArrowRight"":17}","true","ArrowUp,ArrowLeft","false","","","revaluation","2","22","","",""
"html-keyboard-response","308","1336549","0.0-4.0-2.1-1.61","spark_pilot_2","7388","7","16","Male","","","","","","","null","<div style=""font-size:60px;"">+</div>","null","fixation","","","","","","","","","","","23","","",""
