"trial_type","trial_index","time_elapsed","internal_node_id","task_version","subject_id","assigned_condition","age","gender","browser_interaction","success","timeout","failed_images","failed_audio","failed_video","rt","stimulus","response","task_part","environment","score","rewardMap","correct","fullState","isCatch","numberMissed","duration","condition","order","trial_num","key_press","ground_truth","bonus"
"pavlovia","0","1013","0.0-0.0","spark_pilot_2","7334","8","13","Male","[{""event"":""blur"",""trial"":0,""time"":12},{""event"":""focus"",""trial"":0,""time"":552},{""event"":""blur"",""trial"":1,""time"":6093},{""event"":""focus"",""trial"":1,""time"":9983},{""event"":""fullscreenenter"",""trial"":2,""time"":74885}]","","","","","","","","","","","","","","","","","","","","","","",""
"preload","1","71206","0.0-1.0","spark_pilot_2","7334","8","13","Male","[{""event"":""blur"",""trial"":0,""time"":12},{""event"":""focus"",""trial"":0,""time"":552},{""event"":""blur"",""trial"":1,""time"":6093},{""event"":""focus"",""trial"":1,""time"":9983},{""event"":""fullscreenenter"",""trial"":2,""time"":74885}]","true","false","[]","[]","[]","","","","","","","","","","","","","","","","","",""
"fullscreen","2","75880","0.0-2.0","spark_pilot_2","7334","8","13","Male","","true","","","","","","","","","","","","","","","","","","","","","",""
"audio-button-response","3","78645","0.0-3.0-0.0-0.0","spark_pilot_2","7334","8","13","Male","","","","","","","2043","./assets/audio/audiotest/turtle.mp3","2","audio_test","","","","","","","","","","","","","",""
"learning-instructions","4","87312","0.0-3.0-1.0-0.0","spark_pilot_2","7334","8","13","Male","","","","","","","1682.9000000022352","<p> Welcome! Please remember to stay in fullscreen mode and don't click away from the experiment. </p>","","instructions","","","","","","","","","","","","","",""
"learning-instructions","5","96650","0.0-3.0-1.0-0.1","spark_pilot_2","7334","8","13","Male","","","","","","","916.0999999977648","<p> Today you will be playing a game to earn treasure. </p>
            <p> At the end of the experiment, you will earn a bonus based on how much treasure you find. </p>
            <img src='./assets/img/instructions/treasure.jpg' class='instructions-image'>","","instructions","","","","","","","","","","","","","",""
"learning-instructions","6","106102","0.0-3.0-1.0-0.2","spark_pilot_2","7334","8","13","Male","","","","","","","1184.6000000014901","<p> Animals have hidden treasure in treasure chests. </p>
            <p> You need to first find an animal and then choose which of their treasure chests to search. </p>
            <img src='./assets/img/space/animals/cat.jpg' class='instructions-image'>","","instructions","","","","","","","","","","","","","",""
"learning-instructions","7","120038","0.0-3.0-1.0-0.3","spark_pilot_2","7334","8","13","Male","","","","","","","764.8000000007451","<p> In each round, you will search for treasure in a different place. In the real game, there will be two rounds. </p>
            <p> You will begin with a separate, practice round where you will search for treasure in outer space. </p>
            <img src='./assets/img/space/0.jpg' class='instructions-image'>","","instructions","","","","","","","","","","","","","",""
"learning-instructions","8","131870","0.0-3.0-1.0-0.4","spark_pilot_2","7334","8","13","Male","","","","","","","394.8999999985099","<p> On every turn, you will see a picture of the place that you are in, but the specific image may be different each time. </p>
            <p> For example, both of these images mean you are in outer space. </p>
            <img src='./assets/img/instructions/outerspace.jpg' class='instructions-image'>","","instructions","","","","","","","","","","","","","",""
"learning-instructions","9","140087","0.0-3.0-1.0-0.5","spark_pilot_2","7334","8","13","Male","","","","","","","381.30000000074506","<p> You need to decide which direction to travel in. </p>
            <p> You can choose between going <b>up or down</b> by using the arrow keys. </p>
            <img src='./assets/img/instructions/updown.jpg' class='instructions-image'>","","instructions","","","","","","","","","","","","","",""
"learning-instructions","10","149377","0.0-3.0-1.0-0.6","spark_pilot_2","7334","8","13","Male","","","","","","","464.5","<p> You will have <b>2 seconds</b> to make your choice. </p>
            <p> If you do not make a choice within 2 seconds, you will not find an animal or earn treasure. </p>
            <img src='./assets/img/instructions/2seconds.jpg' class='instructions-image'>","","instructions","","","","","","","","","","","","","",""
"learning-instructions","11","158947","0.0-3.0-1.0-0.7","spark_pilot_2","7334","8","13","Male","","","","","","","2522.89999999851","<p> Let’s try practicing that now! </p>
            <p> When you see a picture of the place you are in, press the <b>up</b> key to travel up. </p>
            <img src='./assets/img/instructions/pressUp.jpg' class='instructions-image'>","","instructions","","","","","","","","","","","","","",""
"revaluation","12","162966","0.0-3.0-2.0-0.0","spark_pilot_2","7334","8","13","Male","","","false","","","","[592.6999999992549]","./assets/img/space/0.jpg","[""ArrowUp""]","first stage practice","space","0","null","null","ArrowUp","false","","","","","","","",""
"html-keyboard-response","13","163477","0.0-3.0-2.0-1.0","spark_pilot_2","7334","8","13","Male","","","","","","","null","<div style=""font-size:60px;"">+</div>","null","fixation","","","","","","","","","","","","","",""
"revaluation","14","167489","0.0-3.0-2.0-0.1","spark_pilot_2","7334","8","13","Male","","","true","","","","[]","./assets/img/space/1.jpg","[]","first stage practice","space","-5","null","null","","false","","","","","","","",""
"html-keyboard-response","15","167996","0.0-3.0-2.0-1.1","spark_pilot_2","7334","8","13","Male","","","","","","","null","<div style=""font-size:60px;"">+</div>","null","fixation","","","","","","","","","","","","","",""
"revaluation","16","172004","0.0-3.0-2.0-0.2","spark_pilot_2","7334","8","13","Male","","","false","","","","[389.30000000074506]","./assets/img/space/2.jpg","[""ArrowUp""]","first stage practice","space","0","null","null","ArrowUp","false","","","","","","","",""
"html-keyboard-response","17","172508","0.0-3.0-2.0-1.2","spark_pilot_2","7334","8","13","Male","","","","","","","null","<div style=""font-size:60px;"">+</div>","null","fixation","","","","","","","","","","","","","",""
"learning-instructions","18","179029","0.0-3.0-3.0-0.0","spark_pilot_2","7334","8","13","Male","","","","","","","1811.3999999985099","<p> Great job! Now try pressing the <b>down</b> key to travel down. </p>
            <img src='./assets/img/instructions/pressDown.jpg' class='instructions-image'>","","instructions","","","","","","","","","","","","","",""
"revaluation","19","183045","0.0-3.0-4.0-0.0","spark_pilot_2","7334","8","13","Male","","","false","","","","[509.30000000074506]","./assets/img/space/3.jpg","[""ArrowDown""]","first stage practice","space","0","null","null","ArrowDown","false","","","","","","","",""
"html-keyboard-response","20","183550","0.0-3.0-4.0-1.0","spark_pilot_2","7334","8","13","Male","","","","","","","null","<div style=""font-size:60px;"">+</div>","null","fixation","","","","","","","","","","","","","",""
"revaluation","21","187567","0.0-3.0-4.0-0.1","spark_pilot_2","7334","8","13","Male","","","false","","","","[547.6999999992549]","./assets/img/space/4.jpg","[""ArrowDown""]","first stage practice","space","0","null","null","ArrowDown","false","","","","","","","",""
"html-keyboard-response","22","188078","0.0-3.0-4.0-1.1","spark_pilot_2","7334","8","13","Male","","","","","","","null","<div style=""font-size:60px;"">+</div>","null","fixation","","","","","","","","","","","","","",""
"revaluation","23","192095","0.0-3.0-4.0-0.2","spark_pilot_2","7334","8","13","Male","","","false","","","","[355.6000000014901]","./assets/img/space/5.jpg","[""ArrowDown""]","first stage practice","space","0","null","null","ArrowDown","false","","","","","","","",""
"html-keyboard-response","24","192606","0.0-3.0-4.0-1.2","spark_pilot_2","7334","8","13","Male","","","","","","","null","<div style=""font-size:60px;"">+</div>","null","fixation","","","","","","","","","","","","","",""
"learning-instructions","25","204595","0.0-3.0-5.0-0.0","spark_pilot_2","7334","8","13","Male","","","","","","","2120.400000002235","<p> The animals don’t move, so the animal in the upper part of a place will stay in the upper part of a place, and the animal in the lower part of a place will stay in the lower part of a place. </p>","","instructions","","","","","","","","","","","","","",""
"learning-instructions","26","214300","0.0-3.0-5.0-0.1","spark_pilot_2","7334","8","13","Male","","","","","","","558.8000000007451","<p> Each animal has two treasure chests for you to choose from. </p>
            <p> The amount of treasure in each chest can range from <b> 0 to 40 pieces.</b></p>","","instructions","","","","","","","","","","","","","",""
"learning-instructions","27","227336","0.0-3.0-5.0-0.2","spark_pilot_2","7334","8","13","Male","","","","","","","1833.800000000745","<p> You should decide which chest to search for treasure by using the <b>left</b> and <b>right</b> arrow keys. </p>
            <p><b> Pay attention to which animal is on the screen, as the animals have different treasure chests. </b></p>
            <img src='./assets/img/instructions/leftright.jpg' class='instructions-image'>","","instructions","","","","","","","","","","","","","",""
"learning-instructions","28","234274","0.0-3.0-5.0-0.3","spark_pilot_2","7334","8","13","Male","","","","","","","563.3000000007451","<p> Let’s try practicing that now. </p>
            <p> When you see an animal, choose which chest to search for treasure. </p>
            <img src='./assets/img/instructions/chooseChest.jpg' class='instructions-image'>","","instructions","","","","","","","","","","","","","",""
"revaluation","29","238292","0.0-3.0-6.0-0.0","spark_pilot_2","7334","8","13","Male","","","false","","","","[1223]","./assets/img/space/animals/rabbit.jpg","[""ArrowLeft""]","second stage practice","space","15","{""ArrowUp,ArrowLeft"":3,""ArrowUp,ArrowRight"":36,""ArrowDown,ArrowLeft"":15,""ArrowDown,ArrowRight"":23}","false","ArrowDown,ArrowLeft","","","","","","","","",""
"html-keyboard-response","30","238795","0.0-3.0-6.0-1.0","spark_pilot_2","7334","8","13","Male","","","","","","","null","<div style=""font-size:60px;"">+</div>","null","fixation","","","","","","","","","","","","","",""
"revaluation","31","242812","0.0-3.0-6.0-0.1","spark_pilot_2","7334","8","13","Male","","","false","","","","[317.8999999985099]","./assets/img/space/animals/rabbit.jpg","[""ArrowRight""]","second stage practice","space","23","{""ArrowUp,ArrowLeft"":3,""ArrowUp,ArrowRight"":36,""ArrowDown,ArrowLeft"":15,""ArrowDown,ArrowRight"":23}","true","ArrowDown,ArrowRight","","","","","","","","",""
"html-keyboard-response","32","243317","0.0-3.0-6.0-1.1","spark_pilot_2","7334","8","13","Male","","","","","","","null","<div style=""font-size:60px;"">+</div>","null","fixation","","","","","","","","","","","","","",""
"revaluation","33","247334","0.0-3.0-6.0-0.2","spark_pilot_2","7334","8","13","Male","","","false","","","","[323.30000000074506]","./assets/img/space/animals/cat.jpg","[""ArrowRight""]","second stage practice","space","36","{""ArrowUp,ArrowLeft"":3,""ArrowUp,ArrowRight"":36,""ArrowDown,ArrowLeft"":15,""ArrowDown,ArrowRight"":23}","true","ArrowUp,ArrowRight","","","","","","","","",""
"html-keyboard-response","34","247843","0.0-3.0-6.0-1.2","spark_pilot_2","7334","8","13","Male","","","","","","","null","<div style=""font-size:60px;"">+</div>","null","fixation","","","","","","","","","","","","","",""
"revaluation","35","251861","0.0-3.0-6.0-0.3","spark_pilot_2","7334","8","13","Male","","","false","","","","[293.5999999977648]","./assets/img/space/animals/cat.jpg","[""ArrowRight""]","second stage practice","space","36","{""ArrowUp,ArrowLeft"":3,""ArrowUp,ArrowRight"":36,""ArrowDown,ArrowLeft"":15,""ArrowDown,ArrowRight"":23}","true","ArrowUp,ArrowRight","","","","","","","","",""
"html-keyboard-response","36","252367","0.0-3.0-6.0-1.3","spark_pilot_2","7334","8","13","Male","","","","","","","null","<div style=""font-size:60px;"">+</div>","null","fixation","","","","","","","","","","","","","",""
"learning-instructions","37","270945","0.0-3.0-7.0-0.0","spark_pilot_2","7334","8","13","Male","","","","","","","1738.199999999255","<p> Great job. Now let’s try putting it together. </p>
            <p> On each turn, you will first see a picture to remind you of the place you are in, and you need to choose whether to go up or down. </p>
            <p> Then you will see an animal and choose which of its chests to search for treasure. </p>","","instructions","","","","","","","","","","","","","",""
"learning-instructions","38","281219","0.0-3.0-7.0-0.1","spark_pilot_2","7334","8","13","Male","","","","","","","2004.1000000014901","<p> When you choose whether to go up or down, try to go to the animal with the chest with the most treasure. </p>
            <p> Try practicing that now! </p>","","instructions","","","","","","","","","","","","","",""
"revaluation","39","287243","0.0-3.0-8.0-0.0","spark_pilot_2","7334","8","13","Male","","","false","","","","[925.1999999992549,583.6000000014901]","./assets/img/space/6.jpg","[""ArrowDown"",""ArrowRight""]","full practice","space","23","{""ArrowUp,ArrowLeft"":3,""ArrowUp,ArrowRight"":36,""ArrowDown,ArrowLeft"":15,""ArrowDown,ArrowRight"":23}","false","ArrowDown,ArrowRight","false","","","","","","","",""
"html-keyboard-response","40","287748","0.0-3.0-8.0-1.0","spark_pilot_2","7334","8","13","Male","","","","","","","null","<div style=""font-size:60px;"">+</div>","null","fixation","","","","","","","","","","","","","",""
"revaluation","41","293774","0.0-3.0-8.0-0.1","spark_pilot_2","7334","8","13","Male","","","false","","","","[580.1000000014901,516.8999999985099]","./assets/img/space/7.jpg","[""ArrowUp"",""ArrowLeft""]","full practice","space","3","{""ArrowUp,ArrowLeft"":3,""ArrowUp,ArrowRight"":36,""ArrowDown,ArrowLeft"":15,""ArrowDown,ArrowRight"":23}","false","ArrowUp,ArrowLeft","false","","","","","","","",""
"html-keyboard-response","42","294284","0.0-3.0-8.0-1.1","spark_pilot_2","7334","8","13","Male","","","","","","","null","<div style=""font-size:60px;"">+</div>","null","fixation","","","","","","","","","","","","","",""
"revaluation","43","300306","0.0-3.0-8.0-0.2","spark_pilot_2","7334","8","13","Male","","","false","","","","[611.6999999992549,812.8999999985099]","./assets/img/space/8.jpg","[""ArrowDown"",""ArrowRight""]","full practice","space","23","{""ArrowUp,ArrowLeft"":3,""ArrowUp,ArrowRight"":36,""ArrowDown,ArrowLeft"":15,""ArrowDown,ArrowRight"":23}","false","ArrowDown,ArrowRight","false","","","","","","","",""
"html-keyboard-response","44","300810","0.0-3.0-8.0-1.2","spark_pilot_2","7334","8","13","Male","","","","","","","null","<div style=""font-size:60px;"">+</div>","null","fixation","","","","","","","","","","","","","",""
"revaluation","45","306835","0.0-3.0-8.0-0.3","spark_pilot_2","7334","8","13","Male","","","false","","","","[637.6999999992549,724.1000000014901]","./assets/img/space/9.jpg","[""ArrowUp"",""ArrowLeft""]","full practice","space","3","{""ArrowUp,ArrowLeft"":3,""ArrowUp,ArrowRight"":36,""ArrowDown,ArrowLeft"":15,""ArrowDown,ArrowRight"":23}","false","ArrowUp,ArrowLeft","false","","","","","","","",""
"html-keyboard-response","46","307338","0.0-3.0-8.0-1.3","spark_pilot_2","7334","8","13","Male","","","","","","","null","<div style=""font-size:60px;"">+</div>","null","fixation","","","","","","","","","","","","","",""
"revaluation","47","313366","0.0-3.0-8.0-0.4","spark_pilot_2","7334","8","13","Male","","","false","","","","[430.1000000014901,332.19999999925494]","./assets/img/space/10.jpg","[""ArrowDown"",""ArrowRight""]","full practice","space","23","{""ArrowUp,ArrowLeft"":3,""ArrowUp,ArrowRight"":36,""ArrowDown,ArrowLeft"":15,""ArrowDown,ArrowRight"":23}","false","ArrowDown,ArrowRight","false","","","","","","","",""
"html-keyboard-response","48","313876","0.0-3.0-8.0-1.4","spark_pilot_2","7334","8","13","Male","","","","","","","null","<div style=""font-size:60px;"">+</div>","null","fixation","","","","","","","","","","","","","",""
"learning-instructions","49","326347","0.0-3.0-9.0-0.0","spark_pilot_2","7334","8","13","Male","","","","","","","1983.3999999985099","<p> One last thing: sometimes, you will see a robber. The robber can be anywhere in the picture. </p>
            <p> If you do not stop them, you will lose treasure. </p>
            <img src='./assets/img/instructions/robber.jpg' class='instructions-image'>","","instructions","","","","","","","","","","","","","",""
"learning-instructions","50","334970","0.0-3.0-9.0-0.1","spark_pilot_2","7334","8","13","Male","","","","","","","1453.2000000029802","<p> If you see the robber, you should <b>press the space bar</b> rather than using the arrow keys. </p>
            <p> Try practicing that now! </p>","","instructions","","","","","","","","","","","","","",""
"revaluation","51","338985","0.0-3.0-10.0-0.0","spark_pilot_2","7334","8","13","Male","","","false","","","","[1269.5999999977648]","./assets/img/space/catch/0.jpg","[""ArrowDown""]","catch practice","space","-10","{""ArrowUp,ArrowLeft"":3,""ArrowUp,ArrowRight"":36,""ArrowDown,ArrowLeft"":15,""ArrowDown,ArrowRight"":23}","false","ArrowDown","true","","","","","","","",""
"html-keyboard-response","52","339490","0.0-3.0-10.0-1.0","spark_pilot_2","7334","8","13","Male","","","","","","","null","<div style=""font-size:60px;"">+</div>","null","fixation","","","","","","","","","","","","","",""
"revaluation","53","343509","0.0-3.0-10.0-0.1","spark_pilot_2","7334","8","13","Male","","","false","","","","[516.5999999977648]","./assets/img/space/catch/1.jpg","[""spaceBar""]","catch practice","space","0","{""ArrowUp,ArrowLeft"":3,""ArrowUp,ArrowRight"":36,""ArrowDown,ArrowLeft"":15,""ArrowDown,ArrowRight"":23}","true","spaceBar","true","","","","","","","",""
"html-keyboard-response","54","344018","0.0-3.0-10.0-1.1","spark_pilot_2","7334","8","13","Male","","","","","","","null","<div style=""font-size:60px;"">+</div>","null","fixation","","","","","","","","","","","","","",""
"revaluation","55","348036","0.0-3.0-10.0-0.2","spark_pilot_2","7334","8","13","Male","","","false","","","","[316.69999999925494]","./assets/img/space/catch/2.jpg","[""spaceBar""]","catch practice","space","0","{""ArrowUp,ArrowLeft"":3,""ArrowUp,ArrowRight"":36,""ArrowDown,ArrowLeft"":15,""ArrowDown,ArrowRight"":23}","true","spaceBar","true","","","","","","","",""
"html-keyboard-response","56","348546","0.0-3.0-10.0-1.2","spark_pilot_2","7334","8","13","Male","","","","","","","null","<div style=""font-size:60px;"">+</div>","null","fixation","","","","","","","","","","","","","",""
"learning-instructions","57","365776","0.0-3.0-11.0-0.0","spark_pilot_2","7334","8","13","Male","","","","","","","3617.2000000029802","<p> After you explore a place to find treasure, it will be time to play a different game. </p>
            <p> During this game, red dots will appear on the screen and fall down slowly. </p>
            <p><b> You must click on them before they reach the bottom. </b></p>
            <img src='./assets/img/instructions/dotGame.jpg' class='instructions-image'>","","instructions","","","","","","","","","","","","","",""
"learning-instructions","58","372934","0.0-3.0-11.0-0.1","spark_pilot_2","7334","8","13","Male","","","","","","","1476","<p> For every dot you click, you will earn additional treasure. </p>
            <p> Let’s try practicing that now. </p>","","instructions","","","","","","","","","","","","","",""
"revaluation","59","387939","0.0-3.0-12.0-0.0","spark_pilot_2","7334","8","13","Male","","","","","","","[109]","","","rest practice","","10","","","","","0","15000","","","","","",""
"learning-instructions","60","394983","0.0-3.0-13.0-0.0-0.0","spark_pilot_2","7334","8","13","Male","","","","","","","1809","<p> Now, you will practice a shortened version of the game to get a sense of how it all fits together. </p>","","instructions","","","","","","","","","","","","","",""
"learning-instructions","61","399447","0.0-3.0-13.0-0.0-0.1","spark_pilot_2","7334","8","13","Male","","","","","","","1275.199999999255","<p>This time you are searching for treasure in outer space.</p>","","instructions","","","","","","","","","","","","","",""
"learning-instructions","62","416703","0.0-3.0-13.0-1.0-0.0","spark_pilot_2","7334","8","13","Male","","","","","","","2457.10000000149","<p> Remember, when you see a picture of the place, use the up and down keys to <b>find an animal</b>.</p>
            <p> When you encounter an animal, you should use the left and right keys to <b>select a treasure chest</b>.</p>
            <p> Don't forget to look out for the robber! </p>","","instructions","","","","","","","","","","","","","",""
"revaluation","63","422729","0.0-3.0-13.0-2.0-0.0","spark_pilot_2","7334","8","13","Male","","","false","","","","[1239.300000000745,595.8999999985099]","./assets/img/space/11.jpg","[""ArrowDown"",""ArrowLeft""]","practice block","space","15","{""ArrowUp,ArrowLeft"":3,""ArrowUp,ArrowRight"":36,""ArrowDown,ArrowLeft"":15,""ArrowDown,ArrowRight"":23}","false","ArrowDown,ArrowLeft","false","","","","","","","",""
"html-keyboard-response","64","423232","0.0-3.0-13.0-2.0-1.0","spark_pilot_2","7334","8","13","Male","","","","","","","null","<div style=""font-size:60px;"">+</div>","null","fixation","","","","","","","","","","","","","",""
"revaluation","65","429257","0.0-3.0-13.0-2.0-0.1","spark_pilot_2","7334","8","13","Male","","","false","","","","[837.8999999985099,335.80000000074506]","./assets/img/space/12.jpg","[""ArrowUp"",""ArrowRight""]","practice block","space","36","{""ArrowUp,ArrowLeft"":3,""ArrowUp,ArrowRight"":36,""ArrowDown,ArrowLeft"":15,""ArrowDown,ArrowRight"":23}","true","ArrowUp,ArrowRight","false","","","","","","","",""
"html-keyboard-response","66","429762","0.0-3.0-13.0-2.0-1.1","spark_pilot_2","7334","8","13","Male","","","","","","","null","<div style=""font-size:60px;"">+</div>","null","fixation","","","","","","","","","","","","","",""
"revaluation","67","435783","0.0-3.0-13.0-2.0-0.2","spark_pilot_2","7334","8","13","Male","","","false","","","","[691.6000000014901,292.30000000074506]","./assets/img/space/13.jpg","[""ArrowUp"",""ArrowRight""]","practice block","space","36","{""ArrowUp,ArrowLeft"":3,""ArrowUp,ArrowRight"":36,""ArrowDown,ArrowLeft"":15,""ArrowDown,ArrowRight"":23}","true","ArrowUp,ArrowRight","false","","","","","","","",""
"html-keyboard-response","68","436287","0.0-3.0-13.0-2.0-1.2","spark_pilot_2","7334","8","13","Male","","","","","","","null","<div style=""font-size:60px;"">+</div>","null","fixation","","","","","","","","","","","","","",""
"revaluation","69","442313","0.0-3.0-13.0-2.0-0.3","spark_pilot_2","7334","8","13","Male","","","false","","","","[862.5,375.5999999977648]","./assets/img/space/14.jpg","[""ArrowUp"",""ArrowLeft""]","practice block","space","3","{""ArrowUp,ArrowLeft"":3,""ArrowUp,ArrowRight"":36,""ArrowDown,ArrowLeft"":15,""ArrowDown,ArrowRight"":23}","false","ArrowUp,ArrowLeft","false","","","","","","","",""
"html-keyboard-response","70","442818","0.0-3.0-13.0-2.0-1.3","spark_pilot_2","7334","8","13","Male","","","","","","","null","<div style=""font-size:60px;"">+</div>","null","fixation","","","","","","","","","","","","","",""
"revaluation","71","448844","0.0-3.0-13.0-2.0-0.4","spark_pilot_2","7334","8","13","Male","","","false","","","","[763.9000000022352,284.19999999925494]","./assets/img/space/11.jpg","[""ArrowUp"",""ArrowRight""]","practice block","space","36","{""ArrowUp,ArrowLeft"":3,""ArrowUp,ArrowRight"":36,""ArrowDown,ArrowLeft"":15,""ArrowDown,ArrowRight"":23}","true","ArrowUp,ArrowRight","false","","","","","","","",""
"html-keyboard-response","72","449354","0.0-3.0-13.0-2.0-1.4","spark_pilot_2","7334","8","13","Male","","","","","","","null","<div style=""font-size:60px;"">+</div>","null","fixation","","","","","","","","","","","","","",""
"revaluation","73","455379","0.0-3.0-13.0-2.0-0.5","spark_pilot_2","7334","8","13","Male","","","false","","","","[618.8000000007451,315.4000000022352]","./assets/img/space/12.jpg","[""ArrowDown"",""ArrowLeft""]","practice block","space","15","{""ArrowUp,ArrowLeft"":3,""ArrowUp,ArrowRight"":36,""ArrowDown,ArrowLeft"":15,""ArrowDown,ArrowRight"":23}","false","ArrowDown,ArrowLeft","false","","","","","","","",""
"html-keyboard-response","74","455890","0.0-3.0-13.0-2.0-1.5","spark_pilot_2","7334","8","13","Male","","","","","","","null","<div style=""font-size:60px;"">+</div>","null","fixation","","","","","","","","","","","","","",""
"revaluation","75","461911","0.0-3.0-13.0-2.0-0.6","spark_pilot_2","7334","8","13","Male","","","false","","","","[555.1000000014901,331.19999999925494]","./assets/img/space/13.jpg","[""ArrowDown"",""ArrowRight""]","practice block","space","23","{""ArrowUp,ArrowLeft"":3,""ArrowUp,ArrowRight"":36,""ArrowDown,ArrowLeft"":15,""ArrowDown,ArrowRight"":23}","false","ArrowDown,ArrowRight","false","","","","","","","",""
"html-keyboard-response","76","462415","0.0-3.0-13.0-2.0-1.6","spark_pilot_2","7334","8","13","Male","","","","","","","null","<div style=""font-size:60px;"">+</div>","null","fixation","","","","","","","","","","","","","",""
"revaluation","77","468441","0.0-3.0-13.0-2.0-0.7","spark_pilot_2","7334","8","13","Male","","","false","","","","[565.8000000007451,302.5]","./assets/img/space/14.jpg","[""ArrowUp"",""ArrowRight""]","practice block","space","36","{""ArrowUp,ArrowLeft"":3,""ArrowUp,ArrowRight"":36,""ArrowDown,ArrowLeft"":15,""ArrowDown,ArrowRight"":23}","true","ArrowUp,ArrowRight","false","","","","","","","",""
"html-keyboard-response","78","468945","0.0-3.0-13.0-2.0-1.7","spark_pilot_2","7334","8","13","Male","","","","","","","null","<div style=""font-size:60px;"">+</div>","null","fixation","","","","","","","","","","","","","",""
"revaluation","79","472963","0.0-3.0-13.0-2.0-0.8","spark_pilot_2","7334","8","13","Male","","","false","","","","[611.7000000029802]","./assets/img/space/catch/3.jpg","[""spaceBar""]","practice block","space","0","{""ArrowUp,ArrowLeft"":3,""ArrowUp,ArrowRight"":36,""ArrowDown,ArrowLeft"":15,""ArrowDown,ArrowRight"":23}","true","spaceBar","true","","","","","","","",""
"html-keyboard-response","80","473474","0.0-3.0-13.0-2.0-1.8","spark_pilot_2","7334","8","13","Male","","","","","","","null","<div style=""font-size:60px;"">+</div>","null","fixation","","","","","","","","","","","","","",""
"learning-instructions","81","487712","0.0-3.0-13.0-3.0-0.0","spark_pilot_2","7334","8","13","Male","","","","","","","1291.5","<p> Now, you will travel with a friend who will choose whether you go up or down first. </p>
            <p> On these turns, you will just see the animal that they found. You will still get to choose which chest to search for treasure.</p>","","instructions","","","","","","","","","","","","","",""
"revaluation","82","491726","0.0-3.0-13.0-4.0-0.0","spark_pilot_2","7334","8","13","Male","","","false","","","","[1204.9000000022352]","./assets/img/space/animals/rabbit.jpg","[""ArrowRight""]","practice block","space","23","{""ArrowUp,ArrowLeft"":3,""ArrowUp,ArrowRight"":36,""ArrowDown,ArrowLeft"":15,""ArrowDown,ArrowRight"":23}","true","ArrowDown,ArrowRight","","","","","","","","",""
"html-keyboard-response","83","492231","0.0-3.0-13.0-4.0-1.0","spark_pilot_2","7334","8","13","Male","","","","","","","null","<div style=""font-size:60px;"">+</div>","null","fixation","","","","","","","","","","","","","",""
"revaluation","84","496248","0.0-3.0-13.0-4.0-0.1","spark_pilot_2","7334","8","13","Male","","","false","","","","[437.69999999925494]","./assets/img/space/animals/cat.jpg","[""ArrowRight""]","practice block","space","36","{""ArrowUp,ArrowLeft"":3,""ArrowUp,ArrowRight"":36,""ArrowDown,ArrowLeft"":15,""ArrowDown,ArrowRight"":23}","true","ArrowUp,ArrowRight","","","","","","","","",""
"html-keyboard-response","85","496753","0.0-3.0-13.0-4.0-1.1","spark_pilot_2","7334","8","13","Male","","","","","","","null","<div style=""font-size:60px;"">+</div>","null","fixation","","","","","","","","","","","","","",""
"revaluation","86","500767","0.0-3.0-13.0-4.0-0.2","spark_pilot_2","7334","8","13","Male","","","false","","","","[475.80000000074506]","./assets/img/space/animals/rabbit.jpg","[""ArrowRight""]","practice block","space","23","{""ArrowUp,ArrowLeft"":3,""ArrowUp,ArrowRight"":36,""ArrowDown,ArrowLeft"":15,""ArrowDown,ArrowRight"":23}","true","ArrowDown,ArrowRight","","","","","","","","",""
"html-keyboard-response","87","501271","0.0-3.0-13.0-4.0-1.2","spark_pilot_2","7334","8","13","Male","","","","","","","null","<div style=""font-size:60px;"">+</div>","null","fixation","","","","","","","","","","","","","",""
"revaluation","88","505289","0.0-3.0-13.0-4.0-0.3","spark_pilot_2","7334","8","13","Male","","","false","","","","[125.69999999925494]","./assets/img/space/animals/cat.jpg","[""ArrowRight""]","practice block","space","36","{""ArrowUp,ArrowLeft"":3,""ArrowUp,ArrowRight"":36,""ArrowDown,ArrowLeft"":15,""ArrowDown,ArrowRight"":23}","true","ArrowUp,ArrowRight","","","","","","","","",""
"html-keyboard-response","89","505799","0.0-3.0-13.0-4.0-1.3","spark_pilot_2","7334","8","13","Male","","","","","","","null","<div style=""font-size:60px;"">+</div>","null","fixation","","","","","","","","","","","","","",""
"learning-instructions","90","514533","0.0-3.0-13.0-5.0-0.0","spark_pilot_2","7334","8","13","Male","","","","","","","1352.199999999255","<p> Time to play the dot game! </p>
            <p> For 15 seconds, click the red dots on the following screen as they appear. </p>","","instructions","","","","","","","","","","","","","",""
"revaluation","91","529545","0.0-3.0-13.0-6.0-0.0","spark_pilot_2","7334","8","13","Male","","","","","","","[72]","","","rest practice","","10","","","","","0","15000","","","","","",""
"learning-instructions","92","538145","0.0-3.0-13.0-7.0-0.0","spark_pilot_2","7334","8","13","Male","","","","","","","2470.300000000745","<p> You have almost finished this part of the game! </p>
            <p> We are going to ask you to make a few more choices. </p>","","instructions","","","","","","","","","","","","","",""
"learning-instructions","93","555065","0.0-3.0-13.0-7.0-0.1","spark_pilot_2","7334","8","13","Male","","","","","","","2886.60000000149","<p> First, you need to decide whether to go up or down. When you see each picture, use the arrow keys to make your choice. </p>
            <p><b>You will not see which animal you found, but try to get to the one that will give you the most treasure.</b></p>","","instructions","","","","","","","","","","","","","",""
"revaluation","94","556349","0.0-3.0-13.0-8.0","spark_pilot_2","7334","8","13","Male","","","false","","","","[1283.0999999977648]","./assets/img/space/15.jpg","[""ArrowDown""]","practice block","space","0","{""ArrowUp,ArrowLeft"":3,""ArrowUp,ArrowRight"":36,""ArrowDown,ArrowLeft"":15,""ArrowDown,ArrowRight"":23}","false","ArrowDown","false","","","","","","","",""
"html-keyboard-response","95","556856","0.0-3.0-13.0-9.0","spark_pilot_2","7334","8","13","Male","","","","","","","null","<div style=""font-size:60px;"">+</div>","null","fixation","","","","","","","","","","","","","",""
"learning-instructions","96","570075","0.0-3.0-13.0-10.0-0.0","spark_pilot_2","7334","8","13","Male","","","","","","","1822.5","<p> Now you will see the animals again and can search their chests for treasure. </p>
            <p> This time, you will not see how much treasure you earned, but you will earn more bonus money for making better choices. </p>","","instructions","","","","","","","","","","","","","",""
"revaluation","97","571469","0.0-3.0-13.0-11.0-0.0","spark_pilot_2","7334","8","13","Male","","","false","","","","[1393.1000000014901]","./assets/img/space/animals/cat.jpg","[""ArrowRight""]","practice block","space","0","{""ArrowUp,ArrowLeft"":3,""ArrowUp,ArrowRight"":36,""ArrowDown,ArrowLeft"":15,""ArrowDown,ArrowRight"":23}","true","ArrowUp,ArrowRight","","","","","","","","",""
"html-keyboard-response","98","571973","0.0-3.0-13.0-11.0-1.0","spark_pilot_2","7334","8","13","Male","","","","","","","null","<div style=""font-size:60px;"">+</div>","null","fixation","","","","","","","","","","","","","",""
"revaluation","99","572693","0.0-3.0-13.0-11.0-0.1","spark_pilot_2","7334","8","13","Male","","","false","","","","[718.5]","./assets/img/space/animals/rabbit.jpg","[""ArrowLeft""]","practice block","space","0","{""ArrowUp,ArrowLeft"":3,""ArrowUp,ArrowRight"":36,""ArrowDown,ArrowLeft"":15,""ArrowDown,ArrowRight"":23}","false","ArrowDown,ArrowLeft","","","","","","","","",""
"html-keyboard-response","100","573198","0.0-3.0-13.0-11.0-1.1","spark_pilot_2","7334","8","13","Male","","","","","","","null","<div style=""font-size:60px;"">+</div>","null","fixation","","","","","","","","","","","","","",""
"learning-instructions","101","579102","0.0-3.0-14.0-0.0","spark_pilot_2","7334","8","13","Male","","","","","","","1324.5","<p> Before you start, we're going to ask you a few questions about how the game works. </p>","","instructions","","","","","","","","","","","","","",""
"comp-q","102","585786","0.0-3.0-15.0-0.0-0.0","spark_pilot_2","7334","8","13","Male","","","","","","","1092.8999999985099","<p> <b> True or False? </b> </p>
            <p> There can be 50 pieces of treasure in a given animal's chest. </p>","1","comp_question","","","","true","","","","","","","","","",""
"comp-q","103","593502","0.0-3.0-15.0-0.0-1.0","spark_pilot_2","7334","8","13","Male","","","","","","","1049.5","<p> <b> That's right! </b> The amount of treasure in each chest can range from 0 to 40 pieces. </p>","0","comp_answer","","","","","","","","","","","","","",""
"comp-q","104","601130","0.0-3.0-15.0-0.1-0.1","spark_pilot_2","7334","8","13","Male","","","","","","","498.0999999977648","<p> <b> True or False? </b> </p><p> In this game, all animals have the same amount of treasure in their left and right chests. </p>","1","comp_question","","","","true","","","","","","","","","",""
"comp-q","105","607640","0.0-3.0-15.0-0.1-1.1","spark_pilot_2","7334","8","13","Male","","","","","","","1272.7999999970198","<p> <b> That's right! </b> Animals have different amounts of treasure in their treasure chests. </p>","0","comp_answer","","","","","","","","","","","","","",""
"comp-q","106","614604","0.0-3.0-15.0-0.2-0.2","spark_pilot_2","7334","8","13","Male","","","","","","","1114.199999999255","<p> <b> True or False? </b> </p><p> The same animal will always be there if you go up in the same place. </p>","0","comp_question","","","","true","","","","","","","","","",""
"comp-q","107","622694","0.0-3.0-15.0-0.2-1.2","spark_pilot_2","7334","8","13","Male","","","","","","","1570.5","<p> <b> That's right! </b> One animal lives in the upper part and one lives in the lower part of every place. </p>","0","comp_answer","","","","","","","","","","","","","",""
"comp-q","108","628724","0.0-3.0-15.0-0.3-0.3","spark_pilot_2","7334","8","13","Male","","","","","","","501.1000000014901","<p> <b> True or False? </b> </p><p> If you see a different picture, it means you are in a new place. </p>","1","comp_question","","","","true","","","","","","","","","",""
"comp-q","109","641882","0.0-3.0-15.0-0.3-1.3","spark_pilot_2","7334","8","13","Male","","","","","","","1915.800000000745","<p> <b> That's right! </b> Lots of different images may show the same place. For example,  you may see three different images that all remind you that you are in outer space. </p>","0","comp_answer","","","","","","","","","","","","","",""
"learning-instructions","110","653091","0.0-3.0-16.0-0.0","spark_pilot_2","7334","8","13","Male","","","","","","","1341.1000000014901","<p> Good job. Remember to do your best because the amount of treasure you earn will be converted into bonus money. </p>
            <p> It’s time to start the real game! </p>","","instructions","","","","","","","","","","","","","",""
"learning-instructions","111","657683","0.0-4.0-0.0-0.0","spark_pilot_2","7334","8","13","Male","","","","","","","1823.6000000014901","<p> This time you are searching for treasure in the <b>canyon</b>.</p>","","instructions","","","","","","","","","","","","","",""
"learning-instructions","112","676409","0.0-4.0-0.0-0.1","spark_pilot_2","7334","8","13","Male","","","","","","","1398.800000000745","<p><b>New</b> animals with <b>new</b> treasure chests live here. You need to explore to discover where the animal with the best treasure chest is.</p>
                    <p> Like before, once you figure out which animal has the chest with the most treasure, you should try to get to that animal and select that chest! </p>","","instructions","","","","","","","","","","","","","",""
"learning-instructions","113","692740","0.0-4.0-1.0-0.0","spark_pilot_2","7334","8","13","Male","","","","","","","1598.699999999255","<p> Remember, when you see a picture of the place, use the up and down keys to <b>find an animal</b>.</p>
            <p> When you encounter an animal, you should use the left and right keys to <b>select a treasure chest</b>.</p>
            <p> Don't forget to look out for the robber! </p>","","instructions","","","","","","","","","","","","","",""
"revaluation","114","698763","0.0-4.0-2.0-0.0","spark_pilot_2","7334","8","13","Male","","","false","","","","[821.3000000007451,443.3999999985099]","./assets/img/canyon/memory/29.jpg","[""ArrowDown"",""ArrowLeft""]","value training","canyon","5","{""ArrowUp,ArrowLeft"":26,""ArrowUp,ArrowRight"":10,""ArrowDown,ArrowLeft"":5,""ArrowDown,ArrowRight"":17}","false","ArrowDown,ArrowLeft","false","","","revaluation","1","0","","",""
"html-keyboard-response","115","699268","0.0-4.0-2.0-1.0","spark_pilot_2","7334","8","13","Male","","","","","","","null","<div style=""font-size:60px;"">+</div>","null","fixation","","","","","","","","","","","1","","",""
"revaluation","116","703286","0.0-4.0-2.0-0.1","spark_pilot_2","7334","8","13","Male","","","false","","","","[836.6999999992549]","./assets/img/canyon/catch/5.jpg","[""spaceBar""]","value training","canyon","0","{""ArrowUp,ArrowLeft"":26,""ArrowUp,ArrowRight"":10,""ArrowDown,ArrowLeft"":5,""ArrowDown,ArrowRight"":17}","true","spaceBar","true","","","revaluation","1","2","","",""
"html-keyboard-response","117","703795","0.0-4.0-2.0-1.1","spark_pilot_2","7334","8","13","Male","","","","","","","null","<div style=""font-size:60px;"">+</div>","null","fixation","","","","","","","","","","","3","","",""
"revaluation","118","709822","0.0-4.0-2.0-0.2","spark_pilot_2","7334","8","13","Male","","","false","","","","[430,327.3999999985099]","./assets/img/canyon/memory/16.jpg","[""ArrowDown"",""ArrowRight""]","value training","canyon","17","{""ArrowUp,ArrowLeft"":26,""ArrowUp,ArrowRight"":10,""ArrowDown,ArrowLeft"":5,""ArrowDown,ArrowRight"":17}","false","ArrowDown,ArrowRight","false","","","revaluation","1","4","","",""
"html-keyboard-response","119","710327","0.0-4.0-2.0-1.2","spark_pilot_2","7334","8","13","Male","","","","","","","null","<div style=""font-size:60px;"">+</div>","null","fixation","","","","","","","","","","","5","","",""
"revaluation","120","716346","0.0-4.0-2.0-0.3","spark_pilot_2","7334","8","13","Male","","","false","","","","[578.3999999985099,342.0999999977648]","./assets/img/canyon/memory/41.jpg","[""ArrowUp"",""ArrowRight""]","value training","canyon","10","{""ArrowUp,ArrowLeft"":26,""ArrowUp,ArrowRight"":10,""ArrowDown,ArrowLeft"":5,""ArrowDown,ArrowRight"":17}","false","ArrowUp,ArrowRight","false","","","revaluation","1","6","","",""
"html-keyboard-response","121","716851","0.0-4.0-2.0-1.3","spark_pilot_2","7334","8","13","Male","","","","","","","null","<div style=""font-size:60px;"">+</div>","null","fixation","","","","","","","","","","","7","","",""
"revaluation","122","722878","0.0-4.0-2.0-0.4","spark_pilot_2","7334","8","13","Male","","","false","","","","[534.2999999970198,350.6000000014901]","./assets/img/canyon/memory/0.jpg","[""ArrowUp"",""ArrowLeft""]","value training","canyon","26","{""ArrowUp,ArrowLeft"":26,""ArrowUp,ArrowRight"":10,""ArrowDown,ArrowLeft"":5,""ArrowDown,ArrowRight"":17}","true","ArrowUp,ArrowLeft","false","","","revaluation","1","8","","",""
"html-keyboard-response","123","723388","0.0-4.0-2.0-1.4","spark_pilot_2","7334","8","13","Male","","","","","","","null","<div style=""font-size:60px;"">+</div>","null","fixation","","","","","","","","","","","9","","",""
"revaluation","124","729414","0.0-4.0-2.0-0.5","spark_pilot_2","7334","8","13","Male","","","false","","","","[668.3000000007451,517.5]","./assets/img/canyon/memory/26.jpg","[""ArrowUp"",""ArrowLeft""]","value training","canyon","26","{""ArrowUp,ArrowLeft"":26,""ArrowUp,ArrowRight"":10,""ArrowDown,ArrowLeft"":5,""ArrowDown,ArrowRight"":17}","true","ArrowUp,ArrowLeft","false","","","revaluation","1","10","","",""
"html-keyboard-response","125","729925","0.0-4.0-2.0-1.5","spark_pilot_2","7334","8","13","Male","","","","","","","null","<div style=""font-size:60px;"">+</div>","null","fixation","","","","","","","","","","","11","","",""
"revaluation","126","735950","0.0-4.0-2.0-0.6","spark_pilot_2","7334","8","13","Male","","","false","","","","[652.3000000007451,309]","./assets/img/canyon/memory/1.jpg","[""ArrowUp"",""ArrowLeft""]","value training","canyon","26","{""ArrowUp,ArrowLeft"":26,""ArrowUp,ArrowRight"":10,""ArrowDown,ArrowLeft"":5,""ArrowDown,ArrowRight"":17}","true","ArrowUp,ArrowLeft","false","","","revaluation","1","12","","",""
"html-keyboard-response","127","736461","0.0-4.0-2.0-1.6","spark_pilot_2","7334","8","13","Male","","","","","","","null","<div style=""font-size:60px;"">+</div>","null","fixation","","","","","","","","","","","13","","",""
"revaluation","128","742487","0.0-4.0-2.0-0.7","spark_pilot_2","7334","8","13","Male","","","false","","","","[707.5,428.5]","./assets/img/canyon/memory/23.jpg","[""ArrowUp"",""ArrowLeft""]","value training","canyon","26","{""ArrowUp,ArrowLeft"":26,""ArrowUp,ArrowRight"":10,""ArrowDown,ArrowLeft"":5,""ArrowDown,ArrowRight"":17}","true","ArrowUp,ArrowLeft","false","","","revaluation","1","14","","",""
"html-keyboard-response","129","742997","0.0-4.0-2.0-1.7","spark_pilot_2","7334","8","13","Male","","","","","","","null","<div style=""font-size:60px;"">+</div>","null","fixation","","","","","","","","","","","15","","",""
"revaluation","130","749023","0.0-4.0-2.0-0.8","spark_pilot_2","7334","8","13","Male","","","false","","","","[675.3999999985099,356]","./assets/img/canyon/memory/14.jpg","[""ArrowUp"",""ArrowLeft""]","value training","canyon","26","{""ArrowUp,ArrowLeft"":26,""ArrowUp,ArrowRight"":10,""ArrowDown,ArrowLeft"":5,""ArrowDown,ArrowRight"":17}","true","ArrowUp,ArrowLeft","false","","","revaluation","1","16","","",""
"html-keyboard-response","131","749534","0.0-4.0-2.0-1.8","spark_pilot_2","7334","8","13","Male","","","","","","","null","<div style=""font-size:60px;"">+</div>","null","fixation","","","","","","","","","","","17","","",""
"revaluation","132","755559","0.0-4.0-2.0-0.9","spark_pilot_2","7334","8","13","Male","","","false","","","","[634.6000000014901,371.79999999701977]","./assets/img/canyon/memory/13.jpg","[""ArrowUp"",""ArrowLeft""]","value training","canyon","26","{""ArrowUp,ArrowLeft"":26,""ArrowUp,ArrowRight"":10,""ArrowDown,ArrowLeft"":5,""ArrowDown,ArrowRight"":17}","true","ArrowUp,ArrowLeft","false","","","revaluation","1","18","","",""
"html-keyboard-response","133","756070","0.0-4.0-2.0-1.9","spark_pilot_2","7334","8","13","Male","","","","","","","null","<div style=""font-size:60px;"">+</div>","null","fixation","","","","","","","","","","","19","","",""
"revaluation","134","762090","0.0-4.0-2.0-0.10","spark_pilot_2","7334","8","13","Male","","","false","","","","[826.5999999977648,379.3999999985099]","./assets/img/canyon/memory/1.jpg","[""ArrowUp"",""ArrowLeft""]","value training","canyon","26","{""ArrowUp,ArrowLeft"":26,""ArrowUp,ArrowRight"":10,""ArrowDown,ArrowLeft"":5,""ArrowDown,ArrowRight"":17}","true","ArrowUp,ArrowLeft","false","","","revaluation","1","20","","",""
"html-keyboard-response","135","762595","0.0-4.0-2.0-1.10","spark_pilot_2","7334","8","13","Male","","","","","","","null","<div style=""font-size:60px;"">+</div>","null","fixation","","","","","","","","","","","21","","",""
"revaluation","136","766612","0.0-4.0-2.0-0.11","spark_pilot_2","7334","8","13","Male","","","false","","","","[877.4000000022352]","./assets/img/canyon/catch/1.jpg","[""spaceBar""]","value training","canyon","0","{""ArrowUp,ArrowLeft"":26,""ArrowUp,ArrowRight"":10,""ArrowDown,ArrowLeft"":5,""ArrowDown,ArrowRight"":17}","true","spaceBar","true","","","revaluation","1","22","","",""
"html-keyboard-response","137","767117","0.0-4.0-2.0-1.11","spark_pilot_2","7334","8","13","Male","","","","","","","null","<div style=""font-size:60px;"">+</div>","null","fixation","","","","","","","","","","","23","","",""
"revaluation","138","771134","0.0-4.0-2.0-0.12","spark_pilot_2","7334","8","13","Male","","","false","","","","[787.6000000014901]","./assets/img/canyon/catch/2.jpg","[""spaceBar""]","value training","canyon","0","{""ArrowUp,ArrowLeft"":26,""ArrowUp,ArrowRight"":10,""ArrowDown,ArrowLeft"":5,""ArrowDown,ArrowRight"":17}","true","spaceBar","true","","","revaluation","1","24","","",""
"html-keyboard-response","139","771644","0.0-4.0-2.0-1.12","spark_pilot_2","7334","8","13","Male","","","","","","","null","<div style=""font-size:60px;"">+</div>","null","fixation","","","","","","","","","","","25","","",""
"revaluation","140","777670","0.0-4.0-2.0-0.13","spark_pilot_2","7334","8","13","Male","","","false","","","","[659.5999999977648,428.5]","./assets/img/canyon/memory/37.jpg","[""ArrowDown"",""ArrowRight""]","value training","canyon","17","{""ArrowUp,ArrowLeft"":26,""ArrowUp,ArrowRight"":10,""ArrowDown,ArrowLeft"":5,""ArrowDown,ArrowRight"":17}","false","ArrowDown,ArrowRight","false","","","revaluation","1","26","","",""
"html-keyboard-response","141","778181","0.0-4.0-2.0-1.13","spark_pilot_2","7334","8","13","Male","","","","","","","null","<div style=""font-size:60px;"">+</div>","null","fixation","","","","","","","","","","","27","","",""
"revaluation","142","784206","0.0-4.0-2.0-0.14","spark_pilot_2","7334","8","13","Male","","","false","","","","[826.8000000007451,372.1000000014901]","./assets/img/canyon/memory/12.jpg","[""ArrowUp"",""ArrowLeft""]","value training","canyon","26","{""ArrowUp,ArrowLeft"":26,""ArrowUp,ArrowRight"":10,""ArrowDown,ArrowLeft"":5,""ArrowDown,ArrowRight"":17}","true","ArrowUp,ArrowLeft","false","","","revaluation","1","28","","",""
"html-keyboard-response","143","784717","0.0-4.0-2.0-1.14","spark_pilot_2","7334","8","13","Male","","","","","","","null","<div style=""font-size:60px;"">+</div>","null","fixation","","","","","","","","","","","29","","",""
"revaluation","144","790742","0.0-4.0-2.0-0.15","spark_pilot_2","7334","8","13","Male","","","false","","","","[642.5,387.69999999925494]","./assets/img/canyon/memory/14.jpg","[""ArrowUp"",""ArrowLeft""]","value training","canyon","26","{""ArrowUp,ArrowLeft"":26,""ArrowUp,ArrowRight"":10,""ArrowDown,ArrowLeft"":5,""ArrowDown,ArrowRight"":17}","true","ArrowUp,ArrowLeft","false","","","revaluation","1","30","","",""
"html-keyboard-response","145","791253","0.0-4.0-2.0-1.15","spark_pilot_2","7334","8","13","Male","","","","","","","null","<div style=""font-size:60px;"">+</div>","null","fixation","","","","","","","","","","","31","","",""
"revaluation","146","797273","0.0-4.0-2.0-0.16","spark_pilot_2","7334","8","13","Male","","","false","","","","[739,355.19999999925494]","./assets/img/canyon/memory/7.jpg","[""ArrowUp"",""ArrowLeft""]","value training","canyon","26","{""ArrowUp,ArrowLeft"":26,""ArrowUp,ArrowRight"":10,""ArrowDown,ArrowLeft"":5,""ArrowDown,ArrowRight"":17}","true","ArrowUp,ArrowLeft","false","","","revaluation","1","32","","",""
"html-keyboard-response","147","797778","0.0-4.0-2.0-1.16","spark_pilot_2","7334","8","13","Male","","","","","","","null","<div style=""font-size:60px;"">+</div>","null","fixation","","","","","","","","","","","33","","",""
"revaluation","148","803804","0.0-4.0-2.0-0.17","spark_pilot_2","7334","8","13","Male","","","false","","","","[853.3999999985099,374.4000000022352]","./assets/img/canyon/memory/2.jpg","[""ArrowUp"",""ArrowLeft""]","value training","canyon","26","{""ArrowUp,ArrowLeft"":26,""ArrowUp,ArrowRight"":10,""ArrowDown,ArrowLeft"":5,""ArrowDown,ArrowRight"":17}","true","ArrowUp,ArrowLeft","false","","","revaluation","1","34","","",""
"html-keyboard-response","149","804309","0.0-4.0-2.0-1.17","spark_pilot_2","7334","8","13","Male","","","","","","","null","<div style=""font-size:60px;"">+</div>","null","fixation","","","","","","","","","","","35","","",""
"revaluation","150","810334","0.0-4.0-2.0-0.18","spark_pilot_2","7334","8","13","Male","","","false","","","","[675.0999999977648,435.9000000022352]","./assets/img/canyon/memory/29.jpg","[""ArrowUp"",""ArrowLeft""]","value training","canyon","26","{""ArrowUp,ArrowLeft"":26,""ArrowUp,ArrowRight"":10,""ArrowDown,ArrowLeft"":5,""ArrowDown,ArrowRight"":17}","true","ArrowUp,ArrowLeft","false","","","revaluation","1","36","","",""
"html-keyboard-response","151","810845","0.0-4.0-2.0-1.18","spark_pilot_2","7334","8","13","Male","","","","","","","null","<div style=""font-size:60px;"">+</div>","null","fixation","","","","","","","","","","","37","","",""
"revaluation","152","816865","0.0-4.0-2.0-0.19","spark_pilot_2","7334","8","13","Male","","","false","","","","[666.4000000022352,339.5]","./assets/img/canyon/memory/6.jpg","[""ArrowUp"",""ArrowLeft""]","value training","canyon","26","{""ArrowUp,ArrowLeft"":26,""ArrowUp,ArrowRight"":10,""ArrowDown,ArrowLeft"":5,""ArrowDown,ArrowRight"":17}","true","ArrowUp,ArrowLeft","false","","","revaluation","1","38","","",""
"html-keyboard-response","153","817370","0.0-4.0-2.0-1.19","spark_pilot_2","7334","8","13","Male","","","","","","","null","<div style=""font-size:60px;"">+</div>","null","fixation","","","","","","","","","","","39","","",""
"revaluation","154","823395","0.0-4.0-2.0-0.20","spark_pilot_2","7334","8","13","Male","","","false","","","","[1197.6000000014901,518.5]","./assets/img/canyon/memory/23.jpg","[""ArrowUp"",""ArrowLeft""]","value training","canyon","26","{""ArrowUp,ArrowLeft"":26,""ArrowUp,ArrowRight"":10,""ArrowDown,ArrowLeft"":5,""ArrowDown,ArrowRight"":17}","true","ArrowUp,ArrowLeft","false","","","revaluation","1","40","","",""
"html-keyboard-response","155","823900","0.0-4.0-2.0-1.20","spark_pilot_2","7334","8","13","Male","","","","","","","null","<div style=""font-size:60px;"">+</div>","null","fixation","","","","","","","","","","","41","","",""
"revaluation","156","829922","0.0-4.0-2.0-0.21","spark_pilot_2","7334","8","13","Male","","","false","","","","[738.3000000007451,300.4000000022352]","./assets/img/canyon/memory/6.jpg","[""ArrowUp"",""ArrowLeft""]","value training","canyon","26","{""ArrowUp,ArrowLeft"":26,""ArrowUp,ArrowRight"":10,""ArrowDown,ArrowLeft"":5,""ArrowDown,ArrowRight"":17}","true","ArrowUp,ArrowLeft","false","","","revaluation","1","42","","",""
"html-keyboard-response","157","830425","0.0-4.0-2.0-1.21","spark_pilot_2","7334","8","13","Male","","","","","","","null","<div style=""font-size:60px;"">+</div>","null","fixation","","","","","","","","","","","43","","",""
"revaluation","158","836450","0.0-4.0-2.0-0.22","spark_pilot_2","7334","8","13","Male","","","false","","","","[662.5,335.19999999925494]","./assets/img/canyon/memory/26.jpg","[""ArrowUp"",""ArrowLeft""]","value training","canyon","26","{""ArrowUp,ArrowLeft"":26,""ArrowUp,ArrowRight"":10,""ArrowDown,ArrowLeft"":5,""ArrowDown,ArrowRight"":17}","true","ArrowUp,ArrowLeft","false","","","revaluation","1","44","","",""
"html-keyboard-response","159","836955","0.0-4.0-2.0-1.22","spark_pilot_2","7334","8","13","Male","","","","","","","null","<div style=""font-size:60px;"">+</div>","null","fixation","","","","","","","","","","","45","","",""
"revaluation","160","842981","0.0-4.0-2.0-0.23","spark_pilot_2","7334","8","13","Male","","","false","","","","[723.5999999977648,316.6000000014901]","./assets/img/canyon/memory/39.jpg","[""ArrowUp"",""ArrowLeft""]","value training","canyon","26","{""ArrowUp,ArrowLeft"":26,""ArrowUp,ArrowRight"":10,""ArrowDown,ArrowLeft"":5,""ArrowDown,ArrowRight"":17}","true","ArrowUp,ArrowLeft","false","","","revaluation","1","46","","",""
"html-keyboard-response","161","843492","0.0-4.0-2.0-1.23","spark_pilot_2","7334","8","13","Male","","","","","","","null","<div style=""font-size:60px;"">+</div>","null","fixation","","","","","","","","","","","47","","",""
"revaluation","162","849517","0.0-4.0-2.0-0.24","spark_pilot_2","7334","8","13","Male","","","false","","","","[675.5,350.5]","./assets/img/canyon/memory/35.jpg","[""ArrowUp"",""ArrowLeft""]","value training","canyon","26","{""ArrowUp,ArrowLeft"":26,""ArrowUp,ArrowRight"":10,""ArrowDown,ArrowLeft"":5,""ArrowDown,ArrowRight"":17}","true","ArrowUp,ArrowLeft","false","","","revaluation","1","48","","",""
"html-keyboard-response","163","850028","0.0-4.0-2.0-1.24","spark_pilot_2","7334","8","13","Male","","","","","","","null","<div style=""font-size:60px;"">+</div>","null","fixation","","","","","","","","","","","49","","",""
"revaluation","164","856053","0.0-4.0-2.0-0.25","spark_pilot_2","7334","8","13","Male","","","false","","","","[770.7999999970198,419.8999999985099]","./assets/img/canyon/memory/37.jpg","[""ArrowUp"",""ArrowLeft""]","value training","canyon","26","{""ArrowUp,ArrowLeft"":26,""ArrowUp,ArrowRight"":10,""ArrowDown,ArrowLeft"":5,""ArrowDown,ArrowRight"":17}","true","ArrowUp,ArrowLeft","false","","","revaluation","1","50","","",""
"html-keyboard-response","165","856564","0.0-4.0-2.0-1.25","spark_pilot_2","7334","8","13","Male","","","","","","","null","<div style=""font-size:60px;"">+</div>","null","fixation","","","","","","","","","","","51","","",""
"revaluation","166","862584","0.0-4.0-2.0-0.26","spark_pilot_2","7334","8","13","Male","","","false","","","","[762.8000000007451,291.29999999701977]","./assets/img/canyon/memory/8.jpg","[""ArrowUp"",""ArrowLeft""]","value training","canyon","26","{""ArrowUp,ArrowLeft"":26,""ArrowUp,ArrowRight"":10,""ArrowDown,ArrowLeft"":5,""ArrowDown,ArrowRight"":17}","true","ArrowUp,ArrowLeft","false","","","revaluation","1","52","","",""
"html-keyboard-response","167","863089","0.0-4.0-2.0-1.26","spark_pilot_2","7334","8","13","Male","","","","","","","null","<div style=""font-size:60px;"">+</div>","null","fixation","","","","","","","","","","","53","","",""
"revaluation","168","869115","0.0-4.0-2.0-0.27","spark_pilot_2","7334","8","13","Male","","","false","","","","[717.5,358.3999999985099]","./assets/img/canyon/memory/30.jpg","[""ArrowUp"",""ArrowLeft""]","value training","canyon","26","{""ArrowUp,ArrowLeft"":26,""ArrowUp,ArrowRight"":10,""ArrowDown,ArrowLeft"":5,""ArrowDown,ArrowRight"":17}","true","ArrowUp,ArrowLeft","false","","","revaluation","1","54","","",""
"html-keyboard-response","169","869620","0.0-4.0-2.0-1.27","spark_pilot_2","7334","8","13","Male","","","","","","","null","<div style=""font-size:60px;"">+</div>","null","fixation","","","","","","","","","","","55","","",""
"revaluation","170","875641","0.0-4.0-2.0-0.28","spark_pilot_2","7334","8","13","Male","","","false","","","","[627.2999999970198,291.9000000022352]","./assets/img/canyon/memory/41.jpg","[""ArrowUp"",""ArrowLeft""]","value training","canyon","26","{""ArrowUp,ArrowLeft"":26,""ArrowUp,ArrowRight"":10,""ArrowDown,ArrowLeft"":5,""ArrowDown,ArrowRight"":17}","true","ArrowUp,ArrowLeft","false","","","revaluation","1","56","","",""
"html-keyboard-response","171","876144","0.0-4.0-2.0-1.28","spark_pilot_2","7334","8","13","Male","","","","","","","null","<div style=""font-size:60px;"">+</div>","null","fixation","","","","","","","","","","","57","","",""
"revaluation","172","882170","0.0-4.0-2.0-0.29","spark_pilot_2","7334","8","13","Male","","","false","","","","[702.3000000007451,279.19999999925494]","./assets/img/canyon/memory/7.jpg","[""ArrowUp"",""ArrowLeft""]","value training","canyon","26","{""ArrowUp,ArrowLeft"":26,""ArrowUp,ArrowRight"":10,""ArrowDown,ArrowLeft"":5,""ArrowDown,ArrowRight"":17}","true","ArrowUp,ArrowLeft","false","","","revaluation","1","58","","",""
"html-keyboard-response","173","882675","0.0-4.0-2.0-1.29","spark_pilot_2","7334","8","13","Male","","","","","","","null","<div style=""font-size:60px;"">+</div>","null","fixation","","","","","","","","","","","59","","",""
"revaluation","174","888700","0.0-4.0-2.0-0.30","spark_pilot_2","7334","8","13","Male","","","false","","","","[715.6999999992549,301.1000000014901]","./assets/img/canyon/memory/36.jpg","[""ArrowUp"",""ArrowLeft""]","value training","canyon","26","{""ArrowUp,ArrowLeft"":26,""ArrowUp,ArrowRight"":10,""ArrowDown,ArrowLeft"":5,""ArrowDown,ArrowRight"":17}","true","ArrowUp,ArrowLeft","false","","","revaluation","1","60","","",""
"html-keyboard-response","175","889211","0.0-4.0-2.0-1.30","spark_pilot_2","7334","8","13","Male","","","","","","","null","<div style=""font-size:60px;"">+</div>","null","fixation","","","","","","","","","","","61","","",""
"revaluation","176","895237","0.0-4.0-2.0-0.31","spark_pilot_2","7334","8","13","Male","","","false","","","","[875,395.5999999977648]","./assets/img/canyon/memory/35.jpg","[""ArrowUp"",""ArrowLeft""]","value training","canyon","26","{""ArrowUp,ArrowLeft"":26,""ArrowUp,ArrowRight"":10,""ArrowDown,ArrowLeft"":5,""ArrowDown,ArrowRight"":17}","true","ArrowUp,ArrowLeft","false","","","revaluation","1","62","","",""
"html-keyboard-response","177","895747","0.0-4.0-2.0-1.31","spark_pilot_2","7334","8","13","Male","","","","","","","null","<div style=""font-size:60px;"">+</div>","null","fixation","","","","","","","","","","","63","","",""
"revaluation","178","901772","0.0-4.0-2.0-0.32","spark_pilot_2","7334","8","13","Male","","","false","","","","[619.8999999985099,395.5999999977648]","./assets/img/canyon/memory/13.jpg","[""ArrowUp"",""ArrowLeft""]","value training","canyon","26","{""ArrowUp,ArrowLeft"":26,""ArrowUp,ArrowRight"":10,""ArrowDown,ArrowLeft"":5,""ArrowDown,ArrowRight"":17}","true","ArrowUp,ArrowLeft","false","","","revaluation","1","64","","",""
"html-keyboard-response","179","902284","0.0-4.0-2.0-1.32","spark_pilot_2","7334","8","13","Male","","","","","","","null","<div style=""font-size:60px;"">+</div>","null","fixation","","","","","","","","","","","65","","",""
"revaluation","180","906297","0.0-4.0-2.0-0.33","spark_pilot_2","7334","8","13","Male","","","false","","","","[698.1000000014901]","./assets/img/canyon/catch/7.jpg","[""spaceBar""]","value training","canyon","0","{""ArrowUp,ArrowLeft"":26,""ArrowUp,ArrowRight"":10,""ArrowDown,ArrowLeft"":5,""ArrowDown,ArrowRight"":17}","true","spaceBar","true","","","revaluation","1","66","","",""
"html-keyboard-response","181","906800","0.0-4.0-2.0-1.33","spark_pilot_2","7334","8","13","Male","","","","","","","null","<div style=""font-size:60px;"">+</div>","null","fixation","","","","","","","","","","","67","","",""
"revaluation","182","912825","0.0-4.0-2.0-0.34","spark_pilot_2","7334","8","13","Male","","","false","","","","[758.4000000022352,318.9000000022352]","./assets/img/canyon/memory/0.jpg","[""ArrowUp"",""ArrowLeft""]","value training","canyon","26","{""ArrowUp,ArrowLeft"":26,""ArrowUp,ArrowRight"":10,""ArrowDown,ArrowLeft"":5,""ArrowDown,ArrowRight"":17}","true","ArrowUp,ArrowLeft","false","","","revaluation","1","68","","",""
"html-keyboard-response","183","913330","0.0-4.0-2.0-1.34","spark_pilot_2","7334","8","13","Male","","","","","","","null","<div style=""font-size:60px;"">+</div>","null","fixation","","","","","","","","","","","69","","",""
"revaluation","184","919356","0.0-4.0-2.0-0.35","spark_pilot_2","7334","8","13","Male","","","false","","","","[675.1999999992549,460.3999999985099]","./assets/img/canyon/memory/39.jpg","[""ArrowUp"",""ArrowLeft""]","value training","canyon","26","{""ArrowUp,ArrowLeft"":26,""ArrowUp,ArrowRight"":10,""ArrowDown,ArrowLeft"":5,""ArrowDown,ArrowRight"":17}","true","ArrowUp,ArrowLeft","false","","","revaluation","1","70","","",""
"html-keyboard-response","185","919867","0.0-4.0-2.0-1.35","spark_pilot_2","7334","8","13","Male","","","","","","","null","<div style=""font-size:60px;"">+</div>","null","fixation","","","","","","","","","","","71","","",""
"revaluation","186","925892","0.0-4.0-2.0-0.36","spark_pilot_2","7334","8","13","Male","","","false","","","","[939.3000000007451,411.9000000022352]","./assets/img/canyon/memory/33.jpg","[""ArrowUp"",""ArrowLeft""]","value training","canyon","26","{""ArrowUp,ArrowLeft"":26,""ArrowUp,ArrowRight"":10,""ArrowDown,ArrowLeft"":5,""ArrowDown,ArrowRight"":17}","true","ArrowUp,ArrowLeft","false","","","revaluation","1","72","","",""
"html-keyboard-response","187","926403","0.0-4.0-2.0-1.36","spark_pilot_2","7334","8","13","Male","","","","","","","null","<div style=""font-size:60px;"">+</div>","null","fixation","","","","","","","","","","","73","","",""
"revaluation","188","932426","0.0-4.0-2.0-0.37","spark_pilot_2","7334","8","13","Male","","","false","","","","[810.3999999985099,427.5]","./assets/img/canyon/memory/33.jpg","[""ArrowUp"",""ArrowLeft""]","value training","canyon","26","{""ArrowUp,ArrowLeft"":26,""ArrowUp,ArrowRight"":10,""ArrowDown,ArrowLeft"":5,""ArrowDown,ArrowRight"":17}","true","ArrowUp,ArrowLeft","false","","","revaluation","1","74","","",""
"html-keyboard-response","189","932928","0.0-4.0-2.0-1.37","spark_pilot_2","7334","8","13","Male","","","","","","","null","<div style=""font-size:60px;"">+</div>","null","fixation","","","","","","","","","","","75","","",""
"revaluation","190","938953","0.0-4.0-2.0-0.38","spark_pilot_2","7334","8","13","Male","","","false","","","","[726.1000000014901,439.5]","./assets/img/canyon/memory/22.jpg","[""ArrowUp"",""ArrowLeft""]","value training","canyon","26","{""ArrowUp,ArrowLeft"":26,""ArrowUp,ArrowRight"":10,""ArrowDown,ArrowLeft"":5,""ArrowDown,ArrowRight"":17}","true","ArrowUp,ArrowLeft","false","","","revaluation","1","76","","",""
"html-keyboard-response","191","939458","0.0-4.0-2.0-1.38","spark_pilot_2","7334","8","13","Male","","","","","","","null","<div style=""font-size:60px;"">+</div>","null","fixation","","","","","","","","","","","77","","",""
"revaluation","192","945484","0.0-4.0-2.0-0.39","spark_pilot_2","7334","8","13","Male","","","false","","","","[867.1000000014901,308.1000000014901]","./assets/img/canyon/memory/22.jpg","[""ArrowUp"",""ArrowLeft""]","value training","canyon","26","{""ArrowUp,ArrowLeft"":26,""ArrowUp,ArrowRight"":10,""ArrowDown,ArrowLeft"":5,""ArrowDown,ArrowRight"":17}","true","ArrowUp,ArrowLeft","false","","","revaluation","1","78","","",""
"html-keyboard-response","193","945995","0.0-4.0-2.0-1.39","spark_pilot_2","7334","8","13","Male","","","","","","","null","<div style=""font-size:60px;"">+</div>","null","fixation","","","","","","","","","","","79","","",""
"revaluation","194","952015","0.0-4.0-2.0-0.40","spark_pilot_2","7334","8","13","Male","","","false","","","","[730.6999999992549,411.6000000014901]","./assets/img/canyon/memory/12.jpg","[""ArrowUp"",""ArrowLeft""]","value training","canyon","26","{""ArrowUp,ArrowLeft"":26,""ArrowUp,ArrowRight"":10,""ArrowDown,ArrowLeft"":5,""ArrowDown,ArrowRight"":17}","true","ArrowUp,ArrowLeft","false","","","revaluation","1","80","","",""
"html-keyboard-response","195","952519","0.0-4.0-2.0-1.40","spark_pilot_2","7334","8","13","Male","","","","","","","null","<div style=""font-size:60px;"">+</div>","null","fixation","","","","","","","","","","","81","","",""
"revaluation","196","956536","0.0-4.0-2.0-0.41","spark_pilot_2","7334","8","13","Male","","","false","","","","[677.6999999992549]","./assets/img/canyon/catch/6.jpg","[""spaceBar""]","value training","canyon","0","{""ArrowUp,ArrowLeft"":26,""ArrowUp,ArrowRight"":10,""ArrowDown,ArrowLeft"":5,""ArrowDown,ArrowRight"":17}","true","spaceBar","true","","","revaluation","1","82","","",""
"html-keyboard-response","197","957041","0.0-4.0-2.0-1.41","spark_pilot_2","7334","8","13","Male","","","","","","","null","<div style=""font-size:60px;"">+</div>","null","fixation","","","","","","","","","","","83","","",""
"revaluation","198","961058","0.0-4.0-2.0-0.42","spark_pilot_2","7334","8","13","Male","","","false","","","","[588]","./assets/img/canyon/catch/4.jpg","[""spaceBar""]","value training","canyon","0","{""ArrowUp,ArrowLeft"":26,""ArrowUp,ArrowRight"":10,""ArrowDown,ArrowLeft"":5,""ArrowDown,ArrowRight"":17}","true","spaceBar","true","","","revaluation","1","84","","",""
"html-keyboard-response","199","961569","0.0-4.0-2.0-1.42","spark_pilot_2","7334","8","13","Male","","","","","","","null","<div style=""font-size:60px;"">+</div>","null","fixation","","","","","","","","","","","85","","",""
"revaluation","200","965586","0.0-4.0-2.0-0.43","spark_pilot_2","7334","8","13","Male","","","false","","","","[595.8000000007451]","./assets/img/canyon/catch/3.jpg","[""spaceBar""]","value training","canyon","0","{""ArrowUp,ArrowLeft"":26,""ArrowUp,ArrowRight"":10,""ArrowDown,ArrowLeft"":5,""ArrowDown,ArrowRight"":17}","true","spaceBar","true","","","revaluation","1","86","","",""
"html-keyboard-response","201","966097","0.0-4.0-2.0-1.43","spark_pilot_2","7334","8","13","Male","","","","","","","null","<div style=""font-size:60px;"">+</div>","null","fixation","","","","","","","","","","","87","","",""
"revaluation","202","972123","0.0-4.0-2.0-0.44","spark_pilot_2","7334","8","13","Male","","","false","","","","[835.7999999970198,461.5]","./assets/img/canyon/memory/36.jpg","[""ArrowUp"",""ArrowLeft""]","value training","canyon","26","{""ArrowUp,ArrowLeft"":26,""ArrowUp,ArrowRight"":10,""ArrowDown,ArrowLeft"":5,""ArrowDown,ArrowRight"":17}","true","ArrowUp,ArrowLeft","false","","","revaluation","1","88","","",""
"html-keyboard-response","203","972633","0.0-4.0-2.0-1.44","spark_pilot_2","7334","8","13","Male","","","","","","","null","<div style=""font-size:60px;"">+</div>","null","fixation","","","","","","","","","","","89","","",""
"revaluation","204","978659","0.0-4.0-2.0-0.45","spark_pilot_2","7334","8","13","Male","","","false","","","","[819.2999999970198,316.5]","./assets/img/canyon/memory/8.jpg","[""ArrowUp"",""ArrowLeft""]","value training","canyon","26","{""ArrowUp,ArrowLeft"":26,""ArrowUp,ArrowRight"":10,""ArrowDown,ArrowLeft"":5,""ArrowDown,ArrowRight"":17}","true","ArrowUp,ArrowLeft","false","","","revaluation","1","90","","",""
"html-keyboard-response","205","979169","0.0-4.0-2.0-1.45","spark_pilot_2","7334","8","13","Male","","","","","","","null","<div style=""font-size:60px;"">+</div>","null","fixation","","","","","","","","","","","91","","",""
"revaluation","206","985195","0.0-4.0-2.0-0.46","spark_pilot_2","7334","8","13","Male","","","false","","","","[651.5,324.1000000014901]","./assets/img/canyon/memory/16.jpg","[""ArrowUp"",""ArrowLeft""]","value training","canyon","26","{""ArrowUp,ArrowLeft"":26,""ArrowUp,ArrowRight"":10,""ArrowDown,ArrowLeft"":5,""ArrowDown,ArrowRight"":17}","true","ArrowUp,ArrowLeft","false","","","revaluation","1","92","","",""
"html-keyboard-response","207","985706","0.0-4.0-2.0-1.46","spark_pilot_2","7334","8","13","Male","","","","","","","null","<div style=""font-size:60px;"">+</div>","null","fixation","","","","","","","","","","","93","","",""
"revaluation","208","991728","0.0-4.0-2.0-0.47","spark_pilot_2","7334","8","13","Male","","","false","","","","[674.6000000014901,356.19999999925494]","./assets/img/canyon/memory/2.jpg","[""ArrowUp"",""ArrowLeft""]","value training","canyon","26","{""ArrowUp,ArrowLeft"":26,""ArrowUp,ArrowRight"":10,""ArrowDown,ArrowLeft"":5,""ArrowDown,ArrowRight"":17}","true","ArrowUp,ArrowLeft","false","","","revaluation","1","94","","",""
"html-keyboard-response","209","992230","0.0-4.0-2.0-1.47","spark_pilot_2","7334","8","13","Male","","","","","","","null","<div style=""font-size:60px;"">+</div>","null","fixation","","","","","","","","","","","95","","",""
"revaluation","210","996248","0.0-4.0-2.0-0.48","spark_pilot_2","7334","8","13","Male","","","false","","","","[838.2000000029802]","./assets/img/canyon/catch/0.jpg","[""spaceBar""]","value training","canyon","0","{""ArrowUp,ArrowLeft"":26,""ArrowUp,ArrowRight"":10,""ArrowDown,ArrowLeft"":5,""ArrowDown,ArrowRight"":17}","true","spaceBar","true","","","revaluation","1","96","","",""
"html-keyboard-response","211","996753","0.0-4.0-2.0-1.48","spark_pilot_2","7334","8","13","Male","","","","","","","null","<div style=""font-size:60px;"">+</div>","null","fixation","","","","","","","","","","","97","","",""
"revaluation","212","1002778","0.0-4.0-2.0-0.49","spark_pilot_2","7334","8","13","Male","","","false","","","","[595.6000000014901,437.4000000022352]","./assets/img/canyon/memory/30.jpg","[""ArrowUp"",""ArrowLeft""]","value training","canyon","26","{""ArrowUp,ArrowLeft"":26,""ArrowUp,ArrowRight"":10,""ArrowDown,ArrowLeft"":5,""ArrowDown,ArrowRight"":17}","true","ArrowUp,ArrowLeft","false","","","revaluation","1","98","","",""
"html-keyboard-response","213","1003289","0.0-4.0-2.0-1.49","spark_pilot_2","7334","8","13","Male","","","","","","","null","<div style=""font-size:60px;"">+</div>","null","fixation","","","","","","","","","","","99","","",""
"learning-instructions","214","1018492","0.0-4.0-3.0-0.0","spark_pilot_2","7334","8","13","Male","","","","","","","1598.5","<p> Now, you will travel with a friend who will choose whether you go up or down first. </p>
            <p> On these turns, you will just see the animal that they found. You will still get to choose which chest to search for treasure.</p>","","instructions","","","","","","","","","","","","","",""
"revaluation","215","1022506","0.0-4.0-4.0-0.0","spark_pilot_2","7334","8","13","Male","","","false","","","","[1169]","./assets/img/canyon/animals/lion.jpg","[""ArrowLeft""]","revaluation","canyon","2","{""ArrowUp,ArrowLeft"":2,""ArrowUp,ArrowRight"":11,""ArrowDown,ArrowLeft"":8,""ArrowDown,ArrowRight"":27}","false","ArrowUp,ArrowLeft","","","","revaluation","1","0","","",""
"html-keyboard-response","216","1023014","0.0-4.0-4.0-1.0","spark_pilot_2","7334","8","13","Male","","","","","","","null","<div style=""font-size:60px;"">+</div>","null","fixation","","","","","","","","","","","1","","",""
"revaluation","217","1027034","0.0-4.0-4.0-0.1","spark_pilot_2","7334","8","13","Male","","","false","","","","[533.6000000014901]","./assets/img/canyon/animals/giraffe.jpg","[""ArrowRight""]","revaluation","canyon","27","{""ArrowUp,ArrowLeft"":2,""ArrowUp,ArrowRight"":11,""ArrowDown,ArrowLeft"":8,""ArrowDown,ArrowRight"":27}","true","ArrowDown,ArrowRight","","","","revaluation","1","2","","",""
"html-keyboard-response","218","1027545","0.0-4.0-4.0-1.1","spark_pilot_2","7334","8","13","Male","","","","","","","null","<div style=""font-size:60px;"">+</div>","null","fixation","","","","","","","","","","","3","","",""
"revaluation","219","1031562","0.0-4.0-4.0-0.2","spark_pilot_2","7334","8","13","Male","","","false","","","","[563]","./assets/img/canyon/animals/giraffe.jpg","[""ArrowLeft""]","revaluation","canyon","8","{""ArrowUp,ArrowLeft"":2,""ArrowUp,ArrowRight"":11,""ArrowDown,ArrowLeft"":8,""ArrowDown,ArrowRight"":27}","false","ArrowDown,ArrowLeft","","","","revaluation","1","4","","",""
"html-keyboard-response","220","1032073","0.0-4.0-4.0-1.2","spark_pilot_2","7334","8","13","Male","","","","","","","null","<div style=""font-size:60px;"">+</div>","null","fixation","","","","","","","","","","","5","","",""
"revaluation","221","1036090","0.0-4.0-4.0-0.3","spark_pilot_2","7334","8","13","Male","","","false","","","","[651.6999999992549]","./assets/img/canyon/animals/lion.jpg","[""ArrowRight""]","revaluation","canyon","11","{""ArrowUp,ArrowLeft"":2,""ArrowUp,ArrowRight"":11,""ArrowDown,ArrowLeft"":8,""ArrowDown,ArrowRight"":27}","true","ArrowUp,ArrowRight","","","","revaluation","1","6","","",""
"html-keyboard-response","222","1036600","0.0-4.0-4.0-1.3","spark_pilot_2","7334","8","13","Male","","","","","","","null","<div style=""font-size:60px;"">+</div>","null","fixation","","","","","","","","","","","7","","",""
"revaluation","223","1040618","0.0-4.0-4.0-0.4","spark_pilot_2","7334","8","13","Male","","","false","","","","[67.39999999850988]","./assets/img/canyon/animals/lion.jpg","[""ArrowRight""]","revaluation","canyon","11","{""ArrowUp,ArrowLeft"":2,""ArrowUp,ArrowRight"":11,""ArrowDown,ArrowLeft"":8,""ArrowDown,ArrowRight"":27}","true","ArrowUp,ArrowRight","","","","revaluation","1","8","","",""
"html-keyboard-response","224","1041128","0.0-4.0-4.0-1.4","spark_pilot_2","7334","8","13","Male","","","","","","","null","<div style=""font-size:60px;"">+</div>","null","fixation","","","","","","","","","","","9","","",""
"revaluation","225","1045145","0.0-4.0-4.0-0.5","spark_pilot_2","7334","8","13","Male","","","false","","","","[99.40000000223517]","./assets/img/canyon/animals/lion.jpg","[""ArrowRight""]","revaluation","canyon","11","{""ArrowUp,ArrowLeft"":2,""ArrowUp,ArrowRight"":11,""ArrowDown,ArrowLeft"":8,""ArrowDown,ArrowRight"":27}","true","ArrowUp,ArrowRight","","","","revaluation","1","10","","",""
"html-keyboard-response","226","1045656","0.0-4.0-4.0-1.5","spark_pilot_2","7334","8","13","Male","","","","","","","null","<div style=""font-size:60px;"">+</div>","null","fixation","","","","","","","","","","","11","","",""
"revaluation","227","1049672","0.0-4.0-4.0-0.6","spark_pilot_2","7334","8","13","Male","","","false","","","","[115.60000000149012]","./assets/img/canyon/animals/lion.jpg","[""ArrowRight""]","revaluation","canyon","11","{""ArrowUp,ArrowLeft"":2,""ArrowUp,ArrowRight"":11,""ArrowDown,ArrowLeft"":8,""ArrowDown,ArrowRight"":27}","true","ArrowUp,ArrowRight","","","","revaluation","1","12","","",""
"html-keyboard-response","228","1050173","0.0-4.0-4.0-1.6","spark_pilot_2","7334","8","13","Male","","","","","","","null","<div style=""font-size:60px;"">+</div>","null","fixation","","","","","","","","","","","13","","",""
"revaluation","229","1054190","0.0-4.0-4.0-0.7","spark_pilot_2","7334","8","13","Male","","","false","","","","[422.79999999701977]","./assets/img/canyon/animals/giraffe.jpg","[""ArrowRight""]","revaluation","canyon","27","{""ArrowUp,ArrowLeft"":2,""ArrowUp,ArrowRight"":11,""ArrowDown,ArrowLeft"":8,""ArrowDown,ArrowRight"":27}","true","ArrowDown,ArrowRight","","","","revaluation","1","14","","",""
"html-keyboard-response","230","1054695","0.0-4.0-4.0-1.7","spark_pilot_2","7334","8","13","Male","","","","","","","null","<div style=""font-size:60px;"">+</div>","null","fixation","","","","","","","","","","","15","","",""
"revaluation","231","1058712","0.0-4.0-4.0-0.8","spark_pilot_2","7334","8","13","Male","","","false","","","","[540.1999999992549]","./assets/img/canyon/animals/lion.jpg","[""ArrowRight""]","revaluation","canyon","11","{""ArrowUp,ArrowLeft"":2,""ArrowUp,ArrowRight"":11,""ArrowDown,ArrowLeft"":8,""ArrowDown,ArrowRight"":27}","true","ArrowUp,ArrowRight","","","","revaluation","1","16","","",""
"html-keyboard-response","232","1059223","0.0-4.0-4.0-1.8","spark_pilot_2","7334","8","13","Male","","","","","","","null","<div style=""font-size:60px;"">+</div>","null","fixation","","","","","","","","","","","17","","",""
"revaluation","233","1063240","0.0-4.0-4.0-0.9","spark_pilot_2","7334","8","13","Male","","","false","","","","[476.4000000022352]","./assets/img/canyon/animals/lion.jpg","[""ArrowRight""]","revaluation","canyon","11","{""ArrowUp,ArrowLeft"":2,""ArrowUp,ArrowRight"":11,""ArrowDown,ArrowLeft"":8,""ArrowDown,ArrowRight"":27}","true","ArrowUp,ArrowRight","","","","revaluation","1","18","","",""
"html-keyboard-response","234","1063745","0.0-4.0-4.0-1.9","spark_pilot_2","7334","8","13","Male","","","","","","","null","<div style=""font-size:60px;"">+</div>","null","fixation","","","","","","","","","","","19","","",""
"revaluation","235","1067761","0.0-4.0-4.0-0.10","spark_pilot_2","7334","8","13","Male","","","false","","","","[450.19999999925494]","./assets/img/canyon/animals/lion.jpg","[""ArrowRight""]","revaluation","canyon","11","{""ArrowUp,ArrowLeft"":2,""ArrowUp,ArrowRight"":11,""ArrowDown,ArrowLeft"":8,""ArrowDown,ArrowRight"":27}","true","ArrowUp,ArrowRight","","","","revaluation","1","20","","",""
"html-keyboard-response","236","1068273","0.0-4.0-4.0-1.10","spark_pilot_2","7334","8","13","Male","","","","","","","null","<div style=""font-size:60px;"">+</div>","null","fixation","","","","","","","","","","","21","","",""
"revaluation","237","1072285","0.0-4.0-4.0-0.11","spark_pilot_2","7334","8","13","Male","","","false","","","","[506.69999999925494]","./assets/img/canyon/animals/giraffe.jpg","[""ArrowRight""]","revaluation","canyon","27","{""ArrowUp,ArrowLeft"":2,""ArrowUp,ArrowRight"":11,""ArrowDown,ArrowLeft"":8,""ArrowDown,ArrowRight"":27}","true","ArrowDown,ArrowRight","","","","revaluation","1","22","","",""
"html-keyboard-response","238","1072789","0.0-4.0-4.0-1.11","spark_pilot_2","7334","8","13","Male","","","","","","","null","<div style=""font-size:60px;"">+</div>","null","fixation","","","","","","","","","","","23","","",""
"revaluation","239","1076806","0.0-4.0-4.0-0.12","spark_pilot_2","7334","8","13","Male","","","false","","","","[454.1000000014901]","./assets/img/canyon/animals/giraffe.jpg","[""ArrowRight""]","revaluation","canyon","27","{""ArrowUp,ArrowLeft"":2,""ArrowUp,ArrowRight"":11,""ArrowDown,ArrowLeft"":8,""ArrowDown,ArrowRight"":27}","true","ArrowDown,ArrowRight","","","","revaluation","1","24","","",""
"html-keyboard-response","240","1077311","0.0-4.0-4.0-1.12","spark_pilot_2","7334","8","13","Male","","","","","","","null","<div style=""font-size:60px;"">+</div>","null","fixation","","","","","","","","","","","25","","",""
"revaluation","241","1081328","0.0-4.0-4.0-0.13","spark_pilot_2","7334","8","13","Male","","","false","","","","[444.0999999977648]","./assets/img/canyon/animals/giraffe.jpg","[""ArrowRight""]","revaluation","canyon","27","{""ArrowUp,ArrowLeft"":2,""ArrowUp,ArrowRight"":11,""ArrowDown,ArrowLeft"":8,""ArrowDown,ArrowRight"":27}","true","ArrowDown,ArrowRight","","","","revaluation","1","26","","",""
"html-keyboard-response","242","1081839","0.0-4.0-4.0-1.13","spark_pilot_2","7334","8","13","Male","","","","","","","null","<div style=""font-size:60px;"">+</div>","null","fixation","","","","","","","","","","","27","","",""
"revaluation","243","1085856","0.0-4.0-4.0-0.14","spark_pilot_2","7334","8","13","Male","","","false","","","","[300.5999999977648]","./assets/img/canyon/animals/giraffe.jpg","[""ArrowRight""]","revaluation","canyon","27","{""ArrowUp,ArrowLeft"":2,""ArrowUp,ArrowRight"":11,""ArrowDown,ArrowLeft"":8,""ArrowDown,ArrowRight"":27}","true","ArrowDown,ArrowRight","","","","revaluation","1","28","","",""
"html-keyboard-response","244","1086367","0.0-4.0-4.0-1.14","spark_pilot_2","7334","8","13","Male","","","","","","","null","<div style=""font-size:60px;"">+</div>","null","fixation","","","","","","","","","","","29","","",""
"revaluation","245","1090384","0.0-4.0-4.0-0.15","spark_pilot_2","7334","8","13","Male","","","false","","","","[196.30000000074506]","./assets/img/canyon/animals/lion.jpg","[""ArrowRight""]","revaluation","canyon","11","{""ArrowUp,ArrowLeft"":2,""ArrowUp,ArrowRight"":11,""ArrowDown,ArrowLeft"":8,""ArrowDown,ArrowRight"":27}","true","ArrowUp,ArrowRight","","","","revaluation","1","30","","",""
"html-keyboard-response","246","1090894","0.0-4.0-4.0-1.15","spark_pilot_2","7334","8","13","Male","","","","","","","null","<div style=""font-size:60px;"">+</div>","null","fixation","","","","","","","","","","","31","","",""
"revaluation","247","1094912","0.0-4.0-4.0-0.16","spark_pilot_2","7334","8","13","Male","","","false","","","","[12.399999998509884]","./assets/img/canyon/animals/giraffe.jpg","[""ArrowRight""]","revaluation","canyon","27","{""ArrowUp,ArrowLeft"":2,""ArrowUp,ArrowRight"":11,""ArrowDown,ArrowLeft"":8,""ArrowDown,ArrowRight"":27}","true","ArrowDown,ArrowRight","","","","revaluation","1","32","","",""
"html-keyboard-response","248","1095422","0.0-4.0-4.0-1.16","spark_pilot_2","7334","8","13","Male","","","","","","","null","<div style=""font-size:60px;"">+</div>","null","fixation","","","","","","","","","","","33","","",""
"revaluation","249","1099439","0.0-4.0-4.0-0.17","spark_pilot_2","7334","8","13","Male","","","false","","","","[140.40000000223517]","./assets/img/canyon/animals/giraffe.jpg","[""ArrowRight""]","revaluation","canyon","27","{""ArrowUp,ArrowLeft"":2,""ArrowUp,ArrowRight"":11,""ArrowDown,ArrowLeft"":8,""ArrowDown,ArrowRight"":27}","true","ArrowDown,ArrowRight","","","","revaluation","1","34","","",""
"html-keyboard-response","250","1099944","0.0-4.0-4.0-1.17","spark_pilot_2","7334","8","13","Male","","","","","","","null","<div style=""font-size:60px;"">+</div>","null","fixation","","","","","","","","","","","35","","",""
"learning-instructions","251","1113640","0.0-4.0-5.0-0.0","spark_pilot_2","7334","8","13","Male","","","","","","","1561.8999999985099","<p> Time to play the dot game! </p>
            <p> For one minute, click the red dots on the following screen as they appear. </p>
            <p><b> Don't look away, as you will earn bonus for clicking dots</b>. </p>","","instructions","","","","","","","","","","","","","",""
"revaluation","252","1173645","0.0-4.0-6.0-0.0","spark_pilot_2","7334","8","13","Male","","","","","","","[68,95,88,137,73,103]","","","rest","","60","","","","","0","60000","","","","","",""
"learning-instructions","253","1184271","0.0-4.0-7.0-0.0","spark_pilot_2","7334","8","13","Male","","","","","","","3810","<p> You have almost finished this part of the game! </p>
            <p> We are going to ask you to make a few more choices. </p>","","instructions","","","","","","","","","","","","","",""
"learning-instructions","254","1200325","0.0-4.0-7.0-0.1","spark_pilot_2","7334","8","13","Male","","","","","","","2083.300000000745","<p> First, you need to decide whether to go up or down. When you see each picture, use the arrow keys to make your choice. </p>
            <p><b>You will not see which animal you found, but try to get to the one that will give you the most treasure.</b></p>","","instructions","","","","","","","","","","","","","",""
"revaluation","255","1201259","0.0-4.0-8.0-0.0","spark_pilot_2","7334","8","13","Male","","","false","","","","[932.7999999970198]","./assets/img/canyon/test/3.jpg","[""ArrowDown""]","first stage test","canyon","0","{""ArrowUp,ArrowLeft"":2,""ArrowUp,ArrowRight"":11,""ArrowDown,ArrowLeft"":8,""ArrowDown,ArrowRight"":27}","true","ArrowDown","false","","","revaluation","1","","","",""
"html-keyboard-response","256","1201765","0.0-4.0-8.0-1.0","spark_pilot_2","7334","8","13","Male","","","","","","","null","<div style=""font-size:60px;"">+</div>","null","fixation","","","","","","","","","","","","","",""
"revaluation","257","1202475","0.0-4.0-8.0-0.1","spark_pilot_2","7334","8","13","Male","","","false","","","","[708.5]","./assets/img/canyon/test/0.jpg","[""ArrowUp""]","first stage test","canyon","0","{""ArrowUp,ArrowLeft"":2,""ArrowUp,ArrowRight"":11,""ArrowDown,ArrowLeft"":8,""ArrowDown,ArrowRight"":27}","false","ArrowUp","false","","","revaluation","1","","","",""
"html-keyboard-response","258","1202983","0.0-4.0-8.0-1.1","spark_pilot_2","7334","8","13","Male","","","","","","","null","<div style=""font-size:60px;"">+</div>","null","fixation","","","","","","","","","","","","","",""
"revaluation","259","1203595","0.0-4.0-8.0-0.2","spark_pilot_2","7334","8","13","Male","","","false","","","","[609.3999999985099]","./assets/img/canyon/test/2.jpg","[""ArrowDown""]","first stage test","canyon","0","{""ArrowUp,ArrowLeft"":2,""ArrowUp,ArrowRight"":11,""ArrowDown,ArrowLeft"":8,""ArrowDown,ArrowRight"":27}","true","ArrowDown","false","","","revaluation","1","","","",""
"html-keyboard-response","260","1204103","0.0-4.0-8.0-1.2","spark_pilot_2","7334","8","13","Male","","","","","","","null","<div style=""font-size:60px;"">+</div>","null","fixation","","","","","","","","","","","","","",""
"revaluation","261","1204675","0.0-4.0-8.0-0.3","spark_pilot_2","7334","8","13","Male","","","false","","","","[569.1000000014901]","./assets/img/canyon/test/1.jpg","[""ArrowUp""]","first stage test","canyon","0","{""ArrowUp,ArrowLeft"":2,""ArrowUp,ArrowRight"":11,""ArrowDown,ArrowLeft"":8,""ArrowDown,ArrowRight"":27}","false","ArrowUp","false","","","revaluation","1","","","",""
"html-keyboard-response","262","1205183","0.0-4.0-8.0-1.3","spark_pilot_2","7334","8","13","Male","","","","","","","null","<div style=""font-size:60px;"">+</div>","null","fixation","","","","","","","","","","","","","",""
"learning-instructions","263","1218206","0.0-4.0-9.0-0.0","spark_pilot_2","7334","8","13","Male","","","","","","","1679.5999999977648","<p> Now you will see the animals again and can search their chests for treasure. </p>
            <p> This time, you will not see how much treasure you earned, but you will earn more bonus money for making better choices. </p>","","instructions","","","","","","","","","","","","","",""
"revaluation","264","1219187","0.0-4.0-10.0-0.0","spark_pilot_2","7334","8","13","Male","","","false","","","","[979.2999999970198]","./assets/img/canyon/animals/lion.jpg","[""ArrowRight""]","second stage test","canyon","0","{""ArrowUp,ArrowLeft"":2,""ArrowUp,ArrowRight"":11,""ArrowDown,ArrowLeft"":8,""ArrowDown,ArrowRight"":27}","true","ArrowUp,ArrowRight","","","","revaluation","1","","","",""
"html-keyboard-response","265","1219693","0.0-4.0-10.0-1.0","spark_pilot_2","7334","8","13","Male","","","","","","","null","<div style=""font-size:60px;"">+</div>","null","fixation","","","","","","","","","","","","","",""
"revaluation","266","1220259","0.0-4.0-10.0-0.1","spark_pilot_2","7334","8","13","Male","","","false","","","","[563.3000000007451]","./assets/img/canyon/animals/lion.jpg","[""ArrowRight""]","second stage test","canyon","0","{""ArrowUp,ArrowLeft"":2,""ArrowUp,ArrowRight"":11,""ArrowDown,ArrowLeft"":8,""ArrowDown,ArrowRight"":27}","true","ArrowUp,ArrowRight","","","","revaluation","1","","","",""
"html-keyboard-response","267","1220764","0.0-4.0-10.0-1.1","spark_pilot_2","7334","8","13","Male","","","","","","","null","<div style=""font-size:60px;"">+</div>","null","fixation","","","","","","","","","","","","","",""
"revaluation","268","1221259","0.0-4.0-10.0-0.2","spark_pilot_2","7334","8","13","Male","","","false","","","","[492.6000000014901]","./assets/img/canyon/animals/lion.jpg","[""ArrowRight""]","second stage test","canyon","0","{""ArrowUp,ArrowLeft"":2,""ArrowUp,ArrowRight"":11,""ArrowDown,ArrowLeft"":8,""ArrowDown,ArrowRight"":27}","true","ArrowUp,ArrowRight","","","","revaluation","1","","","",""
"html-keyboard-response","269","1221762","0.0-4.0-10.0-1.2","spark_pilot_2","7334","8","13","Male","","","","","","","null","<div style=""font-size:60px;"">+</div>","null","fixation","","","","","","","","","","","","","",""
"revaluation","270","1222147","0.0-4.0-10.0-0.3","spark_pilot_2","7334","8","13","Male","","","false","","","","[382.69999999925494]","./assets/img/canyon/animals/lion.jpg","[""ArrowRight""]","second stage test","canyon","0","{""ArrowUp,ArrowLeft"":2,""ArrowUp,ArrowRight"":11,""ArrowDown,ArrowLeft"":8,""ArrowDown,ArrowRight"":27}","true","ArrowUp,ArrowRight","","","","revaluation","1","","","",""
"html-keyboard-response","271","1222650","0.0-4.0-10.0-1.3","spark_pilot_2","7334","8","13","Male","","","","","","","null","<div style=""font-size:60px;"">+</div>","null","fixation","","","","","","","","","","","","","",""
"revaluation","272","1223146","0.0-4.0-10.0-0.4","spark_pilot_2","7334","8","13","Male","","","false","","","","[494.5]","./assets/img/canyon/animals/giraffe.jpg","[""ArrowRight""]","second stage test","canyon","0","{""ArrowUp,ArrowLeft"":2,""ArrowUp,ArrowRight"":11,""ArrowDown,ArrowLeft"":8,""ArrowDown,ArrowRight"":27}","true","ArrowDown,ArrowRight","","","","revaluation","1","","","",""
"html-keyboard-response","273","1223655","0.0-4.0-10.0-1.4","spark_pilot_2","7334","8","13","Male","","","","","","","null","<div style=""font-size:60px;"">+</div>","null","fixation","","","","","","","","","","","","","",""
"revaluation","274","1224427","0.0-4.0-10.0-0.5","spark_pilot_2","7334","8","13","Male","","","false","","","","[770.3000000007451]","./assets/img/canyon/animals/giraffe.jpg","[""ArrowRight""]","second stage test","canyon","0","{""ArrowUp,ArrowLeft"":2,""ArrowUp,ArrowRight"":11,""ArrowDown,ArrowLeft"":8,""ArrowDown,ArrowRight"":27}","true","ArrowDown,ArrowRight","","","","revaluation","1","","","",""
"html-keyboard-response","275","1224931","0.0-4.0-10.0-1.5","spark_pilot_2","7334","8","13","Male","","","","","","","null","<div style=""font-size:60px;"">+</div>","null","fixation","","","","","","","","","","","","","",""
"revaluation","276","1225378","0.0-4.0-10.0-0.6","spark_pilot_2","7334","8","13","Male","","","false","","","","[445.5999999977648]","./assets/img/canyon/animals/giraffe.jpg","[""ArrowRight""]","second stage test","canyon","0","{""ArrowUp,ArrowLeft"":2,""ArrowUp,ArrowRight"":11,""ArrowDown,ArrowLeft"":8,""ArrowDown,ArrowRight"":27}","true","ArrowDown,ArrowRight","","","","revaluation","1","","","",""
"html-keyboard-response","277","1225884","0.0-4.0-10.0-1.6","spark_pilot_2","7334","8","13","Male","","","","","","","null","<div style=""font-size:60px;"">+</div>","null","fixation","","","","","","","","","","","","","",""
"revaluation","278","1226315","0.0-4.0-10.0-0.7","spark_pilot_2","7334","8","13","Male","","","false","","","","[429.0999999977648]","./assets/img/canyon/animals/giraffe.jpg","[""ArrowRight""]","second stage test","canyon","0","{""ArrowUp,ArrowLeft"":2,""ArrowUp,ArrowRight"":11,""ArrowDown,ArrowLeft"":8,""ArrowDown,ArrowRight"":27}","true","ArrowDown,ArrowRight","","","","revaluation","1","","","",""
"html-keyboard-response","279","1226818","0.0-4.0-10.0-1.7","spark_pilot_2","7334","8","13","Male","","","","","","","null","<div style=""font-size:60px;"">+</div>","null","fixation","","","","","","","","","","","","","",""
"learning-instructions","280","1232266","0.0-4.0-0.1-0.2","spark_pilot_2","7334","8","13","Male","","","","","","","2742.300000000745","<p> This time you are searching for treasure in the <b>ocean</b>.</p>","","instructions","","","","","","","","","","","","","",""
"learning-instructions","281","1252630","0.0-4.0-0.1-0.3","spark_pilot_2","7334","8","13","Male","","","","","","","3114.10000000149","<p><b>New</b> animals with <b>new</b> treasure chests live here. You need to explore to discover where the animal with the best treasure chest is.</p>
                    <p> Like before, once you figure out which animal has the chest with the most treasure, you should try to get to that animal and select that chest! </p>","","instructions","","","","","","","","","","","","","",""
"learning-instructions","282","1270143","0.0-4.0-1.1-0.1","spark_pilot_2","7334","8","13","Male","","","","","","","2783.5","<p> Remember, when you see a picture of the place, use the up and down keys to <b>find an animal</b>.</p>
            <p> When you encounter an animal, you should use the left and right keys to <b>select a treasure chest</b>.</p>
            <p> Don't forget to look out for the robber! </p>","","instructions","","","","","","","","","","","","","",""
"revaluation","283","1274157","0.0-4.0-2.1-0.50","spark_pilot_2","7334","8","13","Male","","","false","","","","[1176.699999999255]","./assets/img/ocean/catch/7.jpg","[""spaceBar""]","value training","ocean","0","{""ArrowUp,ArrowLeft"":23,""ArrowUp,ArrowRight"":10,""ArrowDown,ArrowLeft"":8,""ArrowDown,ArrowRight"":30}","true","spaceBar","true","","","original","2","0","","",""
"html-keyboard-response","284","1274668","0.0-4.0-2.1-1.50","spark_pilot_2","7334","8","13","Male","","","","","","","null","<div style=""font-size:60px;"">+</div>","null","fixation","","","","","","","","","","","1","","",""
"revaluation","285","1280694","0.0-4.0-2.1-0.51","spark_pilot_2","7334","8","13","Male","","","false","","","","[571.8000000007451,396.8999999985099]","./assets/img/ocean/memory/1.jpg","[""ArrowDown"",""ArrowLeft""]","value training","ocean","8","{""ArrowUp,ArrowLeft"":23,""ArrowUp,ArrowRight"":10,""ArrowDown,ArrowLeft"":8,""ArrowDown,ArrowRight"":30}","false","ArrowDown,ArrowLeft","false","","","original","2","2","","",""
"html-keyboard-response","286","1281204","0.0-4.0-2.1-1.51","spark_pilot_2","7334","8","13","Male","","","","","","","null","<div style=""font-size:60px;"">+</div>","null","fixation","","","","","","","","","","","3","","",""
"revaluation","287","1287226","0.0-4.0-2.1-0.52","spark_pilot_2","7334","8","13","Male","","","false","","","","[540.0999999977648,356.6000000014901]","./assets/img/ocean/memory/26.jpg","[""ArrowUp"",""ArrowRight""]","value training","ocean","10","{""ArrowUp,ArrowLeft"":23,""ArrowUp,ArrowRight"":10,""ArrowDown,ArrowLeft"":8,""ArrowDown,ArrowRight"":30}","false","ArrowUp,ArrowRight","false","","","original","2","4","","",""
"html-keyboard-response","288","1287729","0.0-4.0-2.1-1.52","spark_pilot_2","7334","8","13","Male","","","","","","","null","<div style=""font-size:60px;"">+</div>","null","fixation","","","","","","","","","","","5","","",""
"revaluation","289","1293755","0.0-4.0-2.1-0.53","spark_pilot_2","7334","8","13","Male","","","false","","","","[654.5999999977648,343.69999999925494]","./assets/img/ocean/memory/35.jpg","[""ArrowUp"",""ArrowLeft""]","value training","ocean","23","{""ArrowUp,ArrowLeft"":23,""ArrowUp,ArrowRight"":10,""ArrowDown,ArrowLeft"":8,""ArrowDown,ArrowRight"":30}","false","ArrowUp,ArrowLeft","false","","","original","2","6","","",""
"html-keyboard-response","290","1294260","0.0-4.0-2.1-1.53","spark_pilot_2","7334","8","13","Male","","","","","","","null","<div style=""font-size:60px;"">+</div>","null","fixation","","","","","","","","","","","7","","",""
"revaluation","291","1300283","0.0-4.0-2.1-0.54","spark_pilot_2","7334","8","13","Male","","","false","","","","[524.5,333]","./assets/img/ocean/memory/16.jpg","[""ArrowDown"",""ArrowRight""]","value training","ocean","30","{""ArrowUp,ArrowLeft"":23,""ArrowUp,ArrowRight"":10,""ArrowDown,ArrowLeft"":8,""ArrowDown,ArrowRight"":30}","true","ArrowDown,ArrowRight","false","","","original","2","8","","",""
"html-keyboard-response","292","1300785","0.0-4.0-2.1-1.54","spark_pilot_2","7334","8","13","Male","","","","","","","null","<div style=""font-size:60px;"">+</div>","null","fixation","","","","","","","","","","","9","","",""
"revaluation","293","1306811","0.0-4.0-2.1-0.55","spark_pilot_2","7334","8","13","Male","","","false","","","","[846.3999999985099,399.5]","./assets/img/ocean/memory/14.jpg","[""ArrowDown"",""ArrowRight""]","value training","ocean","30","{""ArrowUp,ArrowLeft"":23,""ArrowUp,ArrowRight"":10,""ArrowDown,ArrowLeft"":8,""ArrowDown,ArrowRight"":30}","true","ArrowDown,ArrowRight","false","","","original","2","10","","",""
"html-keyboard-response","294","1307315","0.0-4.0-2.1-1.55","spark_pilot_2","7334","8","13","Male","","","","","","","null","<div style=""font-size:60px;"">+</div>","null","fixation","","","","","","","","","","","11","","",""
"revaluation","295","1313341","0.0-4.0-2.1-0.56","spark_pilot_2","7334","8","13","Male","","","false","","","","[572.3000000007451,444.9000000022352]","./assets/img/ocean/memory/6.jpg","[""ArrowDown"",""ArrowRight""]","value training","ocean","30","{""ArrowUp,ArrowLeft"":23,""ArrowUp,ArrowRight"":10,""ArrowDown,ArrowLeft"":8,""ArrowDown,ArrowRight"":30}","true","ArrowDown,ArrowRight","false","","","original","2","12","","",""
"html-keyboard-response","296","1313852","0.0-4.0-2.1-1.56","spark_pilot_2","7334","8","13","Male","","","","","","","null","<div style=""font-size:60px;"">+</div>","null","fixation","","","","","","","","","","","13","","",""
"revaluation","297","1317869","0.0-4.0-2.1-0.57","spark_pilot_2","7334","8","13","Male","","","false","","","","[715.3999999985099]","./assets/img/ocean/catch/2.jpg","[""spaceBar""]","value training","ocean","0","{""ArrowUp,ArrowLeft"":23,""ArrowUp,ArrowRight"":10,""ArrowDown,ArrowLeft"":8,""ArrowDown,ArrowRight"":30}","true","spaceBar","true","","","original","2","14","","",""
"html-keyboard-response","298","1318380","0.0-4.0-2.1-1.57","spark_pilot_2","7334","8","13","Male","","","","","","","null","<div style=""font-size:60px;"">+</div>","null","fixation","","","","","","","","","","","15","","",""
"revaluation","299","1324405","0.0-4.0-2.1-0.58","spark_pilot_2","7334","8","13","Male","","","false","","","","[507.9000000022352,388.5999999977648]","./assets/img/ocean/memory/22.jpg","[""ArrowDown"",""ArrowRight""]","value training","ocean","30","{""ArrowUp,ArrowLeft"":23,""ArrowUp,ArrowRight"":10,""ArrowDown,ArrowLeft"":8,""ArrowDown,ArrowRight"":30}","true","ArrowDown,ArrowRight","false","","","original","2","16","","",""
"html-keyboard-response","300","1324916","0.0-4.0-2.1-1.58","spark_pilot_2","7334","8","13","Male","","","","","","","null","<div style=""font-size:60px;"">+</div>","null","fixation","","","","","","","","","","","17","","",""
"revaluation","301","1330942","0.0-4.0-2.1-0.59","spark_pilot_2","7334","8","13","Male","","","false","","","","[707.3000000007451,388.19999999925494]","./assets/img/ocean/memory/13.jpg","[""ArrowDown"",""ArrowRight""]","value training","ocean","30","{""ArrowUp,ArrowLeft"":23,""ArrowUp,ArrowRight"":10,""ArrowDown,ArrowLeft"":8,""ArrowDown,ArrowRight"":30}","true","ArrowDown,ArrowRight","false","","","original","2","18","","",""
"html-keyboard-response","302","1331452","0.0-4.0-2.1-1.59","spark_pilot_2","7334","8","13","Male","","","","","","","null","<div style=""font-size:60px;"">+</div>","null","fixation","","","","","","","","","","","19","","",""
"revaluation","303","1337473","0.0-4.0-2.1-0.60","spark_pilot_2","7334","8","13","Male","","","false","","","","[572.4000000022352,659.6999999992549]","./assets/img/ocean/memory/37.jpg","[""ArrowDown"",""ArrowRight""]","value training","ocean","30","{""ArrowUp,ArrowLeft"":23,""ArrowUp,ArrowRight"":10,""ArrowDown,ArrowLeft"":8,""ArrowDown,ArrowRight"":30}","true","ArrowDown,ArrowRight","false","","","original","2","20","","",""
"html-keyboard-response","304","1337977","0.0-4.0-2.1-1.60","spark_pilot_2","7334","8","13","Male","","","","","","","null","<div style=""font-size:60px;"">+</div>","null","fixation","","","","","","","","","","","21","","",""
"revaluation","305","1344004","0.0-4.0-2.1-0.61","spark_pilot_2","7334","8","13","Male","","","false","","","","[525.6999999992549,438.69999999925494]","./assets/img/ocean/memory/2.jpg","[""ArrowDown"",""ArrowRight""]","value training","ocean","30","{""ArrowUp,ArrowLeft"":23,""ArrowUp,ArrowRight"":10,""ArrowDown,ArrowLeft"":8,""ArrowDown,ArrowRight"":30}","true","ArrowDown,ArrowRight","false","","","original","2","22","","",""
"html-keyboard-response","306","1344513","0.0-4.0-2.1-1.61","spark_pilot_2","7334","8","13","Male","","","","","","","null","<div style=""font-size:60px;"">+</div>","null","fixation","","","","","","","","","","","23","","",""
