"trial_type","trial_index","time_elapsed","internal_node_id","task_version","subject_id","assigned_condition","age","gender","success","timeout","failed_images","failed_audio","failed_video","browser_interaction","rt","stimulus","response","task_part","environment","score","rewardMap","correct","fullState","isCatch","numberMissed","duration","condition","order","trial_num","key_press","ground_truth","bonus"
"pavlovia","0","1085","0.0-0.0","spark_pilot_2","7301","1","11","Male","","","","","","","","","","","","","","","","","","","","","","","",""
"preload","1","12333","0.0-1.0","spark_pilot_2","7301","1","11","Male","true","false","[]","[]","[]","[{""event"":""fullscreenenter"",""trial"":2,""time"":16149},{""event"":""blur"",""trial"":8,""time"":74281},{""event"":""focus"",""trial"":8,""time"":75463},{""event"":""blur"",""trial"":8,""time"":75471},{""event"":""focus"",""trial"":8,""time"":76499},{""event"":""blur"",""trial"":8,""time"":76505},{""event"":""focus"",""trial"":8,""time"":81674}]","","","","","","","","","","","","","","","","","",""
"fullscreen","2","17145","0.0-2.0","spark_pilot_2","7301","1","11","Male","true","","","","","","","","","","","","","","","","","","","","","","",""
"audio-button-response","3","18639","0.0-3.0-0.0-0.0","spark_pilot_2","7301","1","11","Male","","","","","","","1480","./assets/audio/audiotest/turtle.mp3","2","audio_test","","","","","","","","","","","","","",""
"learning-instructions","4","34495","0.0-3.0-1.0-0.0","spark_pilot_2","7301","1","11","Male","","","","","","","8859.59999999404","<p> Welcome! Please remember to stay in fullscreen mode and don't click away from the experiment. </p>","","instructions","","","","","","","","","","","","","",""
"learning-instructions","5","44188","0.0-3.0-1.0-0.1","spark_pilot_2","7301","1","11","Male","","","","","","","1256.5999999940395","<p> Today you will be playing a game to earn treasure. </p>
            <p> At the end of the experiment, you will earn a bonus based on how much treasure you find. </p>
            <img src='./assets/img/instructions/treasure.jpg' class='instructions-image'>","","instructions","","","","","","","","","","","","","",""
"learning-instructions","6","53779","0.0-3.0-1.0-0.2","spark_pilot_2","7301","1","11","Male","","","","","","","1309.800000011921","<p> Animals have hidden treasure in treasure chests. </p>
            <p> You need to first find an animal and then choose which of their treasure chests to search. </p>
            <img src='./assets/img/space/animals/cat.jpg' class='instructions-image'>","","instructions","","","","","","","","","","","","","",""
"learning-instructions","7","68611","0.0-3.0-1.0-0.3","spark_pilot_2","7301","1","11","Male","","","","","","[{""event"":""fullscreenenter"",""trial"":2,""time"":16149},{""event"":""blur"",""trial"":8,""time"":74281},{""event"":""focus"",""trial"":8,""time"":75463},{""event"":""blur"",""trial"":8,""time"":75471},{""event"":""focus"",""trial"":8,""time"":76499},{""event"":""blur"",""trial"":8,""time"":76505},{""event"":""focus"",""trial"":8,""time"":81674}]","1646.2000000029802","<p> In each round, you will search for treasure in a different place. In the real game, there will be two rounds. </p>
            <p> You will begin with a separate, practice round where you will search for treasure in outer space. </p>
            <img src='./assets/img/space/0.jpg' class='instructions-image'>","","instructions","","","","","","","","","","","","","",""
"learning-instructions","8","81941","0.0-3.0-1.0-0.4","spark_pilot_2","7301","1","11","Male","","","","","","","1880.7999999970198","<p> On every turn, you will see a picture of the place that you are in, but the specific image may be different each time. </p>
            <p> For example, both of these images mean you are in outer space. </p>
            <img src='./assets/img/instructions/outerspace.jpg' class='instructions-image'>","","instructions","","","","","","","","","","","","","",""
"learning-instructions","9","91161","0.0-3.0-1.0-0.5","spark_pilot_2","7301","1","11","Male","","","","","","","1364.8999999910593","<p> You need to decide which direction to travel in. </p>
            <p> You can choose between going <b>up or down</b> by using the arrow keys. </p>
            <img src='./assets/img/instructions/updown.jpg' class='instructions-image'>","","instructions","","","","","","","","","","","","","",""
"learning-instructions","10","101105","0.0-3.0-1.0-0.6","spark_pilot_2","7301","1","11","Male","","","","","","","1109.5","<p> You will have <b>2 seconds</b> to make your choice. </p>
            <p> If you do not make a choice within 2 seconds, you will not find an animal or earn treasure. </p>
            <img src='./assets/img/instructions/2seconds.jpg' class='instructions-image'>","","instructions","","","","","","","","","","","","","",""
"learning-instructions","11","109980","0.0-3.0-1.0-0.7","spark_pilot_2","7301","1","11","Male","","","","","","","1812.0999999940395","<p> Let’s try practicing that now! </p>
            <p> When you see a picture of the place you are in, press the <b>up</b> key to travel up. </p>
            <img src='./assets/img/instructions/pressUp.jpg' class='instructions-image'>","","instructions","","","","","","","","","","","","","",""
"revaluation","12","114003","0.0-3.0-2.0-0.0","spark_pilot_2","7301","1","11","Male","","false","","","","","[927.6999999880791]","./assets/img/space/0.jpg","[""ArrowUp""]","first stage practice","space","0","null","null","ArrowUp","false","","","","","","","",""
"html-keyboard-response","13","114506","0.0-3.0-2.0-1.0","spark_pilot_2","7301","1","11","Male","","","","","","","null","<div style=""font-size:60px;"">+</div>","null","fixation","","","","","","","","","","","","","",""
"revaluation","14","118524","0.0-3.0-2.0-0.1","spark_pilot_2","7301","1","11","Male","","false","","","","","[1214.5]","./assets/img/space/1.jpg","[""ArrowUp""]","first stage practice","space","0","null","null","ArrowUp","false","","","","","","","",""
"html-keyboard-response","15","119026","0.0-3.0-2.0-1.1","spark_pilot_2","7301","1","11","Male","","","","","","","null","<div style=""font-size:60px;"">+</div>","null","fixation","","","","","","","","","","","","","",""
"revaluation","16","123045","0.0-3.0-2.0-0.2","spark_pilot_2","7301","1","11","Male","","false","","","","","[728.6000000089407]","./assets/img/space/2.jpg","[""ArrowUp""]","first stage practice","space","0","null","null","ArrowUp","false","","","","","","","",""
"html-keyboard-response","17","123549","0.0-3.0-2.0-1.2","spark_pilot_2","7301","1","11","Male","","","","","","","null","<div style=""font-size:60px;"">+</div>","null","fixation","","","","","","","","","","","","","",""
"learning-instructions","18","129478","0.0-3.0-3.0-0.0","spark_pilot_2","7301","1","11","Male","","","","","","","1212.8999999910593","<p> Great job! Now try pressing the <b>down</b> key to travel down. </p>
            <img src='./assets/img/instructions/pressDown.jpg' class='instructions-image'>","","instructions","","","","","","","","","","","","","",""
"revaluation","19","133495","0.0-3.0-4.0-0.0","spark_pilot_2","7301","1","11","Male","","false","","","","","[1917.2000000029802]","./assets/img/space/3.jpg","[""ArrowDown""]","first stage practice","space","0","null","null","ArrowDown","false","","","","","","","",""
"html-keyboard-response","20","133999","0.0-3.0-4.0-1.0","spark_pilot_2","7301","1","11","Male","","","","","","","null","<div style=""font-size:60px;"">+</div>","null","fixation","","","","","","","","","","","","","",""
"revaluation","21","138015","0.0-3.0-4.0-0.1","spark_pilot_2","7301","1","11","Male","","false","","","","","[629.9000000059605]","./assets/img/space/4.jpg","[""ArrowDown""]","first stage practice","space","0","null","null","ArrowDown","false","","","","","","","",""
"html-keyboard-response","22","138519","0.0-3.0-4.0-1.1","spark_pilot_2","7301","1","11","Male","","","","","","","null","<div style=""font-size:60px;"">+</div>","null","fixation","","","","","","","","","","","","","",""
"revaluation","23","142535","0.0-3.0-4.0-0.2","spark_pilot_2","7301","1","11","Male","","false","","","","","[849.7999999970198]","./assets/img/space/5.jpg","[""ArrowDown""]","first stage practice","space","0","null","null","ArrowDown","false","","","","","","","",""
"html-keyboard-response","24","143040","0.0-3.0-4.0-1.2","spark_pilot_2","7301","1","11","Male","","","","","","","null","<div style=""font-size:60px;"">+</div>","null","fixation","","","","","","","","","","","","","",""
"learning-instructions","25","154007","0.0-3.0-5.0-0.0","spark_pilot_2","7301","1","11","Male","","","","","","","1085.2999999970198","<p> The animals don’t move, so the animal in the upper part of a place will stay in the upper part of a place, and the animal in the lower part of a place will stay in the lower part of a place. </p>","","instructions","","","","","","","","","","","","","",""
"learning-instructions","26","163743","0.0-3.0-5.0-0.1","spark_pilot_2","7301","1","11","Male","","","","","","","580.7999999970198","<p> Each animal has two treasure chests for you to choose from. </p>
            <p> The amount of treasure in each chest can range from <b> 0 to 40 pieces.</b></p>","","instructions","","","","","","","","","","","","","",""
"learning-instructions","27","177325","0.0-3.0-5.0-0.2","spark_pilot_2","7301","1","11","Male","","","","","","","2361.0999999940395","<p> You should decide which chest to search for treasure by using the <b>left</b> and <b>right</b> arrow keys. </p>
            <p><b> Pay attention to which animal is on the screen, as the animals have different treasure chests. </b></p>
            <img src='./assets/img/instructions/leftright.jpg' class='instructions-image'>","","instructions","","","","","","","","","","","","","",""
"learning-instructions","28","184369","0.0-3.0-5.0-0.3","spark_pilot_2","7301","1","11","Male","","","","","","","657","<p> Let’s try practicing that now. </p>
            <p> When you see an animal, choose which chest to search for treasure. </p>
            <img src='./assets/img/instructions/chooseChest.jpg' class='instructions-image'>","","instructions","","","","","","","","","","","","","",""
"revaluation","29","188385","0.0-3.0-6.0-0.0","spark_pilot_2","7301","1","11","Male","","false","","","","","[1318.3999999910593]","./assets/img/space/animals/cat.jpg","[""ArrowRight""]","second stage practice","space","36","{""ArrowUp,ArrowLeft"":3,""ArrowUp,ArrowRight"":36,""ArrowDown,ArrowLeft"":15,""ArrowDown,ArrowRight"":23}","true","ArrowUp,ArrowRight","","","","","","","","",""
"html-keyboard-response","30","188889","0.0-3.0-6.0-1.0","spark_pilot_2","7301","1","11","Male","","","","","","","null","<div style=""font-size:60px;"">+</div>","null","fixation","","","","","","","","","","","","","",""
"revaluation","31","192906","0.0-3.0-6.0-0.1","spark_pilot_2","7301","1","11","Male","","false","","","","","[725.2999999970198]","./assets/img/space/animals/cat.jpg","[""ArrowRight""]","second stage practice","space","36","{""ArrowUp,ArrowLeft"":3,""ArrowUp,ArrowRight"":36,""ArrowDown,ArrowLeft"":15,""ArrowDown,ArrowRight"":23}","true","ArrowUp,ArrowRight","","","","","","","","",""
"html-keyboard-response","32","193410","0.0-3.0-6.0-1.1","spark_pilot_2","7301","1","11","Male","","","","","","","null","<div style=""font-size:60px;"">+</div>","null","fixation","","","","","","","","","","","","","",""
"revaluation","33","197427","0.0-3.0-6.0-0.2","spark_pilot_2","7301","1","11","Male","","false","","","","","[752.7999999970198]","./assets/img/space/animals/rabbit.jpg","[""ArrowLeft""]","second stage practice","space","15","{""ArrowUp,ArrowLeft"":3,""ArrowUp,ArrowRight"":36,""ArrowDown,ArrowLeft"":15,""ArrowDown,ArrowRight"":23}","false","ArrowDown,ArrowLeft","","","","","","","","",""
"html-keyboard-response","34","197930","0.0-3.0-6.0-1.2","spark_pilot_2","7301","1","11","Male","","","","","","","null","<div style=""font-size:60px;"">+</div>","null","fixation","","","","","","","","","","","","","",""
"revaluation","35","201946","0.0-3.0-6.0-0.3","spark_pilot_2","7301","1","11","Male","","false","","","","","[382.40000000596046]","./assets/img/space/animals/rabbit.jpg","[""ArrowRight""]","second stage practice","space","23","{""ArrowUp,ArrowLeft"":3,""ArrowUp,ArrowRight"":36,""ArrowDown,ArrowLeft"":15,""ArrowDown,ArrowRight"":23}","true","ArrowDown,ArrowRight","","","","","","","","",""
"html-keyboard-response","36","202450","0.0-3.0-6.0-1.3","spark_pilot_2","7301","1","11","Male","","","","","","","null","<div style=""font-size:60px;"">+</div>","null","fixation","","","","","","","","","","","","","",""
"learning-instructions","37","222167","0.0-3.0-7.0-0.0","spark_pilot_2","7301","1","11","Male","","","","","","","2864.1000000089407","<p> Great job. Now let’s try putting it together. </p>
            <p> On each turn, you will first see a picture to remind you of the place you are in, and you need to choose whether to go up or down. </p>
            <p> Then you will see an animal and choose which of its chests to search for treasure. </p>","","instructions","","","","","","","","","","","","","",""
"learning-instructions","38","231634","0.0-3.0-7.0-0.1","spark_pilot_2","7301","1","11","Male","","","","","","","1184.6000000089407","<p> When you choose whether to go up or down, try to go to the animal with the chest with the most treasure. </p>
            <p> Try practicing that now! </p>","","instructions","","","","","","","","","","","","","",""
"revaluation","39","237659","0.0-3.0-8.0-0.0","spark_pilot_2","7301","1","11","Male","","false","","","","","[908.9000000059605,568.1000000089407]","./assets/img/space/6.jpg","[""ArrowUp"",""ArrowRight""]","full practice","space","36","{""ArrowUp,ArrowLeft"":3,""ArrowUp,ArrowRight"":36,""ArrowDown,ArrowLeft"":15,""ArrowDown,ArrowRight"":23}","true","ArrowUp,ArrowRight","false","","","","","","","",""
"html-keyboard-response","40","238163","0.0-3.0-8.0-1.0","spark_pilot_2","7301","1","11","Male","","","","","","","null","<div style=""font-size:60px;"">+</div>","null","fixation","","","","","","","","","","","","","",""
"revaluation","41","244190","0.0-3.0-8.0-0.1","spark_pilot_2","7301","1","11","Male","","false","","","","","[520.6000000089407,345.20000000298023]","./assets/img/space/7.jpg","[""ArrowUp"",""ArrowLeft""]","full practice","space","3","{""ArrowUp,ArrowLeft"":3,""ArrowUp,ArrowRight"":36,""ArrowDown,ArrowLeft"":15,""ArrowDown,ArrowRight"":23}","false","ArrowUp,ArrowLeft","false","","","","","","","",""
"html-keyboard-response","42","244700","0.0-3.0-8.0-1.1","spark_pilot_2","7301","1","11","Male","","","","","","","null","<div style=""font-size:60px;"">+</div>","null","fixation","","","","","","","","","","","","","",""
"revaluation","43","250724","0.0-3.0-8.0-0.2","spark_pilot_2","7301","1","11","Male","","false","","","","","[176.8999999910593,435.5]","./assets/img/space/8.jpg","[""ArrowUp"",""ArrowRight""]","full practice","space","36","{""ArrowUp,ArrowLeft"":3,""ArrowUp,ArrowRight"":36,""ArrowDown,ArrowLeft"":15,""ArrowDown,ArrowRight"":23}","true","ArrowUp,ArrowRight","false","","","","","","","",""
"html-keyboard-response","44","251227","0.0-3.0-8.0-1.2","spark_pilot_2","7301","1","11","Male","","","","","","","null","<div style=""font-size:60px;"">+</div>","null","fixation","","","","","","","","","","","","","",""
"revaluation","45","257251","0.0-3.0-8.0-0.3","spark_pilot_2","7301","1","11","Male","","false","","","","","[726.5,686.7999999970198]","./assets/img/space/9.jpg","[""ArrowUp"",""ArrowRight""]","full practice","space","36","{""ArrowUp,ArrowLeft"":3,""ArrowUp,ArrowRight"":36,""ArrowDown,ArrowLeft"":15,""ArrowDown,ArrowRight"":23}","true","ArrowUp,ArrowRight","false","","","","","","","",""
"html-keyboard-response","46","257756","0.0-3.0-8.0-1.3","spark_pilot_2","7301","1","11","Male","","","","","","","null","<div style=""font-size:60px;"">+</div>","null","fixation","","","","","","","","","","","","","",""
"revaluation","47","263783","0.0-3.0-8.0-0.4","spark_pilot_2","7301","1","11","Male","","false","","","","","[633.9000000059605,400]","./assets/img/space/10.jpg","[""ArrowUp"",""ArrowRight""]","full practice","space","36","{""ArrowUp,ArrowLeft"":3,""ArrowUp,ArrowRight"":36,""ArrowDown,ArrowLeft"":15,""ArrowDown,ArrowRight"":23}","true","ArrowUp,ArrowRight","false","","","","","","","",""
"html-keyboard-response","48","264293","0.0-3.0-8.0-1.4","spark_pilot_2","7301","1","11","Male","","","","","","","null","<div style=""font-size:60px;"">+</div>","null","fixation","","","","","","","","","","","","","",""
"learning-instructions","49","280372","0.0-3.0-9.0-0.0","spark_pilot_2","7301","1","11","Male","","","","","","","5729.20000000298","<p> One last thing: sometimes, you will see a robber. The robber can be anywhere in the picture. </p>
            <p> If you do not stop them, you will lose treasure. </p>
            <img src='./assets/img/instructions/robber.jpg' class='instructions-image'>","","instructions","","","","","","","","","","","","","",""
"learning-instructions","50","288453","0.0-3.0-9.0-0.1","spark_pilot_2","7301","1","11","Male","","","","","","","894.3000000119209","<p> If you see the robber, you should <b>press the space bar</b> rather than using the arrow keys. </p>
            <p> Try practicing that now! </p>","","instructions","","","","","","","","","","","","","",""
"revaluation","51","292468","0.0-3.0-10.0-0.0","spark_pilot_2","7301","1","11","Male","","false","","","","","[890.5]","./assets/img/space/catch/0.jpg","[""spaceBar""]","catch practice","space","0","{""ArrowUp,ArrowLeft"":3,""ArrowUp,ArrowRight"":36,""ArrowDown,ArrowLeft"":15,""ArrowDown,ArrowRight"":23}","true","spaceBar","true","","","","","","","",""
"html-keyboard-response","52","292972","0.0-3.0-10.0-1.0","spark_pilot_2","7301","1","11","Male","","","","","","","null","<div style=""font-size:60px;"">+</div>","null","fixation","","","","","","","","","","","","","",""
"revaluation","53","296988","0.0-3.0-10.0-0.1","spark_pilot_2","7301","1","11","Male","","false","","","","","[626.1000000089407]","./assets/img/space/catch/1.jpg","[""spaceBar""]","catch practice","space","0","{""ArrowUp,ArrowLeft"":3,""ArrowUp,ArrowRight"":36,""ArrowDown,ArrowLeft"":15,""ArrowDown,ArrowRight"":23}","true","spaceBar","true","","","","","","","",""
"html-keyboard-response","54","297491","0.0-3.0-10.0-1.1","spark_pilot_2","7301","1","11","Male","","","","","","","null","<div style=""font-size:60px;"">+</div>","null","fixation","","","","","","","","","","","","","",""
"revaluation","55","301508","0.0-3.0-10.0-0.2","spark_pilot_2","7301","1","11","Male","","false","","","","","[580]","./assets/img/space/catch/2.jpg","[""spaceBar""]","catch practice","space","0","{""ArrowUp,ArrowLeft"":3,""ArrowUp,ArrowRight"":36,""ArrowDown,ArrowLeft"":15,""ArrowDown,ArrowRight"":23}","true","spaceBar","true","","","","","","","",""
"html-keyboard-response","56","302013","0.0-3.0-10.0-1.2","spark_pilot_2","7301","1","11","Male","","","","","","","null","<div style=""font-size:60px;"">+</div>","null","fixation","","","","","","","","","","","","","",""
"learning-instructions","57","317769","0.0-3.0-11.0-0.0","spark_pilot_2","7301","1","11","Male","","","","","","","2060.5","<p> After you explore a place to find treasure, it will be time to play a different game. </p>
            <p> During this game, red dots will appear on the screen and fall down slowly. </p>
            <p><b> You must click on them before they reach the bottom. </b></p>
            <img src='./assets/img/instructions/dotGame.jpg' class='instructions-image'>","","instructions","","","","","","","","","","","","","",""
"learning-instructions","58","325188","0.0-3.0-11.0-0.1","spark_pilot_2","7301","1","11","Male","","","","","","","1724.2000000029802","<p> For every dot you click, you will earn additional treasure. </p>
            <p> Let’s try practicing that now. </p>","","instructions","","","","","","","","","","","","","",""
"revaluation","59","340199","0.0-3.0-12.0-0.0","spark_pilot_2","7301","1","11","Male","","","","","","","[75]","","","rest practice","","10","","","","","0","15000","","","","","",""
"learning-instructions","60","347565","0.0-3.0-13.0-0.0-0.0","spark_pilot_2","7301","1","11","Male","","","","","","","2116.6000000089407","<p> Now, you will practice a shortened version of the game to get a sense of how it all fits together. </p>","","instructions","","","","","","","","","","","","","",""
"learning-instructions","61","352445","0.0-3.0-13.0-0.0-0.1","spark_pilot_2","7301","1","11","Male","","","","","","","1679.199999988079","<p>This time you are searching for treasure in outer space.</p>","","instructions","","","","","","","","","","","","","",""
"learning-instructions","62","370115","0.0-3.0-13.0-1.0-0.0","spark_pilot_2","7301","1","11","Male","","","","","","","2857.0999999940395","<p> Remember, when you see a picture of the place, use the up and down keys to <b>find an animal</b>.</p>
            <p> When you encounter an animal, you should use the left and right keys to <b>select a treasure chest</b>.</p>
            <p> Don't forget to look out for the robber! </p>","","instructions","","","","","","","","","","","","","",""
"revaluation","63","376134","0.0-3.0-13.0-2.0-0.0","spark_pilot_2","7301","1","11","Male","","false","","","","","[1031.2000000029802,442.59999999403954]","./assets/img/space/11.jpg","[""ArrowUp"",""ArrowRight""]","practice block","space","36","{""ArrowUp,ArrowLeft"":3,""ArrowUp,ArrowRight"":36,""ArrowDown,ArrowLeft"":15,""ArrowDown,ArrowRight"":23}","true","ArrowUp,ArrowRight","false","","","","","","","",""
"html-keyboard-response","64","376638","0.0-3.0-13.0-2.0-1.0","spark_pilot_2","7301","1","11","Male","","","","","","","null","<div style=""font-size:60px;"">+</div>","null","fixation","","","","","","","","","","","","","",""
"revaluation","65","382663","0.0-3.0-13.0-2.0-0.1","spark_pilot_2","7301","1","11","Male","","false","","","","","[808.3999999910593,462.29999999701977]","./assets/img/space/12.jpg","[""ArrowUp"",""ArrowRight""]","practice block","space","36","{""ArrowUp,ArrowLeft"":3,""ArrowUp,ArrowRight"":36,""ArrowDown,ArrowLeft"":15,""ArrowDown,ArrowRight"":23}","true","ArrowUp,ArrowRight","false","","","","","","","",""
"html-keyboard-response","66","383166","0.0-3.0-13.0-2.0-1.1","spark_pilot_2","7301","1","11","Male","","","","","","","null","<div style=""font-size:60px;"">+</div>","null","fixation","","","","","","","","","","","","","",""
"revaluation","67","389195","0.0-3.0-13.0-2.0-0.2","spark_pilot_2","7301","1","11","Male","","false","","","","","[909.7999999970198,356]","./assets/img/space/13.jpg","[""ArrowUp"",""ArrowRight""]","practice block","space","36","{""ArrowUp,ArrowLeft"":3,""ArrowUp,ArrowRight"":36,""ArrowDown,ArrowLeft"":15,""ArrowDown,ArrowRight"":23}","true","ArrowUp,ArrowRight","false","","","","","","","",""
"html-keyboard-response","68","389703","0.0-3.0-13.0-2.0-1.2","spark_pilot_2","7301","1","11","Male","","","","","","","null","<div style=""font-size:60px;"">+</div>","null","fixation","","","","","","","","","","","","","",""
"revaluation","69","395726","0.0-3.0-13.0-2.0-0.3","spark_pilot_2","7301","1","11","Male","","false","","","","","[894.2000000029802,586.1999999880791]","./assets/img/space/14.jpg","[""ArrowUp"",""ArrowRight""]","practice block","space","36","{""ArrowUp,ArrowLeft"":3,""ArrowUp,ArrowRight"":36,""ArrowDown,ArrowLeft"":15,""ArrowDown,ArrowRight"":23}","true","ArrowUp,ArrowRight","false","","","","","","","",""
"html-keyboard-response","70","396234","0.0-3.0-13.0-2.0-1.3","spark_pilot_2","7301","1","11","Male","","","","","","","null","<div style=""font-size:60px;"">+</div>","null","fixation","","","","","","","","","","","","","",""
"revaluation","71","402258","0.0-3.0-13.0-2.0-0.4","spark_pilot_2","7301","1","11","Male","","false","","","","","[1173.5999999940395,743.5999999940395]","./assets/img/space/11.jpg","[""ArrowUp"",""ArrowRight""]","practice block","space","36","{""ArrowUp,ArrowLeft"":3,""ArrowUp,ArrowRight"":36,""ArrowDown,ArrowLeft"":15,""ArrowDown,ArrowRight"":23}","true","ArrowUp,ArrowRight","false","","","","","","","",""
"html-keyboard-response","72","402768","0.0-3.0-13.0-2.0-1.4","spark_pilot_2","7301","1","11","Male","","","","","","","null","<div style=""font-size:60px;"">+</div>","null","fixation","","","","","","","","","","","","","",""
"revaluation","73","408794","0.0-3.0-13.0-2.0-0.5","spark_pilot_2","7301","1","11","Male","","false","","","","","[953.2000000029802,525.5]","./assets/img/space/12.jpg","[""ArrowUp"",""ArrowRight""]","practice block","space","36","{""ArrowUp,ArrowLeft"":3,""ArrowUp,ArrowRight"":36,""ArrowDown,ArrowLeft"":15,""ArrowDown,ArrowRight"":23}","true","ArrowUp,ArrowRight","false","","","","","","","",""
"html-keyboard-response","74","409305","0.0-3.0-13.0-2.0-1.5","spark_pilot_2","7301","1","11","Male","","","","","","","null","<div style=""font-size:60px;"">+</div>","null","fixation","","","","","","","","","","","","","",""
"revaluation","75","415331","0.0-3.0-13.0-2.0-0.6","spark_pilot_2","7301","1","11","Male","","false","","","","","[1009.5,830.4000000059605]","./assets/img/space/13.jpg","[""ArrowUp"",""ArrowRight""]","practice block","space","36","{""ArrowUp,ArrowLeft"":3,""ArrowUp,ArrowRight"":36,""ArrowDown,ArrowLeft"":15,""ArrowDown,ArrowRight"":23}","true","ArrowUp,ArrowRight","false","","","","","","","",""
"html-keyboard-response","76","415841","0.0-3.0-13.0-2.0-1.6","spark_pilot_2","7301","1","11","Male","","","","","","","null","<div style=""font-size:60px;"">+</div>","null","fixation","","","","","","","","","","","","","",""
"revaluation","77","421868","0.0-3.0-13.0-2.0-0.7","spark_pilot_2","7301","1","11","Male","","false","","","","","[809.2000000029802,676.5]","./assets/img/space/14.jpg","[""ArrowUp"",""ArrowRight""]","practice block","space","36","{""ArrowUp,ArrowLeft"":3,""ArrowUp,ArrowRight"":36,""ArrowDown,ArrowLeft"":15,""ArrowDown,ArrowRight"":23}","true","ArrowUp,ArrowRight","false","","","","","","","",""
"html-keyboard-response","78","422378","0.0-3.0-13.0-2.0-1.7","spark_pilot_2","7301","1","11","Male","","","","","","","null","<div style=""font-size:60px;"">+</div>","null","fixation","","","","","","","","","","","","","",""
"revaluation","79","426396","0.0-3.0-13.0-2.0-0.8","spark_pilot_2","7301","1","11","Male","","false","","","","","[643.8999999910593]","./assets/img/space/catch/3.jpg","[""spaceBar""]","practice block","space","0","{""ArrowUp,ArrowLeft"":3,""ArrowUp,ArrowRight"":36,""ArrowDown,ArrowLeft"":15,""ArrowDown,ArrowRight"":23}","true","spaceBar","true","","","","","","","",""
"html-keyboard-response","80","426906","0.0-3.0-13.0-2.0-1.8","spark_pilot_2","7301","1","11","Male","","","","","","","null","<div style=""font-size:60px;"">+</div>","null","fixation","","","","","","","","","","","","","",""
"learning-instructions","81","441791","0.0-3.0-13.0-3.0-0.0","spark_pilot_2","7301","1","11","Male","","","","","","","1789.2000000029802","<p> Now, you will travel with a friend who will choose whether you go up or down first. </p>
            <p> On these turns, you will just see the animal that they found. You will still get to choose which chest to search for treasure.</p>","","instructions","","","","","","","","","","","","","",""
"revaluation","82","445807","0.0-3.0-13.0-4.0-0.0","spark_pilot_2","7301","1","11","Male","","false","","","","","[1285.199999988079]","./assets/img/space/animals/cat.jpg","[""ArrowRight""]","practice block","space","36","{""ArrowUp,ArrowLeft"":3,""ArrowUp,ArrowRight"":36,""ArrowDown,ArrowLeft"":15,""ArrowDown,ArrowRight"":23}","true","ArrowUp,ArrowRight","","","","","","","","",""
"html-keyboard-response","83","446310","0.0-3.0-13.0-4.0-1.0","spark_pilot_2","7301","1","11","Male","","","","","","","null","<div style=""font-size:60px;"">+</div>","null","fixation","","","","","","","","","","","","","",""
"revaluation","84","450329","0.0-3.0-13.0-4.0-0.1","spark_pilot_2","7301","1","11","Male","","false","","","","","[581.5]","./assets/img/space/animals/cat.jpg","[""ArrowRight""]","practice block","space","36","{""ArrowUp,ArrowLeft"":3,""ArrowUp,ArrowRight"":36,""ArrowDown,ArrowLeft"":15,""ArrowDown,ArrowRight"":23}","true","ArrowUp,ArrowRight","","","","","","","","",""
"html-keyboard-response","85","450833","0.0-3.0-13.0-4.0-1.1","spark_pilot_2","7301","1","11","Male","","","","","","","null","<div style=""font-size:60px;"">+</div>","null","fixation","","","","","","","","","","","","","",""
"revaluation","86","454848","0.0-3.0-13.0-4.0-0.2","spark_pilot_2","7301","1","11","Male","","false","","","","","[851.9000000059605]","./assets/img/space/animals/rabbit.jpg","[""ArrowRight""]","practice block","space","23","{""ArrowUp,ArrowLeft"":3,""ArrowUp,ArrowRight"":36,""ArrowDown,ArrowLeft"":15,""ArrowDown,ArrowRight"":23}","true","ArrowDown,ArrowRight","","","","","","","","",""
"html-keyboard-response","87","455352","0.0-3.0-13.0-4.0-1.2","spark_pilot_2","7301","1","11","Male","","","","","","","null","<div style=""font-size:60px;"">+</div>","null","fixation","","","","","","","","","","","","","",""
"revaluation","88","459367","0.0-3.0-13.0-4.0-0.3","spark_pilot_2","7301","1","11","Male","","false","","","","","[1130.4000000059605]","./assets/img/space/animals/rabbit.jpg","[""ArrowRight""]","practice block","space","23","{""ArrowUp,ArrowLeft"":3,""ArrowUp,ArrowRight"":36,""ArrowDown,ArrowLeft"":15,""ArrowDown,ArrowRight"":23}","true","ArrowDown,ArrowRight","","","","","","","","",""
"html-keyboard-response","89","459872","0.0-3.0-13.0-4.0-1.3","spark_pilot_2","7301","1","11","Male","","","","","","","null","<div style=""font-size:60px;"">+</div>","null","fixation","","","","","","","","","","","","","",""
"learning-instructions","90","468874","0.0-3.0-13.0-5.0-0.0","spark_pilot_2","7301","1","11","Male","","","","","","","1611.2000000029802","<p> Time to play the dot game! </p>
            <p> For 15 seconds, click the red dots on the following screen as they appear. </p>","","instructions","","","","","","","","","","","","","",""
"revaluation","91","483875","0.0-3.0-13.0-6.0-0.0","spark_pilot_2","7301","1","11","Male","","","","","","","[120]","","","rest practice","","10","","","","","0","15000","","","","","",""
"learning-instructions","92","491852","0.0-3.0-13.0-7.0-0.0","spark_pilot_2","7301","1","11","Male","","","","","","","1827.2999999970198","<p> You have almost finished this part of the game! </p>
            <p> We are going to ask you to make a few more choices. </p>","","instructions","","","","","","","","","","","","","",""
"learning-instructions","93","508970","0.0-3.0-13.0-7.0-0.1","spark_pilot_2","7301","1","11","Male","","","","","","","3068.7000000029802","<p> First, you need to decide whether to go up or down. When you see each picture, use the arrow keys to make your choice. </p>
            <p><b>You will not see which animal you found, but try to get to the one that will give you the most treasure.</b></p>","","instructions","","","","","","","","","","","","","",""
"revaluation","94","510154","0.0-3.0-13.0-8.0","spark_pilot_2","7301","1","11","Male","","false","","","","","[1181.7999999970198]","./assets/img/space/15.jpg","[""ArrowUp""]","practice block","space","0","{""ArrowUp,ArrowLeft"":3,""ArrowUp,ArrowRight"":36,""ArrowDown,ArrowLeft"":15,""ArrowDown,ArrowRight"":23}","true","ArrowUp","false","","","","","","","",""
"html-keyboard-response","95","510658","0.0-3.0-13.0-9.0","spark_pilot_2","7301","1","11","Male","","","","","","","null","<div style=""font-size:60px;"">+</div>","null","fixation","","","","","","","","","","","","","",""
"learning-instructions","96","523348","0.0-3.0-13.0-10.0-0.0","spark_pilot_2","7301","1","11","Male","","","","","","","1284.5","<p> Now you will see the animals again and can search their chests for treasure. </p>
            <p> This time, you will not see how much treasure you earned, but you will earn more bonus money for making better choices. </p>","","instructions","","","","","","","","","","","","","",""
"revaluation","97","524270","0.0-3.0-13.0-11.0-0.0","spark_pilot_2","7301","1","11","Male","","false","","","","","[921]","./assets/img/space/animals/cat.jpg","[""ArrowRight""]","practice block","space","0","{""ArrowUp,ArrowLeft"":3,""ArrowUp,ArrowRight"":36,""ArrowDown,ArrowLeft"":15,""ArrowDown,ArrowRight"":23}","true","ArrowUp,ArrowRight","","","","","","","","",""
"html-keyboard-response","98","524777","0.0-3.0-13.0-11.0-1.0","spark_pilot_2","7301","1","11","Male","","","","","","","null","<div style=""font-size:60px;"">+</div>","null","fixation","","","","","","","","","","","","","",""
"revaluation","99","525861","0.0-3.0-13.0-11.0-0.1","spark_pilot_2","7301","1","11","Male","","false","","","","","[1082.0999999940395]","./assets/img/space/animals/rabbit.jpg","[""ArrowRight""]","practice block","space","0","{""ArrowUp,ArrowLeft"":3,""ArrowUp,ArrowRight"":36,""ArrowDown,ArrowLeft"":15,""ArrowDown,ArrowRight"":23}","true","ArrowDown,ArrowRight","","","","","","","","",""
"html-keyboard-response","100","526370","0.0-3.0-13.0-11.0-1.1","spark_pilot_2","7301","1","11","Male","","","","","","","null","<div style=""font-size:60px;"">+</div>","null","fixation","","","","","","","","","","","","","",""
"learning-instructions","101","532273","0.0-3.0-14.0-0.0","spark_pilot_2","7301","1","11","Male","","","","","","","1304.5","<p> Before you start, we're going to ask you a few questions about how the game works. </p>","","instructions","","","","","","","","","","","","","",""
"comp-q","102","538882","0.0-3.0-15.0-0.0-0.0","spark_pilot_2","7301","1","11","Male","","","","","","","1008","<p> <b> True or False? </b> </p>
            <p> There can be 50 pieces of treasure in a given animal's chest. </p>","1","comp_question","","","","true","","","","","","","","","",""
"comp-q","103","547373","0.0-3.0-15.0-0.0-1.0","spark_pilot_2","7301","1","11","Male","","","","","","","1810.7999999970198","<p> <b> That's right! </b> The amount of treasure in each chest can range from 0 to 40 pieces. </p>","0","comp_answer","","","","","","","","","","","","","",""
"comp-q","104","555484","0.0-3.0-15.0-0.1-0.1","spark_pilot_2","7301","1","11","Male","","","","","","","971.0999999940395","<p> <b> True or False? </b> </p><p> In this game, all animals have the same amount of treasure in their left and right chests. </p>","1","comp_question","","","","true","","","","","","","","","",""
"comp-q","105","562583","0.0-3.0-15.0-0.1-1.1","spark_pilot_2","7301","1","11","Male","","","","","","","1852.2000000029802","<p> <b> That's right! </b> Animals have different amounts of treasure in their treasure chests. </p>","0","comp_answer","","","","","","","","","","","","","",""
"comp-q","106","570179","0.0-3.0-15.0-0.2-0.2","spark_pilot_2","7301","1","11","Male","","","","","","","1733.7000000029802","<p> <b> True or False? </b> </p><p> The same animal will always be there if you go up in the same place. </p>","0","comp_question","","","","true","","","","","","","","","",""
"comp-q","107","578797","0.0-3.0-15.0-0.2-1.2","spark_pilot_2","7301","1","11","Male","","","","","","","2154","<p> <b> That's right! </b> One animal lives in the upper part and one lives in the lower part of every place. </p>","0","comp_answer","","","","","","","","","","","","","",""
"comp-q","108","584933","0.0-3.0-15.0-0.3-0.3","spark_pilot_2","7301","1","11","Male","","","","","","","598.7000000029802","<p> <b> True or False? </b> </p><p> If you see a different picture, it means you are in a new place. </p>","1","comp_question","","","","true","","","","","","","","","",""
"comp-q","109","599882","0.0-3.0-15.0-0.3-1.3","spark_pilot_2","7301","1","11","Male","","","","","","","3693.199999988079","<p> <b> That's right! </b> Lots of different images may show the same place. For example,  you may see three different images that all remind you that you are in outer space. </p>","0","comp_answer","","","","","","","","","","","","","",""
"learning-instructions","110","611801","0.0-3.0-16.0-0.0","spark_pilot_2","7301","1","11","Male","","","","","","","2040.5999999940395","<p> Good job. Remember to do your best because the amount of treasure you earn will be converted into bonus money. </p>
            <p> It’s time to start the real game! </p>","","instructions","","","","","","","","","","","","","",""
"learning-instructions","111","616836","0.0-4.0-0.0-0.0","spark_pilot_2","7301","1","11","Male","","","","","","","2250.9000000059605","<p> This time you are searching for treasure in the <b>ocean</b>.</p>","","instructions","","","","","","","","","","","","","",""
"learning-instructions","112","635325","0.0-4.0-0.0-0.1","spark_pilot_2","7301","1","11","Male","","","","","","","1147.7999999970198","<p><b>New</b> animals with <b>new</b> treasure chests live here. You need to explore to discover where the animal with the best treasure chest is.</p>
                    <p> Like before, once you figure out which animal has the chest with the most treasure, you should try to get to that animal and select that chest! </p>","","instructions","","","","","","","","","","","","","",""
"learning-instructions","113","652031","0.0-4.0-1.0-0.0","spark_pilot_2","7301","1","11","Male","","","","","","","1970.4000000059605","<p> Remember, when you see a picture of the place, use the up and down keys to <b>find an animal</b>.</p>
            <p> When you encounter an animal, you should use the left and right keys to <b>select a treasure chest</b>.</p>
            <p> Don't forget to look out for the robber! </p>","","instructions","","","","","","","","","","","","","",""
"revaluation","114","658053","0.0-4.0-2.0-0.0","spark_pilot_2","7301","1","11","Male","","false","","","","","[1476.7000000029802,1141.7999999970198]","./assets/img/ocean/memory/26.jpg","[""ArrowDown"",""ArrowRight""]","value training","ocean","17","{""ArrowUp,ArrowLeft"":26,""ArrowUp,ArrowRight"":10,""ArrowDown,ArrowLeft"":5,""ArrowDown,ArrowRight"":17}","false","ArrowDown,ArrowRight","false","","","original","1","0","","",""
"html-keyboard-response","115","658564","0.0-4.0-2.0-1.0","spark_pilot_2","7301","1","11","Male","","","","","","","null","<div style=""font-size:60px;"">+</div>","null","fixation","","","","","","","","","","","1","","",""
"revaluation","116","664590","0.0-4.0-2.0-0.1","spark_pilot_2","7301","1","11","Male","","false","","","","","[335.3999999910593,564.6000000089407]","./assets/img/ocean/memory/30.jpg","[""ArrowUp"",""ArrowRight""]","value training","ocean","10","{""ArrowUp,ArrowLeft"":26,""ArrowUp,ArrowRight"":10,""ArrowDown,ArrowLeft"":5,""ArrowDown,ArrowRight"":17}","false","ArrowUp,ArrowRight","false","","","original","1","2","","",""
"html-keyboard-response","117","665093","0.0-4.0-2.0-1.1","spark_pilot_2","7301","1","11","Male","","","","","","","null","<div style=""font-size:60px;"">+</div>","null","fixation","","","","","","","","","","","3","","",""
"revaluation","118","671118","0.0-4.0-2.0-0.2","spark_pilot_2","7301","1","11","Male","","false","","","","","[337.09999999403954,283.09999999403954]","./assets/img/ocean/memory/28.jpg","[""ArrowUp"",""ArrowLeft""]","value training","ocean","26","{""ArrowUp,ArrowLeft"":26,""ArrowUp,ArrowRight"":10,""ArrowDown,ArrowLeft"":5,""ArrowDown,ArrowRight"":17}","true","ArrowUp,ArrowLeft","false","","","original","1","4","","",""
"html-keyboard-response","119","671622","0.0-4.0-2.0-1.2","spark_pilot_2","7301","1","11","Male","","","","","","","null","<div style=""font-size:60px;"">+</div>","null","fixation","","","","","","","","","","","5","","",""
"revaluation","120","675637","0.0-4.0-2.0-0.3","spark_pilot_2","7301","1","11","Male","","false","","","","","[310.59999999403954]","./assets/img/ocean/catch/5.jpg","[""ArrowDown""]","value training","ocean","-10","{""ArrowUp,ArrowLeft"":26,""ArrowUp,ArrowRight"":10,""ArrowDown,ArrowLeft"":5,""ArrowDown,ArrowRight"":17}","false","ArrowDown","true","","","original","1","6","","",""
"html-keyboard-response","121","676141","0.0-4.0-2.0-1.3","spark_pilot_2","7301","1","11","Male","","","","","","","null","<div style=""font-size:60px;"">+</div>","null","fixation","","","","","","","","","","","7","","",""
"revaluation","122","682169","0.0-4.0-2.0-0.4","spark_pilot_2","7301","1","11","Male","","false","","","","","[659.9000000059605,494.1000000089407]","./assets/img/ocean/memory/31.jpg","[""ArrowDown"",""ArrowLeft""]","value training","ocean","5","{""ArrowUp,ArrowLeft"":26,""ArrowUp,ArrowRight"":10,""ArrowDown,ArrowLeft"":5,""ArrowDown,ArrowRight"":17}","false","ArrowDown,ArrowLeft","false","","","original","1","8","","",""
"html-keyboard-response","123","682679","0.0-4.0-2.0-1.4","spark_pilot_2","7301","1","11","Male","","","","","","","null","<div style=""font-size:60px;"">+</div>","null","fixation","","","","","","","","","","","9","","",""
"revaluation","124","688705","0.0-4.0-2.0-0.5","spark_pilot_2","7301","1","11","Male","","false","","","","","[476.29999999701977,602.7999999970198]","./assets/img/ocean/memory/6.jpg","[""ArrowUp"",""ArrowLeft""]","value training","ocean","26","{""ArrowUp,ArrowLeft"":26,""ArrowUp,ArrowRight"":10,""ArrowDown,ArrowLeft"":5,""ArrowDown,ArrowRight"":17}","true","ArrowUp,ArrowLeft","false","","","original","1","10","","",""
"html-keyboard-response","125","689216","0.0-4.0-2.0-1.5","spark_pilot_2","7301","1","11","Male","","","","","","","null","<div style=""font-size:60px;"">+</div>","null","fixation","","","","","","","","","","","11","","",""
"revaluation","126","695239","0.0-4.0-2.0-0.6","spark_pilot_2","7301","1","11","Male","","false","","","","","[831.7999999970198,542.6000000089407]","./assets/img/ocean/memory/13.jpg","[""ArrowUp"",""ArrowLeft""]","value training","ocean","26","{""ArrowUp,ArrowLeft"":26,""ArrowUp,ArrowRight"":10,""ArrowDown,ArrowLeft"":5,""ArrowDown,ArrowRight"":17}","true","ArrowUp,ArrowLeft","false","","","original","1","12","","",""
"html-keyboard-response","127","695742","0.0-4.0-2.0-1.6","spark_pilot_2","7301","1","11","Male","","","","","","","null","<div style=""font-size:60px;"">+</div>","null","fixation","","","","","","","","","","","13","","",""
"revaluation","128","699759","0.0-4.0-2.0-0.7","spark_pilot_2","7301","1","11","Male","","false","","","","","[554.7999999970198]","./assets/img/ocean/catch/3.jpg","[""spaceBar""]","value training","ocean","0","{""ArrowUp,ArrowLeft"":26,""ArrowUp,ArrowRight"":10,""ArrowDown,ArrowLeft"":5,""ArrowDown,ArrowRight"":17}","true","spaceBar","true","","","original","1","14","","",""
"html-keyboard-response","129","700263","0.0-4.0-2.0-1.7","spark_pilot_2","7301","1","11","Male","","","","","","","null","<div style=""font-size:60px;"">+</div>","null","fixation","","","","","","","","","","","15","","",""
"revaluation","130","706289","0.0-4.0-2.0-0.8","spark_pilot_2","7301","1","11","Male","","false","","","","","[723.7000000029802,459.59999999403954]","./assets/img/ocean/memory/36.jpg","[""ArrowUp"",""ArrowLeft""]","value training","ocean","26","{""ArrowUp,ArrowLeft"":26,""ArrowUp,ArrowRight"":10,""ArrowDown,ArrowLeft"":5,""ArrowDown,ArrowRight"":17}","true","ArrowUp,ArrowLeft","false","","","original","1","16","","",""
"html-keyboard-response","131","706799","0.0-4.0-2.0-1.8","spark_pilot_2","7301","1","11","Male","","","","","","","null","<div style=""font-size:60px;"">+</div>","null","fixation","","","","","","","","","","","17","","",""
"revaluation","132","712826","0.0-4.0-2.0-0.9","spark_pilot_2","7301","1","11","Male","","false","","","","","[1418.8999999910593,566.5999999940395]","./assets/img/ocean/memory/15.jpg","[""ArrowUp"",""ArrowLeft""]","value training","ocean","26","{""ArrowUp,ArrowLeft"":26,""ArrowUp,ArrowRight"":10,""ArrowDown,ArrowLeft"":5,""ArrowDown,ArrowRight"":17}","true","ArrowUp,ArrowLeft","false","","","original","1","18","","",""
"html-keyboard-response","133","713336","0.0-4.0-2.0-1.9","spark_pilot_2","7301","1","11","Male","","","","","","","null","<div style=""font-size:60px;"">+</div>","null","fixation","","","","","","","","","","","19","","",""
"revaluation","134","719363","0.0-4.0-2.0-0.10","spark_pilot_2","7301","1","11","Male","","false","","","","","[669.5999999940395,867.3999999910593]","./assets/img/ocean/memory/7.jpg","[""ArrowUp"",""ArrowLeft""]","value training","ocean","26","{""ArrowUp,ArrowLeft"":26,""ArrowUp,ArrowRight"":10,""ArrowDown,ArrowLeft"":5,""ArrowDown,ArrowRight"":17}","true","ArrowUp,ArrowLeft","false","","","original","1","20","","",""
"html-keyboard-response","135","719873","0.0-4.0-2.0-1.10","spark_pilot_2","7301","1","11","Male","","","","","","","null","<div style=""font-size:60px;"">+</div>","null","fixation","","","","","","","","","","","21","","",""
"revaluation","136","725893","0.0-4.0-2.0-0.11","spark_pilot_2","7301","1","11","Male","","false","","","","","[709.2000000029802,377.19999998807907]","./assets/img/ocean/memory/2.jpg","[""ArrowUp"",""ArrowLeft""]","value training","ocean","26","{""ArrowUp,ArrowLeft"":26,""ArrowUp,ArrowRight"":10,""ArrowDown,ArrowLeft"":5,""ArrowDown,ArrowRight"":17}","true","ArrowUp,ArrowLeft","false","","","original","1","22","","",""
"html-keyboard-response","137","726398","0.0-4.0-2.0-1.11","spark_pilot_2","7301","1","11","Male","","","","","","","null","<div style=""font-size:60px;"">+</div>","null","fixation","","","","","","","","","","","23","","",""
"revaluation","138","732424","0.0-4.0-2.0-0.12","spark_pilot_2","7301","1","11","Male","","false","","","","","[747.2999999970198,616.2999999970198]","./assets/img/ocean/memory/35.jpg","[""ArrowUp"",""ArrowLeft""]","value training","ocean","26","{""ArrowUp,ArrowLeft"":26,""ArrowUp,ArrowRight"":10,""ArrowDown,ArrowLeft"":5,""ArrowDown,ArrowRight"":17}","true","ArrowUp,ArrowLeft","false","","","original","1","24","","",""
"html-keyboard-response","139","732929","0.0-4.0-2.0-1.12","spark_pilot_2","7301","1","11","Male","","","","","","","null","<div style=""font-size:60px;"">+</div>","null","fixation","","","","","","","","","","","25","","",""
"revaluation","140","738955","0.0-4.0-2.0-0.13","spark_pilot_2","7301","1","11","Male","","false","","","","","[764.2000000029802,565.6999999880791]","./assets/img/ocean/memory/35.jpg","[""ArrowUp"",""ArrowLeft""]","value training","ocean","26","{""ArrowUp,ArrowLeft"":26,""ArrowUp,ArrowRight"":10,""ArrowDown,ArrowLeft"":5,""ArrowDown,ArrowRight"":17}","true","ArrowUp,ArrowLeft","false","","","original","1","26","","",""
"html-keyboard-response","141","739465","0.0-4.0-2.0-1.13","spark_pilot_2","7301","1","11","Male","","","","","","","null","<div style=""font-size:60px;"">+</div>","null","fixation","","","","","","","","","","","27","","",""
"revaluation","142","745488","0.0-4.0-2.0-0.14","spark_pilot_2","7301","1","11","Male","","false","","","","","[1251.8999999910593,484.79999999701977]","./assets/img/ocean/memory/14.jpg","[""ArrowUp"",""ArrowLeft""]","value training","ocean","26","{""ArrowUp,ArrowLeft"":26,""ArrowUp,ArrowRight"":10,""ArrowDown,ArrowLeft"":5,""ArrowDown,ArrowRight"":17}","true","ArrowUp,ArrowLeft","false","","","original","1","28","","",""
"html-keyboard-response","143","745990","0.0-4.0-2.0-1.14","spark_pilot_2","7301","1","11","Male","","","","","","","null","<div style=""font-size:60px;"">+</div>","null","fixation","","","","","","","","","","","29","","",""
"revaluation","144","752016","0.0-4.0-2.0-0.15","spark_pilot_2","7301","1","11","Male","","false","","","","","[610.9000000059605,447.59999999403954]","./assets/img/ocean/memory/32.jpg","[""ArrowUp"",""ArrowLeft""]","value training","ocean","26","{""ArrowUp,ArrowLeft"":26,""ArrowUp,ArrowRight"":10,""ArrowDown,ArrowLeft"":5,""ArrowDown,ArrowRight"":17}","true","ArrowUp,ArrowLeft","false","","","original","1","30","","",""
"html-keyboard-response","145","752520","0.0-4.0-2.0-1.15","spark_pilot_2","7301","1","11","Male","","","","","","","null","<div style=""font-size:60px;"">+</div>","null","fixation","","","","","","","","","","","31","","",""
"revaluation","146","756538","0.0-4.0-2.0-0.16","spark_pilot_2","7301","1","11","Male","","false","","","","","[649.4000000059605]","./assets/img/ocean/catch/0.jpg","[""spaceBar""]","value training","ocean","0","{""ArrowUp,ArrowLeft"":26,""ArrowUp,ArrowRight"":10,""ArrowDown,ArrowLeft"":5,""ArrowDown,ArrowRight"":17}","true","spaceBar","true","","","original","1","32","","",""
"html-keyboard-response","147","757049","0.0-4.0-2.0-1.16","spark_pilot_2","7301","1","11","Male","","","","","","","null","<div style=""font-size:60px;"">+</div>","null","fixation","","","","","","","","","","","33","","",""
"revaluation","148","763075","0.0-4.0-2.0-0.17","spark_pilot_2","7301","1","11","Male","","false","","","","","[295.29999999701977,326.80000001192093]","./assets/img/ocean/memory/41.jpg","[""ArrowUp"",""ArrowLeft""]","value training","ocean","26","{""ArrowUp,ArrowLeft"":26,""ArrowUp,ArrowRight"":10,""ArrowDown,ArrowLeft"":5,""ArrowDown,ArrowRight"":17}","true","ArrowUp,ArrowLeft","false","","","original","1","34","","",""
"html-keyboard-response","149","763585","0.0-4.0-2.0-1.17","spark_pilot_2","7301","1","11","Male","","","","","","","null","<div style=""font-size:60px;"">+</div>","null","fixation","","","","","","","","","","","35","","",""
"revaluation","150","769612","0.0-4.0-2.0-0.18","spark_pilot_2","7301","1","11","Male","","false","","","","","[729,857.5999999940395]","./assets/img/ocean/memory/14.jpg","[""ArrowUp"",""ArrowLeft""]","value training","ocean","26","{""ArrowUp,ArrowLeft"":26,""ArrowUp,ArrowRight"":10,""ArrowDown,ArrowLeft"":5,""ArrowDown,ArrowRight"":17}","true","ArrowUp,ArrowLeft","false","","","original","1","36","","",""
"html-keyboard-response","151","770122","0.0-4.0-2.0-1.18","spark_pilot_2","7301","1","11","Male","","","","","","","null","<div style=""font-size:60px;"">+</div>","null","fixation","","","","","","","","","","","37","","",""
"revaluation","152","776145","0.0-4.0-2.0-0.19","spark_pilot_2","7301","1","11","Male","","false","","","","","[752.2999999970198,419.70000000298023]","./assets/img/ocean/memory/15.jpg","[""ArrowUp"",""ArrowLeft""]","value training","ocean","26","{""ArrowUp,ArrowLeft"":26,""ArrowUp,ArrowRight"":10,""ArrowDown,ArrowLeft"":5,""ArrowDown,ArrowRight"":17}","true","ArrowUp,ArrowLeft","false","","","original","1","38","","",""
"html-keyboard-response","153","776647","0.0-4.0-2.0-1.19","spark_pilot_2","7301","1","11","Male","","","","","","","null","<div style=""font-size:60px;"">+</div>","null","fixation","","","","","","","","","","","39","","",""
"revaluation","154","782673","0.0-4.0-2.0-0.20","spark_pilot_2","7301","1","11","Male","","false","","","","","[641.0999999940395,533]","./assets/img/ocean/memory/6.jpg","[""ArrowUp"",""ArrowLeft""]","value training","ocean","26","{""ArrowUp,ArrowLeft"":26,""ArrowUp,ArrowRight"":10,""ArrowDown,ArrowLeft"":5,""ArrowDown,ArrowRight"":17}","true","ArrowUp,ArrowLeft","false","","","original","1","40","","",""
"html-keyboard-response","155","783178","0.0-4.0-2.0-1.20","spark_pilot_2","7301","1","11","Male","","","","","","","null","<div style=""font-size:60px;"">+</div>","null","fixation","","","","","","","","","","","41","","",""
"revaluation","156","789204","0.0-4.0-2.0-0.21","spark_pilot_2","7301","1","11","Male","","false","","","","","[657.5999999940395,604.6999999880791]","./assets/img/ocean/memory/22.jpg","[""ArrowUp"",""ArrowLeft""]","value training","ocean","26","{""ArrowUp,ArrowLeft"":26,""ArrowUp,ArrowRight"":10,""ArrowDown,ArrowLeft"":5,""ArrowDown,ArrowRight"":17}","true","ArrowUp,ArrowLeft","false","","","original","1","42","","",""
"html-keyboard-response","157","789714","0.0-4.0-2.0-1.21","spark_pilot_2","7301","1","11","Male","","","","","","","null","<div style=""font-size:60px;"">+</div>","null","fixation","","","","","","","","","","","43","","",""
"revaluation","158","793732","0.0-4.0-2.0-0.22","spark_pilot_2","7301","1","11","Male","","false","","","","","[573.3000000119209]","./assets/img/ocean/catch/2.jpg","[""spaceBar""]","value training","ocean","0","{""ArrowUp,ArrowLeft"":26,""ArrowUp,ArrowRight"":10,""ArrowDown,ArrowLeft"":5,""ArrowDown,ArrowRight"":17}","true","spaceBar","true","","","original","1","44","","",""
"html-keyboard-response","159","794242","0.0-4.0-2.0-1.22","spark_pilot_2","7301","1","11","Male","","","","","","","null","<div style=""font-size:60px;"">+</div>","null","fixation","","","","","","","","","","","45","","",""
"revaluation","160","800269","0.0-4.0-2.0-0.23","spark_pilot_2","7301","1","11","Male","","false","","","","","[551.0999999940395,931.2999999970198]","./assets/img/ocean/memory/16.jpg","[""ArrowUp"",""ArrowLeft""]","value training","ocean","26","{""ArrowUp,ArrowLeft"":26,""ArrowUp,ArrowRight"":10,""ArrowDown,ArrowLeft"":5,""ArrowDown,ArrowRight"":17}","true","ArrowUp,ArrowLeft","false","","","original","1","46","","",""
"html-keyboard-response","161","800779","0.0-4.0-2.0-1.23","spark_pilot_2","7301","1","11","Male","","","","","","","null","<div style=""font-size:60px;"">+</div>","null","fixation","","","","","","","","","","","47","","",""
"revaluation","162","806801","0.0-4.0-2.0-0.24","spark_pilot_2","7301","1","11","Male","","false","","","","","[827.1999999880791,654.5]","./assets/img/ocean/memory/20.jpg","[""ArrowUp"",""ArrowLeft""]","value training","ocean","26","{""ArrowUp,ArrowLeft"":26,""ArrowUp,ArrowRight"":10,""ArrowDown,ArrowLeft"":5,""ArrowDown,ArrowRight"":17}","true","ArrowUp,ArrowLeft","false","","","original","1","48","","",""
"html-keyboard-response","163","807304","0.0-4.0-2.0-1.24","spark_pilot_2","7301","1","11","Male","","","","","","","null","<div style=""font-size:60px;"">+</div>","null","fixation","","","","","","","","","","","49","","",""
"revaluation","164","811321","0.0-4.0-2.0-0.25","spark_pilot_2","7301","1","11","Male","","false","","","","","[648.7999999970198]","./assets/img/ocean/catch/4.jpg","[""spaceBar""]","value training","ocean","0","{""ArrowUp,ArrowLeft"":26,""ArrowUp,ArrowRight"":10,""ArrowDown,ArrowLeft"":5,""ArrowDown,ArrowRight"":17}","true","spaceBar","true","","","original","1","50","","",""
"html-keyboard-response","165","811826","0.0-4.0-2.0-1.25","spark_pilot_2","7301","1","11","Male","","","","","","","null","<div style=""font-size:60px;"">+</div>","null","fixation","","","","","","","","","","","51","","",""
"revaluation","166","817852","0.0-4.0-2.0-0.26","spark_pilot_2","7301","1","11","Male","","false","","","","","[745.5,506]","./assets/img/ocean/memory/34.jpg","[""ArrowUp"",""ArrowLeft""]","value training","ocean","26","{""ArrowUp,ArrowLeft"":26,""ArrowUp,ArrowRight"":10,""ArrowDown,ArrowLeft"":5,""ArrowDown,ArrowRight"":17}","true","ArrowUp,ArrowLeft","false","","","original","1","52","","",""
"html-keyboard-response","167","818362","0.0-4.0-2.0-1.26","spark_pilot_2","7301","1","11","Male","","","","","","","null","<div style=""font-size:60px;"">+</div>","null","fixation","","","","","","","","","","","53","","",""
"revaluation","168","824389","0.0-4.0-2.0-0.27","spark_pilot_2","7301","1","11","Male","","false","","","","","[634.5,825.5]","./assets/img/ocean/memory/33.jpg","[""ArrowUp"",""ArrowLeft""]","value training","ocean","26","{""ArrowUp,ArrowLeft"":26,""ArrowUp,ArrowRight"":10,""ArrowDown,ArrowLeft"":5,""ArrowDown,ArrowRight"":17}","true","ArrowUp,ArrowLeft","false","","","original","1","54","","",""
"html-keyboard-response","169","824899","0.0-4.0-2.0-1.27","spark_pilot_2","7301","1","11","Male","","","","","","","null","<div style=""font-size:60px;"">+</div>","null","fixation","","","","","","","","","","","55","","",""
"revaluation","170","830922","0.0-4.0-2.0-0.28","spark_pilot_2","7301","1","11","Male","","false","","","","","[568.1000000089407,696.7999999970198]","./assets/img/ocean/memory/28.jpg","[""ArrowUp"",""ArrowLeft""]","value training","ocean","26","{""ArrowUp,ArrowLeft"":26,""ArrowUp,ArrowRight"":10,""ArrowDown,ArrowLeft"":5,""ArrowDown,ArrowRight"":17}","true","ArrowUp,ArrowLeft","false","","","original","1","56","","",""
"html-keyboard-response","171","831424","0.0-4.0-2.0-1.28","spark_pilot_2","7301","1","11","Male","","","","","","","null","<div style=""font-size:60px;"">+</div>","null","fixation","","","","","","","","","","","57","","",""
"revaluation","172","837450","0.0-4.0-2.0-0.29","spark_pilot_2","7301","1","11","Male","","false","","","","","[658.4000000059605,895.8999999910593]","./assets/img/ocean/memory/13.jpg","[""ArrowUp"",""ArrowLeft""]","value training","ocean","26","{""ArrowUp,ArrowLeft"":26,""ArrowUp,ArrowRight"":10,""ArrowDown,ArrowLeft"":5,""ArrowDown,ArrowRight"":17}","true","ArrowUp,ArrowLeft","false","","","original","1","58","","",""
"html-keyboard-response","173","837955","0.0-4.0-2.0-1.29","spark_pilot_2","7301","1","11","Male","","","","","","","null","<div style=""font-size:60px;"">+</div>","null","fixation","","","","","","","","","","","59","","",""
"revaluation","174","843981","0.0-4.0-2.0-0.30","spark_pilot_2","7301","1","11","Male","","false","","","","","[547.5,458.6000000089407]","./assets/img/ocean/memory/34.jpg","[""ArrowUp"",""ArrowLeft""]","value training","ocean","26","{""ArrowUp,ArrowLeft"":26,""ArrowUp,ArrowRight"":10,""ArrowDown,ArrowLeft"":5,""ArrowDown,ArrowRight"":17}","true","ArrowUp,ArrowLeft","false","","","original","1","60","","",""
"html-keyboard-response","175","844492","0.0-4.0-2.0-1.30","spark_pilot_2","7301","1","11","Male","","","","","","","null","<div style=""font-size:60px;"">+</div>","null","fixation","","","","","","","","","","","61","","",""
"revaluation","176","850517","0.0-4.0-2.0-0.31","spark_pilot_2","7301","1","11","Male","","false","","","","","[733.8000000119209,551.2000000029802]","./assets/img/ocean/memory/8.jpg","[""ArrowUp"",""ArrowLeft""]","value training","ocean","26","{""ArrowUp,ArrowLeft"":26,""ArrowUp,ArrowRight"":10,""ArrowDown,ArrowLeft"":5,""ArrowDown,ArrowRight"":17}","true","ArrowUp,ArrowLeft","false","","","original","1","62","","",""
"html-keyboard-response","177","851028","0.0-4.0-2.0-1.31","spark_pilot_2","7301","1","11","Male","","","","","","","null","<div style=""font-size:60px;"">+</div>","null","fixation","","","","","","","","","","","63","","",""
"revaluation","178","855046","0.0-4.0-2.0-0.32","spark_pilot_2","7301","1","11","Male","","false","","","","","[739.5]","./assets/img/ocean/catch/1.jpg","[""spaceBar""]","value training","ocean","0","{""ArrowUp,ArrowLeft"":26,""ArrowUp,ArrowRight"":10,""ArrowDown,ArrowLeft"":5,""ArrowDown,ArrowRight"":17}","true","spaceBar","true","","","original","1","64","","",""
"html-keyboard-response","179","855556","0.0-4.0-2.0-1.32","spark_pilot_2","7301","1","11","Male","","","","","","","null","<div style=""font-size:60px;"">+</div>","null","fixation","","","","","","","","","","","65","","",""
"revaluation","180","861579","0.0-4.0-2.0-0.33","spark_pilot_2","7301","1","11","Male","","false","","","","","[528.4000000059605,540.7999999970198]","./assets/img/ocean/memory/41.jpg","[""ArrowUp"",""ArrowLeft""]","value training","ocean","26","{""ArrowUp,ArrowLeft"":26,""ArrowUp,ArrowRight"":10,""ArrowDown,ArrowLeft"":5,""ArrowDown,ArrowRight"":17}","true","ArrowUp,ArrowLeft","false","","","original","1","66","","",""
"html-keyboard-response","181","862081","0.0-4.0-2.0-1.33","spark_pilot_2","7301","1","11","Male","","","","","","","null","<div style=""font-size:60px;"">+</div>","null","fixation","","","","","","","","","","","67","","",""
"revaluation","182","868107","0.0-4.0-2.0-0.34","spark_pilot_2","7301","1","11","Male","","false","","","","","[626.8999999910593,860.0999999940395]","./assets/img/ocean/memory/36.jpg","[""ArrowUp"",""ArrowLeft""]","value training","ocean","26","{""ArrowUp,ArrowLeft"":26,""ArrowUp,ArrowRight"":10,""ArrowDown,ArrowLeft"":5,""ArrowDown,ArrowRight"":17}","true","ArrowUp,ArrowLeft","false","","","original","1","68","","",""
"html-keyboard-response","183","868612","0.0-4.0-2.0-1.34","spark_pilot_2","7301","1","11","Male","","","","","","","null","<div style=""font-size:60px;"">+</div>","null","fixation","","","","","","","","","","","69","","",""
"revaluation","184","874638","0.0-4.0-2.0-0.35","spark_pilot_2","7301","1","11","Male","","false","","","","","[639.5,686.0999999940395]","./assets/img/ocean/memory/2.jpg","[""ArrowUp"",""ArrowLeft""]","value training","ocean","26","{""ArrowUp,ArrowLeft"":26,""ArrowUp,ArrowRight"":10,""ArrowDown,ArrowLeft"":5,""ArrowDown,ArrowRight"":17}","true","ArrowUp,ArrowLeft","false","","","original","1","70","","",""
"html-keyboard-response","185","875148","0.0-4.0-2.0-1.35","spark_pilot_2","7301","1","11","Male","","","","","","","null","<div style=""font-size:60px;"">+</div>","null","fixation","","","","","","","","","","","71","","",""
"revaluation","186","879166","0.0-4.0-2.0-0.36","spark_pilot_2","7301","1","11","Male","","false","","","","","[695]","./assets/img/ocean/catch/7.jpg","[""spaceBar""]","value training","ocean","0","{""ArrowUp,ArrowLeft"":26,""ArrowUp,ArrowRight"":10,""ArrowDown,ArrowLeft"":5,""ArrowDown,ArrowRight"":17}","true","spaceBar","true","","","original","1","72","","",""
"html-keyboard-response","187","879677","0.0-4.0-2.0-1.36","spark_pilot_2","7301","1","11","Male","","","","","","","null","<div style=""font-size:60px;"">+</div>","null","fixation","","","","","","","","","","","73","","",""
"revaluation","188","885703","0.0-4.0-2.0-0.37","spark_pilot_2","7301","1","11","Male","","false","","","","","[821.3999999910593,750.2999999970198]","./assets/img/ocean/memory/25.jpg","[""ArrowUp"",""ArrowLeft""]","value training","ocean","26","{""ArrowUp,ArrowLeft"":26,""ArrowUp,ArrowRight"":10,""ArrowDown,ArrowLeft"":5,""ArrowDown,ArrowRight"":17}","true","ArrowUp,ArrowLeft","false","","","original","1","74","","",""
"html-keyboard-response","189","886213","0.0-4.0-2.0-1.37","spark_pilot_2","7301","1","11","Male","","","","","","","null","<div style=""font-size:60px;"">+</div>","null","fixation","","","","","","","","","","","75","","",""
"revaluation","190","892235","0.0-4.0-2.0-0.38","spark_pilot_2","7301","1","11","Male","","false","","","","","[725.0999999940395,496.5]","./assets/img/ocean/memory/31.jpg","[""ArrowUp"",""ArrowLeft""]","value training","ocean","26","{""ArrowUp,ArrowLeft"":26,""ArrowUp,ArrowRight"":10,""ArrowDown,ArrowLeft"":5,""ArrowDown,ArrowRight"":17}","true","ArrowUp,ArrowLeft","false","","","original","1","76","","",""
"html-keyboard-response","191","892738","0.0-4.0-2.0-1.38","spark_pilot_2","7301","1","11","Male","","","","","","","null","<div style=""font-size:60px;"">+</div>","null","fixation","","","","","","","","","","","77","","",""
"revaluation","192","898764","0.0-4.0-2.0-0.39","spark_pilot_2","7301","1","11","Male","","false","","","","","[943.2999999970198,832]","./assets/img/ocean/memory/32.jpg","[""ArrowUp"",""ArrowLeft""]","value training","ocean","26","{""ArrowUp,ArrowLeft"":26,""ArrowUp,ArrowRight"":10,""ArrowDown,ArrowLeft"":5,""ArrowDown,ArrowRight"":17}","true","ArrowUp,ArrowLeft","false","","","original","1","78","","",""
"html-keyboard-response","193","899269","0.0-4.0-2.0-1.39","spark_pilot_2","7301","1","11","Male","","","","","","","null","<div style=""font-size:60px;"">+</div>","null","fixation","","","","","","","","","","","79","","",""
"revaluation","194","905295","0.0-4.0-2.0-0.40","spark_pilot_2","7301","1","11","Male","","false","","","","","[611.2999999970198,803.4000000059605]","./assets/img/ocean/memory/7.jpg","[""ArrowUp"",""ArrowLeft""]","value training","ocean","26","{""ArrowUp,ArrowLeft"":26,""ArrowUp,ArrowRight"":10,""ArrowDown,ArrowLeft"":5,""ArrowDown,ArrowRight"":17}","true","ArrowUp,ArrowLeft","false","","","original","1","80","","",""
"html-keyboard-response","195","905805","0.0-4.0-2.0-1.40","spark_pilot_2","7301","1","11","Male","","","","","","","null","<div style=""font-size:60px;"">+</div>","null","fixation","","","","","","","","","","","81","","",""
"revaluation","196","911828","0.0-4.0-2.0-0.41","spark_pilot_2","7301","1","11","Male","","false","","","","","[805.5,570.2999999970198]","./assets/img/ocean/memory/22.jpg","[""ArrowUp"",""ArrowLeft""]","value training","ocean","26","{""ArrowUp,ArrowLeft"":26,""ArrowUp,ArrowRight"":10,""ArrowDown,ArrowLeft"":5,""ArrowDown,ArrowRight"":17}","true","ArrowUp,ArrowLeft","false","","","original","1","82","","",""
"html-keyboard-response","197","912331","0.0-4.0-2.0-1.41","spark_pilot_2","7301","1","11","Male","","","","","","","null","<div style=""font-size:60px;"">+</div>","null","fixation","","","","","","","","","","","83","","",""
"revaluation","198","918356","0.0-4.0-2.0-0.42","spark_pilot_2","7301","1","11","Male","","false","","","","","[685.2000000029802,929.6000000089407]","./assets/img/ocean/memory/26.jpg","[""ArrowUp"",""ArrowLeft""]","value training","ocean","26","{""ArrowUp,ArrowLeft"":26,""ArrowUp,ArrowRight"":10,""ArrowDown,ArrowLeft"":5,""ArrowDown,ArrowRight"":17}","true","ArrowUp,ArrowLeft","false","","","original","1","84","","",""
"html-keyboard-response","199","918861","0.0-4.0-2.0-1.42","spark_pilot_2","7301","1","11","Male","","","","","","","null","<div style=""font-size:60px;"">+</div>","null","fixation","","","","","","","","","","","85","","",""
"revaluation","200","924887","0.0-4.0-2.0-0.43","spark_pilot_2","7301","1","11","Male","","false","","","","","[668.3999999910593,723.8999999910593]","./assets/img/ocean/memory/33.jpg","[""ArrowUp"",""ArrowLeft""]","value training","ocean","26","{""ArrowUp,ArrowLeft"":26,""ArrowUp,ArrowRight"":10,""ArrowDown,ArrowLeft"":5,""ArrowDown,ArrowRight"":17}","true","ArrowUp,ArrowLeft","false","","","original","1","86","","",""
"html-keyboard-response","201","925397","0.0-4.0-2.0-1.43","spark_pilot_2","7301","1","11","Male","","","","","","","null","<div style=""font-size:60px;"">+</div>","null","fixation","","","","","","","","","","","87","","",""
"revaluation","202","929415","0.0-4.0-2.0-0.44","spark_pilot_2","7301","1","11","Male","","false","","","","","[583.7999999970198]","./assets/img/ocean/catch/6.jpg","[""spaceBar""]","value training","ocean","0","{""ArrowUp,ArrowLeft"":26,""ArrowUp,ArrowRight"":10,""ArrowDown,ArrowLeft"":5,""ArrowDown,ArrowRight"":17}","true","spaceBar","true","","","original","1","88","","",""
"html-keyboard-response","203","929926","0.0-4.0-2.0-1.44","spark_pilot_2","7301","1","11","Male","","","","","","","null","<div style=""font-size:60px;"">+</div>","null","fixation","","","","","","","","","","","89","","",""
"revaluation","204","935952","0.0-4.0-2.0-0.45","spark_pilot_2","7301","1","11","Male","","false","","","","","[464.69999998807907,386.6000000089407]","./assets/img/ocean/memory/25.jpg","[""ArrowUp"",""ArrowLeft""]","value training","ocean","26","{""ArrowUp,ArrowLeft"":26,""ArrowUp,ArrowRight"":10,""ArrowDown,ArrowLeft"":5,""ArrowDown,ArrowRight"":17}","true","ArrowUp,ArrowLeft","false","","","original","1","90","","",""
"html-keyboard-response","205","936462","0.0-4.0-2.0-1.45","spark_pilot_2","7301","1","11","Male","","","","","","","null","<div style=""font-size:60px;"">+</div>","null","fixation","","","","","","","","","","","91","","",""
"revaluation","206","942484","0.0-4.0-2.0-0.46","spark_pilot_2","7301","1","11","Male","","false","","","","","[464.1000000089407,544.8000000119209]","./assets/img/ocean/memory/16.jpg","[""ArrowUp"",""ArrowLeft""]","value training","ocean","26","{""ArrowUp,ArrowLeft"":26,""ArrowUp,ArrowRight"":10,""ArrowDown,ArrowLeft"":5,""ArrowDown,ArrowRight"":17}","true","ArrowUp,ArrowLeft","false","","","original","1","92","","",""
"html-keyboard-response","207","942987","0.0-4.0-2.0-1.46","spark_pilot_2","7301","1","11","Male","","","","","","","null","<div style=""font-size:60px;"">+</div>","null","fixation","","","","","","","","","","","93","","",""
"revaluation","208","949012","0.0-4.0-2.0-0.47","spark_pilot_2","7301","1","11","Male","","false","","","","","[549.8000000119209,477.09999999403954]","./assets/img/ocean/memory/8.jpg","[""ArrowUp"",""ArrowLeft""]","value training","ocean","26","{""ArrowUp,ArrowLeft"":26,""ArrowUp,ArrowRight"":10,""ArrowDown,ArrowLeft"":5,""ArrowDown,ArrowRight"":17}","true","ArrowUp,ArrowLeft","false","","","original","1","94","","",""
"html-keyboard-response","209","949518","0.0-4.0-2.0-1.47","spark_pilot_2","7301","1","11","Male","","","","","","","null","<div style=""font-size:60px;"">+</div>","null","fixation","","","","","","","","","","","95","","",""
"revaluation","210","955544","0.0-4.0-2.0-0.48","spark_pilot_2","7301","1","11","Male","","false","","","","","[798.2999999970198,635.7000000029802]","./assets/img/ocean/memory/20.jpg","[""ArrowUp"",""ArrowLeft""]","value training","ocean","26","{""ArrowUp,ArrowLeft"":26,""ArrowUp,ArrowRight"":10,""ArrowDown,ArrowLeft"":5,""ArrowDown,ArrowRight"":17}","true","ArrowUp,ArrowLeft","false","","","original","1","96","","",""
"html-keyboard-response","211","956054","0.0-4.0-2.0-1.48","spark_pilot_2","7301","1","11","Male","","","","","","","null","<div style=""font-size:60px;"">+</div>","null","fixation","","","","","","","","","","","97","","",""
"revaluation","212","962075","0.0-4.0-2.0-0.49","spark_pilot_2","7301","1","11","Male","","false","","","","","[768,777.3999999910593]","./assets/img/ocean/memory/30.jpg","[""ArrowUp"",""ArrowLeft""]","value training","ocean","26","{""ArrowUp,ArrowLeft"":26,""ArrowUp,ArrowRight"":10,""ArrowDown,ArrowLeft"":5,""ArrowDown,ArrowRight"":17}","true","ArrowUp,ArrowLeft","false","","","original","1","98","","",""
"html-keyboard-response","213","962579","0.0-4.0-2.0-1.49","spark_pilot_2","7301","1","11","Male","","","","","","","null","<div style=""font-size:60px;"">+</div>","null","fixation","","","","","","","","","","","99","","",""
"learning-instructions","214","978883","0.0-4.0-3.0-0.0","spark_pilot_2","7301","1","11","Male","","","","","","","3288.199999988079","<p> Now, you will travel with a friend who will choose whether you go up or down first. </p>
            <p> On these turns, you will just see the animal that they found. You will still get to choose which chest to search for treasure.</p>","","instructions","","","","","","","","","","","","","",""
"revaluation","215","982902","0.0-4.0-4.0-0.0","spark_pilot_2","7301","1","11","Male","","false","","","","","[1049.8999999910593]","./assets/img/ocean/animals/seahorse.jpg","[""ArrowRight""]","revaluation","ocean","17","{""ArrowUp,ArrowLeft"":26,""ArrowUp,ArrowRight"":10,""ArrowDown,ArrowLeft"":5,""ArrowDown,ArrowRight"":17}","true","ArrowDown,ArrowRight","","","","original","1","0","","",""
"html-keyboard-response","216","983413","0.0-4.0-4.0-1.0","spark_pilot_2","7301","1","11","Male","","","","","","","null","<div style=""font-size:60px;"">+</div>","null","fixation","","","","","","","","","","","1","","",""
"revaluation","217","987430","0.0-4.0-4.0-0.1","spark_pilot_2","7301","1","11","Male","","false","","","","","[584.0999999940395]","./assets/img/ocean/animals/octopus.jpg","[""ArrowLeft""]","revaluation","ocean","26","{""ArrowUp,ArrowLeft"":26,""ArrowUp,ArrowRight"":10,""ArrowDown,ArrowLeft"":5,""ArrowDown,ArrowRight"":17}","true","ArrowUp,ArrowLeft","","","","original","1","2","","",""
"html-keyboard-response","218","987936","0.0-4.0-4.0-1.1","spark_pilot_2","7301","1","11","Male","","","","","","","null","<div style=""font-size:60px;"">+</div>","null","fixation","","","","","","","","","","","3","","",""
"revaluation","219","991948","0.0-4.0-4.0-0.2","spark_pilot_2","7301","1","11","Male","","false","","","","","[592.7000000029802]","./assets/img/ocean/animals/seahorse.jpg","[""ArrowRight""]","revaluation","ocean","17","{""ArrowUp,ArrowLeft"":26,""ArrowUp,ArrowRight"":10,""ArrowDown,ArrowLeft"":5,""ArrowDown,ArrowRight"":17}","true","ArrowDown,ArrowRight","","","","original","1","4","","",""
"html-keyboard-response","220","992453","0.0-4.0-4.0-1.2","spark_pilot_2","7301","1","11","Male","","","","","","","null","<div style=""font-size:60px;"">+</div>","null","fixation","","","","","","","","","","","5","","",""
"revaluation","221","996470","0.0-4.0-4.0-0.3","spark_pilot_2","7301","1","11","Male","","false","","","","","[762.1000000089407]","./assets/img/ocean/animals/seahorse.jpg","[""ArrowRight""]","revaluation","ocean","17","{""ArrowUp,ArrowLeft"":26,""ArrowUp,ArrowRight"":10,""ArrowDown,ArrowLeft"":5,""ArrowDown,ArrowRight"":17}","true","ArrowDown,ArrowRight","","","","original","1","6","","",""
"html-keyboard-response","222","996974","0.0-4.0-4.0-1.3","spark_pilot_2","7301","1","11","Male","","","","","","","null","<div style=""font-size:60px;"">+</div>","null","fixation","","","","","","","","","","","7","","",""
"revaluation","223","1000990","0.0-4.0-4.0-0.4","spark_pilot_2","7301","1","11","Male","","false","","","","","[642.5999999940395]","./assets/img/ocean/animals/octopus.jpg","[""ArrowLeft""]","revaluation","ocean","26","{""ArrowUp,ArrowLeft"":26,""ArrowUp,ArrowRight"":10,""ArrowDown,ArrowLeft"":5,""ArrowDown,ArrowRight"":17}","true","ArrowUp,ArrowLeft","","","","original","1","8","","",""
"html-keyboard-response","224","1001492","0.0-4.0-4.0-1.4","spark_pilot_2","7301","1","11","Male","","","","","","","null","<div style=""font-size:60px;"">+</div>","null","fixation","","","","","","","","","","","9","","",""
"revaluation","225","1005509","0.0-4.0-4.0-0.5","spark_pilot_2","7301","1","11","Male","","false","","","","","[614.2000000029802]","./assets/img/ocean/animals/octopus.jpg","[""ArrowLeft""]","revaluation","ocean","26","{""ArrowUp,ArrowLeft"":26,""ArrowUp,ArrowRight"":10,""ArrowDown,ArrowLeft"":5,""ArrowDown,ArrowRight"":17}","true","ArrowUp,ArrowLeft","","","","original","1","10","","",""
"html-keyboard-response","226","1006014","0.0-4.0-4.0-1.5","spark_pilot_2","7301","1","11","Male","","","","","","","null","<div style=""font-size:60px;"">+</div>","null","fixation","","","","","","","","","","","11","","",""
"revaluation","227","1010032","0.0-4.0-4.0-0.6","spark_pilot_2","7301","1","11","Male","","false","","","","","[595.5999999940395]","./assets/img/ocean/animals/octopus.jpg","[""ArrowLeft""]","revaluation","ocean","26","{""ArrowUp,ArrowLeft"":26,""ArrowUp,ArrowRight"":10,""ArrowDown,ArrowLeft"":5,""ArrowDown,ArrowRight"":17}","true","ArrowUp,ArrowLeft","","","","original","1","12","","",""
"html-keyboard-response","228","1010542","0.0-4.0-4.0-1.6","spark_pilot_2","7301","1","11","Male","","","","","","","null","<div style=""font-size:60px;"">+</div>","null","fixation","","","","","","","","","","","13","","",""
"revaluation","229","1014560","0.0-4.0-4.0-0.7","spark_pilot_2","7301","1","11","Male","","false","","","","","[560.9000000059605]","./assets/img/ocean/animals/octopus.jpg","[""ArrowLeft""]","revaluation","ocean","26","{""ArrowUp,ArrowLeft"":26,""ArrowUp,ArrowRight"":10,""ArrowDown,ArrowLeft"":5,""ArrowDown,ArrowRight"":17}","true","ArrowUp,ArrowLeft","","","","original","1","14","","",""
"html-keyboard-response","230","1015070","0.0-4.0-4.0-1.7","spark_pilot_2","7301","1","11","Male","","","","","","","null","<div style=""font-size:60px;"">+</div>","null","fixation","","","","","","","","","","","15","","",""
"revaluation","231","1019088","0.0-4.0-4.0-0.8","spark_pilot_2","7301","1","11","Male","","false","","","","","[587.5]","./assets/img/ocean/animals/octopus.jpg","[""ArrowLeft""]","revaluation","ocean","26","{""ArrowUp,ArrowLeft"":26,""ArrowUp,ArrowRight"":10,""ArrowDown,ArrowLeft"":5,""ArrowDown,ArrowRight"":17}","true","ArrowUp,ArrowLeft","","","","original","1","16","","",""
"html-keyboard-response","232","1019598","0.0-4.0-4.0-1.8","spark_pilot_2","7301","1","11","Male","","","","","","","null","<div style=""font-size:60px;"">+</div>","null","fixation","","","","","","","","","","","17","","",""
"revaluation","233","1023616","0.0-4.0-4.0-0.9","spark_pilot_2","7301","1","11","Male","","false","","","","","[554.8999999910593]","./assets/img/ocean/animals/seahorse.jpg","[""ArrowRight""]","revaluation","ocean","17","{""ArrowUp,ArrowLeft"":26,""ArrowUp,ArrowRight"":10,""ArrowDown,ArrowLeft"":5,""ArrowDown,ArrowRight"":17}","true","ArrowDown,ArrowRight","","","","original","1","18","","",""
"html-keyboard-response","234","1024126","0.0-4.0-4.0-1.9","spark_pilot_2","7301","1","11","Male","","","","","","","null","<div style=""font-size:60px;"">+</div>","null","fixation","","","","","","","","","","","19","","",""
"revaluation","235","1028143","0.0-4.0-4.0-0.10","spark_pilot_2","7301","1","11","Male","","false","","","","","[738.2000000029802]","./assets/img/ocean/animals/seahorse.jpg","[""ArrowRight""]","revaluation","ocean","17","{""ArrowUp,ArrowLeft"":26,""ArrowUp,ArrowRight"":10,""ArrowDown,ArrowLeft"":5,""ArrowDown,ArrowRight"":17}","true","ArrowDown,ArrowRight","","","","original","1","20","","",""
"html-keyboard-response","236","1028649","0.0-4.0-4.0-1.10","spark_pilot_2","7301","1","11","Male","","","","","","","null","<div style=""font-size:60px;"">+</div>","null","fixation","","","","","","","","","","","21","","",""
"revaluation","237","1032662","0.0-4.0-4.0-0.11","spark_pilot_2","7301","1","11","Male","","false","","","","","[696.2999999970198]","./assets/img/ocean/animals/seahorse.jpg","[""ArrowRight""]","revaluation","ocean","17","{""ArrowUp,ArrowLeft"":26,""ArrowUp,ArrowRight"":10,""ArrowDown,ArrowLeft"":5,""ArrowDown,ArrowRight"":17}","true","ArrowDown,ArrowRight","","","","original","1","22","","",""
"html-keyboard-response","238","1033165","0.0-4.0-4.0-1.11","spark_pilot_2","7301","1","11","Male","","","","","","","null","<div style=""font-size:60px;"">+</div>","null","fixation","","","","","","","","","","","23","","",""
"revaluation","239","1037183","0.0-4.0-4.0-0.12","spark_pilot_2","7301","1","11","Male","","false","","","","","[704.2000000029802]","./assets/img/ocean/animals/seahorse.jpg","[""ArrowRight""]","revaluation","ocean","17","{""ArrowUp,ArrowLeft"":26,""ArrowUp,ArrowRight"":10,""ArrowDown,ArrowLeft"":5,""ArrowDown,ArrowRight"":17}","true","ArrowDown,ArrowRight","","","","original","1","24","","",""
"html-keyboard-response","240","1037687","0.0-4.0-4.0-1.12","spark_pilot_2","7301","1","11","Male","","","","","","","null","<div style=""font-size:60px;"">+</div>","null","fixation","","","","","","","","","","","25","","",""
"revaluation","241","1041705","0.0-4.0-4.0-0.13","spark_pilot_2","7301","1","11","Male","","false","","","","","[725.3999999910593]","./assets/img/ocean/animals/seahorse.jpg","[""ArrowRight""]","revaluation","ocean","17","{""ArrowUp,ArrowLeft"":26,""ArrowUp,ArrowRight"":10,""ArrowDown,ArrowLeft"":5,""ArrowDown,ArrowRight"":17}","true","ArrowDown,ArrowRight","","","","original","1","26","","",""
"html-keyboard-response","242","1042215","0.0-4.0-4.0-1.13","spark_pilot_2","7301","1","11","Male","","","","","","","null","<div style=""font-size:60px;"">+</div>","null","fixation","","","","","","","","","","","27","","",""
"revaluation","243","1046233","0.0-4.0-4.0-0.14","spark_pilot_2","7301","1","11","Male","","false","","","","","[717.5]","./assets/img/ocean/animals/octopus.jpg","[""ArrowLeft""]","revaluation","ocean","26","{""ArrowUp,ArrowLeft"":26,""ArrowUp,ArrowRight"":10,""ArrowDown,ArrowLeft"":5,""ArrowDown,ArrowRight"":17}","true","ArrowUp,ArrowLeft","","","","original","1","28","","",""
"html-keyboard-response","244","1046743","0.0-4.0-4.0-1.14","spark_pilot_2","7301","1","11","Male","","","","","","","null","<div style=""font-size:60px;"">+</div>","null","fixation","","","","","","","","","","","29","","",""
"revaluation","245","1050761","0.0-4.0-4.0-0.15","spark_pilot_2","7301","1","11","Male","","false","","","","","[669.0999999940395]","./assets/img/ocean/animals/octopus.jpg","[""ArrowLeft""]","revaluation","ocean","26","{""ArrowUp,ArrowLeft"":26,""ArrowUp,ArrowRight"":10,""ArrowDown,ArrowLeft"":5,""ArrowDown,ArrowRight"":17}","true","ArrowUp,ArrowLeft","","","","original","1","30","","",""
"html-keyboard-response","246","1051271","0.0-4.0-4.0-1.15","spark_pilot_2","7301","1","11","Male","","","","","","","null","<div style=""font-size:60px;"">+</div>","null","fixation","","","","","","","","","","","31","","",""
"revaluation","247","1055288","0.0-4.0-4.0-0.16","spark_pilot_2","7301","1","11","Male","","false","","","","","[795.2999999970198]","./assets/img/ocean/animals/octopus.jpg","[""ArrowLeft""]","revaluation","ocean","26","{""ArrowUp,ArrowLeft"":26,""ArrowUp,ArrowRight"":10,""ArrowDown,ArrowLeft"":5,""ArrowDown,ArrowRight"":17}","true","ArrowUp,ArrowLeft","","","","original","1","32","","",""
"html-keyboard-response","248","1055793","0.0-4.0-4.0-1.16","spark_pilot_2","7301","1","11","Male","","","","","","","null","<div style=""font-size:60px;"">+</div>","null","fixation","","","","","","","","","","","33","","",""
"revaluation","249","1059807","0.0-4.0-4.0-0.17","spark_pilot_2","7301","1","11","Male","","false","","","","","[915]","./assets/img/ocean/animals/seahorse.jpg","[""ArrowRight""]","revaluation","ocean","17","{""ArrowUp,ArrowLeft"":26,""ArrowUp,ArrowRight"":10,""ArrowDown,ArrowLeft"":5,""ArrowDown,ArrowRight"":17}","true","ArrowDown,ArrowRight","","","","original","1","34","","",""
"html-keyboard-response","250","1060310","0.0-4.0-4.0-1.17","spark_pilot_2","7301","1","11","Male","","","","","","","null","<div style=""font-size:60px;"">+</div>","null","fixation","","","","","","","","","","","35","","",""
"learning-instructions","251","1074456","0.0-4.0-5.0-0.0","spark_pilot_2","7301","1","11","Male","","","","","","","2576.800000011921","<p> Time to play the dot game! </p>
            <p> For one minute, click the red dots on the following screen as they appear. </p>
            <p><b> Don't look away, as you will earn bonus for clicking dots</b>. </p>","","instructions","","","","","","","","","","","","","",""
"revaluation","252","1134465","0.0-4.0-6.0-0.0","spark_pilot_2","7301","1","11","Male","","","","","","","[103,105,63,105,61,93]","","","rest","","60","","","","","0","60000","","","","","",""
"learning-instructions","253","1142538","0.0-4.0-7.0-0.0","spark_pilot_2","7301","1","11","Male","","","","","","","1832.7999999970198","<p> You have almost finished this part of the game! </p>
            <p> We are going to ask you to make a few more choices. </p>","","instructions","","","","","","","","","","","","","",""
"learning-instructions","254","1157660","0.0-4.0-7.0-0.1","spark_pilot_2","7301","1","11","Male","","","","","","","1147","<p> First, you need to decide whether to go up or down. When you see each picture, use the arrow keys to make your choice. </p>
            <p><b>You will not see which animal you found, but try to get to the one that will give you the most treasure.</b></p>","","instructions","","","","","","","","","","","","","",""
"revaluation","255","1159021","0.0-4.0-8.0-0.0","spark_pilot_2","7301","1","11","Male","","false","","","","","[1358.7000000029802]","./assets/img/ocean/test/0.jpg","[""ArrowUp""]","first stage test","ocean","0","{""ArrowUp,ArrowLeft"":26,""ArrowUp,ArrowRight"":10,""ArrowDown,ArrowLeft"":5,""ArrowDown,ArrowRight"":17}","true","ArrowUp","false","","","original","1","","","",""
"html-keyboard-response","256","1159528","0.0-4.0-8.0-1.0","spark_pilot_2","7301","1","11","Male","","","","","","","null","<div style=""font-size:60px;"">+</div>","null","fixation","","","","","","","","","","","","","",""
"revaluation","257","1160643","0.0-4.0-8.0-0.1","spark_pilot_2","7301","1","11","Male","","false","","","","","[1112]","./assets/img/ocean/test/3.jpg","[""ArrowUp""]","first stage test","ocean","0","{""ArrowUp,ArrowLeft"":26,""ArrowUp,ArrowRight"":10,""ArrowDown,ArrowLeft"":5,""ArrowDown,ArrowRight"":17}","true","ArrowUp","false","","","original","1","","","",""
"html-keyboard-response","258","1161144","0.0-4.0-8.0-1.1","spark_pilot_2","7301","1","11","Male","","","","","","","null","<div style=""font-size:60px;"">+</div>","null","fixation","","","","","","","","","","","","","",""
"revaluation","259","1162192","0.0-4.0-8.0-0.2","spark_pilot_2","7301","1","11","Male","","false","","","","","[1046.3999999910593]","./assets/img/ocean/test/1.jpg","[""ArrowUp""]","first stage test","ocean","0","{""ArrowUp,ArrowLeft"":26,""ArrowUp,ArrowRight"":10,""ArrowDown,ArrowLeft"":5,""ArrowDown,ArrowRight"":17}","true","ArrowUp","false","","","original","1","","","",""
"html-keyboard-response","260","1162697","0.0-4.0-8.0-1.2","spark_pilot_2","7301","1","11","Male","","","","","","","null","<div style=""font-size:60px;"">+</div>","null","fixation","","","","","","","","","","","","","",""
"revaluation","261","1163325","0.0-4.0-8.0-0.3","spark_pilot_2","7301","1","11","Male","","false","","","","","[625.2999999970198]","./assets/img/ocean/test/2.jpg","[""ArrowUp""]","first stage test","ocean","0","{""ArrowUp,ArrowLeft"":26,""ArrowUp,ArrowRight"":10,""ArrowDown,ArrowLeft"":5,""ArrowDown,ArrowRight"":17}","true","ArrowUp","false","","","original","1","","","",""
"html-keyboard-response","262","1163832","0.0-4.0-8.0-1.3","spark_pilot_2","7301","1","11","Male","","","","","","","null","<div style=""font-size:60px;"">+</div>","null","fixation","","","","","","","","","","","","","",""
"learning-instructions","263","1178015","0.0-4.0-9.0-0.0","spark_pilot_2","7301","1","11","Male","","","","","","","2839","<p> Now you will see the animals again and can search their chests for treasure. </p>
            <p> This time, you will not see how much treasure you earned, but you will earn more bonus money for making better choices. </p>","","instructions","","","","","","","","","","","","","",""
"revaluation","264","1178825","0.0-4.0-10.0-0.0","spark_pilot_2","7301","1","11","Male","","false","","","","","[807.9000000059605]","./assets/img/ocean/animals/octopus.jpg","[""ArrowLeft""]","second stage test","ocean","0","{""ArrowUp,ArrowLeft"":26,""ArrowUp,ArrowRight"":10,""ArrowDown,ArrowLeft"":5,""ArrowDown,ArrowRight"":17}","true","ArrowUp,ArrowLeft","","","","original","1","","","",""
"html-keyboard-response","265","1179329","0.0-4.0-10.0-1.0","spark_pilot_2","7301","1","11","Male","","","","","","","null","<div style=""font-size:60px;"">+</div>","null","fixation","","","","","","","","","","","","","",""
"revaluation","266","1179907","0.0-4.0-10.0-0.1","spark_pilot_2","7301","1","11","Male","","false","","","","","[575.2999999970198]","./assets/img/ocean/animals/octopus.jpg","[""ArrowLeft""]","second stage test","ocean","0","{""ArrowUp,ArrowLeft"":26,""ArrowUp,ArrowRight"":10,""ArrowDown,ArrowLeft"":5,""ArrowDown,ArrowRight"":17}","true","ArrowUp,ArrowLeft","","","","original","1","","","",""
"html-keyboard-response","267","1180410","0.0-4.0-10.0-1.1","spark_pilot_2","7301","1","11","Male","","","","","","","null","<div style=""font-size:60px;"">+</div>","null","fixation","","","","","","","","","","","","","",""
"revaluation","268","1180933","0.0-4.0-10.0-0.2","spark_pilot_2","7301","1","11","Male","","false","","","","","[521.0999999940395]","./assets/img/ocean/animals/octopus.jpg","[""ArrowLeft""]","second stage test","ocean","0","{""ArrowUp,ArrowLeft"":26,""ArrowUp,ArrowRight"":10,""ArrowDown,ArrowLeft"":5,""ArrowDown,ArrowRight"":17}","true","ArrowUp,ArrowLeft","","","","original","1","","","",""
"html-keyboard-response","269","1181442","0.0-4.0-10.0-1.2","spark_pilot_2","7301","1","11","Male","","","","","","","null","<div style=""font-size:60px;"">+</div>","null","fixation","","","","","","","","","","","","","",""
"revaluation","270","1181924","0.0-4.0-10.0-0.3","spark_pilot_2","7301","1","11","Male","","false","","","","","[479.8999999910593]","./assets/img/ocean/animals/octopus.jpg","[""ArrowLeft""]","second stage test","ocean","0","{""ArrowUp,ArrowLeft"":26,""ArrowUp,ArrowRight"":10,""ArrowDown,ArrowLeft"":5,""ArrowDown,ArrowRight"":17}","true","ArrowUp,ArrowLeft","","","","original","1","","","",""
"html-keyboard-response","271","1182426","0.0-4.0-10.0-1.3","spark_pilot_2","7301","1","11","Male","","","","","","","null","<div style=""font-size:60px;"">+</div>","null","fixation","","","","","","","","","","","","","",""
"revaluation","272","1183391","0.0-4.0-10.0-0.4","spark_pilot_2","7301","1","11","Male","","false","","","","","[963.2000000029802]","./assets/img/ocean/animals/seahorse.jpg","[""ArrowRight""]","second stage test","ocean","0","{""ArrowUp,ArrowLeft"":26,""ArrowUp,ArrowRight"":10,""ArrowDown,ArrowLeft"":5,""ArrowDown,ArrowRight"":17}","true","ArrowDown,ArrowRight","","","","original","1","","","",""
"html-keyboard-response","273","1183898","0.0-4.0-10.0-1.4","spark_pilot_2","7301","1","11","Male","","","","","","","null","<div style=""font-size:60px;"">+</div>","null","fixation","","","","","","","","","","","","","",""
"revaluation","274","1184590","0.0-4.0-10.0-0.5","spark_pilot_2","7301","1","11","Male","","false","","","","","[689.2999999970198]","./assets/img/ocean/animals/seahorse.jpg","[""ArrowRight""]","second stage test","ocean","0","{""ArrowUp,ArrowLeft"":26,""ArrowUp,ArrowRight"":10,""ArrowDown,ArrowLeft"":5,""ArrowDown,ArrowRight"":17}","true","ArrowDown,ArrowRight","","","","original","1","","","",""
"html-keyboard-response","275","1185096","0.0-4.0-10.0-1.5","spark_pilot_2","7301","1","11","Male","","","","","","","null","<div style=""font-size:60px;"">+</div>","null","fixation","","","","","","","","","","","","","",""
"revaluation","276","1185613","0.0-4.0-10.0-0.6","spark_pilot_2","7301","1","11","Male","","false","","","","","[515]","./assets/img/ocean/animals/seahorse.jpg","[""ArrowRight""]","second stage test","ocean","0","{""ArrowUp,ArrowLeft"":26,""ArrowUp,ArrowRight"":10,""ArrowDown,ArrowLeft"":5,""ArrowDown,ArrowRight"":17}","true","ArrowDown,ArrowRight","","","","original","1","","","",""
"html-keyboard-response","277","1186122","0.0-4.0-10.0-1.6","spark_pilot_2","7301","1","11","Male","","","","","","","null","<div style=""font-size:60px;"">+</div>","null","fixation","","","","","","","","","","","","","",""
"revaluation","278","1186638","0.0-4.0-10.0-0.7","spark_pilot_2","7301","1","11","Male","","false","","","","","[514.5]","./assets/img/ocean/animals/seahorse.jpg","[""ArrowRight""]","second stage test","ocean","0","{""ArrowUp,ArrowLeft"":26,""ArrowUp,ArrowRight"":10,""ArrowDown,ArrowLeft"":5,""ArrowDown,ArrowRight"":17}","true","ArrowDown,ArrowRight","","","","original","1","","","",""
"html-keyboard-response","279","1187145","0.0-4.0-10.0-1.7","spark_pilot_2","7301","1","11","Male","","","","","","","null","<div style=""font-size:60px;"">+</div>","null","fixation","","","","","","","","","","","","","",""
"learning-instructions","280","1193925","0.0-4.0-0.1-0.2","spark_pilot_2","7301","1","11","Male","","","","","","","3998.8999999910593","<p> This time you are searching for treasure in the <b>canyon</b>.</p>","","instructions","","","","","","","","","","","","","",""
"learning-instructions","281","1213151","0.0-4.0-0.1-0.3","spark_pilot_2","7301","1","11","Male","","","","","","","1972.1000000089407","<p><b>New</b> animals with <b>new</b> treasure chests live here. You need to explore to discover where the animal with the best treasure chest is.</p>
                    <p> Like before, once you figure out which animal has the chest with the most treasure, you should try to get to that animal and select that chest! </p>","","instructions","","","","","","","","","","","","","",""
"learning-instructions","282","1228755","0.0-4.0-1.1-0.1","spark_pilot_2","7301","1","11","Male","","","","","","","868.7000000029802","<p> Remember, when you see a picture of the place, use the up and down keys to <b>find an animal</b>.</p>
            <p> When you encounter an animal, you should use the left and right keys to <b>select a treasure chest</b>.</p>
            <p> Don't forget to look out for the robber! </p>","","instructions","","","","","","","","","","","","","",""
"revaluation","283","1234779","0.0-4.0-2.1-0.50","spark_pilot_2","7301","1","11","Male","","false","","","","","[1187.5,531.4000000059605]","./assets/img/canyon/memory/7.jpg","[""ArrowUp"",""ArrowLeft""]","value training","canyon","23","{""ArrowUp,ArrowLeft"":23,""ArrowUp,ArrowRight"":10,""ArrowDown,ArrowLeft"":8,""ArrowDown,ArrowRight"":30}","false","ArrowUp,ArrowLeft","false","","","revaluation","2","0","","",""
"html-keyboard-response","284","1235282","0.0-4.0-2.1-1.50","spark_pilot_2","7301","1","11","Male","","","","","","","null","<div style=""font-size:60px;"">+</div>","null","fixation","","","","","","","","","","","1","","",""
"revaluation","285","1241308","0.0-4.0-2.1-0.51","spark_pilot_2","7301","1","11","Male","","false","","","","","[519.2000000029802,349.90000000596046]","./assets/img/canyon/memory/34.jpg","[""ArrowUp"",""ArrowRight""]","value training","canyon","10","{""ArrowUp,ArrowLeft"":23,""ArrowUp,ArrowRight"":10,""ArrowDown,ArrowLeft"":8,""ArrowDown,ArrowRight"":30}","false","ArrowUp,ArrowRight","false","","","revaluation","2","2","","",""
"html-keyboard-response","286","1241811","0.0-4.0-2.1-1.51","spark_pilot_2","7301","1","11","Male","","","","","","","null","<div style=""font-size:60px;"">+</div>","null","fixation","","","","","","","","","","","3","","",""
"revaluation","287","1247836","0.0-4.0-2.1-0.52","spark_pilot_2","7301","1","11","Male","","false","","","","","[305.30000001192093,381.59999999403954]","./assets/img/canyon/memory/30.jpg","[""ArrowDown"",""ArrowLeft""]","value training","canyon","8","{""ArrowUp,ArrowLeft"":23,""ArrowUp,ArrowRight"":10,""ArrowDown,ArrowLeft"":8,""ArrowDown,ArrowRight"":30}","false","ArrowDown,ArrowLeft","false","","","revaluation","2","4","","",""
"html-keyboard-response","288","1248339","0.0-4.0-2.1-1.52","spark_pilot_2","7301","1","11","Male","","","","","","","null","<div style=""font-size:60px;"">+</div>","null","fixation","","","","","","","","","","","5","","",""
"revaluation","289","1254363","0.0-4.0-2.1-0.53","spark_pilot_2","7301","1","11","Male","","false","","","","","[473.90000000596046,479.8999999910593]","./assets/img/canyon/memory/32.jpg","[""ArrowDown"",""ArrowRight""]","value training","canyon","30","{""ArrowUp,ArrowLeft"":23,""ArrowUp,ArrowRight"":10,""ArrowDown,ArrowLeft"":8,""ArrowDown,ArrowRight"":30}","true","ArrowDown,ArrowRight","false","","","revaluation","2","6","","",""
"html-keyboard-response","290","1254868","0.0-4.0-2.1-1.53","spark_pilot_2","7301","1","11","Male","","","","","","","null","<div style=""font-size:60px;"">+</div>","null","fixation","","","","","","","","","","","7","","",""
"revaluation","291","1260896","0.0-4.0-2.1-0.54","spark_pilot_2","7301","1","11","Male","","false","","","","","[1234.7000000029802,577.5]","./assets/img/canyon/memory/26.jpg","[""ArrowDown"",""ArrowRight""]","value training","canyon","30","{""ArrowUp,ArrowLeft"":23,""ArrowUp,ArrowRight"":10,""ArrowDown,ArrowLeft"":8,""ArrowDown,ArrowRight"":30}","true","ArrowDown,ArrowRight","false","","","revaluation","2","8","","",""
"html-keyboard-response","292","1261406","0.0-4.0-2.1-1.54","spark_pilot_2","7301","1","11","Male","","","","","","","null","<div style=""font-size:60px;"">+</div>","null","fixation","","","","","","","","","","","9","","",""
"revaluation","293","1267428","0.0-4.0-2.1-0.55","spark_pilot_2","7301","1","11","Male","","false","","","","","[527.9000000059605,417.09999999403954]","./assets/img/canyon/memory/15.jpg","[""ArrowDown"",""ArrowRight""]","value training","canyon","30","{""ArrowUp,ArrowLeft"":23,""ArrowUp,ArrowRight"":10,""ArrowDown,ArrowLeft"":8,""ArrowDown,ArrowRight"":30}","true","ArrowDown,ArrowRight","false","","","revaluation","2","10","","",""
"html-keyboard-response","294","1267931","0.0-4.0-2.1-1.55","spark_pilot_2","7301","1","11","Male","","","","","","","null","<div style=""font-size:60px;"">+</div>","null","fixation","","","","","","","","","","","11","","",""
"revaluation","295","1273956","0.0-4.0-2.1-0.56","spark_pilot_2","7301","1","11","Male","","false","","","","","[7.399999991059303,524.1000000089407]","./assets/img/canyon/memory/36.jpg","[""ArrowDown"",""ArrowRight""]","value training","canyon","30","{""ArrowUp,ArrowLeft"":23,""ArrowUp,ArrowRight"":10,""ArrowDown,ArrowLeft"":8,""ArrowDown,ArrowRight"":30}","true","ArrowDown,ArrowRight","false","","","revaluation","2","12","","",""
"html-keyboard-response","296","1274461","0.0-4.0-2.1-1.56","spark_pilot_2","7301","1","11","Male","","","","","","","null","<div style=""font-size:60px;"">+</div>","null","fixation","","","","","","","","","","","13","","",""
"revaluation","297","1280488","0.0-4.0-2.1-0.57","spark_pilot_2","7301","1","11","Male","","false","","","","","[719.8999999910593,647.2999999970198]","./assets/img/canyon/memory/28.jpg","[""ArrowDown"",""ArrowRight""]","value training","canyon","30","{""ArrowUp,ArrowLeft"":23,""ArrowUp,ArrowRight"":10,""ArrowDown,ArrowLeft"":8,""ArrowDown,ArrowRight"":30}","true","ArrowDown,ArrowRight","false","","","revaluation","2","14","","",""
"html-keyboard-response","298","1280998","0.0-4.0-2.1-1.57","spark_pilot_2","7301","1","11","Male","","","","","","","null","<div style=""font-size:60px;"">+</div>","null","fixation","","","","","","","","","","","15","","",""
"revaluation","299","1285016","0.0-4.0-2.1-0.58","spark_pilot_2","7301","1","11","Male","","false","","","","","[616.5999999940395]","./assets/img/canyon/catch/5.jpg","[""ArrowDown""]","value training","canyon","-10","{""ArrowUp,ArrowLeft"":23,""ArrowUp,ArrowRight"":10,""ArrowDown,ArrowLeft"":8,""ArrowDown,ArrowRight"":30}","false","ArrowDown","true","","","revaluation","2","16","","",""
"html-keyboard-response","300","1285527","0.0-4.0-2.1-1.58","spark_pilot_2","7301","1","11","Male","","","","","","","null","<div style=""font-size:60px;"">+</div>","null","fixation","","","","","","","","","","","17","","",""
"revaluation","301","1291549","0.0-4.0-2.1-0.59","spark_pilot_2","7301","1","11","Male","","false","","","","","[455.20000000298023,697.5999999940395]","./assets/img/canyon/memory/33.jpg","[""ArrowDown"",""ArrowRight""]","value training","canyon","30","{""ArrowUp,ArrowLeft"":23,""ArrowUp,ArrowRight"":10,""ArrowDown,ArrowLeft"":8,""ArrowDown,ArrowRight"":30}","true","ArrowDown,ArrowRight","false","","","revaluation","2","18","","",""
"html-keyboard-response","302","1292051","0.0-4.0-2.1-1.59","spark_pilot_2","7301","1","11","Male","","","","","","","null","<div style=""font-size:60px;"">+</div>","null","fixation","","","","","","","","","","","19","","",""
"revaluation","303","1298077","0.0-4.0-2.1-0.60","spark_pilot_2","7301","1","11","Male","","false","","","","","[1222.7000000029802,795.2000000029802]","./assets/img/canyon/memory/20.jpg","[""ArrowDown"",""ArrowRight""]","value training","canyon","30","{""ArrowUp,ArrowLeft"":23,""ArrowUp,ArrowRight"":10,""ArrowDown,ArrowLeft"":8,""ArrowDown,ArrowRight"":30}","true","ArrowDown,ArrowRight","false","","","revaluation","2","20","","",""
"html-keyboard-response","304","1298582","0.0-4.0-2.1-1.60","spark_pilot_2","7301","1","11","Male","","","","","","","null","<div style=""font-size:60px;"">+</div>","null","fixation","","","","","","","","","","","21","","",""
"revaluation","305","1304608","0.0-4.0-2.1-0.61","spark_pilot_2","7301","1","11","Male","","false","","","","","[1657.2000000029802,598.7000000029802]","./assets/img/canyon/memory/25.jpg","[""ArrowDown"",""ArrowRight""]","value training","canyon","30","{""ArrowUp,ArrowLeft"":23,""ArrowUp,ArrowRight"":10,""ArrowDown,ArrowLeft"":8,""ArrowDown,ArrowRight"":30}","true","ArrowDown,ArrowRight","false","","","revaluation","2","22","","",""
"html-keyboard-response","306","1305119","0.0-4.0-2.1-1.61","spark_pilot_2","7301","1","11","Male","","","","","","","null","<div style=""font-size:60px;"">+</div>","null","fixation","","","","","","","","","","","23","","",""
