"trial_type","trial_index","time_elapsed","internal_node_id","task_version","subject_id","assigned_condition","age","gender","success","timeout","failed_images","failed_audio","failed_video","browser_interaction","rt","stimulus","response","task_part","environment","score","rewardMap","correct","fullState","isCatch","numberMissed","duration","condition","order","trial_num","key_press","ground_truth","bonus"
"pavlovia","0","917","0.0-0.0","spark_pilot_2","7436","1","18","Female","","","","","","","","","","","","","","","","","","","","","","","",""
"preload","1","43749","0.0-1.0","spark_pilot_2","7436","1","18","Female","true","false","[]","[]","[]","[{""event"":""fullscreenenter"",""trial"":2,""time"":47340}]","","","","","","","","","","","","","","","","","",""
"fullscreen","2","48336","0.0-2.0","spark_pilot_2","7436","1","18","Female","true","","","","","","","","","","","","","","","","","","","","","","",""
"audio-button-response","3","50231","0.0-3.0-0.0-0.0","spark_pilot_2","7436","1","18","Female","","","","","","","1776","./assets/audio/audiotest/turtle.mp3","2","audio_test","","","","","","","","","","","","","",""
"learning-instructions","4","59565","0.0-3.0-1.0-0.0","spark_pilot_2","7436","1","18","Female","","","","","","","2320.4000005722046","<p> Welcome! Please remember to stay in fullscreen mode and don't click away from the experiment. </p>","","instructions","","","","","","","","","","","","","",""
"learning-instructions","5","69665","0.0-3.0-1.0-0.1","spark_pilot_2","7436","1","18","Female","","","","","","","1657.3999996185303","<p> Today you will be playing a game to earn treasure. </p>
            <p> At the end of the experiment, you will earn a bonus based on how much treasure you find. </p>
            <img src='./assets/img/instructions/treasure.jpg' class='instructions-image'>","","instructions","","","","","","","","","","","","","",""
"learning-instructions","6","79031","0.0-3.0-1.0-0.2","spark_pilot_2","7436","1","18","Female","","","","","","","1074.0999994277954","<p> Animals have hidden treasure in treasure chests. </p>
            <p> You need to first find an animal and then choose which of their treasure chests to search. </p>
            <img src='./assets/img/space/animals/cat.jpg' class='instructions-image'>","","instructions","","","","","","","","","","","","","",""
"learning-instructions","7","93314","0.0-3.0-1.0-0.3","spark_pilot_2","7436","1","18","Female","","","","","","","1082.9000005722046","<p> In each round, you will search for treasure in a different place. In the real game, there will be two rounds. </p>
            <p> You will begin with a separate, practice round where you will search for treasure in outer space. </p>
            <img src='./assets/img/space/0.jpg' class='instructions-image'>","","instructions","","","","","","","","","","","","","",""
"learning-instructions","8","105364","0.0-3.0-1.0-0.4","spark_pilot_2","7436","1","18","Female","","","","","","","594.5","<p> On every turn, you will see a picture of the place that you are in, but the specific image may be different each time. </p>
            <p> For example, both of these images mean you are in outer space. </p>
            <img src='./assets/img/instructions/outerspace.jpg' class='instructions-image'>","","instructions","","","","","","","","","","","","","",""
"learning-instructions","9","113714","0.0-3.0-1.0-0.5","spark_pilot_2","7436","1","18","Female","","","","","","","492","<p> You need to decide which direction to travel in. </p>
            <p> You can choose between going <b>up or down</b> by using the arrow keys. </p>
            <img src='./assets/img/instructions/updown.jpg' class='instructions-image'>","","instructions","","","","","","","","","","","","","",""
"learning-instructions","10","123467","0.0-3.0-1.0-0.6","spark_pilot_2","7436","1","18","Female","","","","","","","905.1999998092651","<p> You will have <b>2 seconds</b> to make your choice. </p>
            <p> If you do not make a choice within 2 seconds, you will not find an animal or earn treasure. </p>
            <img src='./assets/img/instructions/2seconds.jpg' class='instructions-image'>","","instructions","","","","","","","","","","","","","",""
"learning-instructions","11","131147","0.0-3.0-1.0-0.7","spark_pilot_2","7436","1","18","Female","","","","","","","615.1000003814697","<p> Let’s try practicing that now! </p>
            <p> When you see a picture of the place you are in, press the <b>up</b> key to travel up. </p>
            <img src='./assets/img/instructions/pressUp.jpg' class='instructions-image'>","","instructions","","","","","","","","","","","","","",""
"revaluation","12","135172","0.0-3.0-2.0-0.0","spark_pilot_2","7436","1","18","Female","","false","","","","","[611.3999996185303]","./assets/img/space/0.jpg","[""ArrowUp""]","first stage practice","space","0","null","null","ArrowUp","false","","","","","","","",""
"html-keyboard-response","13","135683","0.0-3.0-2.0-1.0","spark_pilot_2","7436","1","18","Female","","","","","","","null","<div style=""font-size:60px;"">+</div>","null","fixation","","","","","","","","","","","","","",""
"revaluation","14","139707","0.0-3.0-2.0-0.1","spark_pilot_2","7436","1","18","Female","","false","","","","","[885.1000003814697]","./assets/img/space/1.jpg","[""ArrowUp""]","first stage practice","space","0","null","null","ArrowUp","false","","","","","","","",""
"html-keyboard-response","15","140217","0.0-3.0-2.0-1.1","spark_pilot_2","7436","1","18","Female","","","","","","","null","<div style=""font-size:60px;"">+</div>","null","fixation","","","","","","","","","","","","","",""
"revaluation","16","144231","0.0-3.0-2.0-0.2","spark_pilot_2","7436","1","18","Female","","false","","","","","[822.1000003814697]","./assets/img/space/2.jpg","[""ArrowUp""]","first stage practice","space","0","null","null","ArrowUp","false","","","","","","","",""
"html-keyboard-response","17","144737","0.0-3.0-2.0-1.2","spark_pilot_2","7436","1","18","Female","","","","","","","null","<div style=""font-size:60px;"">+</div>","null","fixation","","","","","","","","","","","","","",""
"learning-instructions","18","150267","0.0-3.0-3.0-0.0","spark_pilot_2","7436","1","18","Female","","","","","","","800.1999998092651","<p> Great job! Now try pressing the <b>down</b> key to travel down. </p>
            <img src='./assets/img/instructions/pressDown.jpg' class='instructions-image'>","","instructions","","","","","","","","","","","","","",""
"revaluation","19","154287","0.0-3.0-4.0-0.0","spark_pilot_2","7436","1","18","Female","","false","","","","","[861]","./assets/img/space/3.jpg","[""ArrowDown""]","first stage practice","space","0","null","null","ArrowDown","false","","","","","","","",""
"html-keyboard-response","20","154794","0.0-3.0-4.0-1.0","spark_pilot_2","7436","1","18","Female","","","","","","","null","<div style=""font-size:60px;"">+</div>","null","fixation","","","","","","","","","","","","","",""
"revaluation","21","158819","0.0-3.0-4.0-0.1","spark_pilot_2","7436","1","18","Female","","false","","","","","[308.70000076293945]","./assets/img/space/4.jpg","[""ArrowDown""]","first stage practice","space","0","null","null","ArrowDown","false","","","","","","","",""
"html-keyboard-response","22","159326","0.0-3.0-4.0-1.1","spark_pilot_2","7436","1","18","Female","","","","","","","null","<div style=""font-size:60px;"">+</div>","null","fixation","","","","","","","","","","","","","",""
"revaluation","23","163347","0.0-3.0-4.0-0.2","spark_pilot_2","7436","1","18","Female","","false","","","","","[561.8000001907349]","./assets/img/space/5.jpg","[""ArrowDown""]","first stage practice","space","0","null","null","ArrowDown","false","","","","","","","",""
"html-keyboard-response","24","163853","0.0-3.0-4.0-1.2","spark_pilot_2","7436","1","18","Female","","","","","","","null","<div style=""font-size:60px;"">+</div>","null","fixation","","","","","","","","","","","","","",""
"learning-instructions","25","175000","0.0-3.0-5.0-0.0","spark_pilot_2","7436","1","18","Female","","","","","","","1251.8999996185303","<p> The animals don’t move, so the animal in the upper part of a place will stay in the upper part of a place, and the animal in the lower part of a place will stay in the lower part of a place. </p>","","instructions","","","","","","","","","","","","","",""
"learning-instructions","26","185980","0.0-3.0-5.0-0.1","spark_pilot_2","7436","1","18","Female","","","","","","","1811.8000001907349","<p> Each animal has two treasure chests for you to choose from. </p>
            <p> The amount of treasure in each chest can range from <b> 0 to 40 pieces.</b></p>","","instructions","","","","","","","","","","","","","",""
"learning-instructions","27","197880","0.0-3.0-5.0-0.2","spark_pilot_2","7436","1","18","Female","","","","","","","685.4000005722046","<p> You should decide which chest to search for treasure by using the <b>left</b> and <b>right</b> arrow keys. </p>
            <p><b> Pay attention to which animal is on the screen, as the animals have different treasure chests. </b></p>
            <img src='./assets/img/instructions/leftright.jpg' class='instructions-image'>","","instructions","","","","","","","","","","","","","",""
"learning-instructions","28","205032","0.0-3.0-5.0-0.3","spark_pilot_2","7436","1","18","Female","","","","","","","761.4000005722046","<p> Let’s try practicing that now. </p>
            <p> When you see an animal, choose which chest to search for treasure. </p>
            <img src='./assets/img/instructions/chooseChest.jpg' class='instructions-image'>","","instructions","","","","","","","","","","","","","",""
"revaluation","29","209050","0.0-3.0-6.0-0.0","spark_pilot_2","7436","1","18","Female","","false","","","","","[589.6000003814697]","./assets/img/space/animals/cat.jpg","[""ArrowLeft""]","second stage practice","space","3","{""ArrowUp,ArrowLeft"":3,""ArrowUp,ArrowRight"":36,""ArrowDown,ArrowLeft"":15,""ArrowDown,ArrowRight"":23}","false","ArrowUp,ArrowLeft","","","","","","","","",""
"html-keyboard-response","30","209561","0.0-3.0-6.0-1.0","spark_pilot_2","7436","1","18","Female","","","","","","","null","<div style=""font-size:60px;"">+</div>","null","fixation","","","","","","","","","","","","","",""
"revaluation","31","213583","0.0-3.0-6.0-0.1","spark_pilot_2","7436","1","18","Female","","false","","","","","[702.8000001907349]","./assets/img/space/animals/cat.jpg","[""ArrowRight""]","second stage practice","space","36","{""ArrowUp,ArrowLeft"":3,""ArrowUp,ArrowRight"":36,""ArrowDown,ArrowLeft"":15,""ArrowDown,ArrowRight"":23}","true","ArrowUp,ArrowRight","","","","","","","","",""
"html-keyboard-response","32","214097","0.0-3.0-6.0-1.1","spark_pilot_2","7436","1","18","Female","","","","","","","null","<div style=""font-size:60px;"">+</div>","null","fixation","","","","","","","","","","","","","",""
"revaluation","33","218122","0.0-3.0-6.0-0.2","spark_pilot_2","7436","1","18","Female","","false","","","","","[964.1000003814697]","./assets/img/space/animals/rabbit.jpg","[""ArrowLeft""]","second stage practice","space","15","{""ArrowUp,ArrowLeft"":3,""ArrowUp,ArrowRight"":36,""ArrowDown,ArrowLeft"":15,""ArrowDown,ArrowRight"":23}","false","ArrowDown,ArrowLeft","","","","","","","","",""
"html-keyboard-response","34","218633","0.0-3.0-6.0-1.2","spark_pilot_2","7436","1","18","Female","","","","","","","null","<div style=""font-size:60px;"">+</div>","null","fixation","","","","","","","","","","","","","",""
"revaluation","35","222654","0.0-3.0-6.0-0.3","spark_pilot_2","7436","1","18","Female","","false","","","","","[515.8999996185303]","./assets/img/space/animals/rabbit.jpg","[""ArrowRight""]","second stage practice","space","23","{""ArrowUp,ArrowLeft"":3,""ArrowUp,ArrowRight"":36,""ArrowDown,ArrowLeft"":15,""ArrowDown,ArrowRight"":23}","true","ArrowDown,ArrowRight","","","","","","","","",""
"html-keyboard-response","36","223161","0.0-3.0-6.0-1.3","spark_pilot_2","7436","1","18","Female","","","","","","","null","<div style=""font-size:60px;"">+</div>","null","fixation","","","","","","","","","","","","","",""
"learning-instructions","37","241318","0.0-3.0-7.0-0.0","spark_pilot_2","7436","1","18","Female","","","","","","","1277.5","<p> Great job. Now let’s try putting it together. </p>
            <p> On each turn, you will first see a picture to remind you of the place you are in, and you need to choose whether to go up or down. </p>
            <p> Then you will see an animal and choose which of its chests to search for treasure. </p>","","instructions","","","","","","","","","","","","","",""
"learning-instructions","38","250965","0.0-3.0-7.0-0.1","spark_pilot_2","7436","1","18","Female","","","","","","","1358.0999994277954","<p> When you choose whether to go up or down, try to go to the animal with the chest with the most treasure. </p>
            <p> Try practicing that now! </p>","","instructions","","","","","","","","","","","","","",""
"revaluation","39","256993","0.0-3.0-8.0-0.0","spark_pilot_2","7436","1","18","Female","","false","","","","","[888.2000007629395,698.5]","./assets/img/space/6.jpg","[""ArrowUp"",""ArrowRight""]","full practice","space","36","{""ArrowUp,ArrowLeft"":3,""ArrowUp,ArrowRight"":36,""ArrowDown,ArrowLeft"":15,""ArrowDown,ArrowRight"":23}","true","ArrowUp,ArrowRight","false","","","","","","","",""
"html-keyboard-response","40","257502","0.0-3.0-8.0-1.0","spark_pilot_2","7436","1","18","Female","","","","","","","null","<div style=""font-size:60px;"">+</div>","null","fixation","","","","","","","","","","","","","",""
"revaluation","41","263529","0.0-3.0-8.0-0.1","spark_pilot_2","7436","1","18","Female","","false","","","","","[734.6000003814697,558.7999992370605]","./assets/img/space/7.jpg","[""ArrowUp"",""ArrowRight""]","full practice","space","36","{""ArrowUp,ArrowLeft"":3,""ArrowUp,ArrowRight"":36,""ArrowDown,ArrowLeft"":15,""ArrowDown,ArrowRight"":23}","true","ArrowUp,ArrowRight","false","","","","","","","",""
"html-keyboard-response","42","264036","0.0-3.0-8.0-1.1","spark_pilot_2","7436","1","18","Female","","","","","","","null","<div style=""font-size:60px;"">+</div>","null","fixation","","","","","","","","","","","","","",""
"revaluation","43","270065","0.0-3.0-8.0-0.2","spark_pilot_2","7436","1","18","Female","","false","","","","","[838.9000005722046,450.9000005722046]","./assets/img/space/8.jpg","[""ArrowUp"",""ArrowRight""]","full practice","space","36","{""ArrowUp,ArrowLeft"":3,""ArrowUp,ArrowRight"":36,""ArrowDown,ArrowLeft"":15,""ArrowDown,ArrowRight"":23}","true","ArrowUp,ArrowRight","false","","","","","","","",""
"html-keyboard-response","44","270572","0.0-3.0-8.0-1.2","spark_pilot_2","7436","1","18","Female","","","","","","","null","<div style=""font-size:60px;"">+</div>","null","fixation","","","","","","","","","","","","","",""
"revaluation","45","276597","0.0-3.0-8.0-0.3","spark_pilot_2","7436","1","18","Female","","false","","","","","[840.5,622.6000003814697]","./assets/img/space/9.jpg","[""ArrowUp"",""ArrowRight""]","full practice","space","36","{""ArrowUp,ArrowLeft"":3,""ArrowUp,ArrowRight"":36,""ArrowDown,ArrowLeft"":15,""ArrowDown,ArrowRight"":23}","true","ArrowUp,ArrowRight","false","","","","","","","",""
"html-keyboard-response","46","277099","0.0-3.0-8.0-1.3","spark_pilot_2","7436","1","18","Female","","","","","","","null","<div style=""font-size:60px;"">+</div>","null","fixation","","","","","","","","","","","","","",""
"revaluation","47","283125","0.0-3.0-8.0-0.4","spark_pilot_2","7436","1","18","Female","","false","","","","","[556.3000001907349,453.30000019073486]","./assets/img/space/10.jpg","[""ArrowUp"",""ArrowRight""]","full practice","space","36","{""ArrowUp,ArrowLeft"":3,""ArrowUp,ArrowRight"":36,""ArrowDown,ArrowLeft"":15,""ArrowDown,ArrowRight"":23}","true","ArrowUp,ArrowRight","false","","","","","","","",""
"html-keyboard-response","48","283629","0.0-3.0-8.0-1.4","spark_pilot_2","7436","1","18","Female","","","","","","","null","<div style=""font-size:60px;"">+</div>","null","fixation","","","","","","","","","","","","","",""
"learning-instructions","49","295097","0.0-3.0-9.0-0.0","spark_pilot_2","7436","1","18","Female","","","","","","","1005.3000001907349","<p> One last thing: sometimes, you will see a robber. The robber can be anywhere in the picture. </p>
            <p> If you do not stop them, you will lose treasure. </p>
            <img src='./assets/img/instructions/robber.jpg' class='instructions-image'>","","instructions","","","","","","","","","","","","","",""
"learning-instructions","50","303181","0.0-3.0-9.0-0.1","spark_pilot_2","7436","1","18","Female","","","","","","","893.6000003814697","<p> If you see the robber, you should <b>press the space bar</b> rather than using the arrow keys. </p>
            <p> Try practicing that now! </p>","","instructions","","","","","","","","","","","","","",""
"revaluation","51","307200","0.0-3.0-10.0-0.0","spark_pilot_2","7436","1","18","Female","","false","","","","","[1659]","./assets/img/space/catch/0.jpg","[""ArrowUp""]","catch practice","space","-10","{""ArrowUp,ArrowLeft"":3,""ArrowUp,ArrowRight"":36,""ArrowDown,ArrowLeft"":15,""ArrowDown,ArrowRight"":23}","false","ArrowUp","true","","","","","","","",""
"html-keyboard-response","52","307707","0.0-3.0-10.0-1.0","spark_pilot_2","7436","1","18","Female","","","","","","","null","<div style=""font-size:60px;"">+</div>","null","fixation","","","","","","","","","","","","","",""
"revaluation","53","311728","0.0-3.0-10.0-0.1","spark_pilot_2","7436","1","18","Female","","false","","","","","[510.8999996185303]","./assets/img/space/catch/1.jpg","[""spaceBar""]","catch practice","space","0","{""ArrowUp,ArrowLeft"":3,""ArrowUp,ArrowRight"":36,""ArrowDown,ArrowLeft"":15,""ArrowDown,ArrowRight"":23}","true","spaceBar","true","","","","","","","",""
"html-keyboard-response","54","312239","0.0-3.0-10.0-1.1","spark_pilot_2","7436","1","18","Female","","","","","","","null","<div style=""font-size:60px;"">+</div>","null","fixation","","","","","","","","","","","","","",""
"revaluation","55","316264","0.0-3.0-10.0-0.2","spark_pilot_2","7436","1","18","Female","","false","","","","","[456]","./assets/img/space/catch/2.jpg","[""spaceBar""]","catch practice","space","0","{""ArrowUp,ArrowLeft"":3,""ArrowUp,ArrowRight"":36,""ArrowDown,ArrowLeft"":15,""ArrowDown,ArrowRight"":23}","true","spaceBar","true","","","","","","","",""
"html-keyboard-response","56","316775","0.0-3.0-10.0-1.2","spark_pilot_2","7436","1","18","Female","","","","","","","null","<div style=""font-size:60px;"">+</div>","null","fixation","","","","","","","","","","","","","",""
"learning-instructions","57","331031","0.0-3.0-11.0-0.0","spark_pilot_2","7436","1","18","Female","","","","","","","548.8000001907349","<p> After you explore a place to find treasure, it will be time to play a different game. </p>
            <p> During this game, red dots will appear on the screen and fall down slowly. </p>
            <p><b> You must click on them before they reach the bottom. </b></p>
            <img src='./assets/img/instructions/dotGame.jpg' class='instructions-image'>","","instructions","","","","","","","","","","","","","",""
"learning-instructions","58","340048","0.0-3.0-11.0-0.1","spark_pilot_2","7436","1","18","Female","","","","","","","3314.0999994277954","<p> For every dot you click, you will earn additional treasure. </p>
            <p> Let’s try practicing that now. </p>","","instructions","","","","","","","","","","","","","",""
"revaluation","59","355062","0.0-3.0-12.0-0.0","spark_pilot_2","7436","1","18","Female","","","","","","","[187]","","","rest practice","","10","","","","","0","15000","","","","","",""
"learning-instructions","60","361766","0.0-3.0-13.0-0.0-0.0","spark_pilot_2","7436","1","18","Female","","","","","","","1458.6999998092651","<p> Now, you will practice a shortened version of the game to get a sense of how it all fits together. </p>","","instructions","","","","","","","","","","","","","",""
"learning-instructions","61","366449","0.0-3.0-13.0-0.0-0.1","spark_pilot_2","7436","1","18","Female","","","","","","","1474.2000007629395","<p>This time you are searching for treasure in outer space.</p>","","instructions","","","","","","","","","","","","","",""
"learning-instructions","62","382766","0.0-3.0-13.0-1.0-0.0","spark_pilot_2","7436","1","18","Female","","","","","","","1485.1999998092651","<p> Remember, when you see a picture of the place, use the up and down keys to <b>find an animal</b>.</p>
            <p> When you encounter an animal, you should use the left and right keys to <b>select a treasure chest</b>.</p>
            <p> Don't forget to look out for the robber! </p>","","instructions","","","","","","","","","","","","","",""
"revaluation","63","388795","0.0-3.0-13.0-2.0-0.0","spark_pilot_2","7436","1","18","Female","","false","","","","","[755.3999996185303,497.9000005722046]","./assets/img/space/11.jpg","[""ArrowUp"",""ArrowRight""]","practice block","space","36","{""ArrowUp,ArrowLeft"":3,""ArrowUp,ArrowRight"":36,""ArrowDown,ArrowLeft"":15,""ArrowDown,ArrowRight"":23}","true","ArrowUp,ArrowRight","false","","","","","","","",""
"html-keyboard-response","64","389298","0.0-3.0-13.0-2.0-1.0","spark_pilot_2","7436","1","18","Female","","","","","","","null","<div style=""font-size:60px;"">+</div>","null","fixation","","","","","","","","","","","","","",""
"revaluation","65","395327","0.0-3.0-13.0-2.0-0.1","spark_pilot_2","7436","1","18","Female","","false","","","","","[666.8000001907349,347.69999980926514]","./assets/img/space/12.jpg","[""ArrowUp"",""ArrowRight""]","practice block","space","36","{""ArrowUp,ArrowLeft"":3,""ArrowUp,ArrowRight"":36,""ArrowDown,ArrowLeft"":15,""ArrowDown,ArrowRight"":23}","true","ArrowUp,ArrowRight","false","","","","","","","",""
"html-keyboard-response","66","395838","0.0-3.0-13.0-2.0-1.1","spark_pilot_2","7436","1","18","Female","","","","","","","null","<div style=""font-size:60px;"">+</div>","null","fixation","","","","","","","","","","","","","",""
"revaluation","67","401870","0.0-3.0-13.0-2.0-0.2","spark_pilot_2","7436","1","18","Female","","false","","","","","[529.3000001907349,332.30000019073486]","./assets/img/space/13.jpg","[""ArrowUp"",""ArrowRight""]","practice block","space","36","{""ArrowUp,ArrowLeft"":3,""ArrowUp,ArrowRight"":36,""ArrowDown,ArrowLeft"":15,""ArrowDown,ArrowRight"":23}","true","ArrowUp,ArrowRight","false","","","","","","","",""
"html-keyboard-response","68","402377","0.0-3.0-13.0-2.0-1.2","spark_pilot_2","7436","1","18","Female","","","","","","","null","<div style=""font-size:60px;"">+</div>","null","fixation","","","","","","","","","","","","","",""
"revaluation","69","408406","0.0-3.0-13.0-2.0-0.3","spark_pilot_2","7436","1","18","Female","","false","","","","","[534.1000003814697,374]","./assets/img/space/14.jpg","[""ArrowUp"",""ArrowRight""]","practice block","space","36","{""ArrowUp,ArrowLeft"":3,""ArrowUp,ArrowRight"":36,""ArrowDown,ArrowLeft"":15,""ArrowDown,ArrowRight"":23}","true","ArrowUp,ArrowRight","false","","","","","","","",""
"html-keyboard-response","70","408918","0.0-3.0-13.0-2.0-1.3","spark_pilot_2","7436","1","18","Female","","","","","","","null","<div style=""font-size:60px;"">+</div>","null","fixation","","","","","","","","","","","","","",""
"revaluation","71","414949","0.0-3.0-13.0-2.0-0.4","spark_pilot_2","7436","1","18","Female","","false","","","","","[511.5,430.80000019073486]","./assets/img/space/11.jpg","[""ArrowUp"",""ArrowRight""]","practice block","space","36","{""ArrowUp,ArrowLeft"":3,""ArrowUp,ArrowRight"":36,""ArrowDown,ArrowLeft"":15,""ArrowDown,ArrowRight"":23}","true","ArrowUp,ArrowRight","false","","","","","","","",""
"html-keyboard-response","72","415460","0.0-3.0-13.0-2.0-1.4","spark_pilot_2","7436","1","18","Female","","","","","","","null","<div style=""font-size:60px;"">+</div>","null","fixation","","","","","","","","","","","","","",""
"revaluation","73","421486","0.0-3.0-13.0-2.0-0.5","spark_pilot_2","7436","1","18","Female","","false","","","","","[477.8999996185303,325.30000019073486]","./assets/img/space/12.jpg","[""ArrowUp"",""ArrowRight""]","practice block","space","36","{""ArrowUp,ArrowLeft"":3,""ArrowUp,ArrowRight"":36,""ArrowDown,ArrowLeft"":15,""ArrowDown,ArrowRight"":23}","true","ArrowUp,ArrowRight","false","","","","","","","",""
"html-keyboard-response","74","421996","0.0-3.0-13.0-2.0-1.5","spark_pilot_2","7436","1","18","Female","","","","","","","null","<div style=""font-size:60px;"">+</div>","null","fixation","","","","","","","","","","","","","",""
"revaluation","75","428021","0.0-3.0-13.0-2.0-0.6","spark_pilot_2","7436","1","18","Female","","false","","","","","[454.8999996185303,386]","./assets/img/space/13.jpg","[""ArrowUp"",""ArrowRight""]","practice block","space","36","{""ArrowUp,ArrowLeft"":3,""ArrowUp,ArrowRight"":36,""ArrowDown,ArrowLeft"":15,""ArrowDown,ArrowRight"":23}","true","ArrowUp,ArrowRight","false","","","","","","","",""
"html-keyboard-response","76","428532","0.0-3.0-13.0-2.0-1.6","spark_pilot_2","7436","1","18","Female","","","","","","","null","<div style=""font-size:60px;"">+</div>","null","fixation","","","","","","","","","","","","","",""
"revaluation","77","434558","0.0-3.0-13.0-2.0-0.7","spark_pilot_2","7436","1","18","Female","","false","","","","","[490.30000019073486,393.4000005722046]","./assets/img/space/14.jpg","[""ArrowUp"",""ArrowRight""]","practice block","space","36","{""ArrowUp,ArrowLeft"":3,""ArrowUp,ArrowRight"":36,""ArrowDown,ArrowLeft"":15,""ArrowDown,ArrowRight"":23}","true","ArrowUp,ArrowRight","false","","","","","","","",""
"html-keyboard-response","78","435068","0.0-3.0-13.0-2.0-1.7","spark_pilot_2","7436","1","18","Female","","","","","","","null","<div style=""font-size:60px;"">+</div>","null","fixation","","","","","","","","","","","","","",""
"revaluation","79","439092","0.0-3.0-13.0-2.0-0.8","spark_pilot_2","7436","1","18","Female","","false","","","","","[577.8999996185303]","./assets/img/space/catch/3.jpg","[""spaceBar""]","practice block","space","0","{""ArrowUp,ArrowLeft"":3,""ArrowUp,ArrowRight"":36,""ArrowDown,ArrowLeft"":15,""ArrowDown,ArrowRight"":23}","true","spaceBar","true","","","","","","","",""
"html-keyboard-response","80","439602","0.0-3.0-13.0-2.0-1.8","spark_pilot_2","7436","1","18","Female","","","","","","","null","<div style=""font-size:60px;"">+</div>","null","fixation","","","","","","","","","","","","","",""
"learning-instructions","81","453732","0.0-3.0-13.0-3.0-0.0","spark_pilot_2","7436","1","18","Female","","","","","","","656.1999998092651","<p> Now, you will travel with a friend who will choose whether you go up or down first. </p>
            <p> On these turns, you will just see the animal that they found. You will still get to choose which chest to search for treasure.</p>","","instructions","","","","","","","","","","","","","",""
"revaluation","82","457745","0.0-3.0-13.0-4.0-0.0","spark_pilot_2","7436","1","18","Female","","false","","","","","[852.6999998092651]","./assets/img/space/animals/cat.jpg","[""ArrowRight""]","practice block","space","36","{""ArrowUp,ArrowLeft"":3,""ArrowUp,ArrowRight"":36,""ArrowDown,ArrowLeft"":15,""ArrowDown,ArrowRight"":23}","true","ArrowUp,ArrowRight","","","","","","","","",""
"html-keyboard-response","83","458253","0.0-3.0-13.0-4.0-1.0","spark_pilot_2","7436","1","18","Female","","","","","","","null","<div style=""font-size:60px;"">+</div>","null","fixation","","","","","","","","","","","","","",""
"revaluation","84","462277","0.0-3.0-13.0-4.0-0.1","spark_pilot_2","7436","1","18","Female","","false","","","","","[564.2999992370605]","./assets/img/space/animals/rabbit.jpg","[""ArrowRight""]","practice block","space","23","{""ArrowUp,ArrowLeft"":3,""ArrowUp,ArrowRight"":36,""ArrowDown,ArrowLeft"":15,""ArrowDown,ArrowRight"":23}","true","ArrowDown,ArrowRight","","","","","","","","",""
"html-keyboard-response","85","462789","0.0-3.0-13.0-4.0-1.1","spark_pilot_2","7436","1","18","Female","","","","","","","null","<div style=""font-size:60px;"">+</div>","null","fixation","","","","","","","","","","","","","",""
"revaluation","86","466809","0.0-3.0-13.0-4.0-0.2","spark_pilot_2","7436","1","18","Female","","false","","","","","[569.8000001907349]","./assets/img/space/animals/cat.jpg","[""ArrowRight""]","practice block","space","36","{""ArrowUp,ArrowLeft"":3,""ArrowUp,ArrowRight"":36,""ArrowDown,ArrowLeft"":15,""ArrowDown,ArrowRight"":23}","true","ArrowUp,ArrowRight","","","","","","","","",""
"html-keyboard-response","87","467314","0.0-3.0-13.0-4.0-1.2","spark_pilot_2","7436","1","18","Female","","","","","","","null","<div style=""font-size:60px;"">+</div>","null","fixation","","","","","","","","","","","","","",""
"revaluation","88","471333","0.0-3.0-13.0-4.0-0.3","spark_pilot_2","7436","1","18","Female","","false","","","","","[643.8000001907349]","./assets/img/space/animals/rabbit.jpg","[""ArrowRight""]","practice block","space","23","{""ArrowUp,ArrowLeft"":3,""ArrowUp,ArrowRight"":36,""ArrowDown,ArrowLeft"":15,""ArrowDown,ArrowRight"":23}","true","ArrowDown,ArrowRight","","","","","","","","",""
"html-keyboard-response","89","471845","0.0-3.0-13.0-4.0-1.3","spark_pilot_2","7436","1","18","Female","","","","","","","null","<div style=""font-size:60px;"">+</div>","null","fixation","","","","","","","","","","","","","",""
"learning-instructions","90","480632","0.0-3.0-13.0-5.0-0.0","spark_pilot_2","7436","1","18","Female","","","","","","","1387.6000003814697","<p> Time to play the dot game! </p>
            <p> For 15 seconds, click the red dots on the following screen as they appear. </p>","","instructions","","","","","","","","","","","","","",""
"revaluation","91","495642","0.0-3.0-13.0-6.0-0.0","spark_pilot_2","7436","1","18","Female","","","","","","","[99]","","","rest practice","","10","","","","","0","15000","","","","","",""
"learning-instructions","92","504333","0.0-3.0-13.0-7.0-0.0","spark_pilot_2","7436","1","18","Female","","","","","","","2536.2999992370605","<p> You have almost finished this part of the game! </p>
            <p> We are going to ask you to make a few more choices. </p>","","instructions","","","","","","","","","","","","","",""
"learning-instructions","93","519583","0.0-3.0-13.0-7.0-0.1","spark_pilot_2","7436","1","18","Female","","","","","","","1190.1000003814697","<p> First, you need to decide whether to go up or down. When you see each picture, use the arrow keys to make your choice. </p>
            <p><b>You will not see which animal you found, but try to get to the one that will give you the most treasure.</b></p>","","instructions","","","","","","","","","","","","","",""
"revaluation","94","520088","0.0-3.0-13.0-8.0","spark_pilot_2","7436","1","18","Female","","false","","","","","[502]","./assets/img/space/15.jpg","[""ArrowUp""]","practice block","space","0","{""ArrowUp,ArrowLeft"":3,""ArrowUp,ArrowRight"":36,""ArrowDown,ArrowLeft"":15,""ArrowDown,ArrowRight"":23}","true","ArrowUp","false","","","","","","","",""
"html-keyboard-response","95","520594","0.0-3.0-13.0-9.0","spark_pilot_2","7436","1","18","Female","","","","","","","null","<div style=""font-size:60px;"">+</div>","null","fixation","","","","","","","","","","","","","",""
"learning-instructions","96","532649","0.0-3.0-13.0-10.0-0.0","spark_pilot_2","7436","1","18","Female","","","","","","","632.5","<p> Now you will see the animals again and can search their chests for treasure. </p>
            <p> This time, you will not see how much treasure you earned, but you will earn more bonus money for making better choices. </p>","","instructions","","","","","","","","","","","","","",""
"revaluation","97","533093","0.0-3.0-13.0-11.0-0.0","spark_pilot_2","7436","1","18","Female","","false","","","","","[440.5]","./assets/img/space/animals/cat.jpg","[""ArrowRight""]","practice block","space","0","{""ArrowUp,ArrowLeft"":3,""ArrowUp,ArrowRight"":36,""ArrowDown,ArrowLeft"":15,""ArrowDown,ArrowRight"":23}","true","ArrowUp,ArrowRight","","","","","","","","",""
"html-keyboard-response","98","533599","0.0-3.0-13.0-11.0-1.0","spark_pilot_2","7436","1","18","Female","","","","","","","null","<div style=""font-size:60px;"">+</div>","null","fixation","","","","","","","","","","","","","",""
"revaluation","99","534261","0.0-3.0-13.0-11.0-0.1","spark_pilot_2","7436","1","18","Female","","false","","","","","[657.8999996185303]","./assets/img/space/animals/rabbit.jpg","[""ArrowRight""]","practice block","space","0","{""ArrowUp,ArrowLeft"":3,""ArrowUp,ArrowRight"":36,""ArrowDown,ArrowLeft"":15,""ArrowDown,ArrowRight"":23}","true","ArrowDown,ArrowRight","","","","","","","","",""
"html-keyboard-response","100","534772","0.0-3.0-13.0-11.0-1.1","spark_pilot_2","7436","1","18","Female","","","","","","","null","<div style=""font-size:60px;"">+</div>","null","fixation","","","","","","","","","","","","","",""
"learning-instructions","101","540365","0.0-3.0-14.0-0.0","spark_pilot_2","7436","1","18","Female","","","","","","","988.1999998092651","<p> Before you start, we're going to ask you a few questions about how the game works. </p>","","instructions","","","","","","","","","","","","","",""
"comp-q","102","547432","0.0-3.0-15.0-0.0-0.0","spark_pilot_2","7436","1","18","Female","","","","","","","1457","<p> <b> True or False? </b> </p>
            <p> There can be 50 pieces of treasure in a given animal's chest. </p>","1","comp_question","","","","true","","","","","","","","","",""
"comp-q","103","555232","0.0-3.0-15.0-0.0-1.0","spark_pilot_2","7436","1","18","Female","","","","","","","1110.8999996185303","<p> <b> That's right! </b> The amount of treasure in each chest can range from 0 to 40 pieces. </p>","0","comp_answer","","","","","","","","","","","","","",""
"comp-q","104","563616","0.0-3.0-15.0-0.1-0.1","spark_pilot_2","7436","1","18","Female","","","","","","","1234","<p> <b> True or False? </b> </p><p> In this game, all animals have the same amount of treasure in their left and right chests. </p>","1","comp_question","","","","true","","","","","","","","","",""
"comp-q","105","569967","0.0-3.0-15.0-0.1-1.1","spark_pilot_2","7436","1","18","Female","","","","","","","1095.5999994277954","<p> <b> That's right! </b> Animals have different amounts of treasure in their treasure chests. </p>","0","comp_answer","","","","","","","","","","","","","",""
"comp-q","106","577149","0.0-3.0-15.0-0.2-0.2","spark_pilot_2","7436","1","18","Female","","","","","","","1311.5","<p> <b> True or False? </b> </p><p> The same animal will always be there if you go up in the same place. </p>","0","comp_question","","","","true","","","","","","","","","",""
"comp-q","107","584516","0.0-3.0-15.0-0.2-1.2","spark_pilot_2","7436","1","18","Female","","","","","","","894.0999994277954","<p> <b> That's right! </b> One animal lives in the upper part and one lives in the lower part of every place. </p>","0","comp_answer","","","","","","","","","","","","","",""
"comp-q","108","590700","0.0-3.0-15.0-0.3-0.3","spark_pilot_2","7436","1","18","Female","","","","","","","634.4000005722046","<p> <b> True or False? </b> </p><p> If you see a different picture, it means you are in a new place. </p>","1","comp_question","","","","true","","","","","","","","","",""
"comp-q","109","603166","0.0-3.0-15.0-0.3-1.3","spark_pilot_2","7436","1","18","Female","","","","","","","1188.6000003814697","<p> <b> That's right! </b> Lots of different images may show the same place. For example,  you may see three different images that all remind you that you are in outer space. </p>","0","comp_answer","","","","","","","","","","","","","",""
"learning-instructions","110","614082","0.0-3.0-16.0-0.0","spark_pilot_2","7436","1","18","Female","","","","","","","1035.5","<p> Good job. Remember to do your best because the amount of treasure you earn will be converted into bonus money. </p>
            <p> It’s time to start the real game! </p>","","instructions","","","","","","","","","","","","","",""
"learning-instructions","111","618066","0.0-4.0-0.0-0.0","spark_pilot_2","7436","1","18","Female","","","","","","","1257.3000001907349","<p> This time you are searching for treasure in the <b>ocean</b>.</p>","","instructions","","","","","","","","","","","","","",""
"learning-instructions","112","647316","0.0-4.0-0.0-0.1","spark_pilot_2","7436","1","18","Female","","","","","","","11844.800000190735","<p><b>New</b> animals with <b>new</b> treasure chests live here. You need to explore to discover where the animal with the best treasure chest is.</p>
                    <p> Like before, once you figure out which animal has the chest with the most treasure, you should try to get to that animal and select that chest! </p>","","instructions","","","","","","","","","","","","","",""
"learning-instructions","113","663482","0.0-4.0-1.0-0.0","spark_pilot_2","7436","1","18","Female","","","","","","","1436.6000003814697","<p> Remember, when you see a picture of the place, use the up and down keys to <b>find an animal</b>.</p>
            <p> When you encounter an animal, you should use the left and right keys to <b>select a treasure chest</b>.</p>
            <p> Don't forget to look out for the robber! </p>","","instructions","","","","","","","","","","","","","",""
"revaluation","114","669510","0.0-4.0-2.0-0.0","spark_pilot_2","7436","1","18","Female","","false","","","","","[792.5,425.8999996185303]","./assets/img/ocean/memory/29.jpg","[""ArrowDown"",""ArrowLeft""]","value training","ocean","5","{""ArrowUp,ArrowLeft"":26,""ArrowUp,ArrowRight"":10,""ArrowDown,ArrowLeft"":5,""ArrowDown,ArrowRight"":17}","false","ArrowDown,ArrowLeft","false","","","original","1","0","","",""
"html-keyboard-response","115","670021","0.0-4.0-2.0-1.0","spark_pilot_2","7436","1","18","Female","","","","","","","null","<div style=""font-size:60px;"">+</div>","null","fixation","","","","","","","","","","","1","","",""
"revaluation","116","676050","0.0-4.0-2.0-0.1","spark_pilot_2","7436","1","18","Female","","false","","","","","[402.5,553.1999998092651]","./assets/img/ocean/memory/24.jpg","[""ArrowDown"",""ArrowRight""]","value training","ocean","17","{""ArrowUp,ArrowLeft"":26,""ArrowUp,ArrowRight"":10,""ArrowDown,ArrowLeft"":5,""ArrowDown,ArrowRight"":17}","false","ArrowDown,ArrowRight","false","","","original","1","2","","",""
"html-keyboard-response","117","676556","0.0-4.0-2.0-1.1","spark_pilot_2","7436","1","18","Female","","","","","","","null","<div style=""font-size:60px;"">+</div>","null","fixation","","","","","","","","","","","3","","",""
"revaluation","118","682582","0.0-4.0-2.0-0.2","spark_pilot_2","7436","1","18","Female","","false","","","","","[396.30000019073486,329.5]","./assets/img/ocean/memory/13.jpg","[""ArrowUp"",""ArrowRight""]","value training","ocean","10","{""ArrowUp,ArrowLeft"":26,""ArrowUp,ArrowRight"":10,""ArrowDown,ArrowLeft"":5,""ArrowDown,ArrowRight"":17}","false","ArrowUp,ArrowRight","false","","","original","1","4","","",""
"html-keyboard-response","119","683089","0.0-4.0-2.0-1.2","spark_pilot_2","7436","1","18","Female","","","","","","","null","<div style=""font-size:60px;"">+</div>","null","fixation","","","","","","","","","","","5","","",""
"revaluation","120","689121","0.0-4.0-2.0-0.3","spark_pilot_2","7436","1","18","Female","","false","","","","","[340.80000019073486,305.5]","./assets/img/ocean/memory/39.jpg","[""ArrowUp"",""ArrowLeft""]","value training","ocean","26","{""ArrowUp,ArrowLeft"":26,""ArrowUp,ArrowRight"":10,""ArrowDown,ArrowLeft"":5,""ArrowDown,ArrowRight"":17}","true","ArrowUp,ArrowLeft","false","","","original","1","6","","",""
"html-keyboard-response","121","689633","0.0-4.0-2.0-1.3","spark_pilot_2","7436","1","18","Female","","","","","","","null","<div style=""font-size:60px;"">+</div>","null","fixation","","","","","","","","","","","7","","",""
"revaluation","122","695663","0.0-4.0-2.0-0.4","spark_pilot_2","7436","1","18","Female","","false","","","","","[429.30000019073486,364.69999980926514]","./assets/img/ocean/memory/39.jpg","[""ArrowUp"",""ArrowLeft""]","value training","ocean","26","{""ArrowUp,ArrowLeft"":26,""ArrowUp,ArrowRight"":10,""ArrowDown,ArrowLeft"":5,""ArrowDown,ArrowRight"":17}","true","ArrowUp,ArrowLeft","false","","","original","1","8","","",""
"html-keyboard-response","123","696173","0.0-4.0-2.0-1.4","spark_pilot_2","7436","1","18","Female","","","","","","","null","<div style=""font-size:60px;"">+</div>","null","fixation","","","","","","","","","","","9","","",""
"revaluation","124","702199","0.0-4.0-2.0-0.5","spark_pilot_2","7436","1","18","Female","","false","","","","","[410.5,361.80000019073486]","./assets/img/ocean/memory/4.jpg","[""ArrowUp"",""ArrowLeft""]","value training","ocean","26","{""ArrowUp,ArrowLeft"":26,""ArrowUp,ArrowRight"":10,""ArrowDown,ArrowLeft"":5,""ArrowDown,ArrowRight"":17}","true","ArrowUp,ArrowLeft","false","","","original","1","10","","",""
"html-keyboard-response","125","702709","0.0-4.0-2.0-1.5","spark_pilot_2","7436","1","18","Female","","","","","","","null","<div style=""font-size:60px;"">+</div>","null","fixation","","","","","","","","","","","11","","",""
"revaluation","126","708735","0.0-4.0-2.0-0.6","spark_pilot_2","7436","1","18","Female","","false","","","","","[382.19999980926514,344.9000005722046]","./assets/img/ocean/memory/34.jpg","[""ArrowUp"",""ArrowLeft""]","value training","ocean","26","{""ArrowUp,ArrowLeft"":26,""ArrowUp,ArrowRight"":10,""ArrowDown,ArrowLeft"":5,""ArrowDown,ArrowRight"":17}","true","ArrowUp,ArrowLeft","false","","","original","1","12","","",""
"html-keyboard-response","127","709245","0.0-4.0-2.0-1.6","spark_pilot_2","7436","1","18","Female","","","","","","","null","<div style=""font-size:60px;"">+</div>","null","fixation","","","","","","","","","","","13","","",""
"revaluation","128","715272","0.0-4.0-2.0-0.7","spark_pilot_2","7436","1","18","Female","","false","","","","","[435.0999994277954,441]","./assets/img/ocean/memory/22.jpg","[""ArrowUp"",""ArrowLeft""]","value training","ocean","26","{""ArrowUp,ArrowLeft"":26,""ArrowUp,ArrowRight"":10,""ArrowDown,ArrowLeft"":5,""ArrowDown,ArrowRight"":17}","true","ArrowUp,ArrowLeft","false","","","original","1","14","","",""
"html-keyboard-response","129","715783","0.0-4.0-2.0-1.7","spark_pilot_2","7436","1","18","Female","","","","","","","null","<div style=""font-size:60px;"">+</div>","null","fixation","","","","","","","","","","","15","","",""
"revaluation","130","721814","0.0-4.0-2.0-0.8","spark_pilot_2","7436","1","18","Female","","false","","","","","[457.79999923706055,327.4000005722046]","./assets/img/ocean/memory/14.jpg","[""ArrowUp"",""ArrowLeft""]","value training","ocean","26","{""ArrowUp,ArrowLeft"":26,""ArrowUp,ArrowRight"":10,""ArrowDown,ArrowLeft"":5,""ArrowDown,ArrowRight"":17}","true","ArrowUp,ArrowLeft","false","","","original","1","16","","",""
"html-keyboard-response","131","722318","0.0-4.0-2.0-1.8","spark_pilot_2","7436","1","18","Female","","","","","","","null","<div style=""font-size:60px;"">+</div>","null","fixation","","","","","","","","","","","17","","",""
"revaluation","132","726335","0.0-4.0-2.0-0.9","spark_pilot_2","7436","1","18","Female","","false","","","","","[508.30000019073486]","./assets/img/ocean/catch/7.jpg","[""ArrowUp""]","value training","ocean","-10","{""ArrowUp,ArrowLeft"":26,""ArrowUp,ArrowRight"":10,""ArrowDown,ArrowLeft"":5,""ArrowDown,ArrowRight"":17}","false","ArrowUp","true","","","original","1","18","","",""
"html-keyboard-response","133","726846","0.0-4.0-2.0-1.9","spark_pilot_2","7436","1","18","Female","","","","","","","null","<div style=""font-size:60px;"">+</div>","null","fixation","","","","","","","","","","","19","","",""
"revaluation","134","732871","0.0-4.0-2.0-0.10","spark_pilot_2","7436","1","18","Female","","false","","","","","[613.0999994277954,308.1000003814697]","./assets/img/ocean/memory/15.jpg","[""ArrowUp"",""ArrowLeft""]","value training","ocean","26","{""ArrowUp,ArrowLeft"":26,""ArrowUp,ArrowRight"":10,""ArrowDown,ArrowLeft"":5,""ArrowDown,ArrowRight"":17}","true","ArrowUp,ArrowLeft","false","","","original","1","20","","",""
"html-keyboard-response","135","733382","0.0-4.0-2.0-1.10","spark_pilot_2","7436","1","18","Female","","","","","","","null","<div style=""font-size:60px;"">+</div>","null","fixation","","","","","","","","","","","21","","",""
"revaluation","136","739408","0.0-4.0-2.0-0.11","spark_pilot_2","7436","1","18","Female","","false","","","","","[513.5,374.80000019073486]","./assets/img/ocean/memory/15.jpg","[""ArrowUp"",""ArrowLeft""]","value training","ocean","26","{""ArrowUp,ArrowLeft"":26,""ArrowUp,ArrowRight"":10,""ArrowDown,ArrowLeft"":5,""ArrowDown,ArrowRight"":17}","true","ArrowUp,ArrowLeft","false","","","original","1","22","","",""
"html-keyboard-response","137","739918","0.0-4.0-2.0-1.11","spark_pilot_2","7436","1","18","Female","","","","","","","null","<div style=""font-size:60px;"">+</div>","null","fixation","","","","","","","","","","","23","","",""
"revaluation","138","743936","0.0-4.0-2.0-0.12","spark_pilot_2","7436","1","18","Female","","false","","","","","[793.5999994277954]","./assets/img/ocean/catch/4.jpg","[""spaceBar""]","value training","ocean","0","{""ArrowUp,ArrowLeft"":26,""ArrowUp,ArrowRight"":10,""ArrowDown,ArrowLeft"":5,""ArrowDown,ArrowRight"":17}","true","spaceBar","true","","","original","1","24","","",""
"html-keyboard-response","139","744446","0.0-4.0-2.0-1.12","spark_pilot_2","7436","1","18","Female","","","","","","","null","<div style=""font-size:60px;"">+</div>","null","fixation","","","","","","","","","","","25","","",""
"revaluation","140","750472","0.0-4.0-2.0-0.13","spark_pilot_2","7436","1","18","Female","","false","","","","","[626.6000003814697,360.1000003814697]","./assets/img/ocean/memory/29.jpg","[""ArrowUp"",""ArrowLeft""]","value training","ocean","26","{""ArrowUp,ArrowLeft"":26,""ArrowUp,ArrowRight"":10,""ArrowDown,ArrowLeft"":5,""ArrowDown,ArrowRight"":17}","true","ArrowUp,ArrowLeft","false","","","original","1","26","","",""
"html-keyboard-response","141","750983","0.0-4.0-2.0-1.13","spark_pilot_2","7436","1","18","Female","","","","","","","null","<div style=""font-size:60px;"">+</div>","null","fixation","","","","","","","","","","","27","","",""
"revaluation","142","757008","0.0-4.0-2.0-0.14","spark_pilot_2","7436","1","18","Female","","false","","","","","[597.6999998092651,375.6000003814697]","./assets/img/ocean/memory/32.jpg","[""ArrowUp"",""ArrowLeft""]","value training","ocean","26","{""ArrowUp,ArrowLeft"":26,""ArrowUp,ArrowRight"":10,""ArrowDown,ArrowLeft"":5,""ArrowDown,ArrowRight"":17}","true","ArrowUp,ArrowLeft","false","","","original","1","28","","",""
"html-keyboard-response","143","757519","0.0-4.0-2.0-1.14","spark_pilot_2","7436","1","18","Female","","","","","","","null","<div style=""font-size:60px;"">+</div>","null","fixation","","","","","","","","","","","29","","",""
"revaluation","144","761542","0.0-4.0-2.0-0.15","spark_pilot_2","7436","1","18","Female","","false","","","","","[641.9000005722046]","./assets/img/ocean/catch/5.jpg","[""spaceBar""]","value training","ocean","0","{""ArrowUp,ArrowLeft"":26,""ArrowUp,ArrowRight"":10,""ArrowDown,ArrowLeft"":5,""ArrowDown,ArrowRight"":17}","true","spaceBar","true","","","original","1","30","","",""
"html-keyboard-response","145","762052","0.0-4.0-2.0-1.15","spark_pilot_2","7436","1","18","Female","","","","","","","null","<div style=""font-size:60px;"">+</div>","null","fixation","","","","","","","","","","","31","","",""
"revaluation","146","768079","0.0-4.0-2.0-0.16","spark_pilot_2","7436","1","18","Female","","false","","","","","[713.7000007629395,433]","./assets/img/ocean/memory/14.jpg","[""ArrowUp"",""ArrowLeft""]","value training","ocean","26","{""ArrowUp,ArrowLeft"":26,""ArrowUp,ArrowRight"":10,""ArrowDown,ArrowLeft"":5,""ArrowDown,ArrowRight"":17}","true","ArrowUp,ArrowLeft","false","","","original","1","32","","",""
"html-keyboard-response","147","768589","0.0-4.0-2.0-1.16","spark_pilot_2","7436","1","18","Female","","","","","","","null","<div style=""font-size:60px;"">+</div>","null","fixation","","","","","","","","","","","33","","",""
"revaluation","148","774615","0.0-4.0-2.0-0.17","spark_pilot_2","7436","1","18","Female","","false","","","","","[582.4000005722046,538]","./assets/img/ocean/memory/22.jpg","[""ArrowUp"",""ArrowLeft""]","value training","ocean","26","{""ArrowUp,ArrowLeft"":26,""ArrowUp,ArrowRight"":10,""ArrowDown,ArrowLeft"":5,""ArrowDown,ArrowRight"":17}","true","ArrowUp,ArrowLeft","false","","","original","1","34","","",""
"html-keyboard-response","149","775125","0.0-4.0-2.0-1.17","spark_pilot_2","7436","1","18","Female","","","","","","","null","<div style=""font-size:60px;"">+</div>","null","fixation","","","","","","","","","","","35","","",""
"revaluation","150","781151","0.0-4.0-2.0-0.18","spark_pilot_2","7436","1","18","Female","","false","","","","","[1380.1000003814697,393.19999980926514]","./assets/img/ocean/memory/30.jpg","[""ArrowUp"",""ArrowLeft""]","value training","ocean","26","{""ArrowUp,ArrowLeft"":26,""ArrowUp,ArrowRight"":10,""ArrowDown,ArrowLeft"":5,""ArrowDown,ArrowRight"":17}","true","ArrowUp,ArrowLeft","false","","","original","1","36","","",""
"html-keyboard-response","151","781661","0.0-4.0-2.0-1.18","spark_pilot_2","7436","1","18","Female","","","","","","","null","<div style=""font-size:60px;"">+</div>","null","fixation","","","","","","","","","","","37","","",""
"revaluation","152","785679","0.0-4.0-2.0-0.19","spark_pilot_2","7436","1","18","Female","","false","","","","","[505.30000019073486]","./assets/img/ocean/catch/2.jpg","[""spaceBar""]","value training","ocean","0","{""ArrowUp,ArrowLeft"":26,""ArrowUp,ArrowRight"":10,""ArrowDown,ArrowLeft"":5,""ArrowDown,ArrowRight"":17}","true","spaceBar","true","","","original","1","38","","",""
"html-keyboard-response","153","786189","0.0-4.0-2.0-1.19","spark_pilot_2","7436","1","18","Female","","","","","","","null","<div style=""font-size:60px;"">+</div>","null","fixation","","","","","","","","","","","39","","",""
"revaluation","154","790207","0.0-4.0-2.0-0.20","spark_pilot_2","7436","1","18","Female","","false","","","","","[633.4000005722046]","./assets/img/ocean/catch/6.jpg","[""spaceBar""]","value training","ocean","0","{""ArrowUp,ArrowLeft"":26,""ArrowUp,ArrowRight"":10,""ArrowDown,ArrowLeft"":5,""ArrowDown,ArrowRight"":17}","true","spaceBar","true","","","original","1","40","","",""
"html-keyboard-response","155","790717","0.0-4.0-2.0-1.20","spark_pilot_2","7436","1","18","Female","","","","","","","null","<div style=""font-size:60px;"">+</div>","null","fixation","","","","","","","","","","","41","","",""
"revaluation","156","796743","0.0-4.0-2.0-0.21","spark_pilot_2","7436","1","18","Female","","false","","","","","[606.3000001907349,376.0999994277954]","./assets/img/ocean/memory/5.jpg","[""ArrowUp"",""ArrowLeft""]","value training","ocean","26","{""ArrowUp,ArrowLeft"":26,""ArrowUp,ArrowRight"":10,""ArrowDown,ArrowLeft"":5,""ArrowDown,ArrowRight"":17}","true","ArrowUp,ArrowLeft","false","","","original","1","42","","",""
"html-keyboard-response","157","797253","0.0-4.0-2.0-1.21","spark_pilot_2","7436","1","18","Female","","","","","","","null","<div style=""font-size:60px;"">+</div>","null","fixation","","","","","","","","","","","43","","",""
"revaluation","158","803279","0.0-4.0-2.0-0.22","spark_pilot_2","7436","1","18","Female","","false","","","","","[646.0999994277954,327.3999996185303]","./assets/img/ocean/memory/11.jpg","[""ArrowUp"",""ArrowLeft""]","value training","ocean","26","{""ArrowUp,ArrowLeft"":26,""ArrowUp,ArrowRight"":10,""ArrowDown,ArrowLeft"":5,""ArrowDown,ArrowRight"":17}","true","ArrowUp,ArrowLeft","false","","","original","1","44","","",""
"html-keyboard-response","159","803790","0.0-4.0-2.0-1.22","spark_pilot_2","7436","1","18","Female","","","","","","","null","<div style=""font-size:60px;"">+</div>","null","fixation","","","","","","","","","","","45","","",""
"revaluation","160","809811","0.0-4.0-2.0-0.23","spark_pilot_2","7436","1","18","Female","","false","","","","","[665.6000003814697,453.3999996185303]","./assets/img/ocean/memory/4.jpg","[""ArrowUp"",""ArrowLeft""]","value training","ocean","26","{""ArrowUp,ArrowLeft"":26,""ArrowUp,ArrowRight"":10,""ArrowDown,ArrowLeft"":5,""ArrowDown,ArrowRight"":17}","true","ArrowUp,ArrowLeft","false","","","original","1","46","","",""
"html-keyboard-response","161","810314","0.0-4.0-2.0-1.23","spark_pilot_2","7436","1","18","Female","","","","","","","null","<div style=""font-size:60px;"">+</div>","null","fixation","","","","","","","","","","","47","","",""
"revaluation","162","816340","0.0-4.0-2.0-0.24","spark_pilot_2","7436","1","18","Female","","false","","","","","[836.7000007629395,485]","./assets/img/ocean/memory/10.jpg","[""ArrowUp"",""ArrowLeft""]","value training","ocean","26","{""ArrowUp,ArrowLeft"":26,""ArrowUp,ArrowRight"":10,""ArrowDown,ArrowLeft"":5,""ArrowDown,ArrowRight"":17}","true","ArrowUp,ArrowLeft","false","","","original","1","48","","",""
"html-keyboard-response","163","816851","0.0-4.0-2.0-1.24","spark_pilot_2","7436","1","18","Female","","","","","","","null","<div style=""font-size:60px;"">+</div>","null","fixation","","","","","","","","","","","49","","",""
"revaluation","164","822877","0.0-4.0-2.0-0.25","spark_pilot_2","7436","1","18","Female","","false","","","","","[627.4000005722046,373.4000005722046]","./assets/img/ocean/memory/27.jpg","[""ArrowUp"",""ArrowLeft""]","value training","ocean","26","{""ArrowUp,ArrowLeft"":26,""ArrowUp,ArrowRight"":10,""ArrowDown,ArrowLeft"":5,""ArrowDown,ArrowRight"":17}","true","ArrowUp,ArrowLeft","false","","","original","1","50","","",""
"html-keyboard-response","165","823387","0.0-4.0-2.0-1.25","spark_pilot_2","7436","1","18","Female","","","","","","","null","<div style=""font-size:60px;"">+</div>","null","fixation","","","","","","","","","","","51","","",""
"revaluation","166","829413","0.0-4.0-2.0-0.26","spark_pilot_2","7436","1","18","Female","","false","","","","","[594.6000003814697,407.9000005722046]","./assets/img/ocean/memory/5.jpg","[""ArrowUp"",""ArrowLeft""]","value training","ocean","26","{""ArrowUp,ArrowLeft"":26,""ArrowUp,ArrowRight"":10,""ArrowDown,ArrowLeft"":5,""ArrowDown,ArrowRight"":17}","true","ArrowUp,ArrowLeft","false","","","original","1","52","","",""
"html-keyboard-response","167","829917","0.0-4.0-2.0-1.26","spark_pilot_2","7436","1","18","Female","","","","","","","null","<div style=""font-size:60px;"">+</div>","null","fixation","","","","","","","","","","","53","","",""
"revaluation","168","835943","0.0-4.0-2.0-0.27","spark_pilot_2","7436","1","18","Female","","false","","","","","[836.1000003814697,611.6000003814697]","./assets/img/ocean/memory/20.jpg","[""ArrowUp"",""ArrowLeft""]","value training","ocean","26","{""ArrowUp,ArrowLeft"":26,""ArrowUp,ArrowRight"":10,""ArrowDown,ArrowLeft"":5,""ArrowDown,ArrowRight"":17}","true","ArrowUp,ArrowLeft","false","","","original","1","54","","",""
"html-keyboard-response","169","836454","0.0-4.0-2.0-1.27","spark_pilot_2","7436","1","18","Female","","","","","","","null","<div style=""font-size:60px;"">+</div>","null","fixation","","","","","","","","","","","55","","",""
"revaluation","170","842487","0.0-4.0-2.0-0.28","spark_pilot_2","7436","1","18","Female","","false","","","","","[622.1999998092651,496]","./assets/img/ocean/memory/8.jpg","[""ArrowUp"",""ArrowLeft""]","value training","ocean","26","{""ArrowUp,ArrowLeft"":26,""ArrowUp,ArrowRight"":10,""ArrowDown,ArrowLeft"":5,""ArrowDown,ArrowRight"":17}","true","ArrowUp,ArrowLeft","false","","","original","1","56","","",""
"html-keyboard-response","171","842996","0.0-4.0-2.0-1.28","spark_pilot_2","7436","1","18","Female","","","","","","","null","<div style=""font-size:60px;"">+</div>","null","fixation","","","","","","","","","","","57","","",""
"revaluation","172","849022","0.0-4.0-2.0-0.29","spark_pilot_2","7436","1","18","Female","","false","","","","","[624.3000001907349,629.7000007629395]","./assets/img/ocean/memory/28.jpg","[""ArrowUp"",""ArrowLeft""]","value training","ocean","26","{""ArrowUp,ArrowLeft"":26,""ArrowUp,ArrowRight"":10,""ArrowDown,ArrowLeft"":5,""ArrowDown,ArrowRight"":17}","true","ArrowUp,ArrowLeft","false","","","original","1","58","","",""
"html-keyboard-response","173","849532","0.0-4.0-2.0-1.29","spark_pilot_2","7436","1","18","Female","","","","","","","null","<div style=""font-size:60px;"">+</div>","null","fixation","","","","","","","","","","","59","","",""
"revaluation","174","855558","0.0-4.0-2.0-0.30","spark_pilot_2","7436","1","18","Female","","false","","","","","[865.2000007629395,402.70000076293945]","./assets/img/ocean/memory/20.jpg","[""ArrowUp"",""ArrowLeft""]","value training","ocean","26","{""ArrowUp,ArrowLeft"":26,""ArrowUp,ArrowRight"":10,""ArrowDown,ArrowLeft"":5,""ArrowDown,ArrowRight"":17}","true","ArrowUp,ArrowLeft","false","","","original","1","60","","",""
"html-keyboard-response","175","856068","0.0-4.0-2.0-1.30","spark_pilot_2","7436","1","18","Female","","","","","","","null","<div style=""font-size:60px;"">+</div>","null","fixation","","","","","","","","","","","61","","",""
"revaluation","176","862090","0.0-4.0-2.0-0.31","spark_pilot_2","7436","1","18","Female","","false","","","","","[884.1999998092651,424.1000003814697]","./assets/img/ocean/memory/24.jpg","[""ArrowUp"",""ArrowLeft""]","value training","ocean","26","{""ArrowUp,ArrowLeft"":26,""ArrowUp,ArrowRight"":10,""ArrowDown,ArrowLeft"":5,""ArrowDown,ArrowRight"":17}","true","ArrowUp,ArrowLeft","false","","","original","1","62","","",""
"html-keyboard-response","177","862593","0.0-4.0-2.0-1.31","spark_pilot_2","7436","1","18","Female","","","","","","","null","<div style=""font-size:60px;"">+</div>","null","fixation","","","","","","","","","","","63","","",""
"revaluation","178","866611","0.0-4.0-2.0-0.32","spark_pilot_2","7436","1","18","Female","","false","","","","","[663.4000005722046]","./assets/img/ocean/catch/1.jpg","[""spaceBar""]","value training","ocean","0","{""ArrowUp,ArrowLeft"":26,""ArrowUp,ArrowRight"":10,""ArrowDown,ArrowLeft"":5,""ArrowDown,ArrowRight"":17}","true","spaceBar","true","","","original","1","64","","",""
"html-keyboard-response","179","867115","0.0-4.0-2.0-1.32","spark_pilot_2","7436","1","18","Female","","","","","","","null","<div style=""font-size:60px;"">+</div>","null","fixation","","","","","","","","","","","65","","",""
"revaluation","180","873141","0.0-4.0-2.0-0.33","spark_pilot_2","7436","1","18","Female","","false","","","","","[736.6999998092651,424.5]","./assets/img/ocean/memory/17.jpg","[""ArrowUp"",""ArrowLeft""]","value training","ocean","26","{""ArrowUp,ArrowLeft"":26,""ArrowUp,ArrowRight"":10,""ArrowDown,ArrowLeft"":5,""ArrowDown,ArrowRight"":17}","true","ArrowUp,ArrowLeft","false","","","original","1","66","","",""
"html-keyboard-response","181","873651","0.0-4.0-2.0-1.33","spark_pilot_2","7436","1","18","Female","","","","","","","null","<div style=""font-size:60px;"">+</div>","null","fixation","","","","","","","","","","","67","","",""
"revaluation","182","879678","0.0-4.0-2.0-0.34","spark_pilot_2","7436","1","18","Female","","false","","","","","[586.6999998092651,454.5999994277954]","./assets/img/ocean/memory/17.jpg","[""ArrowUp"",""ArrowLeft""]","value training","ocean","26","{""ArrowUp,ArrowLeft"":26,""ArrowUp,ArrowRight"":10,""ArrowDown,ArrowLeft"":5,""ArrowDown,ArrowRight"":17}","true","ArrowUp,ArrowLeft","false","","","original","1","68","","",""
"html-keyboard-response","183","880188","0.0-4.0-2.0-1.34","spark_pilot_2","7436","1","18","Female","","","","","","","null","<div style=""font-size:60px;"">+</div>","null","fixation","","","","","","","","","","","69","","",""
"revaluation","184","886214","0.0-4.0-2.0-0.35","spark_pilot_2","7436","1","18","Female","","false","","","","","[679.6999998092651,441.80000019073486]","./assets/img/ocean/memory/19.jpg","[""ArrowUp"",""ArrowLeft""]","value training","ocean","26","{""ArrowUp,ArrowLeft"":26,""ArrowUp,ArrowRight"":10,""ArrowDown,ArrowLeft"":5,""ArrowDown,ArrowRight"":17}","true","ArrowUp,ArrowLeft","false","","","original","1","70","","",""
"html-keyboard-response","185","886724","0.0-4.0-2.0-1.35","spark_pilot_2","7436","1","18","Female","","","","","","","null","<div style=""font-size:60px;"">+</div>","null","fixation","","","","","","","","","","","71","","",""
"revaluation","186","892749","0.0-4.0-2.0-0.36","spark_pilot_2","7436","1","18","Female","","false","","","","","[647.3999996185303,974.9000005722046]","./assets/img/ocean/memory/3.jpg","[""ArrowUp"",""ArrowLeft""]","value training","ocean","26","{""ArrowUp,ArrowLeft"":26,""ArrowUp,ArrowRight"":10,""ArrowDown,ArrowLeft"":5,""ArrowDown,ArrowRight"":17}","true","ArrowUp,ArrowLeft","false","","","original","1","72","","",""
"html-keyboard-response","187","893260","0.0-4.0-2.0-1.36","spark_pilot_2","7436","1","18","Female","","","","","","","null","<div style=""font-size:60px;"">+</div>","null","fixation","","","","","","","","","","","73","","",""
"revaluation","188","899292","0.0-4.0-2.0-0.37","spark_pilot_2","7436","1","18","Female","","false","","","","","[663.8999996185303,580]","./assets/img/ocean/memory/11.jpg","[""ArrowUp"",""ArrowLeft""]","value training","ocean","26","{""ArrowUp,ArrowLeft"":26,""ArrowUp,ArrowRight"":10,""ArrowDown,ArrowLeft"":5,""ArrowDown,ArrowRight"":17}","true","ArrowUp,ArrowLeft","false","","","original","1","74","","",""
"html-keyboard-response","189","899802","0.0-4.0-2.0-1.37","spark_pilot_2","7436","1","18","Female","","","","","","","null","<div style=""font-size:60px;"">+</div>","null","fixation","","","","","","","","","","","75","","",""
"revaluation","190","905828","0.0-4.0-2.0-0.38","spark_pilot_2","7436","1","18","Female","","false","","","","","[609.8000001907349,1289.8999996185303]","./assets/img/ocean/memory/19.jpg","[""ArrowUp"",""ArrowLeft""]","value training","ocean","26","{""ArrowUp,ArrowLeft"":26,""ArrowUp,ArrowRight"":10,""ArrowDown,ArrowLeft"":5,""ArrowDown,ArrowRight"":17}","true","ArrowUp,ArrowLeft","false","","","original","1","76","","",""
"html-keyboard-response","191","906339","0.0-4.0-2.0-1.38","spark_pilot_2","7436","1","18","Female","","","","","","","null","<div style=""font-size:60px;"">+</div>","null","fixation","","","","","","","","","","","77","","",""
"revaluation","192","912365","0.0-4.0-2.0-0.39","spark_pilot_2","7436","1","18","Female","","false","","","","","[969.3000001907349,1210.8999996185303]","./assets/img/ocean/memory/10.jpg","[""ArrowUp"",""ArrowLeft""]","value training","ocean","26","{""ArrowUp,ArrowLeft"":26,""ArrowUp,ArrowRight"":10,""ArrowDown,ArrowLeft"":5,""ArrowDown,ArrowRight"":17}","true","ArrowUp,ArrowLeft","false","","","original","1","78","","",""
"html-keyboard-response","193","912875","0.0-4.0-2.0-1.39","spark_pilot_2","7436","1","18","Female","","","","","","","null","<div style=""font-size:60px;"">+</div>","null","fixation","","","","","","","","","","","79","","",""
"revaluation","194","918901","0.0-4.0-2.0-0.40","spark_pilot_2","7436","1","18","Female","","false","","","","","[547.5,430.19999980926514]","./assets/img/ocean/memory/3.jpg","[""ArrowUp"",""ArrowLeft""]","value training","ocean","26","{""ArrowUp,ArrowLeft"":26,""ArrowUp,ArrowRight"":10,""ArrowDown,ArrowLeft"":5,""ArrowDown,ArrowRight"":17}","true","ArrowUp,ArrowLeft","false","","","original","1","80","","",""
"html-keyboard-response","195","919411","0.0-4.0-2.0-1.40","spark_pilot_2","7436","1","18","Female","","","","","","","null","<div style=""font-size:60px;"">+</div>","null","fixation","","","","","","","","","","","81","","",""
"revaluation","196","925437","0.0-4.0-2.0-0.41","spark_pilot_2","7436","1","18","Female","","false","","","","","[577.2000007629395,554]","./assets/img/ocean/memory/8.jpg","[""ArrowUp"",""ArrowLeft""]","value training","ocean","26","{""ArrowUp,ArrowLeft"":26,""ArrowUp,ArrowRight"":10,""ArrowDown,ArrowLeft"":5,""ArrowDown,ArrowRight"":17}","true","ArrowUp,ArrowLeft","false","","","original","1","82","","",""
"html-keyboard-response","197","925948","0.0-4.0-2.0-1.41","spark_pilot_2","7436","1","18","Female","","","","","","","null","<div style=""font-size:60px;"">+</div>","null","fixation","","","","","","","","","","","83","","",""
"revaluation","198","931973","0.0-4.0-2.0-0.42","spark_pilot_2","7436","1","18","Female","","false","","","","","[714.6000003814697,1197.6999998092651]","./assets/img/ocean/memory/27.jpg","[""ArrowUp"",""ArrowLeft""]","value training","ocean","26","{""ArrowUp,ArrowLeft"":26,""ArrowUp,ArrowRight"":10,""ArrowDown,ArrowLeft"":5,""ArrowDown,ArrowRight"":17}","true","ArrowUp,ArrowLeft","false","","","original","1","84","","",""
"html-keyboard-response","199","932484","0.0-4.0-2.0-1.42","spark_pilot_2","7436","1","18","Female","","","","","","","null","<div style=""font-size:60px;"">+</div>","null","fixation","","","","","","","","","","","85","","",""
"revaluation","200","938516","0.0-4.0-2.0-0.43","spark_pilot_2","7436","1","18","Female","","false","","","","","[601.1999998092651,456.3999996185303]","./assets/img/ocean/memory/28.jpg","[""ArrowUp"",""ArrowLeft""]","value training","ocean","26","{""ArrowUp,ArrowLeft"":26,""ArrowUp,ArrowRight"":10,""ArrowDown,ArrowLeft"":5,""ArrowDown,ArrowRight"":17}","true","ArrowUp,ArrowLeft","false","","","original","1","86","","",""
"html-keyboard-response","201","939026","0.0-4.0-2.0-1.43","spark_pilot_2","7436","1","18","Female","","","","","","","null","<div style=""font-size:60px;"">+</div>","null","fixation","","","","","","","","","","","87","","",""
"revaluation","202","945052","0.0-4.0-2.0-0.44","spark_pilot_2","7436","1","18","Female","","false","","","","","[542.3000001907349,533]","./assets/img/ocean/memory/32.jpg","[""ArrowUp"",""ArrowLeft""]","value training","ocean","26","{""ArrowUp,ArrowLeft"":26,""ArrowUp,ArrowRight"":10,""ArrowDown,ArrowLeft"":5,""ArrowDown,ArrowRight"":17}","true","ArrowUp,ArrowLeft","false","","","original","1","88","","",""
"html-keyboard-response","203","945563","0.0-4.0-2.0-1.44","spark_pilot_2","7436","1","18","Female","","","","","","","null","<div style=""font-size:60px;"">+</div>","null","fixation","","","","","","","","","","","89","","",""
"revaluation","204","949580","0.0-4.0-2.0-0.45","spark_pilot_2","7436","1","18","Female","","false","","","","","[550.7000007629395]","./assets/img/ocean/catch/3.jpg","[""spaceBar""]","value training","ocean","0","{""ArrowUp,ArrowLeft"":26,""ArrowUp,ArrowRight"":10,""ArrowDown,ArrowLeft"":5,""ArrowDown,ArrowRight"":17}","true","spaceBar","true","","","original","1","90","","",""
"html-keyboard-response","205","950090","0.0-4.0-2.0-1.45","spark_pilot_2","7436","1","18","Female","","","","","","","null","<div style=""font-size:60px;"">+</div>","null","fixation","","","","","","","","","","","91","","",""
"revaluation","206","956116","0.0-4.0-2.0-0.46","spark_pilot_2","7436","1","18","Female","","false","","","","","[1055,421.80000019073486]","./assets/img/ocean/memory/30.jpg","[""ArrowUp"",""ArrowLeft""]","value training","ocean","26","{""ArrowUp,ArrowLeft"":26,""ArrowUp,ArrowRight"":10,""ArrowDown,ArrowLeft"":5,""ArrowDown,ArrowRight"":17}","true","ArrowUp,ArrowLeft","false","","","original","1","92","","",""
"html-keyboard-response","207","956627","0.0-4.0-2.0-1.46","spark_pilot_2","7436","1","18","Female","","","","","","","null","<div style=""font-size:60px;"">+</div>","null","fixation","","","","","","","","","","","93","","",""
"revaluation","208","960644","0.0-4.0-2.0-0.47","spark_pilot_2","7436","1","18","Female","","false","","","","","[655]","./assets/img/ocean/catch/0.jpg","[""spaceBar""]","value training","ocean","0","{""ArrowUp,ArrowLeft"":26,""ArrowUp,ArrowRight"":10,""ArrowDown,ArrowLeft"":5,""ArrowDown,ArrowRight"":17}","true","spaceBar","true","","","original","1","94","","",""
"html-keyboard-response","209","961154","0.0-4.0-2.0-1.47","spark_pilot_2","7436","1","18","Female","","","","","","","null","<div style=""font-size:60px;"">+</div>","null","fixation","","","","","","","","","","","95","","",""
"revaluation","210","967180","0.0-4.0-2.0-0.48","spark_pilot_2","7436","1","18","Female","","false","","","","","[872.5,813.8999996185303]","./assets/img/ocean/memory/13.jpg","[""ArrowUp"",""ArrowLeft""]","value training","ocean","26","{""ArrowUp,ArrowLeft"":26,""ArrowUp,ArrowRight"":10,""ArrowDown,ArrowLeft"":5,""ArrowDown,ArrowRight"":17}","true","ArrowUp,ArrowLeft","false","","","original","1","96","","",""
"html-keyboard-response","211","967691","0.0-4.0-2.0-1.48","spark_pilot_2","7436","1","18","Female","","","","","","","null","<div style=""font-size:60px;"">+</div>","null","fixation","","","","","","","","","","","97","","",""
"revaluation","212","973715","0.0-4.0-2.0-0.49","spark_pilot_2","7436","1","18","Female","","false","","","","","[609.1999998092651,778.6000003814697]","./assets/img/ocean/memory/34.jpg","[""ArrowUp"",""ArrowLeft""]","value training","ocean","26","{""ArrowUp,ArrowLeft"":26,""ArrowUp,ArrowRight"":10,""ArrowDown,ArrowLeft"":5,""ArrowDown,ArrowRight"":17}","true","ArrowUp,ArrowLeft","false","","","original","1","98","","",""
"html-keyboard-response","213","974227","0.0-4.0-2.0-1.49","spark_pilot_2","7436","1","18","Female","","","","","","","null","<div style=""font-size:60px;"">+</div>","null","fixation","","","","","","","","","","","99","","",""
"learning-instructions","214","989500","0.0-4.0-3.0-0.0","spark_pilot_2","7436","1","18","Female","","","","","","","1897.2999992370605","<p> Now, you will travel with a friend who will choose whether you go up or down first. </p>
            <p> On these turns, you will just see the animal that they found. You will still get to choose which chest to search for treasure.</p>","","instructions","","","","","","","","","","","","","",""
"revaluation","215","993524","0.0-4.0-4.0-0.0","spark_pilot_2","7436","1","18","Female","","false","","","","","[975.5]","./assets/img/ocean/animals/seahorse.jpg","[""ArrowLeft""]","revaluation","ocean","26","{""ArrowUp,ArrowLeft"":26,""ArrowUp,ArrowRight"":10,""ArrowDown,ArrowLeft"":5,""ArrowDown,ArrowRight"":17}","true","ArrowUp,ArrowLeft","","","","original","1","0","","",""
"html-keyboard-response","216","994034","0.0-4.0-4.0-1.0","spark_pilot_2","7436","1","18","Female","","","","","","","null","<div style=""font-size:60px;"">+</div>","null","fixation","","","","","","","","","","","1","","",""
"revaluation","217","998052","0.0-4.0-4.0-0.1","spark_pilot_2","7436","1","18","Female","","false","","","","","[789.5]","./assets/img/ocean/animals/octopus.jpg","[""ArrowLeft""]","revaluation","ocean","5","{""ArrowUp,ArrowLeft"":26,""ArrowUp,ArrowRight"":10,""ArrowDown,ArrowLeft"":5,""ArrowDown,ArrowRight"":17}","false","ArrowDown,ArrowLeft","","","","original","1","2","","",""
"html-keyboard-response","218","998560","0.0-4.0-4.0-1.1","spark_pilot_2","7436","1","18","Female","","","","","","","null","<div style=""font-size:60px;"">+</div>","null","fixation","","","","","","","","","","","3","","",""
"revaluation","219","1002580","0.0-4.0-4.0-0.2","spark_pilot_2","7436","1","18","Female","","false","","","","","[468]","./assets/img/ocean/animals/octopus.jpg","[""ArrowRight""]","revaluation","ocean","17","{""ArrowUp,ArrowLeft"":26,""ArrowUp,ArrowRight"":10,""ArrowDown,ArrowLeft"":5,""ArrowDown,ArrowRight"":17}","true","ArrowDown,ArrowRight","","","","original","1","4","","",""
"html-keyboard-response","220","1003087","0.0-4.0-4.0-1.2","spark_pilot_2","7436","1","18","Female","","","","","","","null","<div style=""font-size:60px;"">+</div>","null","fixation","","","","","","","","","","","5","","",""
"revaluation","221","1007108","0.0-4.0-4.0-0.3","spark_pilot_2","7436","1","18","Female","","false","","","","","[927.4000005722046]","./assets/img/ocean/animals/seahorse.jpg","[""ArrowLeft""]","revaluation","ocean","26","{""ArrowUp,ArrowLeft"":26,""ArrowUp,ArrowRight"":10,""ArrowDown,ArrowLeft"":5,""ArrowDown,ArrowRight"":17}","true","ArrowUp,ArrowLeft","","","","original","1","6","","",""
"html-keyboard-response","222","1007619","0.0-4.0-4.0-1.3","spark_pilot_2","7436","1","18","Female","","","","","","","null","<div style=""font-size:60px;"">+</div>","null","fixation","","","","","","","","","","","7","","",""
"revaluation","223","1011644","0.0-4.0-4.0-0.4","spark_pilot_2","7436","1","18","Female","","false","","","","","[679.6999998092651]","./assets/img/ocean/animals/seahorse.jpg","[""ArrowLeft""]","revaluation","ocean","26","{""ArrowUp,ArrowLeft"":26,""ArrowUp,ArrowRight"":10,""ArrowDown,ArrowLeft"":5,""ArrowDown,ArrowRight"":17}","true","ArrowUp,ArrowLeft","","","","original","1","8","","",""
"html-keyboard-response","224","1012155","0.0-4.0-4.0-1.4","spark_pilot_2","7436","1","18","Female","","","","","","","null","<div style=""font-size:60px;"">+</div>","null","fixation","","","","","","","","","","","9","","",""
"revaluation","225","1016180","0.0-4.0-4.0-0.5","spark_pilot_2","7436","1","18","Female","","false","","","","","[674.6000003814697]","./assets/img/ocean/animals/seahorse.jpg","[""ArrowLeft""]","revaluation","ocean","26","{""ArrowUp,ArrowLeft"":26,""ArrowUp,ArrowRight"":10,""ArrowDown,ArrowLeft"":5,""ArrowDown,ArrowRight"":17}","true","ArrowUp,ArrowLeft","","","","original","1","10","","",""
"html-keyboard-response","226","1016691","0.0-4.0-4.0-1.5","spark_pilot_2","7436","1","18","Female","","","","","","","null","<div style=""font-size:60px;"">+</div>","null","fixation","","","","","","","","","","","11","","",""
"revaluation","227","1020714","0.0-4.0-4.0-0.6","spark_pilot_2","7436","1","18","Female","","false","","","","","[740.3999996185303]","./assets/img/ocean/animals/seahorse.jpg","[""ArrowLeft""]","revaluation","ocean","26","{""ArrowUp,ArrowLeft"":26,""ArrowUp,ArrowRight"":10,""ArrowDown,ArrowLeft"":5,""ArrowDown,ArrowRight"":17}","true","ArrowUp,ArrowLeft","","","","original","1","12","","",""
"html-keyboard-response","228","1021225","0.0-4.0-4.0-1.6","spark_pilot_2","7436","1","18","Female","","","","","","","null","<div style=""font-size:60px;"">+</div>","null","fixation","","","","","","","","","","","13","","",""
"revaluation","229","1025242","0.0-4.0-4.0-0.7","spark_pilot_2","7436","1","18","Female","","false","","","","","[800.1999998092651]","./assets/img/ocean/animals/octopus.jpg","[""ArrowRight""]","revaluation","ocean","17","{""ArrowUp,ArrowLeft"":26,""ArrowUp,ArrowRight"":10,""ArrowDown,ArrowLeft"":5,""ArrowDown,ArrowRight"":17}","true","ArrowDown,ArrowRight","","","","original","1","14","","",""
"html-keyboard-response","230","1025752","0.0-4.0-4.0-1.7","spark_pilot_2","7436","1","18","Female","","","","","","","null","<div style=""font-size:60px;"">+</div>","null","fixation","","","","","","","","","","","15","","",""
"revaluation","231","1029770","0.0-4.0-4.0-0.8","spark_pilot_2","7436","1","18","Female","","false","","","","","[822.3000001907349]","./assets/img/ocean/animals/octopus.jpg","[""ArrowRight""]","revaluation","ocean","17","{""ArrowUp,ArrowLeft"":26,""ArrowUp,ArrowRight"":10,""ArrowDown,ArrowLeft"":5,""ArrowDown,ArrowRight"":17}","true","ArrowDown,ArrowRight","","","","original","1","16","","",""
"html-keyboard-response","232","1030280","0.0-4.0-4.0-1.8","spark_pilot_2","7436","1","18","Female","","","","","","","null","<div style=""font-size:60px;"">+</div>","null","fixation","","","","","","","","","","","17","","",""
"revaluation","233","1034298","0.0-4.0-4.0-0.9","spark_pilot_2","7436","1","18","Female","","false","","","","","[545.3999996185303]","./assets/img/ocean/animals/seahorse.jpg","[""ArrowLeft""]","revaluation","ocean","26","{""ArrowUp,ArrowLeft"":26,""ArrowUp,ArrowRight"":10,""ArrowDown,ArrowLeft"":5,""ArrowDown,ArrowRight"":17}","true","ArrowUp,ArrowLeft","","","","original","1","18","","",""
"html-keyboard-response","234","1034810","0.0-4.0-4.0-1.9","spark_pilot_2","7436","1","18","Female","","","","","","","null","<div style=""font-size:60px;"">+</div>","null","fixation","","","","","","","","","","","19","","",""
"revaluation","235","1038825","0.0-4.0-4.0-0.10","spark_pilot_2","7436","1","18","Female","","false","","","","","[639]","./assets/img/ocean/animals/octopus.jpg","[""ArrowRight""]","revaluation","ocean","17","{""ArrowUp,ArrowLeft"":26,""ArrowUp,ArrowRight"":10,""ArrowDown,ArrowLeft"":5,""ArrowDown,ArrowRight"":17}","true","ArrowDown,ArrowRight","","","","original","1","20","","",""
"html-keyboard-response","236","1039339","0.0-4.0-4.0-1.10","spark_pilot_2","7436","1","18","Female","","","","","","","null","<div style=""font-size:60px;"">+</div>","null","fixation","","","","","","","","","","","21","","",""
"revaluation","237","1043361","0.0-4.0-4.0-0.11","spark_pilot_2","7436","1","18","Female","","false","","","","","[648.8999996185303]","./assets/img/ocean/animals/octopus.jpg","[""ArrowRight""]","revaluation","ocean","17","{""ArrowUp,ArrowLeft"":26,""ArrowUp,ArrowRight"":10,""ArrowDown,ArrowLeft"":5,""ArrowDown,ArrowRight"":17}","true","ArrowDown,ArrowRight","","","","original","1","22","","",""
"html-keyboard-response","238","1043873","0.0-4.0-4.0-1.11","spark_pilot_2","7436","1","18","Female","","","","","","","null","<div style=""font-size:60px;"">+</div>","null","fixation","","","","","","","","","","","23","","",""
"revaluation","239","1047887","0.0-4.0-4.0-0.12","spark_pilot_2","7436","1","18","Female","","false","","","","","[505.30000019073486]","./assets/img/ocean/animals/seahorse.jpg","[""ArrowLeft""]","revaluation","ocean","26","{""ArrowUp,ArrowLeft"":26,""ArrowUp,ArrowRight"":10,""ArrowDown,ArrowLeft"":5,""ArrowDown,ArrowRight"":17}","true","ArrowUp,ArrowLeft","","","","original","1","24","","",""
"html-keyboard-response","240","1048391","0.0-4.0-4.0-1.12","spark_pilot_2","7436","1","18","Female","","","","","","","null","<div style=""font-size:60px;"">+</div>","null","fixation","","","","","","","","","","","25","","",""
"revaluation","241","1052409","0.0-4.0-4.0-0.13","spark_pilot_2","7436","1","18","Female","","false","","","","","[665.6999998092651]","./assets/img/ocean/animals/octopus.jpg","[""ArrowRight""]","revaluation","ocean","17","{""ArrowUp,ArrowLeft"":26,""ArrowUp,ArrowRight"":10,""ArrowDown,ArrowLeft"":5,""ArrowDown,ArrowRight"":17}","true","ArrowDown,ArrowRight","","","","original","1","26","","",""
"html-keyboard-response","242","1052919","0.0-4.0-4.0-1.13","spark_pilot_2","7436","1","18","Female","","","","","","","null","<div style=""font-size:60px;"">+</div>","null","fixation","","","","","","","","","","","27","","",""
"revaluation","243","1056937","0.0-4.0-4.0-0.14","spark_pilot_2","7436","1","18","Female","","false","","","","","[603.7000007629395]","./assets/img/ocean/animals/seahorse.jpg","[""ArrowLeft""]","revaluation","ocean","26","{""ArrowUp,ArrowLeft"":26,""ArrowUp,ArrowRight"":10,""ArrowDown,ArrowLeft"":5,""ArrowDown,ArrowRight"":17}","true","ArrowUp,ArrowLeft","","","","original","1","28","","",""
"html-keyboard-response","244","1057447","0.0-4.0-4.0-1.14","spark_pilot_2","7436","1","18","Female","","","","","","","null","<div style=""font-size:60px;"">+</div>","null","fixation","","","","","","","","","","","29","","",""
"revaluation","245","1061465","0.0-4.0-4.0-0.15","spark_pilot_2","7436","1","18","Female","","false","","","","","[499.69999980926514]","./assets/img/ocean/animals/octopus.jpg","[""ArrowRight""]","revaluation","ocean","17","{""ArrowUp,ArrowLeft"":26,""ArrowUp,ArrowRight"":10,""ArrowDown,ArrowLeft"":5,""ArrowDown,ArrowRight"":17}","true","ArrowDown,ArrowRight","","","","original","1","30","","",""
"html-keyboard-response","246","1061974","0.0-4.0-4.0-1.15","spark_pilot_2","7436","1","18","Female","","","","","","","null","<div style=""font-size:60px;"">+</div>","null","fixation","","","","","","","","","","","31","","",""
"revaluation","247","1065992","0.0-4.0-4.0-0.16","spark_pilot_2","7436","1","18","Female","","false","","","","","[691.3999996185303]","./assets/img/ocean/animals/octopus.jpg","[""ArrowRight""]","revaluation","ocean","17","{""ArrowUp,ArrowLeft"":26,""ArrowUp,ArrowRight"":10,""ArrowDown,ArrowLeft"":5,""ArrowDown,ArrowRight"":17}","true","ArrowDown,ArrowRight","","","","original","1","32","","",""
"html-keyboard-response","248","1066503","0.0-4.0-4.0-1.16","spark_pilot_2","7436","1","18","Female","","","","","","","null","<div style=""font-size:60px;"">+</div>","null","fixation","","","","","","","","","","","33","","",""
"revaluation","249","1070520","0.0-4.0-4.0-0.17","spark_pilot_2","7436","1","18","Female","","false","","","","","[940.8999996185303]","./assets/img/ocean/animals/seahorse.jpg","[""ArrowLeft""]","revaluation","ocean","26","{""ArrowUp,ArrowLeft"":26,""ArrowUp,ArrowRight"":10,""ArrowDown,ArrowLeft"":5,""ArrowDown,ArrowRight"":17}","true","ArrowUp,ArrowLeft","","","","original","1","34","","",""
"html-keyboard-response","250","1071031","0.0-4.0-4.0-1.17","spark_pilot_2","7436","1","18","Female","","","","","","","null","<div style=""font-size:60px;"">+</div>","null","fixation","","","","","","","","","","","35","","",""
"learning-instructions","251","1084167","0.0-4.0-5.0-0.0","spark_pilot_2","7436","1","18","Female","","","","","","","1182.2000007629395","<p> Time to play the dot game! </p>
            <p> For one minute, click the red dots on the following screen as they appear. </p>
            <p><b> Don't look away, as you will earn bonus for clicking dots</b>. </p>","","instructions","","","","","","","","","","","","","",""
"revaluation","252","1144177","0.0-4.0-6.0-0.0","spark_pilot_2","7436","1","18","Female","","","","","","","[99,87,72,112,117,85,79]","","","rest","","70","","","","","0","60000","","","","","",""
"learning-instructions","253","1152985","0.0-4.0-7.0-0.0","spark_pilot_2","7436","1","18","Female","","","","","","","2175.5999994277954","<p> You have almost finished this part of the game! </p>
            <p> We are going to ask you to make a few more choices. </p>","","instructions","","","","","","","","","","","","","",""
"learning-instructions","254","1167967","0.0-4.0-7.0-0.1","spark_pilot_2","7436","1","18","Female","","","","","","","1008.8000001907349","<p> First, you need to decide whether to go up or down. When you see each picture, use the arrow keys to make your choice. </p>
            <p><b>You will not see which animal you found, but try to get to the one that will give you the most treasure.</b></p>","","instructions","","","","","","","","","","","","","",""
"revaluation","255","1169039","0.0-4.0-8.0-0.0","spark_pilot_2","7436","1","18","Female","","false","","","","","[1069.6000003814697]","./assets/img/ocean/test/3.jpg","[""ArrowUp""]","first stage test","ocean","0","{""ArrowUp,ArrowLeft"":26,""ArrowUp,ArrowRight"":10,""ArrowDown,ArrowLeft"":5,""ArrowDown,ArrowRight"":17}","true","ArrowUp","false","","","original","1","","","",""
"html-keyboard-response","256","1169544","0.0-4.0-8.0-1.0","spark_pilot_2","7436","1","18","Female","","","","","","","null","<div style=""font-size:60px;"">+</div>","null","fixation","","","","","","","","","","","","","",""
"revaluation","257","1169963","0.0-4.0-8.0-0.1","spark_pilot_2","7436","1","18","Female","","false","","","","","[415.6000003814697]","./assets/img/ocean/test/0.jpg","[""ArrowUp""]","first stage test","ocean","0","{""ArrowUp,ArrowLeft"":26,""ArrowUp,ArrowRight"":10,""ArrowDown,ArrowLeft"":5,""ArrowDown,ArrowRight"":17}","true","ArrowUp","false","","","original","1","","","",""
"html-keyboard-response","258","1170472","0.0-4.0-8.0-1.1","spark_pilot_2","7436","1","18","Female","","","","","","","null","<div style=""font-size:60px;"">+</div>","null","fixation","","","","","","","","","","","","","",""
"revaluation","259","1170835","0.0-4.0-8.0-0.2","spark_pilot_2","7436","1","18","Female","","false","","","","","[358.5]","./assets/img/ocean/test/2.jpg","[""ArrowUp""]","first stage test","ocean","0","{""ArrowUp,ArrowLeft"":26,""ArrowUp,ArrowRight"":10,""ArrowDown,ArrowLeft"":5,""ArrowDown,ArrowRight"":17}","true","ArrowUp","false","","","original","1","","","",""
"html-keyboard-response","260","1171340","0.0-4.0-8.0-1.2","spark_pilot_2","7436","1","18","Female","","","","","","","null","<div style=""font-size:60px;"">+</div>","null","fixation","","","","","","","","","","","","","",""
"revaluation","261","1171741","0.0-4.0-8.0-0.3","spark_pilot_2","7436","1","18","Female","","false","","","","","[396.5999994277954]","./assets/img/ocean/test/1.jpg","[""ArrowUp""]","first stage test","ocean","0","{""ArrowUp,ArrowLeft"":26,""ArrowUp,ArrowRight"":10,""ArrowDown,ArrowLeft"":5,""ArrowDown,ArrowRight"":17}","true","ArrowUp","false","","","original","1","","","",""
"html-keyboard-response","262","1172248","0.0-4.0-8.0-1.3","spark_pilot_2","7436","1","18","Female","","","","","","","null","<div style=""font-size:60px;"">+</div>","null","fixation","","","","","","","","","","","","","",""
"learning-instructions","263","1184467","0.0-4.0-9.0-0.0","spark_pilot_2","7436","1","18","Female","","","","","","","878.8000001907349","<p> Now you will see the animals again and can search their chests for treasure. </p>
            <p> This time, you will not see how much treasure you earned, but you will earn more bonus money for making better choices. </p>","","instructions","","","","","","","","","","","","","",""
"revaluation","264","1185128","0.0-4.0-10.0-0.0","spark_pilot_2","7436","1","18","Female","","false","","","","","[658]","./assets/img/ocean/animals/seahorse.jpg","[""ArrowLeft""]","second stage test","ocean","0","{""ArrowUp,ArrowLeft"":26,""ArrowUp,ArrowRight"":10,""ArrowDown,ArrowLeft"":5,""ArrowDown,ArrowRight"":17}","true","ArrowUp,ArrowLeft","","","","original","1","","","",""
"html-keyboard-response","265","1185639","0.0-4.0-10.0-1.0","spark_pilot_2","7436","1","18","Female","","","","","","","null","<div style=""font-size:60px;"">+</div>","null","fixation","","","","","","","","","","","","","",""
"revaluation","266","1186209","0.0-4.0-10.0-0.1","spark_pilot_2","7436","1","18","Female","","false","","","","","[566]","./assets/img/ocean/animals/seahorse.jpg","[""ArrowLeft""]","second stage test","ocean","0","{""ArrowUp,ArrowLeft"":26,""ArrowUp,ArrowRight"":10,""ArrowDown,ArrowLeft"":5,""ArrowDown,ArrowRight"":17}","true","ArrowUp,ArrowLeft","","","","original","1","","","",""
"html-keyboard-response","267","1186718","0.0-4.0-10.0-1.1","spark_pilot_2","7436","1","18","Female","","","","","","","null","<div style=""font-size:60px;"">+</div>","null","fixation","","","","","","","","","","","","","",""
"revaluation","268","1187222","0.0-4.0-10.0-0.2","spark_pilot_2","7436","1","18","Female","","false","","","","","[500.0999994277954]","./assets/img/ocean/animals/seahorse.jpg","[""ArrowLeft""]","second stage test","ocean","0","{""ArrowUp,ArrowLeft"":26,""ArrowUp,ArrowRight"":10,""ArrowDown,ArrowLeft"":5,""ArrowDown,ArrowRight"":17}","true","ArrowUp,ArrowLeft","","","","original","1","","","",""
"html-keyboard-response","269","1187728","0.0-4.0-10.0-1.2","spark_pilot_2","7436","1","18","Female","","","","","","","null","<div style=""font-size:60px;"">+</div>","null","fixation","","","","","","","","","","","","","",""
"revaluation","270","1188188","0.0-4.0-10.0-0.3","spark_pilot_2","7436","1","18","Female","","false","","","","","[456.1000003814697]","./assets/img/ocean/animals/seahorse.jpg","[""ArrowLeft""]","second stage test","ocean","0","{""ArrowUp,ArrowLeft"":26,""ArrowUp,ArrowRight"":10,""ArrowDown,ArrowLeft"":5,""ArrowDown,ArrowRight"":17}","true","ArrowUp,ArrowLeft","","","","original","1","","","",""
"html-keyboard-response","271","1188692","0.0-4.0-10.0-1.3","spark_pilot_2","7436","1","18","Female","","","","","","","null","<div style=""font-size:60px;"">+</div>","null","fixation","","","","","","","","","","","","","",""
"revaluation","272","1189242","0.0-4.0-10.0-0.4","spark_pilot_2","7436","1","18","Female","","false","","","","","[545.8000001907349]","./assets/img/ocean/animals/octopus.jpg","[""ArrowRight""]","second stage test","ocean","0","{""ArrowUp,ArrowLeft"":26,""ArrowUp,ArrowRight"":10,""ArrowDown,ArrowLeft"":5,""ArrowDown,ArrowRight"":17}","true","ArrowDown,ArrowRight","","","","original","1","","","",""
"html-keyboard-response","273","1189752","0.0-4.0-10.0-1.4","spark_pilot_2","7436","1","18","Female","","","","","","","null","<div style=""font-size:60px;"">+</div>","null","fixation","","","","","","","","","","","","","",""
"revaluation","274","1190204","0.0-4.0-10.0-0.5","spark_pilot_2","7436","1","18","Female","","false","","","","","[447.5]","./assets/img/ocean/animals/octopus.jpg","[""ArrowRight""]","second stage test","ocean","0","{""ArrowUp,ArrowLeft"":26,""ArrowUp,ArrowRight"":10,""ArrowDown,ArrowLeft"":5,""ArrowDown,ArrowRight"":17}","true","ArrowDown,ArrowRight","","","","original","1","","","",""
"html-keyboard-response","275","1190712","0.0-4.0-10.0-1.5","spark_pilot_2","7436","1","18","Female","","","","","","","null","<div style=""font-size:60px;"">+</div>","null","fixation","","","","","","","","","","","","","",""
"revaluation","276","1191172","0.0-4.0-10.0-0.6","spark_pilot_2","7436","1","18","Female","","false","","","","","[455.8999996185303]","./assets/img/ocean/animals/octopus.jpg","[""ArrowRight""]","second stage test","ocean","0","{""ArrowUp,ArrowLeft"":26,""ArrowUp,ArrowRight"":10,""ArrowDown,ArrowLeft"":5,""ArrowDown,ArrowRight"":17}","true","ArrowDown,ArrowRight","","","","original","1","","","",""
"html-keyboard-response","277","1191680","0.0-4.0-10.0-1.6","spark_pilot_2","7436","1","18","Female","","","","","","","null","<div style=""font-size:60px;"">+</div>","null","fixation","","","","","","","","","","","","","",""
"revaluation","278","1192283","0.0-4.0-10.0-0.7","spark_pilot_2","7436","1","18","Female","","false","","","","","[598.6000003814697]","./assets/img/ocean/animals/octopus.jpg","[""ArrowRight""]","second stage test","ocean","0","{""ArrowUp,ArrowLeft"":26,""ArrowUp,ArrowRight"":10,""ArrowDown,ArrowLeft"":5,""ArrowDown,ArrowRight"":17}","true","ArrowDown,ArrowRight","","","","original","1","","","",""
"html-keyboard-response","279","1192792","0.0-4.0-10.0-1.7","spark_pilot_2","7436","1","18","Female","","","","","","","null","<div style=""font-size:60px;"">+</div>","null","fixation","","","","","","","","","","","","","",""
"learning-instructions","280","1205251","0.0-4.0-0.1-0.2","spark_pilot_2","7436","1","18","Female","","","","","","","9675.300000190735","<p> This time you are searching for treasure in the <b>canyon</b>.</p>","","instructions","","","","","","","","","","","","","",""
"learning-instructions","281","1223487","0.0-4.0-0.1-0.3","spark_pilot_2","7436","1","18","Female","","","","","","","980.8000001907349","<p><b>New</b> animals with <b>new</b> treasure chests live here. You need to explore to discover where the animal with the best treasure chest is.</p>
                    <p> Like before, once you figure out which animal has the chest with the most treasure, you should try to get to that animal and select that chest! </p>","","instructions","","","","","","","","","","","","","",""
"learning-instructions","282","1239034","0.0-4.0-1.1-0.1","spark_pilot_2","7436","1","18","Female","","","","","","","815.5999994277954","<p> Remember, when you see a picture of the place, use the up and down keys to <b>find an animal</b>.</p>
            <p> When you encounter an animal, you should use the left and right keys to <b>select a treasure chest</b>.</p>
            <p> Don't forget to look out for the robber! </p>","","instructions","","","","","","","","","","","","","",""
"revaluation","283","1245064","0.0-4.0-2.1-0.50","spark_pilot_2","7436","1","18","Female","","false","","","","","[1509.3999996185303,604.8000001907349]","./assets/img/canyon/memory/4.jpg","[""ArrowUp"",""ArrowLeft""]","value training","canyon","23","{""ArrowUp,ArrowLeft"":23,""ArrowUp,ArrowRight"":10,""ArrowDown,ArrowLeft"":8,""ArrowDown,ArrowRight"":30}","false","ArrowUp,ArrowLeft","false","","","revaluation","2","0","","",""
"html-keyboard-response","284","1245571","0.0-4.0-2.1-1.50","spark_pilot_2","7436","1","18","Female","","","","","","","null","<div style=""font-size:60px;"">+</div>","null","fixation","","","","","","","","","","","1","","",""
"revaluation","285","1249592","0.0-4.0-2.1-0.51","spark_pilot_2","7436","1","18","Female","","false","","","","","[299]","./assets/img/canyon/catch/4.jpg","[""ArrowUp""]","value training","canyon","-10","{""ArrowUp,ArrowLeft"":23,""ArrowUp,ArrowRight"":10,""ArrowDown,ArrowLeft"":8,""ArrowDown,ArrowRight"":30}","false","ArrowUp","true","","","revaluation","2","2","","",""
"html-keyboard-response","286","1250103","0.0-4.0-2.1-1.51","spark_pilot_2","7436","1","18","Female","","","","","","","null","<div style=""font-size:60px;"">+</div>","null","fixation","","","","","","","","","","","3","","",""
"revaluation","287","1256136","0.0-4.0-2.1-0.52","spark_pilot_2","7436","1","18","Female","","false","","","","","[509.30000019073486,323.19999980926514]","./assets/img/canyon/memory/32.jpg","[""ArrowUp"",""ArrowRight""]","value training","canyon","10","{""ArrowUp,ArrowLeft"":23,""ArrowUp,ArrowRight"":10,""ArrowDown,ArrowLeft"":8,""ArrowDown,ArrowRight"":30}","false","ArrowUp,ArrowRight","false","","","revaluation","2","4","","",""
"html-keyboard-response","288","1256647","0.0-4.0-2.1-1.52","spark_pilot_2","7436","1","18","Female","","","","","","","null","<div style=""font-size:60px;"">+</div>","null","fixation","","","","","","","","","","","5","","",""
"revaluation","289","1262679","0.0-4.0-2.1-0.53","spark_pilot_2","7436","1","18","Female","","false","","","","","[543.0999994277954,453.9000005722046]","./assets/img/canyon/memory/11.jpg","[""ArrowDown"",""ArrowLeft""]","value training","canyon","8","{""ArrowUp,ArrowLeft"":23,""ArrowUp,ArrowRight"":10,""ArrowDown,ArrowLeft"":8,""ArrowDown,ArrowRight"":30}","false","ArrowDown,ArrowLeft","false","","","revaluation","2","6","","",""
"html-keyboard-response","290","1263188","0.0-4.0-2.1-1.53","spark_pilot_2","7436","1","18","Female","","","","","","","null","<div style=""font-size:60px;"">+</div>","null","fixation","","","","","","","","","","","7","","",""
"revaluation","291","1269211","0.0-4.0-2.1-0.54","spark_pilot_2","7436","1","18","Female","","false","","","","","[827.7000007629395,511.1000003814697]","./assets/img/canyon/memory/17.jpg","[""ArrowDown"",""ArrowRight""]","value training","canyon","30","{""ArrowUp,ArrowLeft"":23,""ArrowUp,ArrowRight"":10,""ArrowDown,ArrowLeft"":8,""ArrowDown,ArrowRight"":30}","true","ArrowDown,ArrowRight","false","","","revaluation","2","8","","",""
"html-keyboard-response","292","1269715","0.0-4.0-2.1-1.54","spark_pilot_2","7436","1","18","Female","","","","","","","null","<div style=""font-size:60px;"">+</div>","null","fixation","","","","","","","","","","","9","","",""
"revaluation","293","1275741","0.0-4.0-2.1-0.55","spark_pilot_2","7436","1","18","Female","","false","","","","","[558.8000001907349,550.3999996185303]","./assets/img/canyon/memory/29.jpg","[""ArrowDown"",""ArrowRight""]","value training","canyon","30","{""ArrowUp,ArrowLeft"":23,""ArrowUp,ArrowRight"":10,""ArrowDown,ArrowLeft"":8,""ArrowDown,ArrowRight"":30}","true","ArrowDown,ArrowRight","false","","","revaluation","2","10","","",""
"html-keyboard-response","294","1276252","0.0-4.0-2.1-1.55","spark_pilot_2","7436","1","18","Female","","","","","","","null","<div style=""font-size:60px;"">+</div>","null","fixation","","","","","","","","","","","11","","",""
"revaluation","295","1282278","0.0-4.0-2.1-0.56","spark_pilot_2","7436","1","18","Female","","false","","","","","[543,511.69999980926514]","./assets/img/canyon/memory/22.jpg","[""ArrowDown"",""ArrowRight""]","value training","canyon","30","{""ArrowUp,ArrowLeft"":23,""ArrowUp,ArrowRight"":10,""ArrowDown,ArrowLeft"":8,""ArrowDown,ArrowRight"":30}","true","ArrowDown,ArrowRight","false","","","revaluation","2","12","","",""
"html-keyboard-response","296","1282788","0.0-4.0-2.1-1.56","spark_pilot_2","7436","1","18","Female","","","","","","","null","<div style=""font-size:60px;"">+</div>","null","fixation","","","","","","","","","","","13","","",""
"revaluation","297","1288814","0.0-4.0-2.1-0.57","spark_pilot_2","7436","1","18","Female","","false","","","","","[637.0999994277954,665.5]","./assets/img/canyon/memory/24.jpg","[""ArrowDown"",""ArrowRight""]","value training","canyon","30","{""ArrowUp,ArrowLeft"":23,""ArrowUp,ArrowRight"":10,""ArrowDown,ArrowLeft"":8,""ArrowDown,ArrowRight"":30}","true","ArrowDown,ArrowRight","false","","","revaluation","2","14","","",""
"html-keyboard-response","298","1289324","0.0-4.0-2.1-1.57","spark_pilot_2","7436","1","18","Female","","","","","","","null","<div style=""font-size:60px;"">+</div>","null","fixation","","","","","","","","","","","15","","",""
"revaluation","299","1293342","0.0-4.0-2.1-0.58","spark_pilot_2","7436","1","18","Female","","false","","","","","[653.5]","./assets/img/canyon/catch/1.jpg","[""spaceBar""]","value training","canyon","0","{""ArrowUp,ArrowLeft"":23,""ArrowUp,ArrowRight"":10,""ArrowDown,ArrowLeft"":8,""ArrowDown,ArrowRight"":30}","true","spaceBar","true","","","revaluation","2","16","","",""
"html-keyboard-response","300","1293852","0.0-4.0-2.1-1.58","spark_pilot_2","7436","1","18","Female","","","","","","","null","<div style=""font-size:60px;"">+</div>","null","fixation","","","","","","","","","","","17","","",""
"revaluation","301","1299878","0.0-4.0-2.1-0.59","spark_pilot_2","7436","1","18","Female","","false","","","","","[1153.9000005722046,435.30000019073486]","./assets/img/canyon/memory/28.jpg","[""ArrowDown"",""ArrowRight""]","value training","canyon","30","{""ArrowUp,ArrowLeft"":23,""ArrowUp,ArrowRight"":10,""ArrowDown,ArrowLeft"":8,""ArrowDown,ArrowRight"":30}","true","ArrowDown,ArrowRight","false","","","revaluation","2","18","","",""
"html-keyboard-response","302","1300388","0.0-4.0-2.1-1.59","spark_pilot_2","7436","1","18","Female","","","","","","","null","<div style=""font-size:60px;"">+</div>","null","fixation","","","","","","","","","","","19","","",""
"revaluation","303","1306414","0.0-4.0-2.1-0.60","spark_pilot_2","7436","1","18","Female","","false","","","","","[576.8000001907349,480.9000005722046]","./assets/img/canyon/memory/3.jpg","[""ArrowDown"",""ArrowRight""]","value training","canyon","30","{""ArrowUp,ArrowLeft"":23,""ArrowUp,ArrowRight"":10,""ArrowDown,ArrowLeft"":8,""ArrowDown,ArrowRight"":30}","true","ArrowDown,ArrowRight","false","","","revaluation","2","20","","",""
"html-keyboard-response","304","1306925","0.0-4.0-2.1-1.60","spark_pilot_2","7436","1","18","Female","","","","","","","null","<div style=""font-size:60px;"">+</div>","null","fixation","","","","","","","","","","","21","","",""
"revaluation","305","1312951","0.0-4.0-2.1-0.61","spark_pilot_2","7436","1","18","Female","","false","","","","","[510.6000003814697,279.19999980926514]","./assets/img/canyon/memory/28.jpg","[""ArrowDown"",""ArrowRight""]","value training","canyon","30","{""ArrowUp,ArrowLeft"":23,""ArrowUp,ArrowRight"":10,""ArrowDown,ArrowLeft"":8,""ArrowDown,ArrowRight"":30}","true","ArrowDown,ArrowRight","false","","","revaluation","2","22","","",""
"html-keyboard-response","306","1313461","0.0-4.0-2.1-1.61","spark_pilot_2","7436","1","18","Female","","","","","","","null","<div style=""font-size:60px;"">+</div>","null","fixation","","","","","","","","","","","23","","",""
