"trial_type","trial_index","time_elapsed","internal_node_id","task_version","subject_id","assigned_condition","age","gender","browser_interaction","success","timeout","failed_images","failed_audio","failed_video","rt","stimulus","response","task_part","environment","score","rewardMap","correct","fullState","isCatch","numberMissed","duration","condition","order","trial_num","key_press","ground_truth","bonus"
"pavlovia","0","1120","0.0-0.0","spark_pilot_2","7354","2","14","Male","[{""event"":""blur"",""trial"":1,""time"":6068},{""event"":""focus"",""trial"":1,""time"":8308},{""event"":""blur"",""trial"":1,""time"":8310},{""event"":""focus"",""trial"":1,""time"":11476},{""event"":""fullscreenenter"",""trial"":2,""time"":24211},{""event"":""blur"",""trial"":27,""time"":199882},{""event"":""focus"",""trial"":27,""time"":201331}]","","","","","","","","","","","","","","","","","","","","","","",""
"preload","1","22156","0.0-1.0","spark_pilot_2","7354","2","14","Male","[{""event"":""blur"",""trial"":1,""time"":6068},{""event"":""focus"",""trial"":1,""time"":8308},{""event"":""blur"",""trial"":1,""time"":8310},{""event"":""focus"",""trial"":1,""time"":11476},{""event"":""fullscreenenter"",""trial"":2,""time"":24211},{""event"":""blur"",""trial"":27,""time"":199882},{""event"":""focus"",""trial"":27,""time"":201331}]","true","false","[]","[]","[]","","","","","","","","","","","","","","","","","",""
"fullscreen","2","25077","0.0-2.0","spark_pilot_2","7354","2","14","Male","","true","","","","","","","","","","","","","","","","","","","","","",""
"audio-button-response","3","37505","0.0-3.0-0.0-0.0","spark_pilot_2","7354","2","14","Male","","","","","","","11821","./assets/audio/audiotest/turtle.mp3","2","audio_test","","","","","","","","","","","","","",""
"learning-instructions","4","47305","0.0-3.0-1.0-0.0","spark_pilot_2","7354","2","14","Male","","","","","","","2806.7999999523163","<p> Welcome! Please remember to stay in fullscreen mode and don't click away from the experiment. </p>","","instructions","","","","","","","","","","","","","",""
"learning-instructions","5","58346","0.0-3.0-1.0-0.1","spark_pilot_2","7354","2","14","Male","","","","","","","2617","<p> Today you will be playing a game to earn treasure. </p>
            <p> At the end of the experiment, you will earn a bonus based on how much treasure you find. </p>
            <img src='./assets/img/instructions/treasure.jpg' class='instructions-image'>","","instructions","","","","","","","","","","","","","",""
"learning-instructions","6","68362","0.0-3.0-1.0-0.2","spark_pilot_2","7354","2","14","Male","","","","","","","1742.8000000715256","<p> Animals have hidden treasure in treasure chests. </p>
            <p> You need to first find an animal and then choose which of their treasure chests to search. </p>
            <img src='./assets/img/space/animals/cat.jpg' class='instructions-image'>","","instructions","","","","","","","","","","","","","",""
"learning-instructions","7","83083","0.0-3.0-1.0-0.3","spark_pilot_2","7354","2","14","Male","","","","","","","1551.1000000238419","<p> In each round, you will search for treasure in a different place. In the real game, there will be two rounds. </p>
            <p> You will begin with a separate, practice round where you will search for treasure in outer space. </p>
            <img src='./assets/img/space/0.jpg' class='instructions-image'>","","instructions","","","","","","","","","","","","","",""
"learning-instructions","8","96003","0.0-3.0-1.0-0.4","spark_pilot_2","7354","2","14","Male","","","","","","","1482.8999999761581","<p> On every turn, you will see a picture of the place that you are in, but the specific image may be different each time. </p>
            <p> For example, both of these images mean you are in outer space. </p>
            <img src='./assets/img/instructions/outerspace.jpg' class='instructions-image'>","","instructions","","","","","","","","","","","","","",""
"learning-instructions","9","105083","0.0-3.0-1.0-0.5","spark_pilot_2","7354","2","14","Male","","","","","","","1231.7000000476837","<p> You need to decide which direction to travel in. </p>
            <p> You can choose between going <b>up or down</b> by using the arrow keys. </p>
            <img src='./assets/img/instructions/updown.jpg' class='instructions-image'>","","instructions","","","","","","","","","","","","","",""
"learning-instructions","10","115099","0.0-3.0-1.0-0.6","spark_pilot_2","7354","2","14","Male","","","","","","","1178.8999999761581","<p> You will have <b>2 seconds</b> to make your choice. </p>
            <p> If you do not make a choice within 2 seconds, you will not find an animal or earn treasure. </p>
            <img src='./assets/img/instructions/2seconds.jpg' class='instructions-image'>","","instructions","","","","","","","","","","","","","",""
"learning-instructions","11","123362","0.0-3.0-1.0-0.7","spark_pilot_2","7354","2","14","Male","","","","","","","1221.8000000715256","<p> Let’s try practicing that now! </p>
            <p> When you see a picture of the place you are in, press the <b>up</b> key to travel up. </p>
            <img src='./assets/img/instructions/pressUp.jpg' class='instructions-image'>","","instructions","","","","","","","","","","","","","",""
"revaluation","12","127409","0.0-3.0-2.0-0.0","spark_pilot_2","7354","2","14","Male","","","false","","","","[702.2999999523163]","./assets/img/space/0.jpg","[""ArrowUp""]","first stage practice","space","0","null","null","ArrowUp","false","","","","","","","",""
"html-keyboard-response","13","127927","0.0-3.0-2.0-1.0","spark_pilot_2","7354","2","14","Male","","","","","","","null","<div style=""font-size:60px;"">+</div>","null","fixation","","","","","","","","","","","","","",""
"revaluation","14","131948","0.0-3.0-2.0-0.1","spark_pilot_2","7354","2","14","Male","","","false","","","","[570.8000000715256]","./assets/img/space/1.jpg","[""ArrowUp""]","first stage practice","space","0","null","null","ArrowUp","false","","","","","","","",""
"html-keyboard-response","15","132457","0.0-3.0-2.0-1.1","spark_pilot_2","7354","2","14","Male","","","","","","","null","<div style=""font-size:60px;"">+</div>","null","fixation","","","","","","","","","","","","","",""
"revaluation","16","136478","0.0-3.0-2.0-0.2","spark_pilot_2","7354","2","14","Male","","","false","","","","[801.5999999046326]","./assets/img/space/2.jpg","[""ArrowUp""]","first stage practice","space","0","null","null","ArrowUp","false","","","","","","","",""
"html-keyboard-response","17","136987","0.0-3.0-2.0-1.2","spark_pilot_2","7354","2","14","Male","","","","","","","null","<div style=""font-size:60px;"">+</div>","null","fixation","","","","","","","","","","","","","",""
"learning-instructions","18","142964","0.0-3.0-3.0-0.0","spark_pilot_2","7354","2","14","Male","","","","","","","1274.2999999523163","<p> Great job! Now try pressing the <b>down</b> key to travel down. </p>
            <img src='./assets/img/instructions/pressDown.jpg' class='instructions-image'>","","instructions","","","","","","","","","","","","","",""
"revaluation","19","146978","0.0-3.0-4.0-0.0","spark_pilot_2","7354","2","14","Male","","","false","","","","[861.3000000715256]","./assets/img/space/3.jpg","[""ArrowDown""]","first stage practice","space","0","null","null","ArrowDown","false","","","","","","","",""
"html-keyboard-response","20","147487","0.0-3.0-4.0-1.0","spark_pilot_2","7354","2","14","Male","","","","","","","null","<div style=""font-size:60px;"">+</div>","null","fixation","","","","","","","","","","","","","",""
"revaluation","21","151518","0.0-3.0-4.0-0.1","spark_pilot_2","7354","2","14","Male","","","false","","","","[549]","./assets/img/space/4.jpg","[""ArrowDown""]","first stage practice","space","0","null","null","ArrowDown","false","","","","","","","",""
"html-keyboard-response","22","152037","0.0-3.0-4.0-1.1","spark_pilot_2","7354","2","14","Male","","","","","","","null","<div style=""font-size:60px;"">+</div>","null","fixation","","","","","","","","","","","","","",""
"revaluation","23","156068","0.0-3.0-4.0-0.2","spark_pilot_2","7354","2","14","Male","","","false","","","","[459]","./assets/img/space/5.jpg","[""ArrowDown""]","first stage practice","space","0","null","null","ArrowDown","false","","","","","","","",""
"html-keyboard-response","24","156570","0.0-3.0-4.0-1.2","spark_pilot_2","7354","2","14","Male","","","","","","","null","<div style=""font-size:60px;"">+</div>","null","fixation","","","","","","","","","","","","","",""
"learning-instructions","25","168058","0.0-3.0-5.0-0.0","spark_pilot_2","7354","2","14","Male","","","","","","","1618.2999999523163","<p> The animals don’t move, so the animal in the upper part of a place will stay in the upper part of a place, and the animal in the lower part of a place will stay in the lower part of a place. </p>","","instructions","","","","","","","","","","","","","",""
"learning-instructions","26","179955","0.0-3.0-5.0-0.1","spark_pilot_2","7354","2","14","Male","[{""event"":""blur"",""trial"":1,""time"":6068},{""event"":""focus"",""trial"":1,""time"":8308},{""event"":""blur"",""trial"":1,""time"":8310},{""event"":""focus"",""trial"":1,""time"":11476},{""event"":""fullscreenenter"",""trial"":2,""time"":24211},{""event"":""blur"",""trial"":27,""time"":199882},{""event"":""focus"",""trial"":27,""time"":201331}]","","","","","","2755","<p> Each animal has two treasure chests for you to choose from. </p>
            <p> The amount of treasure in each chest can range from <b> 0 to 40 pieces.</b></p>","","instructions","","","","","","","","","","","","","",""
"learning-instructions","27","202418","0.0-3.0-5.0-0.2","spark_pilot_2","7354","2","14","Male","","","","","","","11279.599999904633","<p> You should decide which chest to search for treasure by using the <b>left</b> and <b>right</b> arrow keys. </p>
            <p><b> Pay attention to which animal is on the screen, as the animals have different treasure chests. </b></p>
            <img src='./assets/img/instructions/leftright.jpg' class='instructions-image'>","","instructions","","","","","","","","","","","","","",""
"learning-instructions","28","209650","0.0-3.0-5.0-0.3","spark_pilot_2","7354","2","14","Male","","","","","","","817.6000000238419","<p> Let’s try practicing that now. </p>
            <p> When you see an animal, choose which chest to search for treasure. </p>
            <img src='./assets/img/instructions/chooseChest.jpg' class='instructions-image'>","","instructions","","","","","","","","","","","","","",""
"revaluation","29","213669","0.0-3.0-6.0-0.0","spark_pilot_2","7354","2","14","Male","","","false","","","","[469]","./assets/img/space/animals/rabbit.jpg","[""ArrowRight""]","second stage practice","space","23","{""ArrowUp,ArrowLeft"":3,""ArrowUp,ArrowRight"":36,""ArrowDown,ArrowLeft"":15,""ArrowDown,ArrowRight"":23}","true","ArrowDown,ArrowRight","","","","","","","","",""
"html-keyboard-response","30","214188","0.0-3.0-6.0-1.0","spark_pilot_2","7354","2","14","Male","","","","","","","null","<div style=""font-size:60px;"">+</div>","null","fixation","","","","","","","","","","","","","",""
"revaluation","31","218219","0.0-3.0-6.0-0.1","spark_pilot_2","7354","2","14","Male","","","false","","","","[706.8999999761581]","./assets/img/space/animals/rabbit.jpg","[""ArrowLeft""]","second stage practice","space","15","{""ArrowUp,ArrowLeft"":3,""ArrowUp,ArrowRight"":36,""ArrowDown,ArrowLeft"":15,""ArrowDown,ArrowRight"":23}","false","ArrowDown,ArrowLeft","","","","","","","","",""
"html-keyboard-response","32","218737","0.0-3.0-6.0-1.1","spark_pilot_2","7354","2","14","Male","","","","","","","null","<div style=""font-size:60px;"">+</div>","null","fixation","","","","","","","","","","","","","",""
"revaluation","33","222769","0.0-3.0-6.0-0.2","spark_pilot_2","7354","2","14","Male","","","false","","","","[322.7999999523163]","./assets/img/space/animals/cat.jpg","[""ArrowLeft""]","second stage practice","space","3","{""ArrowUp,ArrowLeft"":3,""ArrowUp,ArrowRight"":36,""ArrowDown,ArrowLeft"":15,""ArrowDown,ArrowRight"":23}","false","ArrowUp,ArrowLeft","","","","","","","","",""
"html-keyboard-response","34","223288","0.0-3.0-6.0-1.2","spark_pilot_2","7354","2","14","Male","","","","","","","null","<div style=""font-size:60px;"">+</div>","null","fixation","","","","","","","","","","","","","",""
"revaluation","35","227317","0.0-3.0-6.0-0.3","spark_pilot_2","7354","2","14","Male","","","false","","","","[878.7999999523163]","./assets/img/space/animals/cat.jpg","[""ArrowRight""]","second stage practice","space","36","{""ArrowUp,ArrowLeft"":3,""ArrowUp,ArrowRight"":36,""ArrowDown,ArrowLeft"":15,""ArrowDown,ArrowRight"":23}","true","ArrowUp,ArrowRight","","","","","","","","",""
"html-keyboard-response","36","227837","0.0-3.0-6.0-1.3","spark_pilot_2","7354","2","14","Male","","","","","","","null","<div style=""font-size:60px;"">+</div>","null","fixation","","","","","","","","","","","","","",""
"learning-instructions","37","245954","0.0-3.0-7.0-0.0","spark_pilot_2","7354","2","14","Male","","","","","","","1202.6999999284744","<p> Great job. Now let’s try putting it together. </p>
            <p> On each turn, you will first see a picture to remind you of the place you are in, and you need to choose whether to go up or down. </p>
            <p> Then you will see an animal and choose which of its chests to search for treasure. </p>","","instructions","","","","","","","","","","","","","",""
"learning-instructions","38","255690","0.0-3.0-7.0-0.1","spark_pilot_2","7354","2","14","Male","","","","","","","1418.7999999523163","<p> When you choose whether to go up or down, try to go to the animal with the chest with the most treasure. </p>
            <p> Try practicing that now! </p>","","instructions","","","","","","","","","","","","","",""
"revaluation","39","261718","0.0-3.0-8.0-0.0","spark_pilot_2","7354","2","14","Male","","","false","","","","[1506.7999999523163,442.10000002384186]","./assets/img/space/6.jpg","[""ArrowUp"",""ArrowRight""]","full practice","space","36","{""ArrowUp,ArrowLeft"":3,""ArrowUp,ArrowRight"":36,""ArrowDown,ArrowLeft"":15,""ArrowDown,ArrowRight"":23}","true","ArrowUp,ArrowRight","false","","","","","","","",""
"html-keyboard-response","40","262227","0.0-3.0-8.0-1.0","spark_pilot_2","7354","2","14","Male","","","","","","","null","<div style=""font-size:60px;"">+</div>","null","fixation","","","","","","","","","","","","","",""
"revaluation","41","268268","0.0-3.0-8.0-0.1","spark_pilot_2","7354","2","14","Male","","","false","","","","[826.7999999523163,506.39999997615814]","./assets/img/space/7.jpg","[""ArrowUp"",""ArrowRight""]","full practice","space","36","{""ArrowUp,ArrowLeft"":3,""ArrowUp,ArrowRight"":36,""ArrowDown,ArrowLeft"":15,""ArrowDown,ArrowRight"":23}","true","ArrowUp,ArrowRight","false","","","","","","","",""
"html-keyboard-response","42","268787","0.0-3.0-8.0-1.1","spark_pilot_2","7354","2","14","Male","","","","","","","null","<div style=""font-size:60px;"">+</div>","null","fixation","","","","","","","","","","","","","",""
"revaluation","43","274837","0.0-3.0-8.0-0.2","spark_pilot_2","7354","2","14","Male","","","false","","","","[770.3999999761581,321.10000002384186]","./assets/img/space/8.jpg","[""ArrowDown"",""ArrowRight""]","full practice","space","23","{""ArrowUp,ArrowLeft"":3,""ArrowUp,ArrowRight"":36,""ArrowDown,ArrowLeft"":15,""ArrowDown,ArrowRight"":23}","false","ArrowDown,ArrowRight","false","","","","","","","",""
"html-keyboard-response","44","275357","0.0-3.0-8.0-1.2","spark_pilot_2","7354","2","14","Male","","","","","","","null","<div style=""font-size:60px;"">+</div>","null","fixation","","","","","","","","","","","","","",""
"revaluation","45","281388","0.0-3.0-8.0-0.3","spark_pilot_2","7354","2","14","Male","","","false","","","","[800.6000000238419,304.7999999523163]","./assets/img/space/9.jpg","[""ArrowUp"",""ArrowRight""]","full practice","space","36","{""ArrowUp,ArrowLeft"":3,""ArrowUp,ArrowRight"":36,""ArrowDown,ArrowLeft"":15,""ArrowDown,ArrowRight"":23}","true","ArrowUp,ArrowRight","false","","","","","","","",""
"html-keyboard-response","46","281897","0.0-3.0-8.0-1.3","spark_pilot_2","7354","2","14","Male","","","","","","","null","<div style=""font-size:60px;"">+</div>","null","fixation","","","","","","","","","","","","","",""
"revaluation","47","287908","0.0-3.0-8.0-0.4","spark_pilot_2","7354","2","14","Male","","","false","","","","[508.60000002384186,304.7000000476837]","./assets/img/space/10.jpg","[""ArrowUp"",""ArrowLeft""]","full practice","space","3","{""ArrowUp,ArrowLeft"":3,""ArrowUp,ArrowRight"":36,""ArrowDown,ArrowLeft"":15,""ArrowDown,ArrowRight"":23}","false","ArrowUp,ArrowLeft","false","","","","","","","",""
"html-keyboard-response","48","288410","0.0-3.0-8.0-1.4","spark_pilot_2","7354","2","14","Male","","","","","","","null","<div style=""font-size:60px;"">+</div>","null","fixation","","","","","","","","","","","","","",""
"learning-instructions","49","299906","0.0-3.0-9.0-0.0","spark_pilot_2","7354","2","14","Male","","","","","","","1112.1999999284744","<p> One last thing: sometimes, you will see a robber. The robber can be anywhere in the picture. </p>
            <p> If you do not stop them, you will lose treasure. </p>
            <img src='./assets/img/instructions/robber.jpg' class='instructions-image'>","","instructions","","","","","","","","","","","","","",""
"learning-instructions","50","309330","0.0-3.0-9.0-0.1","spark_pilot_2","7354","2","14","Male","","","","","","","2204.5","<p> If you see the robber, you should <b>press the space bar</b> rather than using the arrow keys. </p>
            <p> Try practicing that now! </p>","","instructions","","","","","","","","","","","","","",""
"revaluation","51","313373","0.0-3.0-10.0-0.0","spark_pilot_2","7354","2","14","Male","","","false","","","","[1334.1000000238419]","./assets/img/space/catch/0.jpg","[""spaceBar""]","catch practice","space","0","{""ArrowUp,ArrowLeft"":3,""ArrowUp,ArrowRight"":36,""ArrowDown,ArrowLeft"":15,""ArrowDown,ArrowRight"":23}","true","spaceBar","true","","","","","","","",""
"html-keyboard-response","52","313892","0.0-3.0-10.0-1.0","spark_pilot_2","7354","2","14","Male","","","","","","","null","<div style=""font-size:60px;"">+</div>","null","fixation","","","","","","","","","","","","","",""
"revaluation","53","317922","0.0-3.0-10.0-0.1","spark_pilot_2","7354","2","14","Male","","","false","","","","[587.5]","./assets/img/space/catch/1.jpg","[""spaceBar""]","catch practice","space","0","{""ArrowUp,ArrowLeft"":3,""ArrowUp,ArrowRight"":36,""ArrowDown,ArrowLeft"":15,""ArrowDown,ArrowRight"":23}","true","spaceBar","true","","","","","","","",""
"html-keyboard-response","54","318442","0.0-3.0-10.0-1.1","spark_pilot_2","7354","2","14","Male","","","","","","","null","<div style=""font-size:60px;"">+</div>","null","fixation","","","","","","","","","","","","","",""
"revaluation","55","322473","0.0-3.0-10.0-0.2","spark_pilot_2","7354","2","14","Male","","","false","","","","[395.5]","./assets/img/space/catch/2.jpg","[""spaceBar""]","catch practice","space","0","{""ArrowUp,ArrowLeft"":3,""ArrowUp,ArrowRight"":36,""ArrowDown,ArrowLeft"":15,""ArrowDown,ArrowRight"":23}","true","spaceBar","true","","","","","","","",""
"html-keyboard-response","56","322992","0.0-3.0-10.0-1.2","spark_pilot_2","7354","2","14","Male","","","","","","","null","<div style=""font-size:60px;"">+</div>","null","fixation","","","","","","","","","","","","","",""
"learning-instructions","57","337594","0.0-3.0-11.0-0.0","spark_pilot_2","7354","2","14","Male","","","","","","","936.7999999523163","<p> After you explore a place to find treasure, it will be time to play a different game. </p>
            <p> During this game, red dots will appear on the screen and fall down slowly. </p>
            <p><b> You must click on them before they reach the bottom. </b></p>
            <img src='./assets/img/instructions/dotGame.jpg' class='instructions-image'>","","instructions","","","","","","","","","","","","","",""
"learning-instructions","58","344290","0.0-3.0-11.0-0.1","spark_pilot_2","7354","2","14","Male","","","","","","","974","<p> For every dot you click, you will earn additional treasure. </p>
            <p> Let’s try practicing that now. </p>","","instructions","","","","","","","","","","","","","",""
"revaluation","59","359301","0.0-3.0-12.0-0.0","spark_pilot_2","7354","2","14","Male","","","","","","","[61,112]","","","rest practice","","20","","","","","0","15000","","","","","",""
"learning-instructions","60","365571","0.0-3.0-13.0-0.0-0.0","spark_pilot_2","7354","2","14","Male","","","","","","","964.2000000476837","<p> Now, you will practice a shortened version of the game to get a sense of how it all fits together. </p>","","instructions","","","","","","","","","","","","","",""
"learning-instructions","61","371347","0.0-3.0-13.0-0.0-0.1","spark_pilot_2","7354","2","14","Male","","","","","","","2539.7999999523163","<p>This time you are searching for treasure in outer space.</p>","","instructions","","","","","","","","","","","","","",""
"learning-instructions","62","386683","0.0-3.0-13.0-1.0-0.0","spark_pilot_2","7354","2","14","Male","","","","","","","525.6999999284744","<p> Remember, when you see a picture of the place, use the up and down keys to <b>find an animal</b>.</p>
            <p> When you encounter an animal, you should use the left and right keys to <b>select a treasure chest</b>.</p>
            <p> Don't forget to look out for the robber! </p>","","instructions","","","","","","","","","","","","","",""
"revaluation","63","392723","0.0-3.0-13.0-2.0-0.0","spark_pilot_2","7354","2","14","Male","","","false","","","","[662.6000000238419,341.10000002384186]","./assets/img/space/11.jpg","[""ArrowUp"",""ArrowRight""]","practice block","space","36","{""ArrowUp,ArrowLeft"":3,""ArrowUp,ArrowRight"":36,""ArrowDown,ArrowLeft"":15,""ArrowDown,ArrowRight"":23}","true","ArrowUp,ArrowRight","false","","","","","","","",""
"html-keyboard-response","64","393242","0.0-3.0-13.0-2.0-1.0","spark_pilot_2","7354","2","14","Male","","","","","","","null","<div style=""font-size:60px;"">+</div>","null","fixation","","","","","","","","","","","","","",""
"revaluation","65","399283","0.0-3.0-13.0-2.0-0.1","spark_pilot_2","7354","2","14","Male","","","false","","","","[599.2999999523163,346.60000002384186]","./assets/img/space/12.jpg","[""ArrowUp"",""ArrowRight""]","practice block","space","36","{""ArrowUp,ArrowLeft"":3,""ArrowUp,ArrowRight"":36,""ArrowDown,ArrowLeft"":15,""ArrowDown,ArrowRight"":23}","true","ArrowUp,ArrowRight","false","","","","","","","",""
"html-keyboard-response","66","399803","0.0-3.0-13.0-2.0-1.1","spark_pilot_2","7354","2","14","Male","","","","","","","null","<div style=""font-size:60px;"">+</div>","null","fixation","","","","","","","","","","","","","",""
"revaluation","67","405843","0.0-3.0-13.0-2.0-0.2","spark_pilot_2","7354","2","14","Male","","","false","","","","[718.7999999523163,307.89999997615814]","./assets/img/space/13.jpg","[""ArrowUp"",""ArrowRight""]","practice block","space","36","{""ArrowUp,ArrowLeft"":3,""ArrowUp,ArrowRight"":36,""ArrowDown,ArrowLeft"":15,""ArrowDown,ArrowRight"":23}","true","ArrowUp,ArrowRight","false","","","","","","","",""
"html-keyboard-response","68","406362","0.0-3.0-13.0-2.0-1.2","spark_pilot_2","7354","2","14","Male","","","","","","","null","<div style=""font-size:60px;"">+</div>","null","fixation","","","","","","","","","","","","","",""
"revaluation","69","412423","0.0-3.0-13.0-2.0-0.3","spark_pilot_2","7354","2","14","Male","","","false","","","","[559.6999999284744,297.5]","./assets/img/space/14.jpg","[""ArrowUp"",""ArrowRight""]","practice block","space","36","{""ArrowUp,ArrowLeft"":3,""ArrowUp,ArrowRight"":36,""ArrowDown,ArrowLeft"":15,""ArrowDown,ArrowRight"":23}","true","ArrowUp,ArrowRight","false","","","","","","","",""
"html-keyboard-response","70","412933","0.0-3.0-13.0-2.0-1.3","spark_pilot_2","7354","2","14","Male","","","","","","","null","<div style=""font-size:60px;"">+</div>","null","fixation","","","","","","","","","","","","","",""
"revaluation","71","418944","0.0-3.0-13.0-2.0-0.4","spark_pilot_2","7354","2","14","Male","","","false","","","","[1037,413.5]","./assets/img/space/11.jpg","[""ArrowUp"",""ArrowRight""]","practice block","space","36","{""ArrowUp,ArrowLeft"":3,""ArrowUp,ArrowRight"":36,""ArrowDown,ArrowLeft"":15,""ArrowDown,ArrowRight"":23}","true","ArrowUp,ArrowRight","false","","","","","","","",""
"html-keyboard-response","72","419451","0.0-3.0-13.0-2.0-1.4","spark_pilot_2","7354","2","14","Male","","","","","","","null","<div style=""font-size:60px;"">+</div>","null","fixation","","","","","","","","","","","","","",""
"revaluation","73","425456","0.0-3.0-13.0-2.0-0.5","spark_pilot_2","7354","2","14","Male","","","false","","","","[811.1000000238419,339.89999997615814]","./assets/img/space/12.jpg","[""ArrowUp"",""ArrowRight""]","practice block","space","36","{""ArrowUp,ArrowLeft"":3,""ArrowUp,ArrowRight"":36,""ArrowDown,ArrowLeft"":15,""ArrowDown,ArrowRight"":23}","true","ArrowUp,ArrowRight","false","","","","","","","",""
"html-keyboard-response","74","425957","0.0-3.0-13.0-2.0-1.5","spark_pilot_2","7354","2","14","Male","","","","","","","null","<div style=""font-size:60px;"">+</div>","null","fixation","","","","","","","","","","","","","",""
"revaluation","75","431962","0.0-3.0-13.0-2.0-0.6","spark_pilot_2","7354","2","14","Male","","","false","","","","[839.8999999761581,219.40000009536743]","./assets/img/space/13.jpg","[""ArrowDown"",""ArrowRight""]","practice block","space","23","{""ArrowUp,ArrowLeft"":3,""ArrowUp,ArrowRight"":36,""ArrowDown,ArrowLeft"":15,""ArrowDown,ArrowRight"":23}","false","ArrowDown,ArrowRight","false","","","","","","","",""
"html-keyboard-response","76","432463","0.0-3.0-13.0-2.0-1.6","spark_pilot_2","7354","2","14","Male","","","","","","","null","<div style=""font-size:60px;"">+</div>","null","fixation","","","","","","","","","","","","","",""
"revaluation","77","438469","0.0-3.0-13.0-2.0-0.7","spark_pilot_2","7354","2","14","Male","","","false","","","","[476.10000002384186,260.59999990463257]","./assets/img/space/14.jpg","[""ArrowUp"",""ArrowRight""]","practice block","space","36","{""ArrowUp,ArrowLeft"":3,""ArrowUp,ArrowRight"":36,""ArrowDown,ArrowLeft"":15,""ArrowDown,ArrowRight"":23}","true","ArrowUp,ArrowRight","false","","","","","","","",""
"html-keyboard-response","78","438970","0.0-3.0-13.0-2.0-1.7","spark_pilot_2","7354","2","14","Male","","","","","","","null","<div style=""font-size:60px;"">+</div>","null","fixation","","","","","","","","","","","","","",""
"revaluation","79","442974","0.0-3.0-13.0-2.0-0.8","spark_pilot_2","7354","2","14","Male","","","false","","","","[579.6000000238419]","./assets/img/space/catch/3.jpg","[""spaceBar""]","practice block","space","0","{""ArrowUp,ArrowLeft"":3,""ArrowUp,ArrowRight"":36,""ArrowDown,ArrowLeft"":15,""ArrowDown,ArrowRight"":23}","true","spaceBar","true","","","","","","","",""
"html-keyboard-response","80","443481","0.0-3.0-13.0-2.0-1.8","spark_pilot_2","7354","2","14","Male","","","","","","","null","<div style=""font-size:60px;"">+</div>","null","fixation","","","","","","","","","","","","","",""
"learning-instructions","81","458034","0.0-3.0-13.0-3.0-0.0","spark_pilot_2","7354","2","14","Male","","","","","","","1076","<p> Now, you will travel with a friend who will choose whether you go up or down first. </p>
            <p> On these turns, you will just see the animal that they found. You will still get to choose which chest to search for treasure.</p>","","instructions","","","","","","","","","","","","","",""
"revaluation","82","462062","0.0-3.0-13.0-4.0-0.0","spark_pilot_2","7354","2","14","Male","","","false","","","","[1532.5]","./assets/img/space/animals/rabbit.jpg","[""ArrowLeft""]","practice block","space","15","{""ArrowUp,ArrowLeft"":3,""ArrowUp,ArrowRight"":36,""ArrowDown,ArrowLeft"":15,""ArrowDown,ArrowRight"":23}","false","ArrowDown,ArrowLeft","","","","","","","","",""
"html-keyboard-response","83","462585","0.0-3.0-13.0-4.0-1.0","spark_pilot_2","7354","2","14","Male","","","","","","","null","<div style=""font-size:60px;"">+</div>","null","fixation","","","","","","","","","","","","","",""
"revaluation","84","466626","0.0-3.0-13.0-4.0-0.1","spark_pilot_2","7354","2","14","Male","","","false","","","","[636.5]","./assets/img/space/animals/rabbit.jpg","[""ArrowRight""]","practice block","space","23","{""ArrowUp,ArrowLeft"":3,""ArrowUp,ArrowRight"":36,""ArrowDown,ArrowLeft"":15,""ArrowDown,ArrowRight"":23}","true","ArrowDown,ArrowRight","","","","","","","","",""
"html-keyboard-response","85","467146","0.0-3.0-13.0-4.0-1.1","spark_pilot_2","7354","2","14","Male","","","","","","","null","<div style=""font-size:60px;"">+</div>","null","fixation","","","","","","","","","","","","","",""
"revaluation","86","471176","0.0-3.0-13.0-4.0-0.2","spark_pilot_2","7354","2","14","Male","","","false","","","","[544.2000000476837]","./assets/img/space/animals/cat.jpg","[""ArrowRight""]","practice block","space","36","{""ArrowUp,ArrowLeft"":3,""ArrowUp,ArrowRight"":36,""ArrowDown,ArrowLeft"":15,""ArrowDown,ArrowRight"":23}","true","ArrowUp,ArrowRight","","","","","","","","",""
"html-keyboard-response","87","471696","0.0-3.0-13.0-4.0-1.2","spark_pilot_2","7354","2","14","Male","","","","","","","null","<div style=""font-size:60px;"">+</div>","null","fixation","","","","","","","","","","","","","",""
"revaluation","88","475716","0.0-3.0-13.0-4.0-0.3","spark_pilot_2","7354","2","14","Male","","","false","","","","[558.0999999046326]","./assets/img/space/animals/cat.jpg","[""ArrowRight""]","practice block","space","36","{""ArrowUp,ArrowLeft"":3,""ArrowUp,ArrowRight"":36,""ArrowDown,ArrowLeft"":15,""ArrowDown,ArrowRight"":23}","true","ArrowUp,ArrowRight","","","","","","","","",""
"html-keyboard-response","89","476236","0.0-3.0-13.0-4.0-1.3","spark_pilot_2","7354","2","14","Male","","","","","","","null","<div style=""font-size:60px;"">+</div>","null","fixation","","","","","","","","","","","","","",""
"learning-instructions","90","484898","0.0-3.0-13.0-5.0-0.0","spark_pilot_2","7354","2","14","Male","","","","","","","1229.5999999046326","<p> Time to play the dot game! </p>
            <p> For 15 seconds, click the red dots on the following screen as they appear. </p>","","instructions","","","","","","","","","","","","","",""
"revaluation","91","499900","0.0-3.0-13.0-6.0-0.0","spark_pilot_2","7354","2","14","Male","","","","","","","[73]","","","rest practice","","10","","","","","0","15000","","","","","",""
"learning-instructions","92","508210","0.0-3.0-13.0-7.0-0.0","spark_pilot_2","7354","2","14","Male","","","","","","","2142.7999999523163","<p> You have almost finished this part of the game! </p>
            <p> We are going to ask you to make a few more choices. </p>","","instructions","","","","","","","","","","","","","",""
"learning-instructions","93","523658","0.0-3.0-13.0-7.0-0.1","spark_pilot_2","7354","2","14","Male","","","","","","","1389.3000000715256","<p> First, you need to decide whether to go up or down. When you see each picture, use the arrow keys to make your choice. </p>
            <p><b>You will not see which animal you found, but try to get to the one that will give you the most treasure.</b></p>","","instructions","","","","","","","","","","","","","",""
"revaluation","94","525566","0.0-3.0-13.0-8.0","spark_pilot_2","7354","2","14","Male","","","false","","","","[1905.1000000238419]","./assets/img/space/15.jpg","[""ArrowUp""]","practice block","space","0","{""ArrowUp,ArrowLeft"":3,""ArrowUp,ArrowRight"":36,""ArrowDown,ArrowLeft"":15,""ArrowDown,ArrowRight"":23}","true","ArrowUp","false","","","","","","","",""
"html-keyboard-response","95","526087","0.0-3.0-13.0-9.0","spark_pilot_2","7354","2","14","Male","","","","","","","null","<div style=""font-size:60px;"">+</div>","null","fixation","","","","","","","","","","","","","",""
"learning-instructions","96","538587","0.0-3.0-13.0-10.0-0.0","spark_pilot_2","7354","2","14","Male","","","","","","","1037.2000000476837","<p> Now you will see the animals again and can search their chests for treasure. </p>
            <p> This time, you will not see how much treasure you earned, but you will earn more bonus money for making better choices. </p>","","instructions","","","","","","","","","","","","","",""
"revaluation","97","539593","0.0-3.0-13.0-11.0-0.0","spark_pilot_2","7354","2","14","Male","","","false","","","","[1004.3999999761581]","./assets/img/space/animals/cat.jpg","[""ArrowRight""]","practice block","space","0","{""ArrowUp,ArrowLeft"":3,""ArrowUp,ArrowRight"":36,""ArrowDown,ArrowLeft"":15,""ArrowDown,ArrowRight"":23}","true","ArrowUp,ArrowRight","","","","","","","","",""
"html-keyboard-response","98","540095","0.0-3.0-13.0-11.0-1.0","spark_pilot_2","7354","2","14","Male","","","","","","","null","<div style=""font-size:60px;"">+</div>","null","fixation","","","","","","","","","","","","","",""
"revaluation","99","541063","0.0-3.0-13.0-11.0-0.1","spark_pilot_2","7354","2","14","Male","","","false","","","","[965]","./assets/img/space/animals/rabbit.jpg","[""ArrowRight""]","practice block","space","0","{""ArrowUp,ArrowLeft"":3,""ArrowUp,ArrowRight"":36,""ArrowDown,ArrowLeft"":15,""ArrowDown,ArrowRight"":23}","true","ArrowDown,ArrowRight","","","","","","","","",""
"html-keyboard-response","100","541566","0.0-3.0-13.0-11.0-1.1","spark_pilot_2","7354","2","14","Male","","","","","","","null","<div style=""font-size:60px;"">+</div>","null","fixation","","","","","","","","","","","","","",""
"learning-instructions","101","547946","0.0-3.0-14.0-0.0","spark_pilot_2","7354","2","14","Male","","","","","","","1758.6000000238419","<p> Before you start, we're going to ask you a few questions about how the game works. </p>","","instructions","","","","","","","","","","","","","",""
"comp-q","102","554314","0.0-3.0-15.0-0.0-0.0","spark_pilot_2","7354","2","14","Male","","","","","","","747.6000000238419","<p> <b> True or False? </b> </p>
            <p> There can be 50 pieces of treasure in a given animal's chest. </p>","1","comp_question","","","","true","","","","","","","","","",""
"comp-q","103","562554","0.0-3.0-15.0-0.0-1.0","spark_pilot_2","7354","2","14","Male","","","","","","","1534.4000000953674","<p> <b> That's right! </b> The amount of treasure in each chest can range from 0 to 40 pieces. </p>","0","comp_answer","","","","","","","","","","","","","",""
"comp-q","104","570410","0.0-3.0-15.0-0.1-0.1","spark_pilot_2","7354","2","14","Male","","","","","","","671.6000000238419","<p> <b> True or False? </b> </p><p> In this game, all animals have the same amount of treasure in their left and right chests. </p>","1","comp_question","","","","true","","","","","","","","","",""
"comp-q","105","579122","0.0-3.0-15.0-0.1-1.1","spark_pilot_2","7354","2","14","Male","","","","","","","3424.7000000476837","<p> <b> That's right! </b> Animals have different amounts of treasure in their treasure chests. </p>","0","comp_answer","","","","","","","","","","","","","",""
"comp-q","106","586874","0.0-3.0-15.0-0.2-0.2","spark_pilot_2","7354","2","14","Male","","","","","","","1844.6000000238419","<p> <b> True or False? </b> </p><p> The same animal will always be there if you go up in the same place. </p>","0","comp_question","","","","true","","","","","","","","","",""
"comp-q","107","596297","0.0-3.0-15.0-0.2-1.2","spark_pilot_2","7354","2","14","Male","","","","","","","2917.5999999046326","<p> <b> That's right! </b> One animal lives in the upper part and one lives in the lower part of every place. </p>","0","comp_answer","","","","","","","","","","","","","",""
"comp-q","108","604442","0.0-3.0-15.0-0.3-0.3","spark_pilot_2","7354","2","14","Male","","","","","","","2573.600000023842","<p> <b> True or False? </b> </p><p> If you see a different picture, it means you are in a new place. </p>","0","comp_question","","","","false","","","","","","","","","",""
"comp-q","109","617930","0.0-3.0-15.0-0.3-1.3","spark_pilot_2","7354","2","14","Male","","","","","","","2220.1999999284744","<p> <b>Incorrect.</b> Lots of different images may show the same place. For example,  you may see three different images that all remind you that you are in outer space. </p>","0","comp_answer","","","","","","","","","","","","","",""
"comp-q","110","623994","0.0-3.0-15.0-0.4-0.4","spark_pilot_2","7354","2","14","Male","","","","","","","567.3000000715256","<p> <b> True or False? </b> </p><p> If you see a different picture, it means you are in a new place. </p>","1","comp_question","","","","true","","","","","","","","","",""
"comp-q","111","641098","0.0-3.0-15.0-0.4-1.4","spark_pilot_2","7354","2","14","Male","","","","","","","5800.700000047684","<p> <b> That's right! </b> Lots of different images may show the same place. For example,  you may see three different images that all remind you that you are in outer space. </p>","0","comp_answer","","","","","","","","","","","","","",""
"learning-instructions","112","652771","0.0-3.0-16.0-0.0","spark_pilot_2","7354","2","14","Male","","","","","","","1753.8999999761581","<p> Good job. Remember to do your best because the amount of treasure you earn will be converted into bonus money. </p>
            <p> It’s time to start the real game! </p>","","instructions","","","","","","","","","","","","","",""
"learning-instructions","113","656906","0.0-4.0-0.0-0.0","spark_pilot_2","7354","2","14","Male","","","","","","","1368","<p> This time you are searching for treasure in the <b>ocean</b>.</p>","","instructions","","","","","","","","","","","","","",""
"learning-instructions","114","676146","0.0-4.0-0.0-0.1","spark_pilot_2","7354","2","14","Male","","","","","","","1837.6000000238419","<p><b>New</b> animals with <b>new</b> treasure chests live here. You need to explore to discover where the animal with the best treasure chest is.</p>
                    <p> Like before, once you figure out which animal has the chest with the most treasure, you should try to get to that animal and select that chest! </p>","","instructions","","","","","","","","","","","","","",""
"learning-instructions","115","692610","0.0-4.0-1.0-0.0","spark_pilot_2","7354","2","14","Male","","","","","","","1739.6999999284744","<p> Remember, when you see a picture of the place, use the up and down keys to <b>find an animal</b>.</p>
            <p> When you encounter an animal, you should use the left and right keys to <b>select a treasure chest</b>.</p>
            <p> Don't forget to look out for the robber! </p>","","instructions","","","","","","","","","","","","","",""
"revaluation","116","698656","0.0-4.0-2.0-0.0","spark_pilot_2","7354","2","14","Male","","","false","","","","[744.9000000953674,412.2999999523163]","./assets/img/ocean/memory/0.jpg","[""ArrowUp"",""ArrowRight""]","value training","ocean","10","{""ArrowUp,ArrowLeft"":23,""ArrowUp,ArrowRight"":10,""ArrowDown,ArrowLeft"":8,""ArrowDown,ArrowRight"":30}","false","ArrowUp,ArrowRight","false","","","revaluation","1","0","","",""
"html-keyboard-response","117","699176","0.0-4.0-2.0-1.0","spark_pilot_2","7354","2","14","Male","","","","","","","null","<div style=""font-size:60px;"">+</div>","null","fixation","","","","","","","","","","","1","","",""
"revaluation","118","705226","0.0-4.0-2.0-0.1","spark_pilot_2","7354","2","14","Male","","","false","","","","[431.39999997615814,535.8999999761581]","./assets/img/ocean/memory/34.jpg","[""ArrowDown"",""ArrowRight""]","value training","ocean","30","{""ArrowUp,ArrowLeft"":23,""ArrowUp,ArrowRight"":10,""ArrowDown,ArrowLeft"":8,""ArrowDown,ArrowRight"":30}","true","ArrowDown,ArrowRight","false","","","revaluation","1","2","","",""
"html-keyboard-response","119","705736","0.0-4.0-2.0-1.1","spark_pilot_2","7354","2","14","Male","","","","","","","null","<div style=""font-size:60px;"">+</div>","null","fixation","","","","","","","","","","","3","","",""
"revaluation","120","711776","0.0-4.0-2.0-0.2","spark_pilot_2","7354","2","14","Male","","","false","","","","[505.7999999523163,230.20000004768372]","./assets/img/ocean/memory/6.jpg","[""ArrowUp"",""ArrowLeft""]","value training","ocean","23","{""ArrowUp,ArrowLeft"":23,""ArrowUp,ArrowRight"":10,""ArrowDown,ArrowLeft"":8,""ArrowDown,ArrowRight"":30}","false","ArrowUp,ArrowLeft","false","","","revaluation","1","4","","",""
"html-keyboard-response","121","712286","0.0-4.0-2.0-1.2","spark_pilot_2","7354","2","14","Male","","","","","","","null","<div style=""font-size:60px;"">+</div>","null","fixation","","","","","","","","","","","5","","",""
"revaluation","122","718336","0.0-4.0-2.0-0.3","spark_pilot_2","7354","2","14","Male","","","false","","","","[463.1999999284744,228.89999997615814]","./assets/img/ocean/memory/1.jpg","[""ArrowDown"",""ArrowLeft""]","value training","ocean","8","{""ArrowUp,ArrowLeft"":23,""ArrowUp,ArrowRight"":10,""ArrowDown,ArrowLeft"":8,""ArrowDown,ArrowRight"":30}","false","ArrowDown,ArrowLeft","false","","","revaluation","1","6","","",""
"html-keyboard-response","123","718855","0.0-4.0-2.0-1.3","spark_pilot_2","7354","2","14","Male","","","","","","","null","<div style=""font-size:60px;"">+</div>","null","fixation","","","","","","","","","","","7","","",""
"revaluation","124","724867","0.0-4.0-2.0-0.4","spark_pilot_2","7354","2","14","Male","","","false","","","","[648.2999999523163,249.30000007152557]","./assets/img/ocean/memory/3.jpg","[""ArrowDown"",""ArrowRight""]","value training","ocean","30","{""ArrowUp,ArrowLeft"":23,""ArrowUp,ArrowRight"":10,""ArrowDown,ArrowLeft"":8,""ArrowDown,ArrowRight"":30}","true","ArrowDown,ArrowRight","false","","","revaluation","1","8","","",""
"html-keyboard-response","125","725369","0.0-4.0-2.0-1.4","spark_pilot_2","7354","2","14","Male","","","","","","","null","<div style=""font-size:60px;"">+</div>","null","fixation","","","","","","","","","","","9","","",""
"revaluation","126","731389","0.0-4.0-2.0-0.5","spark_pilot_2","7354","2","14","Male","","","false","","","","[521.6000000238419,250.69999992847443]","./assets/img/ocean/memory/17.jpg","[""ArrowDown"",""ArrowRight""]","value training","ocean","30","{""ArrowUp,ArrowLeft"":23,""ArrowUp,ArrowRight"":10,""ArrowDown,ArrowLeft"":8,""ArrowDown,ArrowRight"":30}","true","ArrowDown,ArrowRight","false","","","revaluation","1","10","","",""
"html-keyboard-response","127","731891","0.0-4.0-2.0-1.5","spark_pilot_2","7354","2","14","Male","","","","","","","null","<div style=""font-size:60px;"">+</div>","null","fixation","","","","","","","","","","","11","","",""
"revaluation","128","737898","0.0-4.0-2.0-0.6","spark_pilot_2","7354","2","14","Male","","","false","","","","[350.5,432.3000000715256]","./assets/img/ocean/memory/11.jpg","[""ArrowDown"",""ArrowRight""]","value training","ocean","30","{""ArrowUp,ArrowLeft"":23,""ArrowUp,ArrowRight"":10,""ArrowDown,ArrowLeft"":8,""ArrowDown,ArrowRight"":30}","true","ArrowDown,ArrowRight","false","","","revaluation","1","12","","",""
"html-keyboard-response","129","738399","0.0-4.0-2.0-1.6","spark_pilot_2","7354","2","14","Male","","","","","","","null","<div style=""font-size:60px;"">+</div>","null","fixation","","","","","","","","","","","13","","",""
"revaluation","130","744406","0.0-4.0-2.0-0.7","spark_pilot_2","7354","2","14","Male","","","false","","","","[1117.7000000476837,363.6999999284744]","./assets/img/ocean/memory/27.jpg","[""ArrowDown"",""ArrowRight""]","value training","ocean","30","{""ArrowUp,ArrowLeft"":23,""ArrowUp,ArrowRight"":10,""ArrowDown,ArrowLeft"":8,""ArrowDown,ArrowRight"":30}","true","ArrowDown,ArrowRight","false","","","revaluation","1","14","","",""
"html-keyboard-response","131","744908","0.0-4.0-2.0-1.7","spark_pilot_2","7354","2","14","Male","","","","","","","null","<div style=""font-size:60px;"">+</div>","null","fixation","","","","","","","","","","","15","","",""
"revaluation","132","748914","0.0-4.0-2.0-0.8","spark_pilot_2","7354","2","14","Male","","","false","","","","[897.0999999046326]","./assets/img/ocean/catch/5.jpg","[""spaceBar""]","value training","ocean","0","{""ArrowUp,ArrowLeft"":23,""ArrowUp,ArrowRight"":10,""ArrowDown,ArrowLeft"":8,""ArrowDown,ArrowRight"":30}","true","spaceBar","true","","","revaluation","1","16","","",""
"html-keyboard-response","133","749415","0.0-4.0-2.0-1.8","spark_pilot_2","7354","2","14","Male","","","","","","","null","<div style=""font-size:60px;"">+</div>","null","fixation","","","","","","","","","","","17","","",""
"revaluation","134","755420","0.0-4.0-2.0-0.9","spark_pilot_2","7354","2","14","Male","","","false","","","","[462.8000000715256,271.2000000476837]","./assets/img/ocean/memory/28.jpg","[""ArrowDown"",""ArrowRight""]","value training","ocean","30","{""ArrowUp,ArrowLeft"":23,""ArrowUp,ArrowRight"":10,""ArrowDown,ArrowLeft"":8,""ArrowDown,ArrowRight"":30}","true","ArrowDown,ArrowRight","false","","","revaluation","1","18","","",""
"html-keyboard-response","135","755923","0.0-4.0-2.0-1.9","spark_pilot_2","7354","2","14","Male","","","","","","","null","<div style=""font-size:60px;"">+</div>","null","fixation","","","","","","","","","","","19","","",""
"revaluation","136","759929","0.0-4.0-2.0-0.10","spark_pilot_2","7354","2","14","Male","","","false","","","","[626.3000000715256]","./assets/img/ocean/catch/2.jpg","[""spaceBar""]","value training","ocean","0","{""ArrowUp,ArrowLeft"":23,""ArrowUp,ArrowRight"":10,""ArrowDown,ArrowLeft"":8,""ArrowDown,ArrowRight"":30}","true","spaceBar","true","","","revaluation","1","20","","",""
"html-keyboard-response","137","760432","0.0-4.0-2.0-1.10","spark_pilot_2","7354","2","14","Male","","","","","","","null","<div style=""font-size:60px;"">+</div>","null","fixation","","","","","","","","","","","21","","",""
"revaluation","138","764437","0.0-4.0-2.0-0.11","spark_pilot_2","7354","2","14","Male","","","false","","","","[714.2999999523163]","./assets/img/ocean/catch/6.jpg","[""spaceBar""]","value training","ocean","0","{""ArrowUp,ArrowLeft"":23,""ArrowUp,ArrowRight"":10,""ArrowDown,ArrowLeft"":8,""ArrowDown,ArrowRight"":30}","true","spaceBar","true","","","revaluation","1","22","","",""
"html-keyboard-response","139","764939","0.0-4.0-2.0-1.11","spark_pilot_2","7354","2","14","Male","","","","","","","null","<div style=""font-size:60px;"">+</div>","null","fixation","","","","","","","","","","","23","","",""
"revaluation","140","768952","0.0-4.0-2.0-0.12","spark_pilot_2","7354","2","14","Male","","","false","","","","[865.2000000476837]","./assets/img/ocean/catch/1.jpg","[""spaceBar""]","value training","ocean","0","{""ArrowUp,ArrowLeft"":23,""ArrowUp,ArrowRight"":10,""ArrowDown,ArrowLeft"":8,""ArrowDown,ArrowRight"":30}","true","spaceBar","true","","","revaluation","1","24","","",""
"html-keyboard-response","141","769455","0.0-4.0-2.0-1.12","spark_pilot_2","7354","2","14","Male","","","","","","","null","<div style=""font-size:60px;"">+</div>","null","fixation","","","","","","","","","","","25","","",""
"revaluation","142","775462","0.0-4.0-2.0-0.13","spark_pilot_2","7354","2","14","Male","","","false","","","","[725.2999999523163,430.60000002384186]","./assets/img/ocean/memory/27.jpg","[""ArrowDown"",""ArrowRight""]","value training","ocean","30","{""ArrowUp,ArrowLeft"":23,""ArrowUp,ArrowRight"":10,""ArrowDown,ArrowLeft"":8,""ArrowDown,ArrowRight"":30}","true","ArrowDown,ArrowRight","false","","","revaluation","1","26","","",""
"html-keyboard-response","143","775963","0.0-4.0-2.0-1.13","spark_pilot_2","7354","2","14","Male","","","","","","","null","<div style=""font-size:60px;"">+</div>","null","fixation","","","","","","","","","","","27","","",""
"revaluation","144","781969","0.0-4.0-2.0-0.14","spark_pilot_2","7354","2","14","Male","","","false","","","","[482.89999997615814,327.5]","./assets/img/ocean/memory/8.jpg","[""ArrowDown"",""ArrowRight""]","value training","ocean","30","{""ArrowUp,ArrowLeft"":23,""ArrowUp,ArrowRight"":10,""ArrowDown,ArrowLeft"":8,""ArrowDown,ArrowRight"":30}","true","ArrowDown,ArrowRight","false","","","revaluation","1","28","","",""
"html-keyboard-response","145","782471","0.0-4.0-2.0-1.14","spark_pilot_2","7354","2","14","Male","","","","","","","null","<div style=""font-size:60px;"">+</div>","null","fixation","","","","","","","","","","","29","","",""
"revaluation","146","788479","0.0-4.0-2.0-0.15","spark_pilot_2","7354","2","14","Male","","","false","","","","[867.7999999523163,505.1999999284744]","./assets/img/ocean/memory/9.jpg","[""ArrowDown"",""ArrowRight""]","value training","ocean","30","{""ArrowUp,ArrowLeft"":23,""ArrowUp,ArrowRight"":10,""ArrowDown,ArrowLeft"":8,""ArrowDown,ArrowRight"":30}","true","ArrowDown,ArrowRight","false","","","revaluation","1","30","","",""
"html-keyboard-response","147","788980","0.0-4.0-2.0-1.15","spark_pilot_2","7354","2","14","Male","","","","","","","null","<div style=""font-size:60px;"">+</div>","null","fixation","","","","","","","","","","","31","","",""
"revaluation","148","794984","0.0-4.0-2.0-0.16","spark_pilot_2","7354","2","14","Male","","","false","","","","[492.8000000715256,267.5]","./assets/img/ocean/memory/17.jpg","[""ArrowDown"",""ArrowRight""]","value training","ocean","30","{""ArrowUp,ArrowLeft"":23,""ArrowUp,ArrowRight"":10,""ArrowDown,ArrowLeft"":8,""ArrowDown,ArrowRight"":30}","true","ArrowDown,ArrowRight","false","","","revaluation","1","32","","",""
"html-keyboard-response","149","795486","0.0-4.0-2.0-1.16","spark_pilot_2","7354","2","14","Male","","","","","","","null","<div style=""font-size:60px;"">+</div>","null","fixation","","","","","","","","","","","33","","",""
"revaluation","150","801494","0.0-4.0-2.0-0.17","spark_pilot_2","7354","2","14","Male","","","false","","","","[542.7000000476837,461.09999990463257]","./assets/img/ocean/memory/38.jpg","[""ArrowDown"",""ArrowRight""]","value training","ocean","30","{""ArrowUp,ArrowLeft"":23,""ArrowUp,ArrowRight"":10,""ArrowDown,ArrowLeft"":8,""ArrowDown,ArrowRight"":30}","true","ArrowDown,ArrowRight","false","","","revaluation","1","34","","",""
"html-keyboard-response","151","801995","0.0-4.0-2.0-1.17","spark_pilot_2","7354","2","14","Male","","","","","","","null","<div style=""font-size:60px;"">+</div>","null","fixation","","","","","","","","","","","35","","",""
"revaluation","152","808003","0.0-4.0-2.0-0.18","spark_pilot_2","7354","2","14","Male","","","false","","","","[1050.6000000238419,441.09999990463257]","./assets/img/ocean/memory/34.jpg","[""ArrowDown"",""ArrowRight""]","value training","ocean","30","{""ArrowUp,ArrowLeft"":23,""ArrowUp,ArrowRight"":10,""ArrowDown,ArrowLeft"":8,""ArrowDown,ArrowRight"":30}","true","ArrowDown,ArrowRight","false","","","revaluation","1","36","","",""
"html-keyboard-response","153","808504","0.0-4.0-2.0-1.18","spark_pilot_2","7354","2","14","Male","","","","","","","null","<div style=""font-size:60px;"">+</div>","null","fixation","","","","","","","","","","","37","","",""
"revaluation","154","814510","0.0-4.0-2.0-0.19","spark_pilot_2","7354","2","14","Male","","","false","","","","[777.8999999761581,440.7000000476837]","./assets/img/ocean/memory/3.jpg","[""ArrowDown"",""ArrowRight""]","value training","ocean","30","{""ArrowUp,ArrowLeft"":23,""ArrowUp,ArrowRight"":10,""ArrowDown,ArrowLeft"":8,""ArrowDown,ArrowRight"":30}","true","ArrowDown,ArrowRight","false","","","revaluation","1","38","","",""
"html-keyboard-response","155","815011","0.0-4.0-2.0-1.19","spark_pilot_2","7354","2","14","Male","","","","","","","null","<div style=""font-size:60px;"">+</div>","null","fixation","","","","","","","","","","","39","","",""
"revaluation","156","821019","0.0-4.0-2.0-0.20","spark_pilot_2","7354","2","14","Male","","","false","","","","[434.7999999523163,314.59999990463257]","./assets/img/ocean/memory/8.jpg","[""ArrowDown"",""ArrowRight""]","value training","ocean","30","{""ArrowUp,ArrowLeft"":23,""ArrowUp,ArrowRight"":10,""ArrowDown,ArrowLeft"":8,""ArrowDown,ArrowRight"":30}","true","ArrowDown,ArrowRight","false","","","revaluation","1","40","","",""
"html-keyboard-response","157","821520","0.0-4.0-2.0-1.20","spark_pilot_2","7354","2","14","Male","","","","","","","null","<div style=""font-size:60px;"">+</div>","null","fixation","","","","","","","","","","","41","","",""
"revaluation","158","827528","0.0-4.0-2.0-0.21","spark_pilot_2","7354","2","14","Male","","","false","","","","[833.3999999761581,324.60000002384186]","./assets/img/ocean/memory/10.jpg","[""ArrowDown"",""ArrowRight""]","value training","ocean","30","{""ArrowUp,ArrowLeft"":23,""ArrowUp,ArrowRight"":10,""ArrowDown,ArrowLeft"":8,""ArrowDown,ArrowRight"":30}","true","ArrowDown,ArrowRight","false","","","revaluation","1","42","","",""
"html-keyboard-response","159","828029","0.0-4.0-2.0-1.21","spark_pilot_2","7354","2","14","Male","","","","","","","null","<div style=""font-size:60px;"">+</div>","null","fixation","","","","","","","","","","","43","","",""
"revaluation","160","834035","0.0-4.0-2.0-0.22","spark_pilot_2","7354","2","14","Male","","","false","","","","[1134.7999999523163,350.39999997615814]","./assets/img/ocean/memory/14.jpg","[""ArrowDown"",""ArrowRight""]","value training","ocean","30","{""ArrowUp,ArrowLeft"":23,""ArrowUp,ArrowRight"":10,""ArrowDown,ArrowLeft"":8,""ArrowDown,ArrowRight"":30}","true","ArrowDown,ArrowRight","false","","","revaluation","1","44","","",""
"html-keyboard-response","161","834538","0.0-4.0-2.0-1.22","spark_pilot_2","7354","2","14","Male","","","","","","","null","<div style=""font-size:60px;"">+</div>","null","fixation","","","","","","","","","","","45","","",""
"revaluation","162","840544","0.0-4.0-2.0-0.23","spark_pilot_2","7354","2","14","Male","","","false","","","","[593,292.60000002384186]","./assets/img/ocean/memory/6.jpg","[""ArrowDown"",""ArrowRight""]","value training","ocean","30","{""ArrowUp,ArrowLeft"":23,""ArrowUp,ArrowRight"":10,""ArrowDown,ArrowLeft"":8,""ArrowDown,ArrowRight"":30}","true","ArrowDown,ArrowRight","false","","","revaluation","1","46","","",""
"html-keyboard-response","163","841046","0.0-4.0-2.0-1.23","spark_pilot_2","7354","2","14","Male","","","","","","","null","<div style=""font-size:60px;"">+</div>","null","fixation","","","","","","","","","","","47","","",""
"revaluation","164","847052","0.0-4.0-2.0-0.24","spark_pilot_2","7354","2","14","Male","","","false","","","","[814,231.19999992847443]","./assets/img/ocean/memory/24.jpg","[""ArrowDown"",""ArrowRight""]","value training","ocean","30","{""ArrowUp,ArrowLeft"":23,""ArrowUp,ArrowRight"":10,""ArrowDown,ArrowLeft"":8,""ArrowDown,ArrowRight"":30}","true","ArrowDown,ArrowRight","false","","","revaluation","1","48","","",""
"html-keyboard-response","165","847554","0.0-4.0-2.0-1.24","spark_pilot_2","7354","2","14","Male","","","","","","","null","<div style=""font-size:60px;"">+</div>","null","fixation","","","","","","","","","","","49","","",""
"revaluation","166","853558","0.0-4.0-2.0-0.25","spark_pilot_2","7354","2","14","Male","","","false","","","","[911.2999999523163,336.59999990463257]","./assets/img/ocean/memory/15.jpg","[""ArrowDown"",""ArrowRight""]","value training","ocean","30","{""ArrowUp,ArrowLeft"":23,""ArrowUp,ArrowRight"":10,""ArrowDown,ArrowLeft"":8,""ArrowDown,ArrowRight"":30}","true","ArrowDown,ArrowRight","false","","","revaluation","1","50","","",""
"html-keyboard-response","167","854059","0.0-4.0-2.0-1.25","spark_pilot_2","7354","2","14","Male","","","","","","","null","<div style=""font-size:60px;"">+</div>","null","fixation","","","","","","","","","","","51","","",""
"revaluation","168","860064","0.0-4.0-2.0-0.26","spark_pilot_2","7354","2","14","Male","","","false","","","","[643.8000000715256,240.10000002384186]","./assets/img/ocean/memory/7.jpg","[""ArrowDown"",""ArrowRight""]","value training","ocean","30","{""ArrowUp,ArrowLeft"":23,""ArrowUp,ArrowRight"":10,""ArrowDown,ArrowLeft"":8,""ArrowDown,ArrowRight"":30}","true","ArrowDown,ArrowRight","false","","","revaluation","1","52","","",""
"html-keyboard-response","169","860565","0.0-4.0-2.0-1.26","spark_pilot_2","7354","2","14","Male","","","","","","","null","<div style=""font-size:60px;"">+</div>","null","fixation","","","","","","","","","","","53","","",""
"revaluation","170","864572","0.0-4.0-2.0-0.27","spark_pilot_2","7354","2","14","Male","","","false","","","","[594.3999999761581]","./assets/img/ocean/catch/3.jpg","[""spaceBar""]","value training","ocean","0","{""ArrowUp,ArrowLeft"":23,""ArrowUp,ArrowRight"":10,""ArrowDown,ArrowLeft"":8,""ArrowDown,ArrowRight"":30}","true","spaceBar","true","","","revaluation","1","54","","",""
"html-keyboard-response","171","865075","0.0-4.0-2.0-1.27","spark_pilot_2","7354","2","14","Male","","","","","","","null","<div style=""font-size:60px;"">+</div>","null","fixation","","","","","","","","","","","55","","",""
"revaluation","172","871080","0.0-4.0-2.0-0.28","spark_pilot_2","7354","2","14","Male","","","false","","","","[774.2000000476837,247]","./assets/img/ocean/memory/9.jpg","[""ArrowDown"",""ArrowRight""]","value training","ocean","30","{""ArrowUp,ArrowLeft"":23,""ArrowUp,ArrowRight"":10,""ArrowDown,ArrowLeft"":8,""ArrowDown,ArrowRight"":30}","true","ArrowDown,ArrowRight","false","","","revaluation","1","56","","",""
"html-keyboard-response","173","871582","0.0-4.0-2.0-1.28","spark_pilot_2","7354","2","14","Male","","","","","","","null","<div style=""font-size:60px;"">+</div>","null","fixation","","","","","","","","","","","57","","",""
"revaluation","174","877591","0.0-4.0-2.0-0.29","spark_pilot_2","7354","2","14","Male","","","false","","","","[751.3999999761581,475.3000000715256]","./assets/img/ocean/memory/19.jpg","[""ArrowDown"",""ArrowRight""]","value training","ocean","30","{""ArrowUp,ArrowLeft"":23,""ArrowUp,ArrowRight"":10,""ArrowDown,ArrowLeft"":8,""ArrowDown,ArrowRight"":30}","true","ArrowDown,ArrowRight","false","","","revaluation","1","58","","",""
"html-keyboard-response","175","878093","0.0-4.0-2.0-1.29","spark_pilot_2","7354","2","14","Male","","","","","","","null","<div style=""font-size:60px;"">+</div>","null","fixation","","","","","","","","","","","59","","",""
"revaluation","176","884100","0.0-4.0-2.0-0.30","spark_pilot_2","7354","2","14","Male","","","false","","","","[603.2999999523163,243.39999997615814]","./assets/img/ocean/memory/14.jpg","[""ArrowDown"",""ArrowRight""]","value training","ocean","30","{""ArrowUp,ArrowLeft"":23,""ArrowUp,ArrowRight"":10,""ArrowDown,ArrowLeft"":8,""ArrowDown,ArrowRight"":30}","true","ArrowDown,ArrowRight","false","","","revaluation","1","60","","",""
"html-keyboard-response","177","884601","0.0-4.0-2.0-1.30","spark_pilot_2","7354","2","14","Male","","","","","","","null","<div style=""font-size:60px;"">+</div>","null","fixation","","","","","","","","","","","61","","",""
"revaluation","178","890607","0.0-4.0-2.0-0.31","spark_pilot_2","7354","2","14","Male","","","false","","","","[645.6999999284744,269.40000009536743]","./assets/img/ocean/memory/0.jpg","[""ArrowDown"",""ArrowRight""]","value training","ocean","30","{""ArrowUp,ArrowLeft"":23,""ArrowUp,ArrowRight"":10,""ArrowDown,ArrowLeft"":8,""ArrowDown,ArrowRight"":30}","true","ArrowDown,ArrowRight","false","","","revaluation","1","62","","",""
"html-keyboard-response","179","891108","0.0-4.0-2.0-1.31","spark_pilot_2","7354","2","14","Male","","","","","","","null","<div style=""font-size:60px;"">+</div>","null","fixation","","","","","","","","","","","63","","",""
"revaluation","180","897121","0.0-4.0-2.0-0.32","spark_pilot_2","7354","2","14","Male","","","false","","","","[736.3999999761581,250.80000007152557]","./assets/img/ocean/memory/16.jpg","[""ArrowDown"",""ArrowRight""]","value training","ocean","30","{""ArrowUp,ArrowLeft"":23,""ArrowUp,ArrowRight"":10,""ArrowDown,ArrowLeft"":8,""ArrowDown,ArrowRight"":30}","true","ArrowDown,ArrowRight","false","","","revaluation","1","64","","",""
"html-keyboard-response","181","897623","0.0-4.0-2.0-1.32","spark_pilot_2","7354","2","14","Male","","","","","","","null","<div style=""font-size:60px;"">+</div>","null","fixation","","","","","","","","","","","65","","",""
"revaluation","182","903639","0.0-4.0-2.0-0.33","spark_pilot_2","7354","2","14","Male","","","false","","","","[558.2999999523163,252.80000007152557]","./assets/img/ocean/memory/28.jpg","[""ArrowDown"",""ArrowRight""]","value training","ocean","30","{""ArrowUp,ArrowLeft"":23,""ArrowUp,ArrowRight"":10,""ArrowDown,ArrowLeft"":8,""ArrowDown,ArrowRight"":30}","true","ArrowDown,ArrowRight","false","","","revaluation","1","66","","",""
"html-keyboard-response","183","904141","0.0-4.0-2.0-1.33","spark_pilot_2","7354","2","14","Male","","","","","","","null","<div style=""font-size:60px;"">+</div>","null","fixation","","","","","","","","","","","67","","",""
"revaluation","184","910152","0.0-4.0-2.0-0.34","spark_pilot_2","7354","2","14","Male","","","false","","","","[471,332.5]","./assets/img/ocean/memory/26.jpg","[""ArrowDown"",""ArrowRight""]","value training","ocean","30","{""ArrowUp,ArrowLeft"":23,""ArrowUp,ArrowRight"":10,""ArrowDown,ArrowLeft"":8,""ArrowDown,ArrowRight"":30}","true","ArrowDown,ArrowRight","false","","","revaluation","1","68","","",""
"html-keyboard-response","185","910655","0.0-4.0-2.0-1.34","spark_pilot_2","7354","2","14","Male","","","","","","","null","<div style=""font-size:60px;"">+</div>","null","fixation","","","","","","","","","","","69","","",""
"revaluation","186","916663","0.0-4.0-2.0-0.35","spark_pilot_2","7354","2","14","Male","","","false","","","","[710.5,6.799999952316284]","./assets/img/ocean/memory/15.jpg","[""ArrowDown"",""ArrowRight""]","value training","ocean","30","{""ArrowUp,ArrowLeft"":23,""ArrowUp,ArrowRight"":10,""ArrowDown,ArrowLeft"":8,""ArrowDown,ArrowRight"":30}","true","ArrowDown,ArrowRight","false","","","revaluation","1","70","","",""
"html-keyboard-response","187","917165","0.0-4.0-2.0-1.35","spark_pilot_2","7354","2","14","Male","","","","","","","null","<div style=""font-size:60px;"">+</div>","null","fixation","","","","","","","","","","","71","","",""
"revaluation","188","923172","0.0-4.0-2.0-0.36","spark_pilot_2","7354","2","14","Male","","","false","","","","[357.5,278.7000000476837]","./assets/img/ocean/memory/38.jpg","[""ArrowDown"",""ArrowRight""]","value training","ocean","30","{""ArrowUp,ArrowLeft"":23,""ArrowUp,ArrowRight"":10,""ArrowDown,ArrowLeft"":8,""ArrowDown,ArrowRight"":30}","true","ArrowDown,ArrowRight","false","","","revaluation","1","72","","",""
"html-keyboard-response","189","923673","0.0-4.0-2.0-1.36","spark_pilot_2","7354","2","14","Male","","","","","","","null","<div style=""font-size:60px;"">+</div>","null","fixation","","","","","","","","","","","73","","",""
"revaluation","190","929680","0.0-4.0-2.0-0.37","spark_pilot_2","7354","2","14","Male","","","false","","","","[493.39999997615814,347.5]","./assets/img/ocean/memory/22.jpg","[""ArrowDown"",""ArrowRight""]","value training","ocean","30","{""ArrowUp,ArrowLeft"":23,""ArrowUp,ArrowRight"":10,""ArrowDown,ArrowLeft"":8,""ArrowDown,ArrowRight"":30}","true","ArrowDown,ArrowRight","false","","","revaluation","1","74","","",""
"html-keyboard-response","191","930182","0.0-4.0-2.0-1.37","spark_pilot_2","7354","2","14","Male","","","","","","","null","<div style=""font-size:60px;"">+</div>","null","fixation","","","","","","","","","","","75","","",""
"revaluation","192","936194","0.0-4.0-2.0-0.38","spark_pilot_2","7354","2","14","Male","","","false","","","","[449.39999997615814,188]","./assets/img/ocean/memory/22.jpg","[""ArrowDown"",""ArrowRight""]","value training","ocean","30","{""ArrowUp,ArrowLeft"":23,""ArrowUp,ArrowRight"":10,""ArrowDown,ArrowLeft"":8,""ArrowDown,ArrowRight"":30}","true","ArrowDown,ArrowRight","false","","","revaluation","1","76","","",""
"html-keyboard-response","193","936696","0.0-4.0-2.0-1.38","spark_pilot_2","7354","2","14","Male","","","","","","","null","<div style=""font-size:60px;"">+</div>","null","fixation","","","","","","","","","","","77","","",""
"revaluation","194","942704","0.0-4.0-2.0-0.39","spark_pilot_2","7354","2","14","Male","","","false","","","","[482.7999999523163,268.8000000715256]","./assets/img/ocean/memory/26.jpg","[""ArrowDown"",""ArrowRight""]","value training","ocean","30","{""ArrowUp,ArrowLeft"":23,""ArrowUp,ArrowRight"":10,""ArrowDown,ArrowLeft"":8,""ArrowDown,ArrowRight"":30}","true","ArrowDown,ArrowRight","false","","","revaluation","1","78","","",""
"html-keyboard-response","195","943206","0.0-4.0-2.0-1.39","spark_pilot_2","7354","2","14","Male","","","","","","","null","<div style=""font-size:60px;"">+</div>","null","fixation","","","","","","","","","","","79","","",""
"revaluation","196","947212","0.0-4.0-2.0-0.40","spark_pilot_2","7354","2","14","Male","","","false","","","","[694.3000000715256]","./assets/img/ocean/catch/0.jpg","[""spaceBar""]","value training","ocean","0","{""ArrowUp,ArrowLeft"":23,""ArrowUp,ArrowRight"":10,""ArrowDown,ArrowLeft"":8,""ArrowDown,ArrowRight"":30}","true","spaceBar","true","","","revaluation","1","80","","",""
"html-keyboard-response","197","947713","0.0-4.0-2.0-1.40","spark_pilot_2","7354","2","14","Male","","","","","","","null","<div style=""font-size:60px;"">+</div>","null","fixation","","","","","","","","","","","81","","",""
"revaluation","198","953720","0.0-4.0-2.0-0.41","spark_pilot_2","7354","2","14","Male","","","false","","","","[503.90000009536743,266.39999997615814]","./assets/img/ocean/memory/24.jpg","[""ArrowDown"",""ArrowRight""]","value training","ocean","30","{""ArrowUp,ArrowLeft"":23,""ArrowUp,ArrowRight"":10,""ArrowDown,ArrowLeft"":8,""ArrowDown,ArrowRight"":30}","true","ArrowDown,ArrowRight","false","","","revaluation","1","82","","",""
"html-keyboard-response","199","954222","0.0-4.0-2.0-1.41","spark_pilot_2","7354","2","14","Male","","","","","","","null","<div style=""font-size:60px;"">+</div>","null","fixation","","","","","","","","","","","83","","",""
"revaluation","200","960230","0.0-4.0-2.0-0.42","spark_pilot_2","7354","2","14","Male","","","false","","","","[483.7999999523163,321.89999997615814]","./assets/img/ocean/memory/19.jpg","[""ArrowDown"",""ArrowRight""]","value training","ocean","30","{""ArrowUp,ArrowLeft"":23,""ArrowUp,ArrowRight"":10,""ArrowDown,ArrowLeft"":8,""ArrowDown,ArrowRight"":30}","true","ArrowDown,ArrowRight","false","","","revaluation","1","84","","",""
"html-keyboard-response","201","960731","0.0-4.0-2.0-1.42","spark_pilot_2","7354","2","14","Male","","","","","","","null","<div style=""font-size:60px;"">+</div>","null","fixation","","","","","","","","","","","85","","",""
"revaluation","202","966738","0.0-4.0-2.0-0.43","spark_pilot_2","7354","2","14","Male","","","false","","","","[618.1999999284744,294.10000002384186]","./assets/img/ocean/memory/11.jpg","[""ArrowDown"",""ArrowRight""]","value training","ocean","30","{""ArrowUp,ArrowLeft"":23,""ArrowUp,ArrowRight"":10,""ArrowDown,ArrowLeft"":8,""ArrowDown,ArrowRight"":30}","true","ArrowDown,ArrowRight","false","","","revaluation","1","86","","",""
"html-keyboard-response","203","967241","0.0-4.0-2.0-1.43","spark_pilot_2","7354","2","14","Male","","","","","","","null","<div style=""font-size:60px;"">+</div>","null","fixation","","","","","","","","","","","87","","",""
"revaluation","204","973249","0.0-4.0-2.0-0.44","spark_pilot_2","7354","2","14","Male","","","false","","","","[443.7999999523163,511]","./assets/img/ocean/memory/1.jpg","[""ArrowDown"",""ArrowRight""]","value training","ocean","30","{""ArrowUp,ArrowLeft"":23,""ArrowUp,ArrowRight"":10,""ArrowDown,ArrowLeft"":8,""ArrowDown,ArrowRight"":30}","true","ArrowDown,ArrowRight","false","","","revaluation","1","88","","",""
"html-keyboard-response","205","973752","0.0-4.0-2.0-1.44","spark_pilot_2","7354","2","14","Male","","","","","","","null","<div style=""font-size:60px;"">+</div>","null","fixation","","","","","","","","","","","89","","",""
"revaluation","206","977758","0.0-4.0-2.0-0.45","spark_pilot_2","7354","2","14","Male","","","false","","","","[701.8999999761581]","./assets/img/ocean/catch/4.jpg","[""spaceBar""]","value training","ocean","0","{""ArrowUp,ArrowLeft"":23,""ArrowUp,ArrowRight"":10,""ArrowDown,ArrowLeft"":8,""ArrowDown,ArrowRight"":30}","true","spaceBar","true","","","revaluation","1","90","","",""
"html-keyboard-response","207","978259","0.0-4.0-2.0-1.45","spark_pilot_2","7354","2","14","Male","","","","","","","null","<div style=""font-size:60px;"">+</div>","null","fixation","","","","","","","","","","","91","","",""
"revaluation","208","984264","0.0-4.0-2.0-0.46","spark_pilot_2","7354","2","14","Male","","","false","","","","[611.0999999046326,283.8000000715256]","./assets/img/ocean/memory/7.jpg","[""ArrowDown"",""ArrowRight""]","value training","ocean","30","{""ArrowUp,ArrowLeft"":23,""ArrowUp,ArrowRight"":10,""ArrowDown,ArrowLeft"":8,""ArrowDown,ArrowRight"":30}","true","ArrowDown,ArrowRight","false","","","revaluation","1","92","","",""
"html-keyboard-response","209","984766","0.0-4.0-2.0-1.46","spark_pilot_2","7354","2","14","Male","","","","","","","null","<div style=""font-size:60px;"">+</div>","null","fixation","","","","","","","","","","","93","","",""
"revaluation","210","988773","0.0-4.0-2.0-0.47","spark_pilot_2","7354","2","14","Male","","","false","","","","[590.5]","./assets/img/ocean/catch/7.jpg","[""spaceBar""]","value training","ocean","0","{""ArrowUp,ArrowLeft"":23,""ArrowUp,ArrowRight"":10,""ArrowDown,ArrowLeft"":8,""ArrowDown,ArrowRight"":30}","true","spaceBar","true","","","revaluation","1","94","","",""
"html-keyboard-response","211","989275","0.0-4.0-2.0-1.47","spark_pilot_2","7354","2","14","Male","","","","","","","null","<div style=""font-size:60px;"">+</div>","null","fixation","","","","","","","","","","","95","","",""
"revaluation","212","995281","0.0-4.0-2.0-0.48","spark_pilot_2","7354","2","14","Male","","","false","","","","[890,340.39999997615814]","./assets/img/ocean/memory/10.jpg","[""ArrowDown"",""ArrowRight""]","value training","ocean","30","{""ArrowUp,ArrowLeft"":23,""ArrowUp,ArrowRight"":10,""ArrowDown,ArrowLeft"":8,""ArrowDown,ArrowRight"":30}","true","ArrowDown,ArrowRight","false","","","revaluation","1","96","","",""
"html-keyboard-response","213","995783","0.0-4.0-2.0-1.48","spark_pilot_2","7354","2","14","Male","","","","","","","null","<div style=""font-size:60px;"">+</div>","null","fixation","","","","","","","","","","","97","","",""
"revaluation","214","1001791","0.0-4.0-2.0-0.49","spark_pilot_2","7354","2","14","Male","","","false","","","","[559.6999999284744,325]","./assets/img/ocean/memory/16.jpg","[""ArrowDown"",""ArrowRight""]","value training","ocean","30","{""ArrowUp,ArrowLeft"":23,""ArrowUp,ArrowRight"":10,""ArrowDown,ArrowLeft"":8,""ArrowDown,ArrowRight"":30}","true","ArrowDown,ArrowRight","false","","","revaluation","1","98","","",""
"html-keyboard-response","215","1002293","0.0-4.0-2.0-1.49","spark_pilot_2","7354","2","14","Male","","","","","","","null","<div style=""font-size:60px;"">+</div>","null","fixation","","","","","","","","","","","99","","",""
"learning-instructions","216","1017889","0.0-4.0-3.0-0.0","spark_pilot_2","7354","2","14","Male","","","","","","","2145.3000000715256","<p> Now, you will travel with a friend who will choose whether you go up or down first. </p>
            <p> On these turns, you will just see the animal that they found. You will still get to choose which chest to search for treasure.</p>","","instructions","","","","","","","","","","","","","",""
"revaluation","217","1021910","0.0-4.0-4.0-0.0","spark_pilot_2","7354","2","14","Male","","","false","","","","[613.6000000238419]","./assets/img/ocean/animals/octopus.jpg","[""ArrowRight""]","revaluation","ocean","7","{""ArrowUp,ArrowLeft"":27,""ArrowUp,ArrowRight"":15,""ArrowDown,ArrowLeft"":21,""ArrowDown,ArrowRight"":7}","false","ArrowDown,ArrowRight","","","","revaluation","1","0","","",""
"html-keyboard-response","218","1022420","0.0-4.0-4.0-1.0","spark_pilot_2","7354","2","14","Male","","","","","","","null","<div style=""font-size:60px;"">+</div>","null","fixation","","","","","","","","","","","1","","",""
"revaluation","219","1026436","0.0-4.0-4.0-0.1","spark_pilot_2","7354","2","14","Male","","","false","","","","[383.3000000715256]","./assets/img/ocean/animals/seahorse.jpg","[""ArrowRight""]","revaluation","ocean","15","{""ArrowUp,ArrowLeft"":27,""ArrowUp,ArrowRight"":15,""ArrowDown,ArrowLeft"":21,""ArrowDown,ArrowRight"":7}","false","ArrowUp,ArrowRight","","","","revaluation","1","2","","",""
"html-keyboard-response","220","1026940","0.0-4.0-4.0-1.1","spark_pilot_2","7354","2","14","Male","","","","","","","null","<div style=""font-size:60px;"">+</div>","null","fixation","","","","","","","","","","","3","","",""
"revaluation","221","1030970","0.0-4.0-4.0-0.2","spark_pilot_2","7354","2","14","Male","","","false","","","","[568.6999999284744]","./assets/img/ocean/animals/seahorse.jpg","[""ArrowLeft""]","revaluation","ocean","27","{""ArrowUp,ArrowLeft"":27,""ArrowUp,ArrowRight"":15,""ArrowDown,ArrowLeft"":21,""ArrowDown,ArrowRight"":7}","true","ArrowUp,ArrowLeft","","","","revaluation","1","4","","",""
"html-keyboard-response","222","1031490","0.0-4.0-4.0-1.2","spark_pilot_2","7354","2","14","Male","","","","","","","null","<div style=""font-size:60px;"">+</div>","null","fixation","","","","","","","","","","","5","","",""
"revaluation","223","1035521","0.0-4.0-4.0-0.3","spark_pilot_2","7354","2","14","Male","","","false","","","","[466.09999990463257]","./assets/img/ocean/animals/seahorse.jpg","[""ArrowLeft""]","revaluation","ocean","27","{""ArrowUp,ArrowLeft"":27,""ArrowUp,ArrowRight"":15,""ArrowDown,ArrowLeft"":21,""ArrowDown,ArrowRight"":7}","true","ArrowUp,ArrowLeft","","","","revaluation","1","6","","",""
"html-keyboard-response","224","1036040","0.0-4.0-4.0-1.3","spark_pilot_2","7354","2","14","Male","","","","","","","null","<div style=""font-size:60px;"">+</div>","null","fixation","","","","","","","","","","","7","","",""
"revaluation","225","1040070","0.0-4.0-4.0-0.4","spark_pilot_2","7354","2","14","Male","","","false","","","","[367]","./assets/img/ocean/animals/seahorse.jpg","[""ArrowLeft""]","revaluation","ocean","27","{""ArrowUp,ArrowLeft"":27,""ArrowUp,ArrowRight"":15,""ArrowDown,ArrowLeft"":21,""ArrowDown,ArrowRight"":7}","true","ArrowUp,ArrowLeft","","","","revaluation","1","8","","",""
"html-keyboard-response","226","1040590","0.0-4.0-4.0-1.4","spark_pilot_2","7354","2","14","Male","","","","","","","null","<div style=""font-size:60px;"">+</div>","null","fixation","","","","","","","","","","","9","","",""
"revaluation","227","1044618","0.0-4.0-4.0-0.5","spark_pilot_2","7354","2","14","Male","","","false","","","","[426.39999997615814]","./assets/img/ocean/animals/octopus.jpg","[""ArrowLeft""]","revaluation","ocean","21","{""ArrowUp,ArrowLeft"":27,""ArrowUp,ArrowRight"":15,""ArrowDown,ArrowLeft"":21,""ArrowDown,ArrowRight"":7}","true","ArrowDown,ArrowLeft","","","","revaluation","1","10","","",""
"html-keyboard-response","228","1045130","0.0-4.0-4.0-1.5","spark_pilot_2","7354","2","14","Male","","","","","","","null","<div style=""font-size:60px;"">+</div>","null","fixation","","","","","","","","","","","11","","",""
"revaluation","229","1049138","0.0-4.0-4.0-0.6","spark_pilot_2","7354","2","14","Male","","","false","","","","[353.40000009536743]","./assets/img/ocean/animals/octopus.jpg","[""ArrowLeft""]","revaluation","ocean","21","{""ArrowUp,ArrowLeft"":27,""ArrowUp,ArrowRight"":15,""ArrowDown,ArrowLeft"":21,""ArrowDown,ArrowRight"":7}","true","ArrowDown,ArrowLeft","","","","revaluation","1","12","","",""
"html-keyboard-response","230","1049640","0.0-4.0-4.0-1.6","spark_pilot_2","7354","2","14","Male","","","","","","","null","<div style=""font-size:60px;"">+</div>","null","fixation","","","","","","","","","","","13","","",""
"revaluation","231","1053645","0.0-4.0-4.0-0.7","spark_pilot_2","7354","2","14","Male","","","false","","","","[311.6999999284744]","./assets/img/ocean/animals/octopus.jpg","[""ArrowLeft""]","revaluation","ocean","21","{""ArrowUp,ArrowLeft"":27,""ArrowUp,ArrowRight"":15,""ArrowDown,ArrowLeft"":21,""ArrowDown,ArrowRight"":7}","true","ArrowDown,ArrowLeft","","","","revaluation","1","14","","",""
"html-keyboard-response","232","1054147","0.0-4.0-4.0-1.7","spark_pilot_2","7354","2","14","Male","","","","","","","null","<div style=""font-size:60px;"">+</div>","null","fixation","","","","","","","","","","","15","","",""
"revaluation","233","1058156","0.0-4.0-4.0-0.8","spark_pilot_2","7354","2","14","Male","","","false","","","","[514.8000000715256]","./assets/img/ocean/animals/octopus.jpg","[""ArrowLeft""]","revaluation","ocean","21","{""ArrowUp,ArrowLeft"":27,""ArrowUp,ArrowRight"":15,""ArrowDown,ArrowLeft"":21,""ArrowDown,ArrowRight"":7}","true","ArrowDown,ArrowLeft","","","","revaluation","1","16","","",""
"html-keyboard-response","234","1058658","0.0-4.0-4.0-1.8","spark_pilot_2","7354","2","14","Male","","","","","","","null","<div style=""font-size:60px;"">+</div>","null","fixation","","","","","","","","","","","17","","",""
"revaluation","235","1062662","0.0-4.0-4.0-0.9","spark_pilot_2","7354","2","14","Male","","","false","","","","[343.1999999284744]","./assets/img/ocean/animals/octopus.jpg","[""ArrowLeft""]","revaluation","ocean","21","{""ArrowUp,ArrowLeft"":27,""ArrowUp,ArrowRight"":15,""ArrowDown,ArrowLeft"":21,""ArrowDown,ArrowRight"":7}","true","ArrowDown,ArrowLeft","","","","revaluation","1","18","","",""
"html-keyboard-response","236","1063164","0.0-4.0-4.0-1.9","spark_pilot_2","7354","2","14","Male","","","","","","","null","<div style=""font-size:60px;"">+</div>","null","fixation","","","","","","","","","","","19","","",""
"revaluation","237","1067170","0.0-4.0-4.0-0.10","spark_pilot_2","7354","2","14","Male","","","false","","","","[404.1999999284744]","./assets/img/ocean/animals/octopus.jpg","[""ArrowLeft""]","revaluation","ocean","21","{""ArrowUp,ArrowLeft"":27,""ArrowUp,ArrowRight"":15,""ArrowDown,ArrowLeft"":21,""ArrowDown,ArrowRight"":7}","true","ArrowDown,ArrowLeft","","","","revaluation","1","20","","",""
"html-keyboard-response","238","1067671","0.0-4.0-4.0-1.10","spark_pilot_2","7354","2","14","Male","","","","","","","null","<div style=""font-size:60px;"">+</div>","null","fixation","","","","","","","","","","","21","","",""
"revaluation","239","1071676","0.0-4.0-4.0-0.11","spark_pilot_2","7354","2","14","Male","","","false","","","","[315.39999997615814]","./assets/img/ocean/animals/seahorse.jpg","[""ArrowLeft""]","revaluation","ocean","27","{""ArrowUp,ArrowLeft"":27,""ArrowUp,ArrowRight"":15,""ArrowDown,ArrowLeft"":21,""ArrowDown,ArrowRight"":7}","true","ArrowUp,ArrowLeft","","","","revaluation","1","22","","",""
"html-keyboard-response","240","1072179","0.0-4.0-4.0-1.11","spark_pilot_2","7354","2","14","Male","","","","","","","null","<div style=""font-size:60px;"">+</div>","null","fixation","","","","","","","","","","","23","","",""
"revaluation","241","1076183","0.0-4.0-4.0-0.12","spark_pilot_2","7354","2","14","Male","","","false","","","","[322.5]","./assets/img/ocean/animals/octopus.jpg","[""ArrowLeft""]","revaluation","ocean","21","{""ArrowUp,ArrowLeft"":27,""ArrowUp,ArrowRight"":15,""ArrowDown,ArrowLeft"":21,""ArrowDown,ArrowRight"":7}","true","ArrowDown,ArrowLeft","","","","revaluation","1","24","","",""
"html-keyboard-response","242","1076685","0.0-4.0-4.0-1.12","spark_pilot_2","7354","2","14","Male","","","","","","","null","<div style=""font-size:60px;"">+</div>","null","fixation","","","","","","","","","","","25","","",""
"revaluation","243","1080690","0.0-4.0-4.0-0.13","spark_pilot_2","7354","2","14","Male","","","false","","","","[378]","./assets/img/ocean/animals/seahorse.jpg","[""ArrowLeft""]","revaluation","ocean","27","{""ArrowUp,ArrowLeft"":27,""ArrowUp,ArrowRight"":15,""ArrowDown,ArrowLeft"":21,""ArrowDown,ArrowRight"":7}","true","ArrowUp,ArrowLeft","","","","revaluation","1","26","","",""
"html-keyboard-response","244","1081204","0.0-4.0-4.0-1.13","spark_pilot_2","7354","2","14","Male","","","","","","","null","<div style=""font-size:60px;"">+</div>","null","fixation","","","","","","","","","","","27","","",""
"revaluation","245","1085209","0.0-4.0-4.0-0.14","spark_pilot_2","7354","2","14","Male","","","false","","","","[266.1999999284744]","./assets/img/ocean/animals/seahorse.jpg","[""ArrowLeft""]","revaluation","ocean","27","{""ArrowUp,ArrowLeft"":27,""ArrowUp,ArrowRight"":15,""ArrowDown,ArrowLeft"":21,""ArrowDown,ArrowRight"":7}","true","ArrowUp,ArrowLeft","","","","revaluation","1","28","","",""
"html-keyboard-response","246","1085710","0.0-4.0-4.0-1.14","spark_pilot_2","7354","2","14","Male","","","","","","","null","<div style=""font-size:60px;"">+</div>","null","fixation","","","","","","","","","","","29","","",""
"revaluation","247","1089715","0.0-4.0-4.0-0.15","spark_pilot_2","7354","2","14","Male","","","false","","","","[1966.2999999523163]","./assets/img/ocean/animals/seahorse.jpg","[""ArrowLeft""]","revaluation","ocean","27","{""ArrowUp,ArrowLeft"":27,""ArrowUp,ArrowRight"":15,""ArrowDown,ArrowLeft"":21,""ArrowDown,ArrowRight"":7}","true","ArrowUp,ArrowLeft","","","","revaluation","1","30","","",""
"html-keyboard-response","248","1090217","0.0-4.0-4.0-1.15","spark_pilot_2","7354","2","14","Male","","","","","","","null","<div style=""font-size:60px;"">+</div>","null","fixation","","","","","","","","","","","31","","",""
"revaluation","249","1094224","0.0-4.0-4.0-0.16","spark_pilot_2","7354","2","14","Male","","","false","","","","[458]","./assets/img/ocean/animals/seahorse.jpg","[""ArrowLeft""]","revaluation","ocean","27","{""ArrowUp,ArrowLeft"":27,""ArrowUp,ArrowRight"":15,""ArrowDown,ArrowLeft"":21,""ArrowDown,ArrowRight"":7}","true","ArrowUp,ArrowLeft","","","","revaluation","1","32","","",""
"html-keyboard-response","250","1094726","0.0-4.0-4.0-1.16","spark_pilot_2","7354","2","14","Male","","","","","","","null","<div style=""font-size:60px;"">+</div>","null","fixation","","","","","","","","","","","33","","",""
"revaluation","251","1098729","0.0-4.0-4.0-0.17","spark_pilot_2","7354","2","14","Male","","","false","","","","[320.3000000715256]","./assets/img/ocean/animals/octopus.jpg","[""ArrowLeft""]","revaluation","ocean","21","{""ArrowUp,ArrowLeft"":27,""ArrowUp,ArrowRight"":15,""ArrowDown,ArrowLeft"":21,""ArrowDown,ArrowRight"":7}","true","ArrowDown,ArrowLeft","","","","revaluation","1","34","","",""
"html-keyboard-response","252","1099230","0.0-4.0-4.0-1.17","spark_pilot_2","7354","2","14","Male","","","","","","","null","<div style=""font-size:60px;"">+</div>","null","fixation","","","","","","","","","","","35","","",""
"learning-instructions","253","1112282","0.0-4.0-5.0-0.0","spark_pilot_2","7354","2","14","Male","","","","","","","1022.7999999523163","<p> Time to play the dot game! </p>
            <p> For one minute, click the red dots on the following screen as they appear. </p>
            <p><b> Don't look away, as you will earn bonus for clicking dots</b>. </p>","","instructions","","","","","","","","","","","","","",""
"revaluation","254","1172284","0.0-4.0-6.0-0.0","spark_pilot_2","7354","2","14","Male","","","","","","","[87,56,64,55,56,104,57]","","","rest","","70","","","","","0","60000","","","","","",""
"learning-instructions","255","1180866","0.0-4.0-7.0-0.0","spark_pilot_2","7354","2","14","Male","","","","","","","1961.2000000476837","<p> You have almost finished this part of the game! </p>
            <p> We are going to ask you to make a few more choices. </p>","","instructions","","","","","","","","","","","","","",""
"learning-instructions","256","1196570","0.0-4.0-7.0-0.1","spark_pilot_2","7354","2","14","Male","","","","","","","1726.1000000238419","<p> First, you need to decide whether to go up or down. When you see each picture, use the arrow keys to make your choice. </p>
            <p><b>You will not see which animal you found, but try to get to the one that will give you the most treasure.</b></p>","","instructions","","","","","","","","","","","","","",""
"revaluation","257","1197237","0.0-4.0-8.0-0.0","spark_pilot_2","7354","2","14","Male","","","false","","","","[665.6000000238419]","./assets/img/ocean/test/0.jpg","[""ArrowUp""]","first stage test","ocean","0","{""ArrowUp,ArrowLeft"":27,""ArrowUp,ArrowRight"":15,""ArrowDown,ArrowLeft"":21,""ArrowDown,ArrowRight"":7}","true","ArrowUp","false","","","revaluation","1","","","",""
"html-keyboard-response","258","1197739","0.0-4.0-8.0-1.0","spark_pilot_2","7354","2","14","Male","","","","","","","null","<div style=""font-size:60px;"">+</div>","null","fixation","","","","","","","","","","","","","",""
"revaluation","259","1199296","0.0-4.0-8.0-0.1","spark_pilot_2","7354","2","14","Male","","","false","","","","[1555.3000000715256]","./assets/img/ocean/test/3.jpg","[""ArrowUp""]","first stage test","ocean","0","{""ArrowUp,ArrowLeft"":27,""ArrowUp,ArrowRight"":15,""ArrowDown,ArrowLeft"":21,""ArrowDown,ArrowRight"":7}","true","ArrowUp","false","","","revaluation","1","","","",""
"html-keyboard-response","260","1199813","0.0-4.0-8.0-1.1","spark_pilot_2","7354","2","14","Male","","","","","","","null","<div style=""font-size:60px;"">+</div>","null","fixation","","","","","","","","","","","","","",""
"revaluation","261","1200549","0.0-4.0-8.0-0.2","spark_pilot_2","7354","2","14","Male","","","false","","","","[731.2999999523163]","./assets/img/ocean/test/1.jpg","[""ArrowUp""]","first stage test","ocean","0","{""ArrowUp,ArrowLeft"":27,""ArrowUp,ArrowRight"":15,""ArrowDown,ArrowLeft"":21,""ArrowDown,ArrowRight"":7}","true","ArrowUp","false","","","revaluation","1","","","",""
"html-keyboard-response","262","1201063","0.0-4.0-8.0-1.2","spark_pilot_2","7354","2","14","Male","","","","","","","null","<div style=""font-size:60px;"">+</div>","null","fixation","","","","","","","","","","","","","",""
"revaluation","263","1201533","0.0-4.0-8.0-0.3","spark_pilot_2","7354","2","14","Male","","","false","","","","[464.7000000476837]","./assets/img/ocean/test/2.jpg","[""ArrowDown""]","first stage test","ocean","0","{""ArrowUp,ArrowLeft"":27,""ArrowUp,ArrowRight"":15,""ArrowDown,ArrowLeft"":21,""ArrowDown,ArrowRight"":7}","false","ArrowDown","false","","","revaluation","1","","","",""
"html-keyboard-response","264","1202042","0.0-4.0-8.0-1.3","spark_pilot_2","7354","2","14","Male","","","","","","","null","<div style=""font-size:60px;"">+</div>","null","fixation","","","","","","","","","","","","","",""
"learning-instructions","265","1216514","0.0-4.0-9.0-0.0","spark_pilot_2","7354","2","14","Male","","","","","","","3140.0999999046326","<p> Now you will see the animals again and can search their chests for treasure. </p>
            <p> This time, you will not see how much treasure you earned, but you will earn more bonus money for making better choices. </p>","","instructions","","","","","","","","","","","","","",""
"revaluation","266","1217331","0.0-4.0-10.0-0.0","spark_pilot_2","7354","2","14","Male","","","false","","","","[815]","./assets/img/ocean/animals/seahorse.jpg","[""ArrowRight""]","second stage test","ocean","0","{""ArrowUp,ArrowLeft"":27,""ArrowUp,ArrowRight"":15,""ArrowDown,ArrowLeft"":21,""ArrowDown,ArrowRight"":7}","false","ArrowUp,ArrowRight","","","","revaluation","1","","","",""
"html-keyboard-response","267","1217841","0.0-4.0-10.0-1.0","spark_pilot_2","7354","2","14","Male","","","","","","","null","<div style=""font-size:60px;"">+</div>","null","fixation","","","","","","","","","","","","","",""
"revaluation","268","1218773","0.0-4.0-10.0-0.1","spark_pilot_2","7354","2","14","Male","","","false","","","","[930.5]","./assets/img/ocean/animals/seahorse.jpg","[""ArrowRight""]","second stage test","ocean","0","{""ArrowUp,ArrowLeft"":27,""ArrowUp,ArrowRight"":15,""ArrowDown,ArrowLeft"":21,""ArrowDown,ArrowRight"":7}","false","ArrowUp,ArrowRight","","","","revaluation","1","","","",""
"html-keyboard-response","269","1219292","0.0-4.0-10.0-1.1","spark_pilot_2","7354","2","14","Male","","","","","","","null","<div style=""font-size:60px;"">+</div>","null","fixation","","","","","","","","","","","","","",""
"revaluation","270","1219706","0.0-4.0-10.0-0.2","spark_pilot_2","7354","2","14","Male","","","false","","","","[408.89999997615814]","./assets/img/ocean/animals/seahorse.jpg","[""ArrowRight""]","second stage test","ocean","0","{""ArrowUp,ArrowLeft"":27,""ArrowUp,ArrowRight"":15,""ArrowDown,ArrowLeft"":21,""ArrowDown,ArrowRight"":7}","false","ArrowUp,ArrowRight","","","","revaluation","1","","","",""
"html-keyboard-response","271","1220222","0.0-4.0-10.0-1.2","spark_pilot_2","7354","2","14","Male","","","","","","","null","<div style=""font-size:60px;"">+</div>","null","fixation","","","","","","","","","","","","","",""
"revaluation","272","1220544","0.0-4.0-10.0-0.3","spark_pilot_2","7354","2","14","Male","","","false","","","","[317.3000000715256]","./assets/img/ocean/animals/seahorse.jpg","[""ArrowLeft""]","second stage test","ocean","0","{""ArrowUp,ArrowLeft"":27,""ArrowUp,ArrowRight"":15,""ArrowDown,ArrowLeft"":21,""ArrowDown,ArrowRight"":7}","true","ArrowUp,ArrowLeft","","","","revaluation","1","","","",""
"html-keyboard-response","273","1221047","0.0-4.0-10.0-1.3","spark_pilot_2","7354","2","14","Male","","","","","","","null","<div style=""font-size:60px;"">+</div>","null","fixation","","","","","","","","","","","","","",""
"revaluation","274","1221762","0.0-4.0-10.0-0.4","spark_pilot_2","7354","2","14","Male","","","false","","","","[710.3999999761581]","./assets/img/ocean/animals/octopus.jpg","[""ArrowLeft""]","second stage test","ocean","0","{""ArrowUp,ArrowLeft"":27,""ArrowUp,ArrowRight"":15,""ArrowDown,ArrowLeft"":21,""ArrowDown,ArrowRight"":7}","true","ArrowDown,ArrowLeft","","","","revaluation","1","","","",""
"html-keyboard-response","275","1222282","0.0-4.0-10.0-1.4","spark_pilot_2","7354","2","14","Male","","","","","","","null","<div style=""font-size:60px;"">+</div>","null","fixation","","","","","","","","","","","","","",""
"revaluation","276","1222588","0.0-4.0-10.0-0.5","spark_pilot_2","7354","2","14","Male","","","false","","","","[300.60000002384186]","./assets/img/ocean/animals/octopus.jpg","[""ArrowRight""]","second stage test","ocean","0","{""ArrowUp,ArrowLeft"":27,""ArrowUp,ArrowRight"":15,""ArrowDown,ArrowLeft"":21,""ArrowDown,ArrowRight"":7}","false","ArrowDown,ArrowRight","","","","revaluation","1","","","",""
"html-keyboard-response","277","1223092","0.0-4.0-10.0-1.5","spark_pilot_2","7354","2","14","Male","","","","","","","null","<div style=""font-size:60px;"">+</div>","null","fixation","","","","","","","","","","","","","",""
"revaluation","278","1223386","0.0-4.0-10.0-0.6","spark_pilot_2","7354","2","14","Male","","","false","","","","[288.10000002384186]","./assets/img/ocean/animals/octopus.jpg","[""ArrowLeft""]","second stage test","ocean","0","{""ArrowUp,ArrowLeft"":27,""ArrowUp,ArrowRight"":15,""ArrowDown,ArrowLeft"":21,""ArrowDown,ArrowRight"":7}","true","ArrowDown,ArrowLeft","","","","revaluation","1","","","",""
"html-keyboard-response","279","1223902","0.0-4.0-10.0-1.6","spark_pilot_2","7354","2","14","Male","","","","","","","null","<div style=""font-size:60px;"">+</div>","null","fixation","","","","","","","","","","","","","",""
"revaluation","280","1224439","0.0-4.0-10.0-0.7","spark_pilot_2","7354","2","14","Male","","","false","","","","[531.7000000476837]","./assets/img/ocean/animals/octopus.jpg","[""ArrowRight""]","second stage test","ocean","0","{""ArrowUp,ArrowLeft"":27,""ArrowUp,ArrowRight"":15,""ArrowDown,ArrowLeft"":21,""ArrowDown,ArrowRight"":7}","false","ArrowDown,ArrowRight","","","","revaluation","1","","","",""
"html-keyboard-response","281","1224942","0.0-4.0-10.0-1.7","spark_pilot_2","7354","2","14","Male","","","","","","","null","<div style=""font-size:60px;"">+</div>","null","fixation","","","","","","","","","","","","","",""
"learning-instructions","282","1229105","0.0-4.0-0.1-0.2","spark_pilot_2","7354","2","14","Male","","","","","","","1360.9000000953674","<p> This time you are searching for treasure in the <b>canyon</b>.</p>","","instructions","","","","","","","","","","","","","",""
"learning-instructions","283","1248009","0.0-4.0-0.1-0.3","spark_pilot_2","7354","2","14","Male","","","","","","","1645.5","<p><b>New</b> animals with <b>new</b> treasure chests live here. You need to explore to discover where the animal with the best treasure chest is.</p>
                    <p> Like before, once you figure out which animal has the chest with the most treasure, you should try to get to that animal and select that chest! </p>","","instructions","","","","","","","","","","","","","",""
"learning-instructions","284","1263273","0.0-4.0-1.1-0.1","spark_pilot_2","7354","2","14","Male","","","","","","","536.7000000476837","<p> Remember, when you see a picture of the place, use the up and down keys to <b>find an animal</b>.</p>
            <p> When you encounter an animal, you should use the left and right keys to <b>select a treasure chest</b>.</p>
            <p> Don't forget to look out for the robber! </p>","","instructions","","","","","","","","","","","","","",""
"revaluation","285","1269312","0.0-4.0-2.1-0.50","spark_pilot_2","7354","2","14","Male","","","false","","","","[586,281]","./assets/img/canyon/memory/28.jpg","[""ArrowUp"",""ArrowRight""]","value training","canyon","10","{""ArrowUp,ArrowLeft"":26,""ArrowUp,ArrowRight"":10,""ArrowDown,ArrowLeft"":5,""ArrowDown,ArrowRight"":17}","false","ArrowUp,ArrowRight","false","","","original","2","0","","",""
"html-keyboard-response","286","1269822","0.0-4.0-2.1-1.50","spark_pilot_2","7354","2","14","Male","","","","","","","null","<div style=""font-size:60px;"">+</div>","null","fixation","","","","","","","","","","","1","","",""
"revaluation","287","1275873","0.0-4.0-2.1-0.51","spark_pilot_2","7354","2","14","Male","","","false","","","","[298.39999997615814,276]","./assets/img/canyon/memory/3.jpg","[""ArrowUp"",""ArrowLeft""]","value training","canyon","26","{""ArrowUp,ArrowLeft"":26,""ArrowUp,ArrowRight"":10,""ArrowDown,ArrowLeft"":5,""ArrowDown,ArrowRight"":17}","true","ArrowUp,ArrowLeft","false","","","original","2","2","","",""
"html-keyboard-response","288","1276393","0.0-4.0-2.1-1.51","spark_pilot_2","7354","2","14","Male","","","","","","","null","<div style=""font-size:60px;"">+</div>","null","fixation","","","","","","","","","","","3","","",""
"revaluation","289","1282433","0.0-4.0-2.1-0.52","spark_pilot_2","7354","2","14","Male","","","false","","","","[261.8000000715256,410.3000000715256]","./assets/img/canyon/memory/19.jpg","[""ArrowDown"",""ArrowLeft""]","value training","canyon","5","{""ArrowUp,ArrowLeft"":26,""ArrowUp,ArrowRight"":10,""ArrowDown,ArrowLeft"":5,""ArrowDown,ArrowRight"":17}","false","ArrowDown,ArrowLeft","false","","","original","2","4","","",""
"html-keyboard-response","290","1282939","0.0-4.0-2.1-1.52","spark_pilot_2","7354","2","14","Male","","","","","","","null","<div style=""font-size:60px;"">+</div>","null","fixation","","","","","","","","","","","5","","",""
"revaluation","291","1288993","0.0-4.0-2.1-0.53","spark_pilot_2","7354","2","14","Male","","","false","","","","[285.60000002384186,268.59999990463257]","./assets/img/canyon/memory/38.jpg","[""ArrowDown"",""ArrowRight""]","value training","canyon","17","{""ArrowUp,ArrowLeft"":26,""ArrowUp,ArrowRight"":10,""ArrowDown,ArrowLeft"":5,""ArrowDown,ArrowRight"":17}","false","ArrowDown,ArrowRight","false","","","original","2","6","","",""
"html-keyboard-response","292","1289502","0.0-4.0-2.1-1.53","spark_pilot_2","7354","2","14","Male","","","","","","","null","<div style=""font-size:60px;"">+</div>","null","fixation","","","","","","","","","","","7","","",""
"revaluation","293","1295514","0.0-4.0-2.1-0.54","spark_pilot_2","7354","2","14","Male","","","false","","","","[370.89999997615814,326.7999999523163]","./assets/img/canyon/memory/10.jpg","[""ArrowUp"",""ArrowLeft""]","value training","canyon","26","{""ArrowUp,ArrowLeft"":26,""ArrowUp,ArrowRight"":10,""ArrowDown,ArrowLeft"":5,""ArrowDown,ArrowRight"":17}","true","ArrowUp,ArrowLeft","false","","","original","2","8","","",""
"html-keyboard-response","294","1296030","0.0-4.0-2.1-1.54","spark_pilot_2","7354","2","14","Male","","","","","","","null","<div style=""font-size:60px;"">+</div>","null","fixation","","","","","","","","","","","9","","",""
"revaluation","295","1302038","0.0-4.0-2.1-0.55","spark_pilot_2","7354","2","14","Male","","","false","","","","[410.7000000476837,356.5]","./assets/img/canyon/memory/11.jpg","[""ArrowUp"",""ArrowLeft""]","value training","canyon","26","{""ArrowUp,ArrowLeft"":26,""ArrowUp,ArrowRight"":10,""ArrowDown,ArrowLeft"":5,""ArrowDown,ArrowRight"":17}","true","ArrowUp,ArrowLeft","false","","","original","2","10","","",""
"html-keyboard-response","296","1302540","0.0-4.0-2.1-1.55","spark_pilot_2","7354","2","14","Male","","","","","","","null","<div style=""font-size:60px;"">+</div>","null","fixation","","","","","","","","","","","11","","",""
"revaluation","297","1308546","0.0-4.0-2.1-0.56","spark_pilot_2","7354","2","14","Male","","","false","","","","[432,376.5]","./assets/img/canyon/memory/1.jpg","[""ArrowUp"",""ArrowLeft""]","value training","canyon","26","{""ArrowUp,ArrowLeft"":26,""ArrowUp,ArrowRight"":10,""ArrowDown,ArrowLeft"":5,""ArrowDown,ArrowRight"":17}","true","ArrowUp,ArrowLeft","false","","","original","2","12","","",""
"html-keyboard-response","298","1309048","0.0-4.0-2.1-1.56","spark_pilot_2","7354","2","14","Male","","","","","","","null","<div style=""font-size:60px;"">+</div>","null","fixation","","","","","","","","","","","13","","",""
"revaluation","299","1315052","0.0-4.0-2.1-0.57","spark_pilot_2","7354","2","14","Male","","","false","","","","[497.89999997615814,727.0999999046326]","./assets/img/canyon/memory/27.jpg","[""ArrowUp"",""ArrowLeft""]","value training","canyon","26","{""ArrowUp,ArrowLeft"":26,""ArrowUp,ArrowRight"":10,""ArrowDown,ArrowLeft"":5,""ArrowDown,ArrowRight"":17}","true","ArrowUp,ArrowLeft","false","","","original","2","14","","",""
"html-keyboard-response","300","1315553","0.0-4.0-2.1-1.57","spark_pilot_2","7354","2","14","Male","","","","","","","null","<div style=""font-size:60px;"">+</div>","null","fixation","","","","","","","","","","","15","","",""
"revaluation","301","1321564","0.0-4.0-2.1-0.58","spark_pilot_2","7354","2","14","Male","","","false","","","","[852.3999999761581,915]","./assets/img/canyon/memory/24.jpg","[""ArrowUp"",""ArrowLeft""]","value training","canyon","26","{""ArrowUp,ArrowLeft"":26,""ArrowUp,ArrowRight"":10,""ArrowDown,ArrowLeft"":5,""ArrowDown,ArrowRight"":17}","true","ArrowUp,ArrowLeft","false","","","original","2","16","","",""
"html-keyboard-response","302","1322072","0.0-4.0-2.1-1.58","spark_pilot_2","7354","2","14","Male","","","","","","","null","<div style=""font-size:60px;"">+</div>","null","fixation","","","","","","","","","","","17","","",""
"revaluation","303","1328079","0.0-4.0-2.1-0.59","spark_pilot_2","7354","2","14","Male","","","false","","","","[857.0999999046326,622.1000000238419]","./assets/img/canyon/memory/14.jpg","[""ArrowUp"",""ArrowLeft""]","value training","canyon","26","{""ArrowUp,ArrowLeft"":26,""ArrowUp,ArrowRight"":10,""ArrowDown,ArrowLeft"":5,""ArrowDown,ArrowRight"":17}","true","ArrowUp,ArrowLeft","false","","","original","2","18","","",""
