"trial_type","trial_index","time_elapsed","internal_node_id","task_version","subject_id","assigned_condition","age","gender","success","timeout","failed_images","failed_audio","failed_video","browser_interaction","rt","stimulus","response","task_part","environment","score","rewardMap","correct","fullState","isCatch","numberMissed","duration","condition","order","trial_num","key_press","ground_truth","bonus"
"pavlovia","0","1292","0.0-0.0","spark_pilot_2","7405","6","17","Male","","","","","","","","","","","","","","","","","","","","","","","",""
"preload","1","12665","0.0-1.0","spark_pilot_2","7405","6","17","Male","true","false","[]","[]","[]","[{""event"":""fullscreenenter"",""trial"":2,""time"":15286}]","","","","","","","","","","","","","","","","","",""
"fullscreen","2","16276","0.0-2.0","spark_pilot_2","7405","6","17","Male","true","","","","","","","","","","","","","","","","","","","","","","",""
"audio-button-response","3","18300","0.0-3.0-0.0-0.0","spark_pilot_2","7405","6","17","Male","","","","","","","1941","./assets/audio/audiotest/turtle.mp3","2","audio_test","","","","","","","","","","","","","",""
"learning-instructions","4","26367","0.0-3.0-1.0-0.0","spark_pilot_2","7405","6","17","Male","","","","","","","1073.2000000001863","<p> Welcome! Please remember to stay in fullscreen mode and don't click away from the experiment. </p>","","instructions","","","","","","","","","","","","","",""
"learning-instructions","5","35869","0.0-3.0-1.0-0.1","spark_pilot_2","7405","6","17","Male","","","","","","","1082","<p> Today you will be playing a game to earn treasure. </p>
            <p> At the end of the experiment, you will earn a bonus based on how much treasure you find. </p>
            <img src='./assets/img/instructions/treasure.jpg' class='instructions-image'>","","instructions","","","","","","","","","","","","","",""
"learning-instructions","6","45082","0.0-3.0-1.0-0.2","spark_pilot_2","7405","6","17","Male","","","","","","","940.8999999994412","<p> Animals have hidden treasure in treasure chests. </p>
            <p> You need to first find an animal and then choose which of their treasure chests to search. </p>
            <img src='./assets/img/space/animals/cat.jpg' class='instructions-image'>","","instructions","","","","","","","","","","","","","",""
"learning-instructions","7","63127","0.0-3.0-1.0-0.3","spark_pilot_2","7405","6","17","Male","","","","","","","4872.799999999814","<p> In each round, you will search for treasure in a different place. In the real game, there will be two rounds. </p>
            <p> You will begin with a separate, practice round where you will search for treasure in outer space. </p>
            <img src='./assets/img/space/0.jpg' class='instructions-image'>","","instructions","","","","","","","","","","","","","",""
"learning-instructions","8","76164","0.0-3.0-1.0-0.4","spark_pilot_2","7405","6","17","Male","","","","","","","1612","<p> On every turn, you will see a picture of the place that you are in, but the specific image may be different each time. </p>
            <p> For example, both of these images mean you are in outer space. </p>
            <img src='./assets/img/instructions/outerspace.jpg' class='instructions-image'>","","instructions","","","","","","","","","","","","","",""
"learning-instructions","9","84906","0.0-3.0-1.0-0.5","spark_pilot_2","7405","6","17","Male","","","","","","","901.6000000005588","<p> You need to decide which direction to travel in. </p>
            <p> You can choose between going <b>up or down</b> by using the arrow keys. </p>
            <img src='./assets/img/instructions/updown.jpg' class='instructions-image'>","","instructions","","","","","","","","","","","","","",""
"learning-instructions","10","94911","0.0-3.0-1.0-0.6","spark_pilot_2","7405","6","17","Male","","","","","","","1179.7999999998137","<p> You will have <b>2 seconds</b> to make your choice. </p>
            <p> If you do not make a choice within 2 seconds, you will not find an animal or earn treasure. </p>
            <img src='./assets/img/instructions/2seconds.jpg' class='instructions-image'>","","instructions","","","","","","","","","","","","","",""
"learning-instructions","11","103526","0.0-3.0-1.0-0.7","spark_pilot_2","7405","6","17","Male","","","","","","","1560.5999999996275","<p> Let’s try practicing that now! </p>
            <p> When you see a picture of the place you are in, press the <b>up</b> key to travel up. </p>
            <img src='./assets/img/instructions/pressUp.jpg' class='instructions-image'>","","instructions","","","","","","","","","","","","","",""
"revaluation","12","107557","0.0-3.0-2.0-0.0","spark_pilot_2","7405","6","17","Male","","true","","","","","[]","./assets/img/space/0.jpg","[]","first stage practice","space","-5","null","null","","false","","","","","","","",""
"html-keyboard-response","13","108061","0.0-3.0-2.0-1.0","spark_pilot_2","7405","6","17","Male","","","","","","","null","<div style=""font-size:60px;"">+</div>","null","fixation","","","","","","","","","","","","","",""
"revaluation","14","112077","0.0-3.0-2.0-0.1","spark_pilot_2","7405","6","17","Male","","false","","","","","[1425.2999999998137]","./assets/img/space/1.jpg","[""ArrowUp""]","first stage practice","space","0","null","null","ArrowUp","false","","","","","","","",""
"html-keyboard-response","15","112581","0.0-3.0-2.0-1.1","spark_pilot_2","7405","6","17","Male","","","","","","","null","<div style=""font-size:60px;"">+</div>","null","fixation","","","","","","","","","","","","","",""
"revaluation","16","116597","0.0-3.0-2.0-0.2","spark_pilot_2","7405","6","17","Male","","false","","","","","[729.7000000001863]","./assets/img/space/2.jpg","[""ArrowUp""]","first stage practice","space","0","null","null","ArrowUp","false","","","","","","","",""
"html-keyboard-response","17","117100","0.0-3.0-2.0-1.2","spark_pilot_2","7405","6","17","Male","","","","","","","null","<div style=""font-size:60px;"">+</div>","null","fixation","","","","","","","","","","","","","",""
"learning-instructions","18","124719","0.0-3.0-3.0-0.0","spark_pilot_2","7405","6","17","Male","","","","","","","2914","<p> Great job! Now try pressing the <b>down</b> key to travel down. </p>
            <img src='./assets/img/instructions/pressDown.jpg' class='instructions-image'>","","instructions","","","","","","","","","","","","","",""
"revaluation","19","128733","0.0-3.0-4.0-0.0","spark_pilot_2","7405","6","17","Male","","false","","","","","[772.4000000003725]","./assets/img/space/3.jpg","[""ArrowDown""]","first stage practice","space","0","null","null","ArrowDown","false","","","","","","","",""
"html-keyboard-response","20","129236","0.0-3.0-4.0-1.0","spark_pilot_2","7405","6","17","Male","","","","","","","null","<div style=""font-size:60px;"">+</div>","null","fixation","","","","","","","","","","","","","",""
"revaluation","21","133253","0.0-3.0-4.0-0.1","spark_pilot_2","7405","6","17","Male","","false","","","","","[674.9000000003725]","./assets/img/space/4.jpg","[""ArrowDown""]","first stage practice","space","0","null","null","ArrowDown","false","","","","","","","",""
"html-keyboard-response","22","133756","0.0-3.0-4.0-1.1","spark_pilot_2","7405","6","17","Male","","","","","","","null","<div style=""font-size:60px;"">+</div>","null","fixation","","","","","","","","","","","","","",""
"revaluation","23","137773","0.0-3.0-4.0-0.2","spark_pilot_2","7405","6","17","Male","","false","","","","","[344]","./assets/img/space/5.jpg","[""ArrowDown""]","first stage practice","space","0","null","null","ArrowDown","false","","","","","","","",""
"html-keyboard-response","24","138276","0.0-3.0-4.0-1.2","spark_pilot_2","7405","6","17","Male","","","","","","","null","<div style=""font-size:60px;"">+</div>","null","fixation","","","","","","","","","","","","","",""
"learning-instructions","25","150980","0.0-3.0-5.0-0.0","spark_pilot_2","7405","6","17","Male","","","","","","","2839.2999999998137","<p> The animals don’t move, so the animal in the upper part of a place will stay in the upper part of a place, and the animal in the lower part of a place will stay in the lower part of a place. </p>","","instructions","","","","","","","","","","","","","",""
"learning-instructions","26","161981","0.0-3.0-5.0-0.1","spark_pilot_2","7405","6","17","Male","","","","","","","1850.1000000005588","<p> Each animal has two treasure chests for you to choose from. </p>
            <p> The amount of treasure in each chest can range from <b> 0 to 40 pieces.</b></p>","","instructions","","","","","","","","","","","","","",""
"learning-instructions","27","174408","0.0-3.0-5.0-0.2","spark_pilot_2","7405","6","17","Male","","","","","","","1221.5999999996275","<p> You should decide which chest to search for treasure by using the <b>left</b> and <b>right</b> arrow keys. </p>
            <p><b> Pay attention to which animal is on the screen, as the animals have different treasure chests. </b></p>
            <img src='./assets/img/instructions/leftright.jpg' class='instructions-image'>","","instructions","","","","","","","","","","","","","",""
"learning-instructions","28","182825","0.0-3.0-5.0-0.3","spark_pilot_2","7405","6","17","Male","","","","","","","2043.6000000005588","<p> Let’s try practicing that now. </p>
            <p> When you see an animal, choose which chest to search for treasure. </p>
            <img src='./assets/img/instructions/chooseChest.jpg' class='instructions-image'>","","instructions","","","","","","","","","","","","","",""
"revaluation","29","186848","0.0-3.0-6.0-0.0","spark_pilot_2","7405","6","17","Male","","false","","","","","[940.5999999996275]","./assets/img/space/animals/rabbit.jpg","[""ArrowRight""]","second stage practice","space","23","{""ArrowUp,ArrowLeft"":3,""ArrowUp,ArrowRight"":36,""ArrowDown,ArrowLeft"":15,""ArrowDown,ArrowRight"":23}","true","ArrowDown,ArrowRight","","","","","","","","",""
"html-keyboard-response","30","187357","0.0-3.0-6.0-1.0","spark_pilot_2","7405","6","17","Male","","","","","","","null","<div style=""font-size:60px;"">+</div>","null","fixation","","","","","","","","","","","","","",""
"revaluation","31","191372","0.0-3.0-6.0-0.1","spark_pilot_2","7405","6","17","Male","","false","","","","","[509.40000000037253]","./assets/img/space/animals/cat.jpg","[""ArrowRight""]","second stage practice","space","36","{""ArrowUp,ArrowLeft"":3,""ArrowUp,ArrowRight"":36,""ArrowDown,ArrowLeft"":15,""ArrowDown,ArrowRight"":23}","true","ArrowUp,ArrowRight","","","","","","","","",""
"html-keyboard-response","32","191877","0.0-3.0-6.0-1.1","spark_pilot_2","7405","6","17","Male","","","","","","","null","<div style=""font-size:60px;"">+</div>","null","fixation","","","","","","","","","","","","","",""
"revaluation","33","195893","0.0-3.0-6.0-0.2","spark_pilot_2","7405","6","17","Male","","false","","","","","[686.2000000001863]","./assets/img/space/animals/cat.jpg","[""ArrowRight""]","second stage practice","space","36","{""ArrowUp,ArrowLeft"":3,""ArrowUp,ArrowRight"":36,""ArrowDown,ArrowLeft"":15,""ArrowDown,ArrowRight"":23}","true","ArrowUp,ArrowRight","","","","","","","","",""
"html-keyboard-response","34","196396","0.0-3.0-6.0-1.2","spark_pilot_2","7405","6","17","Male","","","","","","","null","<div style=""font-size:60px;"">+</div>","null","fixation","","","","","","","","","","","","","",""
"revaluation","35","200413","0.0-3.0-6.0-0.3","spark_pilot_2","7405","6","17","Male","","false","","","","","[432.80000000074506]","./assets/img/space/animals/rabbit.jpg","[""ArrowRight""]","second stage practice","space","23","{""ArrowUp,ArrowLeft"":3,""ArrowUp,ArrowRight"":36,""ArrowDown,ArrowLeft"":15,""ArrowDown,ArrowRight"":23}","true","ArrowDown,ArrowRight","","","","","","","","",""
"html-keyboard-response","36","200916","0.0-3.0-6.0-1.3","spark_pilot_2","7405","6","17","Male","","","","","","","null","<div style=""font-size:60px;"">+</div>","null","fixation","","","","","","","","","","","","","",""
"learning-instructions","37","220437","0.0-3.0-7.0-0.0","spark_pilot_2","7405","6","17","Male","","","","","","","2685.0999999996275","<p> Great job. Now let’s try putting it together. </p>
            <p> On each turn, you will first see a picture to remind you of the place you are in, and you need to choose whether to go up or down. </p>
            <p> Then you will see an animal and choose which of its chests to search for treasure. </p>","","instructions","","","","","","","","","","","","","",""
"learning-instructions","38","229581","0.0-3.0-7.0-0.1","spark_pilot_2","7405","6","17","Male","","","","","","","874.5","<p> When you choose whether to go up or down, try to go to the animal with the chest with the most treasure. </p>
            <p> Try practicing that now! </p>","","instructions","","","","","","","","","","","","","",""
"revaluation","39","235605","0.0-3.0-8.0-0.0","spark_pilot_2","7405","6","17","Male","","false","","","","","[1194.5999999996275,1186.5]","./assets/img/space/6.jpg","[""ArrowUp"",""ArrowRight""]","full practice","space","36","{""ArrowUp,ArrowLeft"":3,""ArrowUp,ArrowRight"":36,""ArrowDown,ArrowLeft"":15,""ArrowDown,ArrowRight"":23}","true","ArrowUp,ArrowRight","false","","","","","","","",""
"html-keyboard-response","40","236108","0.0-3.0-8.0-1.0","spark_pilot_2","7405","6","17","Male","","","","","","","null","<div style=""font-size:60px;"">+</div>","null","fixation","","","","","","","","","","","","","",""
"revaluation","41","242133","0.0-3.0-8.0-0.1","spark_pilot_2","7405","6","17","Male","","false","","","","","[478.29999999981374,416.19999999925494]","./assets/img/space/7.jpg","[""ArrowUp"",""ArrowRight""]","full practice","space","36","{""ArrowUp,ArrowLeft"":3,""ArrowUp,ArrowRight"":36,""ArrowDown,ArrowLeft"":15,""ArrowDown,ArrowRight"":23}","true","ArrowUp,ArrowRight","false","","","","","","","",""
"html-keyboard-response","42","242636","0.0-3.0-8.0-1.1","spark_pilot_2","7405","6","17","Male","","","","","","","null","<div style=""font-size:60px;"">+</div>","null","fixation","","","","","","","","","","","","","",""
"revaluation","43","248661","0.0-3.0-8.0-0.2","spark_pilot_2","7405","6","17","Male","","false","","","","","[581.5,392.5]","./assets/img/space/8.jpg","[""ArrowUp"",""ArrowRight""]","full practice","space","36","{""ArrowUp,ArrowLeft"":3,""ArrowUp,ArrowRight"":36,""ArrowDown,ArrowLeft"":15,""ArrowDown,ArrowRight"":23}","true","ArrowUp,ArrowRight","false","","","","","","","",""
"html-keyboard-response","44","249164","0.0-3.0-8.0-1.2","spark_pilot_2","7405","6","17","Male","","","","","","","null","<div style=""font-size:60px;"">+</div>","null","fixation","","","","","","","","","","","","","",""
"revaluation","45","255189","0.0-3.0-8.0-0.3","spark_pilot_2","7405","6","17","Male","","false","","","","","[407.70000000018626,894.4000000003725]","./assets/img/space/9.jpg","[""ArrowDown"",""ArrowLeft""]","full practice","space","15","{""ArrowUp,ArrowLeft"":3,""ArrowUp,ArrowRight"":36,""ArrowDown,ArrowLeft"":15,""ArrowDown,ArrowRight"":23}","false","ArrowDown,ArrowLeft","false","","","","","","","",""
"html-keyboard-response","46","255692","0.0-3.0-8.0-1.3","spark_pilot_2","7405","6","17","Male","","","","","","","null","<div style=""font-size:60px;"">+</div>","null","fixation","","","","","","","","","","","","","",""
"revaluation","47","261717","0.0-3.0-8.0-0.4","spark_pilot_2","7405","6","17","Male","","false","","","","","[1189,804.9000000003725]","./assets/img/space/10.jpg","[""ArrowDown"",""ArrowLeft""]","full practice","space","15","{""ArrowUp,ArrowLeft"":3,""ArrowUp,ArrowRight"":36,""ArrowDown,ArrowLeft"":15,""ArrowDown,ArrowRight"":23}","false","ArrowDown,ArrowLeft","false","","","","","","","",""
"html-keyboard-response","48","262220","0.0-3.0-8.0-1.4","spark_pilot_2","7405","6","17","Male","","","","","","","null","<div style=""font-size:60px;"">+</div>","null","fixation","","","","","","","","","","","","","",""
"learning-instructions","49","273264","0.0-3.0-9.0-0.0","spark_pilot_2","7405","6","17","Male","","","","","","","725.6000000005588","<p> One last thing: sometimes, you will see a robber. The robber can be anywhere in the picture. </p>
            <p> If you do not stop them, you will lose treasure. </p>
            <img src='./assets/img/instructions/robber.jpg' class='instructions-image'>","","instructions","","","","","","","","","","","","","",""
"learning-instructions","50","281345","0.0-3.0-9.0-0.1","spark_pilot_2","7405","6","17","Male","","","","","","","902.2000000001863","<p> If you see the robber, you should <b>press the space bar</b> rather than using the arrow keys. </p>
            <p> Try practicing that now! </p>","","instructions","","","","","","","","","","","","","",""
"revaluation","51","285365","0.0-3.0-10.0-0.0","spark_pilot_2","7405","6","17","Male","","false","","","","","[754.2000000001863]","./assets/img/space/catch/0.jpg","[""spaceBar""]","catch practice","space","0","{""ArrowUp,ArrowLeft"":3,""ArrowUp,ArrowRight"":36,""ArrowDown,ArrowLeft"":15,""ArrowDown,ArrowRight"":23}","true","spaceBar","true","","","","","","","",""
"html-keyboard-response","52","285868","0.0-3.0-10.0-1.0","spark_pilot_2","7405","6","17","Male","","","","","","","null","<div style=""font-size:60px;"">+</div>","null","fixation","","","","","","","","","","","","","",""
"revaluation","53","289885","0.0-3.0-10.0-0.1","spark_pilot_2","7405","6","17","Male","","false","","","","","[699.7000000001863]","./assets/img/space/catch/1.jpg","[""spaceBar""]","catch practice","space","0","{""ArrowUp,ArrowLeft"":3,""ArrowUp,ArrowRight"":36,""ArrowDown,ArrowLeft"":15,""ArrowDown,ArrowRight"":23}","true","spaceBar","true","","","","","","","",""
"html-keyboard-response","54","290388","0.0-3.0-10.0-1.1","spark_pilot_2","7405","6","17","Male","","","","","","","null","<div style=""font-size:60px;"">+</div>","null","fixation","","","","","","","","","","","","","",""
"revaluation","55","294405","0.0-3.0-10.0-0.2","spark_pilot_2","7405","6","17","Male","","false","","","","","[692.2000000001863]","./assets/img/space/catch/2.jpg","[""spaceBar""]","catch practice","space","0","{""ArrowUp,ArrowLeft"":3,""ArrowUp,ArrowRight"":36,""ArrowDown,ArrowLeft"":15,""ArrowDown,ArrowRight"":23}","true","spaceBar","true","","","","","","","",""
"html-keyboard-response","56","294908","0.0-3.0-10.0-1.2","spark_pilot_2","7405","6","17","Male","","","","","","","null","<div style=""font-size:60px;"">+</div>","null","fixation","","","","","","","","","","","","","",""
"learning-instructions","57","309359","0.0-3.0-11.0-0.0","spark_pilot_2","7405","6","17","Male","","","","","","","840.7999999998137","<p> After you explore a place to find treasure, it will be time to play a different game. </p>
            <p> During this game, red dots will appear on the screen and fall down slowly. </p>
            <p><b> You must click on them before they reach the bottom. </b></p>
            <img src='./assets/img/instructions/dotGame.jpg' class='instructions-image'>","","instructions","","","","","","","","","","","","","",""
"learning-instructions","58","315933","0.0-3.0-11.0-0.1","spark_pilot_2","7405","6","17","Male","","","","","","","833.7999999998137","<p> For every dot you click, you will earn additional treasure. </p>
            <p> Let’s try practicing that now. </p>","","instructions","","","","","","","","","","","","","",""
"revaluation","59","330944","0.0-3.0-12.0-0.0","spark_pilot_2","7405","6","17","Male","","","","","","","[87]","","","rest practice","","10","","","","","0","15000","","","","","",""
"learning-instructions","60","337771","0.0-3.0-13.0-0.0-0.0","spark_pilot_2","7405","6","17","Male","","","","","","","1541.300000000745","<p> Now, you will practice a shortened version of the game to get a sense of how it all fits together. </p>","","instructions","","","","","","","","","","","","","",""
"learning-instructions","61","341659","0.0-3.0-13.0-0.0-0.1","spark_pilot_2","7405","6","17","Male","","","","","","","693.2000000001863","<p>This time you are searching for treasure in outer space.</p>","","instructions","","","","","","","","","","","","","",""
"learning-instructions","62","357199","0.0-3.0-13.0-1.0-0.0","spark_pilot_2","7405","6","17","Male","","","","","","","756.0999999996275","<p> Remember, when you see a picture of the place, use the up and down keys to <b>find an animal</b>.</p>
            <p> When you encounter an animal, you should use the left and right keys to <b>select a treasure chest</b>.</p>
            <p> Don't forget to look out for the robber! </p>","","instructions","","","","","","","","","","","","","",""
"revaluation","63","363221","0.0-3.0-13.0-2.0-0.0","spark_pilot_2","7405","6","17","Male","","false","","","","","[1982.5,850.8999999994412]","./assets/img/space/11.jpg","[""ArrowUp"",""ArrowRight""]","practice block","space","36","{""ArrowUp,ArrowLeft"":3,""ArrowUp,ArrowRight"":36,""ArrowDown,ArrowLeft"":15,""ArrowDown,ArrowRight"":23}","true","ArrowUp,ArrowRight","false","","","","","","","",""
"html-keyboard-response","64","363724","0.0-3.0-13.0-2.0-1.0","spark_pilot_2","7405","6","17","Male","","","","","","","null","<div style=""font-size:60px;"">+</div>","null","fixation","","","","","","","","","","","","","",""
"revaluation","65","369749","0.0-3.0-13.0-2.0-0.1","spark_pilot_2","7405","6","17","Male","","false","","","","","[377.5,413.20000000018626]","./assets/img/space/12.jpg","[""ArrowUp"",""ArrowRight""]","practice block","space","36","{""ArrowUp,ArrowLeft"":3,""ArrowUp,ArrowRight"":36,""ArrowDown,ArrowLeft"":15,""ArrowDown,ArrowRight"":23}","true","ArrowUp,ArrowRight","false","","","","","","","",""
"html-keyboard-response","66","370253","0.0-3.0-13.0-2.0-1.1","spark_pilot_2","7405","6","17","Male","","","","","","","null","<div style=""font-size:60px;"">+</div>","null","fixation","","","","","","","","","","","","","",""
"revaluation","67","376277","0.0-3.0-13.0-2.0-0.2","spark_pilot_2","7405","6","17","Male","","false","","","","","[492.70000000018626,427.90000000037253]","./assets/img/space/13.jpg","[""ArrowUp"",""ArrowRight""]","practice block","space","36","{""ArrowUp,ArrowLeft"":3,""ArrowUp,ArrowRight"":36,""ArrowDown,ArrowLeft"":15,""ArrowDown,ArrowRight"":23}","true","ArrowUp,ArrowRight","false","","","","","","","",""
"html-keyboard-response","68","376780","0.0-3.0-13.0-2.0-1.2","spark_pilot_2","7405","6","17","Male","","","","","","","null","<div style=""font-size:60px;"">+</div>","null","fixation","","","","","","","","","","","","","",""
"revaluation","69","382804","0.0-3.0-13.0-2.0-0.3","spark_pilot_2","7405","6","17","Male","","false","","","","","[523.9000000003725,515.9000000003725]","./assets/img/space/14.jpg","[""ArrowUp"",""ArrowRight""]","practice block","space","36","{""ArrowUp,ArrowLeft"":3,""ArrowUp,ArrowRight"":36,""ArrowDown,ArrowLeft"":15,""ArrowDown,ArrowRight"":23}","true","ArrowUp,ArrowRight","false","","","","","","","",""
"html-keyboard-response","70","383308","0.0-3.0-13.0-2.0-1.3","spark_pilot_2","7405","6","17","Male","","","","","","","null","<div style=""font-size:60px;"">+</div>","null","fixation","","","","","","","","","","","","","",""
"revaluation","71","389333","0.0-3.0-13.0-2.0-0.4","spark_pilot_2","7405","6","17","Male","","false","","","","","[443.70000000018626,313.70000000018626]","./assets/img/space/11.jpg","[""ArrowUp"",""ArrowRight""]","practice block","space","36","{""ArrowUp,ArrowLeft"":3,""ArrowUp,ArrowRight"":36,""ArrowDown,ArrowLeft"":15,""ArrowDown,ArrowRight"":23}","true","ArrowUp,ArrowRight","false","","","","","","","",""
"html-keyboard-response","72","389836","0.0-3.0-13.0-2.0-1.4","spark_pilot_2","7405","6","17","Male","","","","","","","null","<div style=""font-size:60px;"">+</div>","null","fixation","","","","","","","","","","","","","",""
"revaluation","73","395861","0.0-3.0-13.0-2.0-0.5","spark_pilot_2","7405","6","17","Male","","false","","","","","[380,400.5]","./assets/img/space/12.jpg","[""ArrowUp"",""ArrowRight""]","practice block","space","36","{""ArrowUp,ArrowLeft"":3,""ArrowUp,ArrowRight"":36,""ArrowDown,ArrowLeft"":15,""ArrowDown,ArrowRight"":23}","true","ArrowUp,ArrowRight","false","","","","","","","",""
"html-keyboard-response","74","396364","0.0-3.0-13.0-2.0-1.5","spark_pilot_2","7405","6","17","Male","","","","","","","null","<div style=""font-size:60px;"">+</div>","null","fixation","","","","","","","","","","","","","",""
"revaluation","75","402389","0.0-3.0-13.0-2.0-0.6","spark_pilot_2","7405","6","17","Male","","false","","","","","[342.20000000018626,339.59999999962747]","./assets/img/space/13.jpg","[""ArrowUp"",""ArrowRight""]","practice block","space","36","{""ArrowUp,ArrowLeft"":3,""ArrowUp,ArrowRight"":36,""ArrowDown,ArrowLeft"":15,""ArrowDown,ArrowRight"":23}","true","ArrowUp,ArrowRight","false","","","","","","","",""
"html-keyboard-response","76","402892","0.0-3.0-13.0-2.0-1.6","spark_pilot_2","7405","6","17","Male","","","","","","","null","<div style=""font-size:60px;"">+</div>","null","fixation","","","","","","","","","","","","","",""
"revaluation","77","408917","0.0-3.0-13.0-2.0-0.7","spark_pilot_2","7405","6","17","Male","","false","","","","","[552.7000000001863,374]","./assets/img/space/14.jpg","[""ArrowUp"",""ArrowRight""]","practice block","space","36","{""ArrowUp,ArrowLeft"":3,""ArrowUp,ArrowRight"":36,""ArrowDown,ArrowLeft"":15,""ArrowDown,ArrowRight"":23}","true","ArrowUp,ArrowRight","false","","","","","","","",""
"html-keyboard-response","78","409420","0.0-3.0-13.0-2.0-1.7","spark_pilot_2","7405","6","17","Male","","","","","","","null","<div style=""font-size:60px;"">+</div>","null","fixation","","","","","","","","","","","","","",""
"revaluation","79","413437","0.0-3.0-13.0-2.0-0.8","spark_pilot_2","7405","6","17","Male","","false","","","","","[628.3999999994412]","./assets/img/space/catch/3.jpg","[""spaceBar""]","practice block","space","0","{""ArrowUp,ArrowLeft"":3,""ArrowUp,ArrowRight"":36,""ArrowDown,ArrowLeft"":15,""ArrowDown,ArrowRight"":23}","true","spaceBar","true","","","","","","","",""
"html-keyboard-response","80","413940","0.0-3.0-13.0-2.0-1.8","spark_pilot_2","7405","6","17","Male","","","","","","","null","<div style=""font-size:60px;"">+</div>","null","fixation","","","","","","","","","","","","","",""
"learning-instructions","81","429027","0.0-3.0-13.0-3.0-0.0","spark_pilot_2","7405","6","17","Male","","","","","","","2087.2000000001863","<p> Now, you will travel with a friend who will choose whether you go up or down first. </p>
            <p> On these turns, you will just see the animal that they found. You will still get to choose which chest to search for treasure.</p>","","instructions","","","","","","","","","","","","","",""
"revaluation","82","433045","0.0-3.0-13.0-4.0-0.0","spark_pilot_2","7405","6","17","Male","","false","","","","","[1006.2000000001863]","./assets/img/space/animals/cat.jpg","[""ArrowRight""]","practice block","space","36","{""ArrowUp,ArrowLeft"":3,""ArrowUp,ArrowRight"":36,""ArrowDown,ArrowLeft"":15,""ArrowDown,ArrowRight"":23}","true","ArrowUp,ArrowRight","","","","","","","","",""
"html-keyboard-response","83","433549","0.0-3.0-13.0-4.0-1.0","spark_pilot_2","7405","6","17","Male","","","","","","","null","<div style=""font-size:60px;"">+</div>","null","fixation","","","","","","","","","","","","","",""
"revaluation","84","437565","0.0-3.0-13.0-4.0-0.1","spark_pilot_2","7405","6","17","Male","","false","","","","","[831.6000000005588]","./assets/img/space/animals/cat.jpg","[""ArrowRight""]","practice block","space","36","{""ArrowUp,ArrowLeft"":3,""ArrowUp,ArrowRight"":36,""ArrowDown,ArrowLeft"":15,""ArrowDown,ArrowRight"":23}","true","ArrowUp,ArrowRight","","","","","","","","",""
"html-keyboard-response","85","438068","0.0-3.0-13.0-4.0-1.1","spark_pilot_2","7405","6","17","Male","","","","","","","null","<div style=""font-size:60px;"">+</div>","null","fixation","","","","","","","","","","","","","",""
"revaluation","86","442085","0.0-3.0-13.0-4.0-0.2","spark_pilot_2","7405","6","17","Male","","false","","","","","[447.40000000037253]","./assets/img/space/animals/rabbit.jpg","[""ArrowRight""]","practice block","space","23","{""ArrowUp,ArrowLeft"":3,""ArrowUp,ArrowRight"":36,""ArrowDown,ArrowLeft"":15,""ArrowDown,ArrowRight"":23}","true","ArrowDown,ArrowRight","","","","","","","","",""
"html-keyboard-response","87","442588","0.0-3.0-13.0-4.0-1.2","spark_pilot_2","7405","6","17","Male","","","","","","","null","<div style=""font-size:60px;"">+</div>","null","fixation","","","","","","","","","","","","","",""
"revaluation","88","446605","0.0-3.0-13.0-4.0-0.3","spark_pilot_2","7405","6","17","Male","","false","","","","","[1464.300000000745]","./assets/img/space/animals/rabbit.jpg","[""ArrowLeft""]","practice block","space","15","{""ArrowUp,ArrowLeft"":3,""ArrowUp,ArrowRight"":36,""ArrowDown,ArrowLeft"":15,""ArrowDown,ArrowRight"":23}","false","ArrowDown,ArrowLeft","","","","","","","","",""
"html-keyboard-response","89","447108","0.0-3.0-13.0-4.0-1.3","spark_pilot_2","7405","6","17","Male","","","","","","","null","<div style=""font-size:60px;"">+</div>","null","fixation","","","","","","","","","","","","","",""
"learning-instructions","90","455811","0.0-3.0-13.0-5.0-0.0","spark_pilot_2","7405","6","17","Male","","","","","","","1319.3999999994412","<p> Time to play the dot game! </p>
            <p> For 15 seconds, click the red dots on the following screen as they appear. </p>","","instructions","","","","","","","","","","","","","",""
"revaluation","91","470819","0.0-3.0-13.0-6.0-0.0","spark_pilot_2","7405","6","17","Male","","","","","","","[75]","","","rest practice","","10","","","","","0","15000","","","","","",""
"learning-instructions","92","479057","0.0-3.0-13.0-7.0-0.0","spark_pilot_2","7405","6","17","Male","","","","","","","2101.7999999998137","<p> You have almost finished this part of the game! </p>
            <p> We are going to ask you to make a few more choices. </p>","","instructions","","","","","","","","","","","","","",""
"learning-instructions","93","494521","0.0-3.0-13.0-7.0-0.1","spark_pilot_2","7405","6","17","Male","","","","","","","1437.2999999998137","<p> First, you need to decide whether to go up or down. When you see each picture, use the arrow keys to make your choice. </p>
            <p><b>You will not see which animal you found, but try to get to the one that will give you the most treasure.</b></p>","","instructions","","","","","","","","","","","","","",""
"revaluation","94","495793","0.0-3.0-13.0-8.0","spark_pilot_2","7405","6","17","Male","","false","","","","","[1269.300000000745]","./assets/img/space/15.jpg","[""ArrowUp""]","practice block","space","0","{""ArrowUp,ArrowLeft"":3,""ArrowUp,ArrowRight"":36,""ArrowDown,ArrowLeft"":15,""ArrowDown,ArrowRight"":23}","true","ArrowUp","false","","","","","","","",""
"html-keyboard-response","95","496301","0.0-3.0-13.0-9.0","spark_pilot_2","7405","6","17","Male","","","","","","","null","<div style=""font-size:60px;"">+</div>","null","fixation","","","","","","","","","","","","","",""
"learning-instructions","96","509509","0.0-3.0-13.0-10.0-0.0","spark_pilot_2","7405","6","17","Male","","","","","","","1822.699999999255","<p> Now you will see the animals again and can search their chests for treasure. </p>
            <p> This time, you will not see how much treasure you earned, but you will earn more bonus money for making better choices. </p>","","instructions","","","","","","","","","","","","","",""
"revaluation","97","510491","0.0-3.0-13.0-11.0-0.0","spark_pilot_2","7405","6","17","Male","","false","","","","","[979]","./assets/img/space/animals/cat.jpg","[""ArrowRight""]","practice block","space","0","{""ArrowUp,ArrowLeft"":3,""ArrowUp,ArrowRight"":36,""ArrowDown,ArrowLeft"":15,""ArrowDown,ArrowRight"":23}","true","ArrowUp,ArrowRight","","","","","","","","",""
"html-keyboard-response","98","510996","0.0-3.0-13.0-11.0-1.0","spark_pilot_2","7405","6","17","Male","","","","","","","null","<div style=""font-size:60px;"">+</div>","null","fixation","","","","","","","","","","","","","",""
"revaluation","99","511990","0.0-3.0-13.0-11.0-0.1","spark_pilot_2","7405","6","17","Male","","false","","","","","[991.1000000005588]","./assets/img/space/animals/rabbit.jpg","[""ArrowRight""]","practice block","space","0","{""ArrowUp,ArrowLeft"":3,""ArrowUp,ArrowRight"":36,""ArrowDown,ArrowLeft"":15,""ArrowDown,ArrowRight"":23}","true","ArrowDown,ArrowRight","","","","","","","","",""
"html-keyboard-response","100","512492","0.0-3.0-13.0-11.0-1.1","spark_pilot_2","7405","6","17","Male","","","","","","","null","<div style=""font-size:60px;"">+</div>","null","fixation","","","","","","","","","","","","","",""
"learning-instructions","101","518465","0.0-3.0-14.0-0.0","spark_pilot_2","7405","6","17","Male","","","","","","","1381.4000000003725","<p> Before you start, we're going to ask you a few questions about how the game works. </p>","","instructions","","","","","","","","","","","","","",""
"comp-q","102","525085","0.0-3.0-15.0-0.0-0.0","spark_pilot_2","7405","6","17","Male","","","","","","","1022.4000000003725","<p> <b> True or False? </b> </p>
            <p> There can be 50 pieces of treasure in a given animal's chest. </p>","0","comp_question","","","","false","","","","","","","","","",""
"comp-q","103","532753","0.0-3.0-15.0-0.0-1.0","spark_pilot_2","7405","6","17","Male","","","","","","","1131","<p> <b>Incorrect.</b> The amount of treasure in each chest can range from 0 to 40 pieces. </p>","0","comp_answer","","","","","","","","","","","","","",""
"comp-q","104","539179","0.0-3.0-15.0-0.1-0.1","spark_pilot_2","7405","6","17","Male","","","","","","","858.0999999996275","<p> <b> True or False? </b> </p>
            <p> There can be 50 pieces of treasure in a given animal's chest. </p>","1","comp_question","","","","true","","","","","","","","","",""
"comp-q","105","547157","0.0-3.0-15.0-0.1-1.1","spark_pilot_2","7405","6","17","Male","","","","","","","1316.1000000005588","<p> <b> That's right! </b> The amount of treasure in each chest can range from 0 to 40 pieces. </p>","0","comp_answer","","","","","","","","","","","","","",""
"comp-q","106","555406","0.0-3.0-15.0-0.2-0.2","spark_pilot_2","7405","6","17","Male","","","","","","","1128.699999999255","<p> <b> True or False? </b> </p><p> In this game, all animals have the same amount of treasure in their left and right chests. </p>","1","comp_question","","","","true","","","","","","","","","",""
"comp-q","107","561794","0.0-3.0-15.0-0.2-1.2","spark_pilot_2","7405","6","17","Male","","","","","","","1148.7999999998137","<p> <b> That's right! </b> Animals have different amounts of treasure in their treasure chests. </p>","0","comp_answer","","","","","","","","","","","","","",""
"comp-q","108","568454","0.0-3.0-15.0-0.3-0.3","spark_pilot_2","7405","6","17","Male","","","","","","","800.6000000005588","<p> <b> True or False? </b> </p><p> The same animal will always be there if you go up in the same place. </p>","1","comp_question","","","","false","","","","","","","","","",""
"comp-q","109","576278","0.0-3.0-15.0-0.3-1.3","spark_pilot_2","7405","6","17","Male","","","","","","","1509.9000000003725","<p> <b>Incorrect.</b> One animal lives in the upper part and one lives in the lower part of every place. </p>","0","comp_answer","","","","","","","","","","","","","",""
"comp-q","110","582828","0.0-3.0-15.0-0.4-0.4","spark_pilot_2","7405","6","17","Male","","","","","","","731.7000000001863","<p> <b> True or False? </b> </p><p> The same animal will always be there if you go up in the same place. </p>","0","comp_question","","","","true","","","","","","","","","",""
"comp-q","111","590668","0.0-3.0-15.0-0.4-1.4","spark_pilot_2","7405","6","17","Male","","","","","","","1393.199999999255","<p> <b> That's right! </b> One animal lives in the upper part and one lives in the lower part of every place. </p>","0","comp_answer","","","","","","","","","","","","","",""
"comp-q","112","597407","0.0-3.0-15.0-0.5-0.5","spark_pilot_2","7405","6","17","Male","","","","","","","1208.7000000001863","<p> <b> True or False? </b> </p><p> If you see a different picture, it means you are in a new place. </p>","1","comp_question","","","","true","","","","","","","","","",""
"comp-q","113","609973","0.0-3.0-15.0-0.5-1.5","spark_pilot_2","7405","6","17","Male","","","","","","","1327.0999999996275","<p> <b> That's right! </b> Lots of different images may show the same place. For example,  you may see three different images that all remind you that you are in outer space. </p>","0","comp_answer","","","","","","","","","","","","","",""
"learning-instructions","114","621127","0.0-3.0-16.0-0.0","spark_pilot_2","7405","6","17","Male","","","","","","","1227.5999999996275","<p> Good job. Remember to do your best because the amount of treasure you earn will be converted into bonus money. </p>
            <p> It’s time to start the real game! </p>","","instructions","","","","","","","","","","","","","",""
"learning-instructions","115","625723","0.0-4.0-0.0-0.0","spark_pilot_2","7405","6","17","Male","","","","","","","1823.3999999994412","<p> This time you are searching for treasure in the <b>canyon</b>.</p>","","instructions","","","","","","","","","","","","","",""
"learning-instructions","116","644686","0.0-4.0-0.0-0.1","spark_pilot_2","7405","6","17","Male","","","","","","","1640.699999999255","<p><b>New</b> animals with <b>new</b> treasure chests live here. You need to explore to discover where the animal with the best treasure chest is.</p>
                    <p> Like before, once you figure out which animal has the chest with the most treasure, you should try to get to that animal and select that chest! </p>","","instructions","","","","","","","","","","","","","",""
"learning-instructions","117","660316","0.0-4.0-1.0-0.0","spark_pilot_2","7405","6","17","Male","","","","","","","897.2999999998137","<p> Remember, when you see a picture of the place, use the up and down keys to <b>find an animal</b>.</p>
            <p> When you encounter an animal, you should use the left and right keys to <b>select a treasure chest</b>.</p>
            <p> Don't forget to look out for the robber! </p>","","instructions","","","","","","","","","","","","","",""
"revaluation","118","666341","0.0-4.0-2.0-0.0","spark_pilot_2","7405","6","17","Male","","false","","","","","[1107.8999999994412,520.1000000005588]","./assets/img/canyon/memory/20.jpg","[""ArrowUp"",""ArrowRight""]","value training","canyon","10","{""ArrowUp,ArrowLeft"":23,""ArrowUp,ArrowRight"":10,""ArrowDown,ArrowLeft"":8,""ArrowDown,ArrowRight"":30}","false","ArrowUp,ArrowRight","false","","","revaluation","1","0","","",""
"html-keyboard-response","119","666852","0.0-4.0-2.0-1.0","spark_pilot_2","7405","6","17","Male","","","","","","","null","<div style=""font-size:60px;"">+</div>","null","fixation","","","","","","","","","","","1","","",""
"revaluation","120","672877","0.0-4.0-2.0-0.1","spark_pilot_2","7405","6","17","Male","","false","","","","","[958.3000000007451,649.5]","./assets/img/canyon/memory/18.jpg","[""ArrowUp"",""ArrowLeft""]","value training","canyon","23","{""ArrowUp,ArrowLeft"":23,""ArrowUp,ArrowRight"":10,""ArrowDown,ArrowLeft"":8,""ArrowDown,ArrowRight"":30}","false","ArrowUp,ArrowLeft","false","","","revaluation","1","2","","",""
"html-keyboard-response","121","673381","0.0-4.0-2.0-1.1","spark_pilot_2","7405","6","17","Male","","","","","","","null","<div style=""font-size:60px;"">+</div>","null","fixation","","","","","","","","","","","3","","",""
"revaluation","122","679405","0.0-4.0-2.0-0.2","spark_pilot_2","7405","6","17","Male","","false","","","","","[860.6999999992549,356.3999999994412]","./assets/img/canyon/memory/33.jpg","[""ArrowUp"",""ArrowLeft""]","value training","canyon","23","{""ArrowUp,ArrowLeft"":23,""ArrowUp,ArrowRight"":10,""ArrowDown,ArrowLeft"":8,""ArrowDown,ArrowRight"":30}","false","ArrowUp,ArrowLeft","false","","","revaluation","1","4","","",""
"html-keyboard-response","123","679909","0.0-4.0-2.0-1.2","spark_pilot_2","7405","6","17","Male","","","","","","","null","<div style=""font-size:60px;"">+</div>","null","fixation","","","","","","","","","","","5","","",""
"revaluation","124","685933","0.0-4.0-2.0-0.3","spark_pilot_2","7405","6","17","Male","","false","","","","","[788.5,537.2000000001863]","./assets/img/canyon/memory/1.jpg","[""ArrowDown"",""ArrowRight""]","value training","canyon","30","{""ArrowUp,ArrowLeft"":23,""ArrowUp,ArrowRight"":10,""ArrowDown,ArrowLeft"":8,""ArrowDown,ArrowRight"":30}","true","ArrowDown,ArrowRight","false","","","revaluation","1","6","","",""
"html-keyboard-response","125","686437","0.0-4.0-2.0-1.3","spark_pilot_2","7405","6","17","Male","","","","","","","null","<div style=""font-size:60px;"">+</div>","null","fixation","","","","","","","","","","","7","","",""
"revaluation","126","692460","0.0-4.0-2.0-0.4","spark_pilot_2","7405","6","17","Male","","false","","","","","[686.5999999996275,483.40000000037253]","./assets/img/canyon/memory/22.jpg","[""ArrowDown"",""ArrowRight""]","value training","canyon","30","{""ArrowUp,ArrowLeft"":23,""ArrowUp,ArrowRight"":10,""ArrowDown,ArrowLeft"":8,""ArrowDown,ArrowRight"":30}","true","ArrowDown,ArrowRight","false","","","revaluation","1","8","","",""
"html-keyboard-response","127","692964","0.0-4.0-2.0-1.4","spark_pilot_2","7405","6","17","Male","","","","","","","null","<div style=""font-size:60px;"">+</div>","null","fixation","","","","","","","","","","","9","","",""
"revaluation","128","698989","0.0-4.0-2.0-0.5","spark_pilot_2","7405","6","17","Male","","false","","","","","[353.79999999981374,424.19999999925494]","./assets/img/canyon/memory/25.jpg","[""ArrowDown"",""ArrowRight""]","value training","canyon","30","{""ArrowUp,ArrowLeft"":23,""ArrowUp,ArrowRight"":10,""ArrowDown,ArrowLeft"":8,""ArrowDown,ArrowRight"":30}","true","ArrowDown,ArrowRight","false","","","revaluation","1","10","","",""
"html-keyboard-response","129","699493","0.0-4.0-2.0-1.5","spark_pilot_2","7405","6","17","Male","","","","","","","null","<div style=""font-size:60px;"">+</div>","null","fixation","","","","","","","","","","","11","","",""
"revaluation","130","703509","0.0-4.0-2.0-0.6","spark_pilot_2","7405","6","17","Male","","false","","","","","[727.3999999994412]","./assets/img/canyon/catch/1.jpg","[""ArrowDown""]","value training","canyon","-10","{""ArrowUp,ArrowLeft"":23,""ArrowUp,ArrowRight"":10,""ArrowDown,ArrowLeft"":8,""ArrowDown,ArrowRight"":30}","false","ArrowDown","true","","","revaluation","1","12","","",""
"html-keyboard-response","131","704013","0.0-4.0-2.0-1.6","spark_pilot_2","7405","6","17","Male","","","","","","","null","<div style=""font-size:60px;"">+</div>","null","fixation","","","","","","","","","","","13","","",""
"revaluation","132","710037","0.0-4.0-2.0-0.7","spark_pilot_2","7405","6","17","Male","","false","","","","","[511.90000000037253,479]","./assets/img/canyon/memory/4.jpg","[""ArrowDown"",""ArrowRight""]","value training","canyon","30","{""ArrowUp,ArrowLeft"":23,""ArrowUp,ArrowRight"":10,""ArrowDown,ArrowLeft"":8,""ArrowDown,ArrowRight"":30}","true","ArrowDown,ArrowRight","false","","","revaluation","1","14","","",""
"html-keyboard-response","133","710540","0.0-4.0-2.0-1.7","spark_pilot_2","7405","6","17","Male","","","","","","","null","<div style=""font-size:60px;"">+</div>","null","fixation","","","","","","","","","","","15","","",""
"revaluation","134","716565","0.0-4.0-2.0-0.8","spark_pilot_2","7405","6","17","Male","","false","","","","","[513.2999999998137,550]","./assets/img/canyon/memory/17.jpg","[""ArrowDown"",""ArrowRight""]","value training","canyon","30","{""ArrowUp,ArrowLeft"":23,""ArrowUp,ArrowRight"":10,""ArrowDown,ArrowLeft"":8,""ArrowDown,ArrowRight"":30}","true","ArrowDown,ArrowRight","false","","","revaluation","1","16","","",""
"html-keyboard-response","135","717068","0.0-4.0-2.0-1.8","spark_pilot_2","7405","6","17","Male","","","","","","","null","<div style=""font-size:60px;"">+</div>","null","fixation","","","","","","","","","","","17","","",""
"revaluation","136","723093","0.0-4.0-2.0-0.9","spark_pilot_2","7405","6","17","Male","","false","","","","","[534.7000000001863,402.1000000005588]","./assets/img/canyon/memory/0.jpg","[""ArrowDown"",""ArrowRight""]","value training","canyon","30","{""ArrowUp,ArrowLeft"":23,""ArrowUp,ArrowRight"":10,""ArrowDown,ArrowLeft"":8,""ArrowDown,ArrowRight"":30}","true","ArrowDown,ArrowRight","false","","","revaluation","1","18","","",""
"html-keyboard-response","137","723596","0.0-4.0-2.0-1.9","spark_pilot_2","7405","6","17","Male","","","","","","","null","<div style=""font-size:60px;"">+</div>","null","fixation","","","","","","","","","","","19","","",""
"revaluation","138","729621","0.0-4.0-2.0-0.10","spark_pilot_2","7405","6","17","Male","","false","","","","","[363,362]","./assets/img/canyon/memory/33.jpg","[""ArrowDown"",""ArrowRight""]","value training","canyon","30","{""ArrowUp,ArrowLeft"":23,""ArrowUp,ArrowRight"":10,""ArrowDown,ArrowLeft"":8,""ArrowDown,ArrowRight"":30}","true","ArrowDown,ArrowRight","false","","","revaluation","1","20","","",""
"html-keyboard-response","139","730124","0.0-4.0-2.0-1.10","spark_pilot_2","7405","6","17","Male","","","","","","","null","<div style=""font-size:60px;"">+</div>","null","fixation","","","","","","","","","","","21","","",""
"revaluation","140","736149","0.0-4.0-2.0-0.11","spark_pilot_2","7405","6","17","Male","","false","","","","","[364.79999999981374,401.79999999981374]","./assets/img/canyon/memory/37.jpg","[""ArrowDown"",""ArrowRight""]","value training","canyon","30","{""ArrowUp,ArrowLeft"":23,""ArrowUp,ArrowRight"":10,""ArrowDown,ArrowLeft"":8,""ArrowDown,ArrowRight"":30}","true","ArrowDown,ArrowRight","false","","","revaluation","1","22","","",""
"html-keyboard-response","141","736652","0.0-4.0-2.0-1.11","spark_pilot_2","7405","6","17","Male","","","","","","","null","<div style=""font-size:60px;"">+</div>","null","fixation","","","","","","","","","","","23","","",""
"revaluation","142","742677","0.0-4.0-2.0-0.12","spark_pilot_2","7405","6","17","Male","","false","","","","","[710.4000000003725,561]","./assets/img/canyon/memory/0.jpg","[""ArrowDown"",""ArrowRight""]","value training","canyon","30","{""ArrowUp,ArrowLeft"":23,""ArrowUp,ArrowRight"":10,""ArrowDown,ArrowLeft"":8,""ArrowDown,ArrowRight"":30}","true","ArrowDown,ArrowRight","false","","","revaluation","1","24","","",""
"html-keyboard-response","143","743180","0.0-4.0-2.0-1.12","spark_pilot_2","7405","6","17","Male","","","","","","","null","<div style=""font-size:60px;"">+</div>","null","fixation","","","","","","","","","","","25","","",""
"revaluation","144","749205","0.0-4.0-2.0-0.13","spark_pilot_2","7405","6","17","Male","","false","","","","","[537.1999999992549,432.19999999925494]","./assets/img/canyon/memory/28.jpg","[""ArrowDown"",""ArrowRight""]","value training","canyon","30","{""ArrowUp,ArrowLeft"":23,""ArrowUp,ArrowRight"":10,""ArrowDown,ArrowLeft"":8,""ArrowDown,ArrowRight"":30}","true","ArrowDown,ArrowRight","false","","","revaluation","1","26","","",""
"html-keyboard-response","145","749708","0.0-4.0-2.0-1.13","spark_pilot_2","7405","6","17","Male","","","","","","","null","<div style=""font-size:60px;"">+</div>","null","fixation","","","","","","","","","","","27","","",""
"revaluation","146","755733","0.0-4.0-2.0-0.14","spark_pilot_2","7405","6","17","Male","","false","","","","","[572.1000000005588,426]","./assets/img/canyon/memory/10.jpg","[""ArrowDown"",""ArrowLeft""]","value training","canyon","8","{""ArrowUp,ArrowLeft"":23,""ArrowUp,ArrowRight"":10,""ArrowDown,ArrowLeft"":8,""ArrowDown,ArrowRight"":30}","false","ArrowDown,ArrowLeft","false","","","revaluation","1","28","","",""
"html-keyboard-response","147","756236","0.0-4.0-2.0-1.14","spark_pilot_2","7405","6","17","Male","","","","","","","null","<div style=""font-size:60px;"">+</div>","null","fixation","","","","","","","","","","","29","","",""
"revaluation","148","760253","0.0-4.0-2.0-0.15","spark_pilot_2","7405","6","17","Male","","false","","","","","[541.5]","./assets/img/canyon/catch/7.jpg","[""spaceBar""]","value training","canyon","0","{""ArrowUp,ArrowLeft"":23,""ArrowUp,ArrowRight"":10,""ArrowDown,ArrowLeft"":8,""ArrowDown,ArrowRight"":30}","true","spaceBar","true","","","revaluation","1","30","","",""
"html-keyboard-response","149","760756","0.0-4.0-2.0-1.15","spark_pilot_2","7405","6","17","Male","","","","","","","null","<div style=""font-size:60px;"">+</div>","null","fixation","","","","","","","","","","","31","","",""
"revaluation","150","764773","0.0-4.0-2.0-0.16","spark_pilot_2","7405","6","17","Male","","false","","","","","[682.8000000007451]","./assets/img/canyon/catch/3.jpg","[""spaceBar""]","value training","canyon","0","{""ArrowUp,ArrowLeft"":23,""ArrowUp,ArrowRight"":10,""ArrowDown,ArrowLeft"":8,""ArrowDown,ArrowRight"":30}","true","spaceBar","true","","","revaluation","1","32","","",""
"html-keyboard-response","151","765277","0.0-4.0-2.0-1.16","spark_pilot_2","7405","6","17","Male","","","","","","","null","<div style=""font-size:60px;"">+</div>","null","fixation","","","","","","","","","","","33","","",""
"revaluation","152","771301","0.0-4.0-2.0-0.17","spark_pilot_2","7405","6","17","Male","","false","","","","","[503.20000000018626,389.3999999994412]","./assets/img/canyon/memory/21.jpg","[""ArrowDown"",""ArrowRight""]","value training","canyon","30","{""ArrowUp,ArrowLeft"":23,""ArrowUp,ArrowRight"":10,""ArrowDown,ArrowLeft"":8,""ArrowDown,ArrowRight"":30}","true","ArrowDown,ArrowRight","false","","","revaluation","1","34","","",""
"html-keyboard-response","153","771805","0.0-4.0-2.0-1.17","spark_pilot_2","7405","6","17","Male","","","","","","","null","<div style=""font-size:60px;"">+</div>","null","fixation","","","","","","","","","","","35","","",""
"revaluation","154","777829","0.0-4.0-2.0-0.18","spark_pilot_2","7405","6","17","Male","","false","","","","","[475.90000000037253,417.90000000037253]","./assets/img/canyon/memory/4.jpg","[""ArrowDown"",""ArrowRight""]","value training","canyon","30","{""ArrowUp,ArrowLeft"":23,""ArrowUp,ArrowRight"":10,""ArrowDown,ArrowLeft"":8,""ArrowDown,ArrowRight"":30}","true","ArrowDown,ArrowRight","false","","","revaluation","1","36","","",""
"html-keyboard-response","155","778332","0.0-4.0-2.0-1.18","spark_pilot_2","7405","6","17","Male","","","","","","","null","<div style=""font-size:60px;"">+</div>","null","fixation","","","","","","","","","","","37","","",""
"revaluation","156","784357","0.0-4.0-2.0-0.19","spark_pilot_2","7405","6","17","Male","","false","","","","","[364.5,395.5]","./assets/img/canyon/memory/10.jpg","[""ArrowDown"",""ArrowRight""]","value training","canyon","30","{""ArrowUp,ArrowLeft"":23,""ArrowUp,ArrowRight"":10,""ArrowDown,ArrowLeft"":8,""ArrowDown,ArrowRight"":30}","true","ArrowDown,ArrowRight","false","","","revaluation","1","38","","",""
"html-keyboard-response","157","784861","0.0-4.0-2.0-1.19","spark_pilot_2","7405","6","17","Male","","","","","","","null","<div style=""font-size:60px;"">+</div>","null","fixation","","","","","","","","","","","39","","",""
"revaluation","158","790885","0.0-4.0-2.0-0.20","spark_pilot_2","7405","6","17","Male","","false","","","","","[451.29999999981374,548.5]","./assets/img/canyon/memory/26.jpg","[""ArrowDown"",""ArrowRight""]","value training","canyon","30","{""ArrowUp,ArrowLeft"":23,""ArrowUp,ArrowRight"":10,""ArrowDown,ArrowLeft"":8,""ArrowDown,ArrowRight"":30}","true","ArrowDown,ArrowRight","false","","","revaluation","1","40","","",""
"html-keyboard-response","159","791389","0.0-4.0-2.0-1.20","spark_pilot_2","7405","6","17","Male","","","","","","","null","<div style=""font-size:60px;"">+</div>","null","fixation","","","","","","","","","","","41","","",""
"revaluation","160","795404","0.0-4.0-2.0-0.21","spark_pilot_2","7405","6","17","Male","","false","","","","","[463.79999999981374]","./assets/img/canyon/catch/5.jpg","[""ArrowDown""]","value training","canyon","-10","{""ArrowUp,ArrowLeft"":23,""ArrowUp,ArrowRight"":10,""ArrowDown,ArrowLeft"":8,""ArrowDown,ArrowRight"":30}","false","ArrowDown","true","","","revaluation","1","42","","",""
"html-keyboard-response","161","795908","0.0-4.0-2.0-1.21","spark_pilot_2","7405","6","17","Male","","","","","","","null","<div style=""font-size:60px;"">+</div>","null","fixation","","","","","","","","","","","43","","",""
"revaluation","162","801933","0.0-4.0-2.0-0.22","spark_pilot_2","7405","6","17","Male","","false","","","","","[560.2000000001863,418.20000000018626]","./assets/img/canyon/memory/11.jpg","[""ArrowDown"",""ArrowRight""]","value training","canyon","30","{""ArrowUp,ArrowLeft"":23,""ArrowUp,ArrowRight"":10,""ArrowDown,ArrowLeft"":8,""ArrowDown,ArrowRight"":30}","true","ArrowDown,ArrowRight","false","","","revaluation","1","44","","",""
"html-keyboard-response","163","802437","0.0-4.0-2.0-1.22","spark_pilot_2","7405","6","17","Male","","","","","","","null","<div style=""font-size:60px;"">+</div>","null","fixation","","","","","","","","","","","45","","",""
"revaluation","164","806453","0.0-4.0-2.0-0.23","spark_pilot_2","7405","6","17","Male","","false","","","","","[434.09999999962747]","./assets/img/canyon/catch/6.jpg","[""spaceBar""]","value training","canyon","0","{""ArrowUp,ArrowLeft"":23,""ArrowUp,ArrowRight"":10,""ArrowDown,ArrowLeft"":8,""ArrowDown,ArrowRight"":30}","true","spaceBar","true","","","revaluation","1","46","","",""
"html-keyboard-response","165","806956","0.0-4.0-2.0-1.23","spark_pilot_2","7405","6","17","Male","","","","","","","null","<div style=""font-size:60px;"">+</div>","null","fixation","","","","","","","","","","","47","","",""
"revaluation","166","812981","0.0-4.0-2.0-0.24","spark_pilot_2","7405","6","17","Male","","false","","","","","[512.0999999996275,425.20000000018626]","./assets/img/canyon/memory/24.jpg","[""ArrowUp"",""ArrowRight""]","value training","canyon","10","{""ArrowUp,ArrowLeft"":23,""ArrowUp,ArrowRight"":10,""ArrowDown,ArrowLeft"":8,""ArrowDown,ArrowRight"":30}","false","ArrowUp,ArrowRight","false","","","revaluation","1","48","","",""
"html-keyboard-response","167","813484","0.0-4.0-2.0-1.24","spark_pilot_2","7405","6","17","Male","","","","","","","null","<div style=""font-size:60px;"">+</div>","null","fixation","","","","","","","","","","","49","","",""
"revaluation","168","819509","0.0-4.0-2.0-0.25","spark_pilot_2","7405","6","17","Male","","false","","","","","[595.5999999996275,483.20000000018626]","./assets/img/canyon/memory/3.jpg","[""ArrowUp"",""ArrowLeft""]","value training","canyon","23","{""ArrowUp,ArrowLeft"":23,""ArrowUp,ArrowRight"":10,""ArrowDown,ArrowLeft"":8,""ArrowDown,ArrowRight"":30}","false","ArrowUp,ArrowLeft","false","","","revaluation","1","50","","",""
"html-keyboard-response","169","820013","0.0-4.0-2.0-1.25","spark_pilot_2","7405","6","17","Male","","","","","","","null","<div style=""font-size:60px;"">+</div>","null","fixation","","","","","","","","","","","51","","",""
"revaluation","170","826037","0.0-4.0-2.0-0.26","spark_pilot_2","7405","6","17","Male","","false","","","","","[637.1000000005588,939.6999999992549]","./assets/img/canyon/memory/37.jpg","[""ArrowDown"",""ArrowRight""]","value training","canyon","30","{""ArrowUp,ArrowLeft"":23,""ArrowUp,ArrowRight"":10,""ArrowDown,ArrowLeft"":8,""ArrowDown,ArrowRight"":30}","true","ArrowDown,ArrowRight","false","","","revaluation","1","52","","",""
"html-keyboard-response","171","826540","0.0-4.0-2.0-1.26","spark_pilot_2","7405","6","17","Male","","","","","","","null","<div style=""font-size:60px;"">+</div>","null","fixation","","","","","","","","","","","53","","",""
"revaluation","172","832565","0.0-4.0-2.0-0.27","spark_pilot_2","7405","6","17","Male","","false","","","","","[404.29999999981374,454.09999999962747]","./assets/img/canyon/memory/11.jpg","[""ArrowDown"",""ArrowRight""]","value training","canyon","30","{""ArrowUp,ArrowLeft"":23,""ArrowUp,ArrowRight"":10,""ArrowDown,ArrowLeft"":8,""ArrowDown,ArrowRight"":30}","true","ArrowDown,ArrowRight","false","","","revaluation","1","54","","",""
"html-keyboard-response","173","833069","0.0-4.0-2.0-1.27","spark_pilot_2","7405","6","17","Male","","","","","","","null","<div style=""font-size:60px;"">+</div>","null","fixation","","","","","","","","","","","55","","",""
"revaluation","174","839093","0.0-4.0-2.0-0.28","spark_pilot_2","7405","6","17","Male","","false","","","","","[554,593.8999999994412]","./assets/img/canyon/memory/12.jpg","[""ArrowDown"",""ArrowRight""]","value training","canyon","30","{""ArrowUp,ArrowLeft"":23,""ArrowUp,ArrowRight"":10,""ArrowDown,ArrowLeft"":8,""ArrowDown,ArrowRight"":30}","true","ArrowDown,ArrowRight","false","","","revaluation","1","56","","",""
"html-keyboard-response","175","839596","0.0-4.0-2.0-1.28","spark_pilot_2","7405","6","17","Male","","","","","","","null","<div style=""font-size:60px;"">+</div>","null","fixation","","","","","","","","","","","57","","",""
"revaluation","176","845621","0.0-4.0-2.0-0.29","spark_pilot_2","7405","6","17","Male","","false","","","","","[437.19999999925494,403.8999999994412]","./assets/img/canyon/memory/28.jpg","[""ArrowDown"",""ArrowRight""]","value training","canyon","30","{""ArrowUp,ArrowLeft"":23,""ArrowUp,ArrowRight"":10,""ArrowDown,ArrowLeft"":8,""ArrowDown,ArrowRight"":30}","true","ArrowDown,ArrowRight","false","","","revaluation","1","58","","",""
"html-keyboard-response","177","846128","0.0-4.0-2.0-1.29","spark_pilot_2","7405","6","17","Male","","","","","","","null","<div style=""font-size:60px;"">+</div>","null","fixation","","","","","","","","","","","59","","",""
"revaluation","178","850141","0.0-4.0-2.0-0.30","spark_pilot_2","7405","6","17","Male","","false","","","","","[558.2999999998137]","./assets/img/canyon/catch/4.jpg","[""spaceBar""]","value training","canyon","0","{""ArrowUp,ArrowLeft"":23,""ArrowUp,ArrowRight"":10,""ArrowDown,ArrowLeft"":8,""ArrowDown,ArrowRight"":30}","true","spaceBar","true","","","revaluation","1","60","","",""
"html-keyboard-response","179","850644","0.0-4.0-2.0-1.30","spark_pilot_2","7405","6","17","Male","","","","","","","null","<div style=""font-size:60px;"">+</div>","null","fixation","","","","","","","","","","","61","","",""
"revaluation","180","856669","0.0-4.0-2.0-0.31","spark_pilot_2","7405","6","17","Male","","false","","","","","[723.1999999992549,612]","./assets/img/canyon/memory/8.jpg","[""ArrowDown"",""ArrowRight""]","value training","canyon","30","{""ArrowUp,ArrowLeft"":23,""ArrowUp,ArrowRight"":10,""ArrowDown,ArrowLeft"":8,""ArrowDown,ArrowRight"":30}","true","ArrowDown,ArrowRight","false","","","revaluation","1","62","","",""
"html-keyboard-response","181","857173","0.0-4.0-2.0-1.31","spark_pilot_2","7405","6","17","Male","","","","","","","null","<div style=""font-size:60px;"">+</div>","null","fixation","","","","","","","","","","","63","","",""
"revaluation","182","863197","0.0-4.0-2.0-0.32","spark_pilot_2","7405","6","17","Male","","false","","","","","[454.8999999994412,483.29999999981374]","./assets/img/canyon/memory/3.jpg","[""ArrowDown"",""ArrowRight""]","value training","canyon","30","{""ArrowUp,ArrowLeft"":23,""ArrowUp,ArrowRight"":10,""ArrowDown,ArrowLeft"":8,""ArrowDown,ArrowRight"":30}","true","ArrowDown,ArrowRight","false","","","revaluation","1","64","","",""
"html-keyboard-response","183","863700","0.0-4.0-2.0-1.32","spark_pilot_2","7405","6","17","Male","","","","","","","null","<div style=""font-size:60px;"">+</div>","null","fixation","","","","","","","","","","","65","","",""
"revaluation","184","869725","0.0-4.0-2.0-0.33","spark_pilot_2","7405","6","17","Male","","false","","","","","[428.59999999962747,448.8999999994412]","./assets/img/canyon/memory/41.jpg","[""ArrowDown"",""ArrowRight""]","value training","canyon","30","{""ArrowUp,ArrowLeft"":23,""ArrowUp,ArrowRight"":10,""ArrowDown,ArrowLeft"":8,""ArrowDown,ArrowRight"":30}","true","ArrowDown,ArrowRight","false","","","revaluation","1","66","","",""
"html-keyboard-response","185","870228","0.0-4.0-2.0-1.33","spark_pilot_2","7405","6","17","Male","","","","","","","null","<div style=""font-size:60px;"">+</div>","null","fixation","","","","","","","","","","","67","","",""
"revaluation","186","876253","0.0-4.0-2.0-0.34","spark_pilot_2","7405","6","17","Male","","false","","","","","[419.30000000074506,493.40000000037253]","./assets/img/canyon/memory/18.jpg","[""ArrowDown"",""ArrowRight""]","value training","canyon","30","{""ArrowUp,ArrowLeft"":23,""ArrowUp,ArrowRight"":10,""ArrowDown,ArrowLeft"":8,""ArrowDown,ArrowRight"":30}","true","ArrowDown,ArrowRight","false","","","revaluation","1","68","","",""
"html-keyboard-response","187","876756","0.0-4.0-2.0-1.34","spark_pilot_2","7405","6","17","Male","","","","","","","null","<div style=""font-size:60px;"">+</div>","null","fixation","","","","","","","","","","","69","","",""
"revaluation","188","882781","0.0-4.0-2.0-0.35","spark_pilot_2","7405","6","17","Male","","false","","","","","[414.1000000005588,508.5]","./assets/img/canyon/memory/41.jpg","[""ArrowDown"",""ArrowRight""]","value training","canyon","30","{""ArrowUp,ArrowLeft"":23,""ArrowUp,ArrowRight"":10,""ArrowDown,ArrowLeft"":8,""ArrowDown,ArrowRight"":30}","true","ArrowDown,ArrowRight","false","","","revaluation","1","70","","",""
"html-keyboard-response","189","883285","0.0-4.0-2.0-1.35","spark_pilot_2","7405","6","17","Male","","","","","","","null","<div style=""font-size:60px;"">+</div>","null","fixation","","","","","","","","","","","71","","",""
"revaluation","190","889309","0.0-4.0-2.0-0.36","spark_pilot_2","7405","6","17","Male","","false","","","","","[354.1000000005588,445.40000000037253]","./assets/img/canyon/memory/20.jpg","[""ArrowDown"",""ArrowRight""]","value training","canyon","30","{""ArrowUp,ArrowLeft"":23,""ArrowUp,ArrowRight"":10,""ArrowDown,ArrowLeft"":8,""ArrowDown,ArrowRight"":30}","true","ArrowDown,ArrowRight","false","","","revaluation","1","72","","",""
"html-keyboard-response","191","889812","0.0-4.0-2.0-1.36","spark_pilot_2","7405","6","17","Male","","","","","","","null","<div style=""font-size:60px;"">+</div>","null","fixation","","","","","","","","","","","73","","",""
"revaluation","192","895837","0.0-4.0-2.0-0.37","spark_pilot_2","7405","6","17","Male","","false","","","","","[487.29999999981374,459]","./assets/img/canyon/memory/21.jpg","[""ArrowDown"",""ArrowRight""]","value training","canyon","30","{""ArrowUp,ArrowLeft"":23,""ArrowUp,ArrowRight"":10,""ArrowDown,ArrowLeft"":8,""ArrowDown,ArrowRight"":30}","true","ArrowDown,ArrowRight","false","","","revaluation","1","74","","",""
"html-keyboard-response","193","896341","0.0-4.0-2.0-1.37","spark_pilot_2","7405","6","17","Male","","","","","","","null","<div style=""font-size:60px;"">+</div>","null","fixation","","","","","","","","","","","75","","",""
"revaluation","194","902365","0.0-4.0-2.0-0.38","spark_pilot_2","7405","6","17","Male","","false","","","","","[477,507.5]","./assets/img/canyon/memory/5.jpg","[""ArrowDown"",""ArrowRight""]","value training","canyon","30","{""ArrowUp,ArrowLeft"":23,""ArrowUp,ArrowRight"":10,""ArrowDown,ArrowLeft"":8,""ArrowDown,ArrowRight"":30}","true","ArrowDown,ArrowRight","false","","","revaluation","1","76","","",""
"html-keyboard-response","195","902868","0.0-4.0-2.0-1.38","spark_pilot_2","7405","6","17","Male","","","","","","","null","<div style=""font-size:60px;"">+</div>","null","fixation","","","","","","","","","","","77","","",""
"revaluation","196","908893","0.0-4.0-2.0-0.39","spark_pilot_2","7405","6","17","Male","","false","","","","","[436,491.40000000037253]","./assets/img/canyon/memory/5.jpg","[""ArrowDown"",""ArrowRight""]","value training","canyon","30","{""ArrowUp,ArrowLeft"":23,""ArrowUp,ArrowRight"":10,""ArrowDown,ArrowLeft"":8,""ArrowDown,ArrowRight"":30}","true","ArrowDown,ArrowRight","false","","","revaluation","1","78","","",""
"html-keyboard-response","197","909397","0.0-4.0-2.0-1.39","spark_pilot_2","7405","6","17","Male","","","","","","","null","<div style=""font-size:60px;"">+</div>","null","fixation","","","","","","","","","","","79","","",""
"revaluation","198","913413","0.0-4.0-2.0-0.40","spark_pilot_2","7405","6","17","Male","","false","","","","","[435.8999999994412]","./assets/img/canyon/catch/2.jpg","[""ArrowDown""]","value training","canyon","-10","{""ArrowUp,ArrowLeft"":23,""ArrowUp,ArrowRight"":10,""ArrowDown,ArrowLeft"":8,""ArrowDown,ArrowRight"":30}","false","ArrowDown","true","","","revaluation","1","80","","",""
"html-keyboard-response","199","913917","0.0-4.0-2.0-1.40","spark_pilot_2","7405","6","17","Male","","","","","","","null","<div style=""font-size:60px;"">+</div>","null","fixation","","","","","","","","","","","81","","",""
"revaluation","200","919941","0.0-4.0-2.0-0.41","spark_pilot_2","7405","6","17","Male","","false","","","","","[530.8000000007451,358.79999999981374]","./assets/img/canyon/memory/25.jpg","[""ArrowDown"",""ArrowRight""]","value training","canyon","30","{""ArrowUp,ArrowLeft"":23,""ArrowUp,ArrowRight"":10,""ArrowDown,ArrowLeft"":8,""ArrowDown,ArrowRight"":30}","true","ArrowDown,ArrowRight","false","","","revaluation","1","82","","",""
"html-keyboard-response","201","920444","0.0-4.0-2.0-1.41","spark_pilot_2","7405","6","17","Male","","","","","","","null","<div style=""font-size:60px;"">+</div>","null","fixation","","","","","","","","","","","83","","",""
"revaluation","202","926469","0.0-4.0-2.0-0.42","spark_pilot_2","7405","6","17","Male","","false","","","","","[478.40000000037253,393.79999999981374]","./assets/img/canyon/memory/22.jpg","[""ArrowDown"",""ArrowRight""]","value training","canyon","30","{""ArrowUp,ArrowLeft"":23,""ArrowUp,ArrowRight"":10,""ArrowDown,ArrowLeft"":8,""ArrowDown,ArrowRight"":30}","true","ArrowDown,ArrowRight","false","","","revaluation","1","84","","",""
"html-keyboard-response","203","926972","0.0-4.0-2.0-1.42","spark_pilot_2","7405","6","17","Male","","","","","","","null","<div style=""font-size:60px;"">+</div>","null","fixation","","","","","","","","","","","85","","",""
"revaluation","204","932997","0.0-4.0-2.0-0.43","spark_pilot_2","7405","6","17","Male","","false","","","","","[480.3999999994412,377.5]","./assets/img/canyon/memory/1.jpg","[""ArrowDown"",""ArrowRight""]","value training","canyon","30","{""ArrowUp,ArrowLeft"":23,""ArrowUp,ArrowRight"":10,""ArrowDown,ArrowLeft"":8,""ArrowDown,ArrowRight"":30}","true","ArrowDown,ArrowRight","false","","","revaluation","1","86","","",""
"html-keyboard-response","205","933500","0.0-4.0-2.0-1.43","spark_pilot_2","7405","6","17","Male","","","","","","","null","<div style=""font-size:60px;"">+</div>","null","fixation","","","","","","","","","","","87","","",""
"revaluation","206","939525","0.0-4.0-2.0-0.44","spark_pilot_2","7405","6","17","Male","","false","","","","","[492,655.2000000001863]","./assets/img/canyon/memory/12.jpg","[""ArrowDown"",""ArrowRight""]","value training","canyon","30","{""ArrowUp,ArrowLeft"":23,""ArrowUp,ArrowRight"":10,""ArrowDown,ArrowLeft"":8,""ArrowDown,ArrowRight"":30}","true","ArrowDown,ArrowRight","false","","","revaluation","1","88","","",""
"html-keyboard-response","207","940029","0.0-4.0-2.0-1.44","spark_pilot_2","7405","6","17","Male","","","","","","","null","<div style=""font-size:60px;"">+</div>","null","fixation","","","","","","","","","","","89","","",""
"revaluation","208","946053","0.0-4.0-2.0-0.45","spark_pilot_2","7405","6","17","Male","","false","","","","","[519.2000000001863,589.3999999994412]","./assets/img/canyon/memory/26.jpg","[""ArrowDown"",""ArrowRight""]","value training","canyon","30","{""ArrowUp,ArrowLeft"":23,""ArrowUp,ArrowRight"":10,""ArrowDown,ArrowLeft"":8,""ArrowDown,ArrowRight"":30}","true","ArrowDown,ArrowRight","false","","","revaluation","1","90","","",""
"html-keyboard-response","209","946557","0.0-4.0-2.0-1.45","spark_pilot_2","7405","6","17","Male","","","","","","","null","<div style=""font-size:60px;"">+</div>","null","fixation","","","","","","","","","","","91","","",""
"revaluation","210","950573","0.0-4.0-2.0-0.46","spark_pilot_2","7405","6","17","Male","","false","","","","","[587.5999999996275]","./assets/img/canyon/catch/0.jpg","[""spaceBar""]","value training","canyon","0","{""ArrowUp,ArrowLeft"":23,""ArrowUp,ArrowRight"":10,""ArrowDown,ArrowLeft"":8,""ArrowDown,ArrowRight"":30}","true","spaceBar","true","","","revaluation","1","92","","",""
"html-keyboard-response","211","951076","0.0-4.0-2.0-1.46","spark_pilot_2","7405","6","17","Male","","","","","","","null","<div style=""font-size:60px;"">+</div>","null","fixation","","","","","","","","","","","93","","",""
"revaluation","212","957101","0.0-4.0-2.0-0.47","spark_pilot_2","7405","6","17","Male","","false","","","","","[555.2000000001863,498.20000000018626]","./assets/img/canyon/memory/24.jpg","[""ArrowDown"",""ArrowRight""]","value training","canyon","30","{""ArrowUp,ArrowLeft"":23,""ArrowUp,ArrowRight"":10,""ArrowDown,ArrowLeft"":8,""ArrowDown,ArrowRight"":30}","true","ArrowDown,ArrowRight","false","","","revaluation","1","94","","",""
"html-keyboard-response","213","957605","0.0-4.0-2.0-1.47","spark_pilot_2","7405","6","17","Male","","","","","","","null","<div style=""font-size:60px;"">+</div>","null","fixation","","","","","","","","","","","95","","",""
"revaluation","214","963629","0.0-4.0-2.0-0.48","spark_pilot_2","7405","6","17","Male","","false","","","","","[503.20000000018626,464.5]","./assets/img/canyon/memory/8.jpg","[""ArrowDown"",""ArrowRight""]","value training","canyon","30","{""ArrowUp,ArrowLeft"":23,""ArrowUp,ArrowRight"":10,""ArrowDown,ArrowLeft"":8,""ArrowDown,ArrowRight"":30}","true","ArrowDown,ArrowRight","false","","","revaluation","1","96","","",""
"html-keyboard-response","215","964133","0.0-4.0-2.0-1.48","spark_pilot_2","7405","6","17","Male","","","","","","","null","<div style=""font-size:60px;"">+</div>","null","fixation","","","","","","","","","","","97","","",""
"revaluation","216","970157","0.0-4.0-2.0-0.49","spark_pilot_2","7405","6","17","Male","","false","","","","","[398.20000000018626,474]","./assets/img/canyon/memory/17.jpg","[""ArrowDown"",""ArrowRight""]","value training","canyon","30","{""ArrowUp,ArrowLeft"":23,""ArrowUp,ArrowRight"":10,""ArrowDown,ArrowLeft"":8,""ArrowDown,ArrowRight"":30}","true","ArrowDown,ArrowRight","false","","","revaluation","1","98","","",""
"html-keyboard-response","217","970661","0.0-4.0-2.0-1.49","spark_pilot_2","7405","6","17","Male","","","","","","","null","<div style=""font-size:60px;"">+</div>","null","fixation","","","","","","","","","","","99","","",""
"learning-instructions","218","984381","0.0-4.0-3.0-0.0","spark_pilot_2","7405","6","17","Male","","","","","","","758.7000000001863","<p> Now, you will travel with a friend who will choose whether you go up or down first. </p>
            <p> On these turns, you will just see the animal that they found. You will still get to choose which chest to search for treasure.</p>","","instructions","","","","","","","","","","","","","",""
"revaluation","219","988397","0.0-4.0-4.0-0.0","spark_pilot_2","7405","6","17","Male","","false","","","","","[1244.0999999996275]","./assets/img/canyon/animals/lion.jpg","[""ArrowRight""]","revaluation","canyon","15","{""ArrowUp,ArrowLeft"":27,""ArrowUp,ArrowRight"":15,""ArrowDown,ArrowLeft"":21,""ArrowDown,ArrowRight"":7}","false","ArrowUp,ArrowRight","","","","revaluation","1","0","","",""
"html-keyboard-response","220","988908","0.0-4.0-4.0-1.0","spark_pilot_2","7405","6","17","Male","","","","","","","null","<div style=""font-size:60px;"">+</div>","null","fixation","","","","","","","","","","","1","","",""
"revaluation","221","992925","0.0-4.0-4.0-0.1","spark_pilot_2","7405","6","17","Male","","false","","","","","[976]","./assets/img/canyon/animals/giraffe.jpg","[""ArrowLeft""]","revaluation","canyon","21","{""ArrowUp,ArrowLeft"":27,""ArrowUp,ArrowRight"":15,""ArrowDown,ArrowLeft"":21,""ArrowDown,ArrowRight"":7}","true","ArrowDown,ArrowLeft","","","","revaluation","1","2","","",""
"html-keyboard-response","222","993428","0.0-4.0-4.0-1.1","spark_pilot_2","7405","6","17","Male","","","","","","","null","<div style=""font-size:60px;"">+</div>","null","fixation","","","","","","","","","","","3","","",""
"revaluation","223","997445","0.0-4.0-4.0-0.2","spark_pilot_2","7405","6","17","Male","","false","","","","","[830.0999999996275]","./assets/img/canyon/animals/lion.jpg","[""ArrowLeft""]","revaluation","canyon","27","{""ArrowUp,ArrowLeft"":27,""ArrowUp,ArrowRight"":15,""ArrowDown,ArrowLeft"":21,""ArrowDown,ArrowRight"":7}","true","ArrowUp,ArrowLeft","","","","revaluation","1","4","","",""
"html-keyboard-response","224","997949","0.0-4.0-4.0-1.2","spark_pilot_2","7405","6","17","Male","","","","","","","null","<div style=""font-size:60px;"">+</div>","null","fixation","","","","","","","","","","","5","","",""
"revaluation","225","1001965","0.0-4.0-4.0-0.3","spark_pilot_2","7405","6","17","Male","","false","","","","","[896.0999999996275]","./assets/img/canyon/animals/giraffe.jpg","[""ArrowRight""]","revaluation","canyon","7","{""ArrowUp,ArrowLeft"":27,""ArrowUp,ArrowRight"":15,""ArrowDown,ArrowLeft"":21,""ArrowDown,ArrowRight"":7}","false","ArrowDown,ArrowRight","","","","revaluation","1","6","","",""
"html-keyboard-response","226","1002468","0.0-4.0-4.0-1.3","spark_pilot_2","7405","6","17","Male","","","","","","","null","<div style=""font-size:60px;"">+</div>","null","fixation","","","","","","","","","","","7","","",""
"revaluation","227","1006491","0.0-4.0-4.0-0.4","spark_pilot_2","7405","6","17","Male","","false","","","","","[454.70000000018626]","./assets/img/canyon/animals/lion.jpg","[""ArrowLeft""]","revaluation","canyon","27","{""ArrowUp,ArrowLeft"":27,""ArrowUp,ArrowRight"":15,""ArrowDown,ArrowLeft"":21,""ArrowDown,ArrowRight"":7}","true","ArrowUp,ArrowLeft","","","","revaluation","1","8","","",""
"html-keyboard-response","228","1006996","0.0-4.0-4.0-1.4","spark_pilot_2","7405","6","17","Male","","","","","","","null","<div style=""font-size:60px;"">+</div>","null","fixation","","","","","","","","","","","9","","",""
"revaluation","229","1011013","0.0-4.0-4.0-0.5","spark_pilot_2","7405","6","17","Male","","false","","","","","[444.80000000074506]","./assets/img/canyon/animals/giraffe.jpg","[""ArrowLeft""]","revaluation","canyon","21","{""ArrowUp,ArrowLeft"":27,""ArrowUp,ArrowRight"":15,""ArrowDown,ArrowLeft"":21,""ArrowDown,ArrowRight"":7}","true","ArrowDown,ArrowLeft","","","","revaluation","1","10","","",""
"html-keyboard-response","230","1011516","0.0-4.0-4.0-1.5","spark_pilot_2","7405","6","17","Male","","","","","","","null","<div style=""font-size:60px;"">+</div>","null","fixation","","","","","","","","","","","11","","",""
"revaluation","231","1015533","0.0-4.0-4.0-0.6","spark_pilot_2","7405","6","17","Male","","false","","","","","[495.29999999981374]","./assets/img/canyon/animals/lion.jpg","[""ArrowLeft""]","revaluation","canyon","27","{""ArrowUp,ArrowLeft"":27,""ArrowUp,ArrowRight"":15,""ArrowDown,ArrowLeft"":21,""ArrowDown,ArrowRight"":7}","true","ArrowUp,ArrowLeft","","","","revaluation","1","12","","",""
"html-keyboard-response","232","1016036","0.0-4.0-4.0-1.6","spark_pilot_2","7405","6","17","Male","","","","","","","null","<div style=""font-size:60px;"">+</div>","null","fixation","","","","","","","","","","","13","","",""
"revaluation","233","1020053","0.0-4.0-4.0-0.7","spark_pilot_2","7405","6","17","Male","","false","","","","","[325.29999999981374]","./assets/img/canyon/animals/giraffe.jpg","[""ArrowLeft""]","revaluation","canyon","21","{""ArrowUp,ArrowLeft"":27,""ArrowUp,ArrowRight"":15,""ArrowDown,ArrowLeft"":21,""ArrowDown,ArrowRight"":7}","true","ArrowDown,ArrowLeft","","","","revaluation","1","14","","",""
"html-keyboard-response","234","1020556","0.0-4.0-4.0-1.7","spark_pilot_2","7405","6","17","Male","","","","","","","null","<div style=""font-size:60px;"">+</div>","null","fixation","","","","","","","","","","","15","","",""
"revaluation","235","1024572","0.0-4.0-4.0-0.8","spark_pilot_2","7405","6","17","Male","","false","","","","","[1955.2000000001863]","./assets/img/canyon/animals/lion.jpg","[""ArrowLeft""]","revaluation","canyon","27","{""ArrowUp,ArrowLeft"":27,""ArrowUp,ArrowRight"":15,""ArrowDown,ArrowLeft"":21,""ArrowDown,ArrowRight"":7}","true","ArrowUp,ArrowLeft","","","","revaluation","1","16","","",""
"html-keyboard-response","236","1025076","0.0-4.0-4.0-1.8","spark_pilot_2","7405","6","17","Male","","","","","","","null","<div style=""font-size:60px;"">+</div>","null","fixation","","","","","","","","","","","17","","",""
"revaluation","237","1029093","0.0-4.0-4.0-0.9","spark_pilot_2","7405","6","17","Male","","false","","","","","[476.70000000018626]","./assets/img/canyon/animals/lion.jpg","[""ArrowLeft""]","revaluation","canyon","27","{""ArrowUp,ArrowLeft"":27,""ArrowUp,ArrowRight"":15,""ArrowDown,ArrowLeft"":21,""ArrowDown,ArrowRight"":7}","true","ArrowUp,ArrowLeft","","","","revaluation","1","18","","",""
"html-keyboard-response","238","1029596","0.0-4.0-4.0-1.9","spark_pilot_2","7405","6","17","Male","","","","","","","null","<div style=""font-size:60px;"">+</div>","null","fixation","","","","","","","","","","","19","","",""
"revaluation","239","1033613","0.0-4.0-4.0-0.10","spark_pilot_2","7405","6","17","Male","","false","","","","","[400.20000000018626]","./assets/img/canyon/animals/lion.jpg","[""ArrowLeft""]","revaluation","canyon","27","{""ArrowUp,ArrowLeft"":27,""ArrowUp,ArrowRight"":15,""ArrowDown,ArrowLeft"":21,""ArrowDown,ArrowRight"":7}","true","ArrowUp,ArrowLeft","","","","revaluation","1","20","","",""
"html-keyboard-response","240","1034116","0.0-4.0-4.0-1.10","spark_pilot_2","7405","6","17","Male","","","","","","","null","<div style=""font-size:60px;"">+</div>","null","fixation","","","","","","","","","","","21","","",""
"revaluation","241","1038133","0.0-4.0-4.0-0.11","spark_pilot_2","7405","6","17","Male","","false","","","","","[446.30000000074506]","./assets/img/canyon/animals/giraffe.jpg","[""ArrowLeft""]","revaluation","canyon","21","{""ArrowUp,ArrowLeft"":27,""ArrowUp,ArrowRight"":15,""ArrowDown,ArrowLeft"":21,""ArrowDown,ArrowRight"":7}","true","ArrowDown,ArrowLeft","","","","revaluation","1","22","","",""
"html-keyboard-response","242","1038636","0.0-4.0-4.0-1.11","spark_pilot_2","7405","6","17","Male","","","","","","","null","<div style=""font-size:60px;"">+</div>","null","fixation","","","","","","","","","","","23","","",""
"revaluation","243","1042653","0.0-4.0-4.0-0.12","spark_pilot_2","7405","6","17","Male","","false","","","","","[464.40000000037253]","./assets/img/canyon/animals/lion.jpg","[""ArrowLeft""]","revaluation","canyon","27","{""ArrowUp,ArrowLeft"":27,""ArrowUp,ArrowRight"":15,""ArrowDown,ArrowLeft"":21,""ArrowDown,ArrowRight"":7}","true","ArrowUp,ArrowLeft","","","","revaluation","1","24","","",""
"html-keyboard-response","244","1043156","0.0-4.0-4.0-1.12","spark_pilot_2","7405","6","17","Male","","","","","","","null","<div style=""font-size:60px;"">+</div>","null","fixation","","","","","","","","","","","25","","",""
"revaluation","245","1047173","0.0-4.0-4.0-0.13","spark_pilot_2","7405","6","17","Male","","false","","","","","[367.3999999994412]","./assets/img/canyon/animals/lion.jpg","[""ArrowLeft""]","revaluation","canyon","27","{""ArrowUp,ArrowLeft"":27,""ArrowUp,ArrowRight"":15,""ArrowDown,ArrowLeft"":21,""ArrowDown,ArrowRight"":7}","true","ArrowUp,ArrowLeft","","","","revaluation","1","26","","",""
"html-keyboard-response","246","1047676","0.0-4.0-4.0-1.13","spark_pilot_2","7405","6","17","Male","","","","","","","null","<div style=""font-size:60px;"">+</div>","null","fixation","","","","","","","","","","","27","","",""
"revaluation","247","1051693","0.0-4.0-4.0-0.14","spark_pilot_2","7405","6","17","Male","","false","","","","","[359.59999999962747]","./assets/img/canyon/animals/giraffe.jpg","[""ArrowLeft""]","revaluation","canyon","21","{""ArrowUp,ArrowLeft"":27,""ArrowUp,ArrowRight"":15,""ArrowDown,ArrowLeft"":21,""ArrowDown,ArrowRight"":7}","true","ArrowDown,ArrowLeft","","","","revaluation","1","28","","",""
"html-keyboard-response","248","1052196","0.0-4.0-4.0-1.14","spark_pilot_2","7405","6","17","Male","","","","","","","null","<div style=""font-size:60px;"">+</div>","null","fixation","","","","","","","","","","","29","","",""
"revaluation","249","1056213","0.0-4.0-4.0-0.15","spark_pilot_2","7405","6","17","Male","","false","","","","","[254.79999999981374]","./assets/img/canyon/animals/giraffe.jpg","[""ArrowLeft""]","revaluation","canyon","21","{""ArrowUp,ArrowLeft"":27,""ArrowUp,ArrowRight"":15,""ArrowDown,ArrowLeft"":21,""ArrowDown,ArrowRight"":7}","true","ArrowDown,ArrowLeft","","","","revaluation","1","30","","",""
"html-keyboard-response","250","1056716","0.0-4.0-4.0-1.15","spark_pilot_2","7405","6","17","Male","","","","","","","null","<div style=""font-size:60px;"">+</div>","null","fixation","","","","","","","","","","","31","","",""
"revaluation","251","1060733","0.0-4.0-4.0-0.16","spark_pilot_2","7405","6","17","Male","","false","","","","","[358.5]","./assets/img/canyon/animals/giraffe.jpg","[""ArrowLeft""]","revaluation","canyon","21","{""ArrowUp,ArrowLeft"":27,""ArrowUp,ArrowRight"":15,""ArrowDown,ArrowLeft"":21,""ArrowDown,ArrowRight"":7}","true","ArrowDown,ArrowLeft","","","","revaluation","1","32","","",""
"html-keyboard-response","252","1061236","0.0-4.0-4.0-1.16","spark_pilot_2","7405","6","17","Male","","","","","","","null","<div style=""font-size:60px;"">+</div>","null","fixation","","","","","","","","","","","33","","",""
"revaluation","253","1065253","0.0-4.0-4.0-0.17","spark_pilot_2","7405","6","17","Male","","false","","","","","[473.3999999994412]","./assets/img/canyon/animals/giraffe.jpg","[""ArrowLeft""]","revaluation","canyon","21","{""ArrowUp,ArrowLeft"":27,""ArrowUp,ArrowRight"":15,""ArrowDown,ArrowLeft"":21,""ArrowDown,ArrowRight"":7}","true","ArrowDown,ArrowLeft","","","","revaluation","1","34","","",""
"html-keyboard-response","254","1065756","0.0-4.0-4.0-1.17","spark_pilot_2","7405","6","17","Male","","","","","","","null","<div style=""font-size:60px;"">+</div>","null","fixation","","","","","","","","","","","35","","",""
"learning-instructions","255","1078326","0.0-4.0-5.0-0.0","spark_pilot_2","7405","6","17","Male","","","","","","","1060.2000000001863","<p> Time to play the dot game! </p>
            <p> For one minute, click the red dots on the following screen as they appear. </p>
            <p><b> Don't look away, as you will earn bonus for clicking dots</b>. </p>","","instructions","","","","","","","","","","","","","",""
"revaluation","256","1138329","0.0-4.0-6.0-0.0","spark_pilot_2","7405","6","17","Male","","","","","","","[75,73,139,81,65]","","","rest","","50","","","","","0","60000","","","","","",""
"learning-instructions","257","1145959","0.0-4.0-7.0-0.0","spark_pilot_2","7405","6","17","Male","","","","","","","1459.2000000001863","<p> You have almost finished this part of the game! </p>
            <p> We are going to ask you to make a few more choices. </p>","","instructions","","","","","","","","","","","","","",""
"learning-instructions","258","1161191","0.0-4.0-7.0-0.1","spark_pilot_2","7405","6","17","Male","","","","","","","1256.5","<p> First, you need to decide whether to go up or down. When you see each picture, use the arrow keys to make your choice. </p>
            <p><b>You will not see which animal you found, but try to get to the one that will give you the most treasure.</b></p>","","instructions","","","","","","","","","","","","","",""
"revaluation","259","1162351","0.0-4.0-8.0-0.0","spark_pilot_2","7405","6","17","Male","","false","","","","","[1156.8999999994412]","./assets/img/canyon/test/1.jpg","[""ArrowUp""]","first stage test","canyon","0","{""ArrowUp,ArrowLeft"":27,""ArrowUp,ArrowRight"":15,""ArrowDown,ArrowLeft"":21,""ArrowDown,ArrowRight"":7}","true","ArrowUp","false","","","revaluation","1","","","",""
"html-keyboard-response","260","1162852","0.0-4.0-8.0-1.0","spark_pilot_2","7405","6","17","Male","","","","","","","null","<div style=""font-size:60px;"">+</div>","null","fixation","","","","","","","","","","","","","",""
"revaluation","261","1163911","0.0-4.0-8.0-0.1","spark_pilot_2","7405","6","17","Male","","false","","","","","[1055.2999999998137]","./assets/img/canyon/test/3.jpg","[""ArrowUp""]","first stage test","canyon","0","{""ArrowUp,ArrowLeft"":27,""ArrowUp,ArrowRight"":15,""ArrowDown,ArrowLeft"":21,""ArrowDown,ArrowRight"":7}","true","ArrowUp","false","","","revaluation","1","","","",""
"html-keyboard-response","262","1164421","0.0-4.0-8.0-1.1","spark_pilot_2","7405","6","17","Male","","","","","","","null","<div style=""font-size:60px;"">+</div>","null","fixation","","","","","","","","","","","","","",""
"revaluation","263","1165066","0.0-4.0-8.0-0.2","spark_pilot_2","7405","6","17","Male","","false","","","","","[642.5]","./assets/img/canyon/test/2.jpg","[""ArrowDown""]","first stage test","canyon","0","{""ArrowUp,ArrowLeft"":27,""ArrowUp,ArrowRight"":15,""ArrowDown,ArrowLeft"":21,""ArrowDown,ArrowRight"":7}","false","ArrowDown","false","","","revaluation","1","","","",""
"html-keyboard-response","264","1165573","0.0-4.0-8.0-1.2","spark_pilot_2","7405","6","17","Male","","","","","","","null","<div style=""font-size:60px;"">+</div>","null","fixation","","","","","","","","","","","","","",""
"revaluation","265","1166292","0.0-4.0-8.0-0.3","spark_pilot_2","7405","6","17","Male","","false","","","","","[714.8999999994412]","./assets/img/canyon/test/0.jpg","[""ArrowDown""]","first stage test","canyon","0","{""ArrowUp,ArrowLeft"":27,""ArrowUp,ArrowRight"":15,""ArrowDown,ArrowLeft"":21,""ArrowDown,ArrowRight"":7}","false","ArrowDown","false","","","revaluation","1","","","",""
"html-keyboard-response","266","1166796","0.0-4.0-8.0-1.3","spark_pilot_2","7405","6","17","Male","","","","","","","null","<div style=""font-size:60px;"">+</div>","null","fixation","","","","","","","","","","","","","",""
"learning-instructions","267","1178759","0.0-4.0-9.0-0.0","spark_pilot_2","7405","6","17","Male","","","","","","","616.2000000001863","<p> Now you will see the animals again and can search their chests for treasure. </p>
            <p> This time, you will not see how much treasure you earned, but you will earn more bonus money for making better choices. </p>","","instructions","","","","","","","","","","","","","",""
"revaluation","268","1179682","0.0-4.0-10.0-0.0","spark_pilot_2","7405","6","17","Male","","false","","","","","[920.5]","./assets/img/canyon/animals/lion.jpg","[""ArrowRight""]","second stage test","canyon","0","{""ArrowUp,ArrowLeft"":27,""ArrowUp,ArrowRight"":15,""ArrowDown,ArrowLeft"":21,""ArrowDown,ArrowRight"":7}","false","ArrowUp,ArrowRight","","","","revaluation","1","","","",""
"html-keyboard-response","269","1180188","0.0-4.0-10.0-1.0","spark_pilot_2","7405","6","17","Male","","","","","","","null","<div style=""font-size:60px;"">+</div>","null","fixation","","","","","","","","","","","","","",""
"revaluation","270","1180826","0.0-4.0-10.0-0.1","spark_pilot_2","7405","6","17","Male","","false","","","","","[634.1000000005588]","./assets/img/canyon/animals/lion.jpg","[""ArrowRight""]","second stage test","canyon","0","{""ArrowUp,ArrowLeft"":27,""ArrowUp,ArrowRight"":15,""ArrowDown,ArrowLeft"":21,""ArrowDown,ArrowRight"":7}","false","ArrowUp,ArrowRight","","","","revaluation","1","","","",""
"html-keyboard-response","271","1181332","0.0-4.0-10.0-1.1","spark_pilot_2","7405","6","17","Male","","","","","","","null","<div style=""font-size:60px;"">+</div>","null","fixation","","","","","","","","","","","","","",""
"revaluation","272","1182180","0.0-4.0-10.0-0.2","spark_pilot_2","7405","6","17","Male","","false","","","","","[845]","./assets/img/canyon/animals/lion.jpg","[""ArrowRight""]","second stage test","canyon","0","{""ArrowUp,ArrowLeft"":27,""ArrowUp,ArrowRight"":15,""ArrowDown,ArrowLeft"":21,""ArrowDown,ArrowRight"":7}","false","ArrowUp,ArrowRight","","","","revaluation","1","","","",""
"html-keyboard-response","273","1182684","0.0-4.0-10.0-1.2","spark_pilot_2","7405","6","17","Male","","","","","","","null","<div style=""font-size:60px;"">+</div>","null","fixation","","","","","","","","","","","","","",""
"revaluation","274","1183252","0.0-4.0-10.0-0.3","spark_pilot_2","7405","6","17","Male","","false","","","","","[564.1000000005588]","./assets/img/canyon/animals/lion.jpg","[""ArrowRight""]","second stage test","canyon","0","{""ArrowUp,ArrowLeft"":27,""ArrowUp,ArrowRight"":15,""ArrowDown,ArrowLeft"":21,""ArrowDown,ArrowRight"":7}","false","ArrowUp,ArrowRight","","","","revaluation","1","","","",""
"html-keyboard-response","275","1183756","0.0-4.0-10.0-1.3","spark_pilot_2","7405","6","17","Male","","","","","","","null","<div style=""font-size:60px;"">+</div>","null","fixation","","","","","","","","","","","","","",""
"revaluation","276","1184571","0.0-4.0-10.0-0.4","spark_pilot_2","7405","6","17","Male","","false","","","","","[810.2999999998137]","./assets/img/canyon/animals/giraffe.jpg","[""ArrowLeft""]","second stage test","canyon","0","{""ArrowUp,ArrowLeft"":27,""ArrowUp,ArrowRight"":15,""ArrowDown,ArrowLeft"":21,""ArrowDown,ArrowRight"":7}","true","ArrowDown,ArrowLeft","","","","revaluation","1","","","",""
"html-keyboard-response","277","1185077","0.0-4.0-10.0-1.4","spark_pilot_2","7405","6","17","Male","","","","","","","null","<div style=""font-size:60px;"">+</div>","null","fixation","","","","","","","","","","","","","",""
"revaluation","278","1185577","0.0-4.0-10.0-0.5","spark_pilot_2","7405","6","17","Male","","false","","","","","[496.70000000018626]","./assets/img/canyon/animals/giraffe.jpg","[""ArrowLeft""]","second stage test","canyon","0","{""ArrowUp,ArrowLeft"":27,""ArrowUp,ArrowRight"":15,""ArrowDown,ArrowLeft"":21,""ArrowDown,ArrowRight"":7}","true","ArrowDown,ArrowLeft","","","","revaluation","1","","","",""
"html-keyboard-response","279","1186084","0.0-4.0-10.0-1.5","spark_pilot_2","7405","6","17","Male","","","","","","","null","<div style=""font-size:60px;"">+</div>","null","fixation","","","","","","","","","","","","","",""
"revaluation","280","1186605","0.0-4.0-10.0-0.6","spark_pilot_2","7405","6","17","Male","","false","","","","","[516.8999999994412]","./assets/img/canyon/animals/giraffe.jpg","[""ArrowLeft""]","second stage test","canyon","0","{""ArrowUp,ArrowLeft"":27,""ArrowUp,ArrowRight"":15,""ArrowDown,ArrowLeft"":21,""ArrowDown,ArrowRight"":7}","true","ArrowDown,ArrowLeft","","","","revaluation","1","","","",""
"html-keyboard-response","281","1187108","0.0-4.0-10.0-1.6","spark_pilot_2","7405","6","17","Male","","","","","","","null","<div style=""font-size:60px;"">+</div>","null","fixation","","","","","","","","","","","","","",""
"revaluation","282","1187638","0.0-4.0-10.0-0.7","spark_pilot_2","7405","6","17","Male","","false","","","","","[526.7999999998137]","./assets/img/canyon/animals/giraffe.jpg","[""ArrowLeft""]","second stage test","canyon","0","{""ArrowUp,ArrowLeft"":27,""ArrowUp,ArrowRight"":15,""ArrowDown,ArrowLeft"":21,""ArrowDown,ArrowRight"":7}","true","ArrowDown,ArrowLeft","","","","revaluation","1","","","",""
"html-keyboard-response","283","1188140","0.0-4.0-10.0-1.7","spark_pilot_2","7405","6","17","Male","","","","","","","null","<div style=""font-size:60px;"">+</div>","null","fixation","","","","","","","","","","","","","",""
"learning-instructions","284","1191876","0.0-4.0-0.1-0.2","spark_pilot_2","7405","6","17","Male","","","","","","","1019.0999999996275","<p> This time you are searching for treasure in the <b>ocean</b>.</p>","","instructions","","","","","","","","","","","","","",""
"learning-instructions","285","1210438","0.0-4.0-0.1-0.3","spark_pilot_2","7405","6","17","Male","","","","","","","1309.1000000005588","<p><b>New</b> animals with <b>new</b> treasure chests live here. You need to explore to discover where the animal with the best treasure chest is.</p>
                    <p> Like before, once you figure out which animal has the chest with the most treasure, you should try to get to that animal and select that chest! </p>","","instructions","","","","","","","","","","","","","",""
"learning-instructions","286","1226269","0.0-4.0-1.1-0.1","spark_pilot_2","7405","6","17","Male","","","","","","","1097","<p> Remember, when you see a picture of the place, use the up and down keys to <b>find an animal</b>.</p>
            <p> When you encounter an animal, you should use the left and right keys to <b>select a treasure chest</b>.</p>
            <p> Don't forget to look out for the robber! </p>","","instructions","","","","","","","","","","","","","",""
"revaluation","287","1230285","0.0-4.0-2.1-0.50","spark_pilot_2","7405","6","17","Male","","false","","","","","[1346.3999999994412]","./assets/img/ocean/catch/0.jpg","[""spaceBar""]","value training","ocean","0","{""ArrowUp,ArrowLeft"":26,""ArrowUp,ArrowRight"":10,""ArrowDown,ArrowLeft"":5,""ArrowDown,ArrowRight"":17}","true","spaceBar","true","","","original","2","0","","",""
"html-keyboard-response","288","1230788","0.0-4.0-2.1-1.50","spark_pilot_2","7405","6","17","Male","","","","","","","null","<div style=""font-size:60px;"">+</div>","null","fixation","","","","","","","","","","","1","","",""
"revaluation","289","1236813","0.0-4.0-2.1-0.51","spark_pilot_2","7405","6","17","Male","","false","","","","","[630,1007.8999999994412]","./assets/img/ocean/memory/22.jpg","[""ArrowUp"",""ArrowLeft""]","value training","ocean","26","{""ArrowUp,ArrowLeft"":26,""ArrowUp,ArrowRight"":10,""ArrowDown,ArrowLeft"":5,""ArrowDown,ArrowRight"":17}","true","ArrowUp,ArrowLeft","false","","","original","2","2","","",""
"html-keyboard-response","290","1237316","0.0-4.0-2.1-1.51","spark_pilot_2","7405","6","17","Male","","","","","","","null","<div style=""font-size:60px;"">+</div>","null","fixation","","","","","","","","","","","3","","",""
"revaluation","291","1243341","0.0-4.0-2.1-0.52","spark_pilot_2","7405","6","17","Male","","false","","","","","[553.4000000003725,416.20000000018626]","./assets/img/ocean/memory/28.jpg","[""ArrowUp"",""ArrowLeft""]","value training","ocean","26","{""ArrowUp,ArrowLeft"":26,""ArrowUp,ArrowRight"":10,""ArrowDown,ArrowLeft"":5,""ArrowDown,ArrowRight"":17}","true","ArrowUp,ArrowLeft","false","","","original","2","4","","",""
"html-keyboard-response","292","1243844","0.0-4.0-2.1-1.52","spark_pilot_2","7405","6","17","Male","","","","","","","null","<div style=""font-size:60px;"">+</div>","null","fixation","","","","","","","","","","","5","","",""
"revaluation","293","1249869","0.0-4.0-2.1-0.53","spark_pilot_2","7405","6","17","Male","","false","","","","","[386.59999999962747,99.1000000005588]","./assets/img/ocean/memory/33.jpg","[""ArrowUp"",""ArrowLeft""]","value training","ocean","26","{""ArrowUp,ArrowLeft"":26,""ArrowUp,ArrowRight"":10,""ArrowDown,ArrowLeft"":5,""ArrowDown,ArrowRight"":17}","true","ArrowUp,ArrowLeft","false","","","original","2","6","","",""
"html-keyboard-response","294","1250372","0.0-4.0-2.1-1.53","spark_pilot_2","7405","6","17","Male","","","","","","","null","<div style=""font-size:60px;"">+</div>","null","fixation","","","","","","","","","","","7","","",""
"revaluation","295","1254389","0.0-4.0-2.1-0.54","spark_pilot_2","7405","6","17","Male","","false","","","","","[647.7000000001863]","./assets/img/ocean/catch/6.jpg","[""spaceBar""]","value training","ocean","0","{""ArrowUp,ArrowLeft"":26,""ArrowUp,ArrowRight"":10,""ArrowDown,ArrowLeft"":5,""ArrowDown,ArrowRight"":17}","true","spaceBar","true","","","original","2","8","","",""
"html-keyboard-response","296","1254893","0.0-4.0-2.1-1.54","spark_pilot_2","7405","6","17","Male","","","","","","","null","<div style=""font-size:60px;"">+</div>","null","fixation","","","","","","","","","","","9","","",""
"revaluation","297","1260917","0.0-4.0-2.1-0.55","spark_pilot_2","7405","6","17","Male","","false","","","","","[522.1000000005588,413.79999999981374]","./assets/img/ocean/memory/28.jpg","[""ArrowUp"",""ArrowLeft""]","value training","ocean","26","{""ArrowUp,ArrowLeft"":26,""ArrowUp,ArrowRight"":10,""ArrowDown,ArrowLeft"":5,""ArrowDown,ArrowRight"":17}","true","ArrowUp,ArrowLeft","false","","","original","2","10","","",""
"html-keyboard-response","298","1261420","0.0-4.0-2.1-1.55","spark_pilot_2","7405","6","17","Male","","","","","","","null","<div style=""font-size:60px;"">+</div>","null","fixation","","","","","","","","","","","11","","",""
"revaluation","299","1267445","0.0-4.0-2.1-0.56","spark_pilot_2","7405","6","17","Male","","false","","","","","[489.5,328]","./assets/img/ocean/memory/8.jpg","[""ArrowUp"",""ArrowLeft""]","value training","ocean","26","{""ArrowUp,ArrowLeft"":26,""ArrowUp,ArrowRight"":10,""ArrowDown,ArrowLeft"":5,""ArrowDown,ArrowRight"":17}","true","ArrowUp,ArrowLeft","false","","","original","2","12","","",""
"html-keyboard-response","300","1267948","0.0-4.0-2.1-1.56","spark_pilot_2","7405","6","17","Male","","","","","","","null","<div style=""font-size:60px;"">+</div>","null","fixation","","","","","","","","","","","13","","",""
"revaluation","301","1273973","0.0-4.0-2.1-0.57","spark_pilot_2","7405","6","17","Male","","false","","","","","[508.79999999981374,410.29999999981374]","./assets/img/ocean/memory/18.jpg","[""ArrowUp"",""ArrowLeft""]","value training","ocean","26","{""ArrowUp,ArrowLeft"":26,""ArrowUp,ArrowRight"":10,""ArrowDown,ArrowLeft"":5,""ArrowDown,ArrowRight"":17}","true","ArrowUp,ArrowLeft","false","","","original","2","14","","",""
"html-keyboard-response","302","1274476","0.0-4.0-2.1-1.57","spark_pilot_2","7405","6","17","Male","","","","","","","null","<div style=""font-size:60px;"">+</div>","null","fixation","","","","","","","","","","","15","","",""
"revaluation","303","1280509","0.0-4.0-2.1-0.58","spark_pilot_2","7405","6","17","Male","","false","","","","","[316.90000000037253,472.40000000037253]","./assets/img/ocean/memory/17.jpg","[""ArrowUp"",""ArrowLeft""]","value training","ocean","26","{""ArrowUp,ArrowLeft"":26,""ArrowUp,ArrowRight"":10,""ArrowDown,ArrowLeft"":5,""ArrowDown,ArrowRight"":17}","true","ArrowUp,ArrowLeft","false","","","original","2","16","","",""
"html-keyboard-response","304","1281012","0.0-4.0-2.1-1.58","spark_pilot_2","7405","6","17","Male","","","","","","","null","<div style=""font-size:60px;"">+</div>","null","fixation","","","","","","","","","","","17","","",""
"revaluation","305","1287037","0.0-4.0-2.1-0.59","spark_pilot_2","7405","6","17","Male","","false","","","","","[425.79999999981374,372.40000000037253]","./assets/img/ocean/memory/10.jpg","[""ArrowUp"",""ArrowLeft""]","value training","ocean","26","{""ArrowUp,ArrowLeft"":26,""ArrowUp,ArrowRight"":10,""ArrowDown,ArrowLeft"":5,""ArrowDown,ArrowRight"":17}","true","ArrowUp,ArrowLeft","false","","","original","2","18","","",""
"html-keyboard-response","306","1287540","0.0-4.0-2.1-1.59","spark_pilot_2","7405","6","17","Male","","","","","","","null","<div style=""font-size:60px;"">+</div>","null","fixation","","","","","","","","","","","19","","",""
"revaluation","307","1293565","0.0-4.0-2.1-0.60","spark_pilot_2","7405","6","17","Male","","false","","","","","[413.5,417.79999999981374]","./assets/img/ocean/memory/18.jpg","[""ArrowUp"",""ArrowLeft""]","value training","ocean","26","{""ArrowUp,ArrowLeft"":26,""ArrowUp,ArrowRight"":10,""ArrowDown,ArrowLeft"":5,""ArrowDown,ArrowRight"":17}","true","ArrowUp,ArrowLeft","false","","","original","2","20","","",""
