"trial_type","trial_index","time_elapsed","internal_node_id","task_version","subject_id","assigned_condition","age","gender","browser_interaction","success","timeout","failed_images","failed_audio","failed_video","rt","stimulus","response","task_part","environment","score","rewardMap","correct","fullState","isCatch","numberMissed","duration","condition","order","trial_num","key_press","ground_truth","bonus"
"pavlovia","0","1144","0.0-0.0","spark_pilot_2","7370","4","15","Male","[{""event"":""blur"",""trial"":1,""time"":8061},{""event"":""focus"",""trial"":2,""time"":23216},{""event"":""fullscreenenter"",""trial"":2,""time"":23356},{""event"":""blur"",""trial"":379,""time"":1501442},{""event"":""focus"",""trial"":381,""time"":1505139}]","","","","","","","","","","","","","","","","","","","","","","",""
"preload","1","15446","0.0-1.0","spark_pilot_2","7370","4","15","Male","[{""event"":""blur"",""trial"":1,""time"":8061},{""event"":""focus"",""trial"":2,""time"":23216},{""event"":""fullscreenenter"",""trial"":2,""time"":23356},{""event"":""blur"",""trial"":379,""time"":1501442},{""event"":""focus"",""trial"":381,""time"":1505139}]","true","false","[]","[]","[]","","","","","","","","","","","","","","","","","",""
"fullscreen","2","24340","0.0-2.0","spark_pilot_2","7370","4","15","Male","","true","","","","","","","","","","","","","","","","","","","","","",""
"audio-button-response","3","25790","0.0-3.0-0.0-0.0","spark_pilot_2","7370","4","15","Male","","","","","","","1419","./assets/audio/audiotest/turtle.mp3","2","audio_test","","","","","","","","","","","","","",""
"learning-instructions","4","36642","0.0-3.0-1.0-0.0","spark_pilot_2","7370","4","15","Male","","","","","","","3871.6000003814697","<p> Welcome! Please remember to stay in fullscreen mode and don't click away from the experiment. </p>","","instructions","","","","","","","","","","","","","",""
"learning-instructions","5","46855","0.0-3.0-1.0-0.1","spark_pilot_2","7370","4","15","Male","","","","","","","1795.8999996185303","<p> Today you will be playing a game to earn treasure. </p>
            <p> At the end of the experiment, you will earn a bonus based on how much treasure you find. </p>
            <img src='./assets/img/instructions/treasure.jpg' class='instructions-image'>","","instructions","","","","","","","","","","","","","",""
"learning-instructions","6","56823","0.0-3.0-1.0-0.2","spark_pilot_2","7370","4","15","Male","","","","","","","1705.3999996185303","<p> Animals have hidden treasure in treasure chests. </p>
            <p> You need to first find an animal and then choose which of their treasure chests to search. </p>
            <img src='./assets/img/space/animals/cat.jpg' class='instructions-image'>","","instructions","","","","","","","","","","","","","",""
"learning-instructions","7","71247","0.0-3.0-1.0-0.3","spark_pilot_2","7370","4","15","Male","","","","","","","1248.2999992370605","<p> In each round, you will search for treasure in a different place. In the real game, there will be two rounds. </p>
            <p> You will begin with a separate, practice round where you will search for treasure in outer space. </p>
            <img src='./assets/img/space/0.jpg' class='instructions-image'>","","instructions","","","","","","","","","","","","","",""
"learning-instructions","8","83192","0.0-3.0-1.0-0.4","spark_pilot_2","7370","4","15","Male","","","","","","","532.8000011444092","<p> On every turn, you will see a picture of the place that you are in, but the specific image may be different each time. </p>
            <p> For example, both of these images mean you are in outer space. </p>
            <img src='./assets/img/instructions/outerspace.jpg' class='instructions-image'>","","instructions","","","","","","","","","","","","","",""
"learning-instructions","9","92131","0.0-3.0-1.0-0.5","spark_pilot_2","7370","4","15","Male","","","","","","","1107.900001525879","<p> You need to decide which direction to travel in. </p>
            <p> You can choose between going <b>up or down</b> by using the arrow keys. </p>
            <img src='./assets/img/instructions/updown.jpg' class='instructions-image'>","","instructions","","","","","","","","","","","","","",""
"learning-instructions","10","101982","0.0-3.0-1.0-0.6","spark_pilot_2","7370","4","15","Male","","","","","","","1029.7999992370605","<p> You will have <b>2 seconds</b> to make your choice. </p>
            <p> If you do not make a choice within 2 seconds, you will not find an animal or earn treasure. </p>
            <img src='./assets/img/instructions/2seconds.jpg' class='instructions-image'>","","instructions","","","","","","","","","","","","","",""
"learning-instructions","11","109885","0.0-3.0-1.0-0.7","spark_pilot_2","7370","4","15","Male","","","","","","","868.7999992370605","<p> Let’s try practicing that now! </p>
            <p> When you see a picture of the place you are in, press the <b>up</b> key to travel up. </p>
            <img src='./assets/img/instructions/pressUp.jpg' class='instructions-image'>","","instructions","","","","","","","","","","","","","",""
"revaluation","12","113915","0.0-3.0-2.0-0.0","spark_pilot_2","7370","4","15","Male","","","false","","","","[1195.1000003814697]","./assets/img/space/0.jpg","[""ArrowUp""]","first stage practice","space","0","null","null","ArrowUp","false","","","","","","","",""
"html-keyboard-response","13","114418","0.0-3.0-2.0-1.0","spark_pilot_2","7370","4","15","Male","","","","","","","null","<div style=""font-size:60px;"">+</div>","null","fixation","","","","","","","","","","","","","",""
"revaluation","14","118434","0.0-3.0-2.0-0.1","spark_pilot_2","7370","4","15","Male","","","false","","","","[635.9000015258789]","./assets/img/space/1.jpg","[""ArrowUp""]","first stage practice","space","0","null","null","ArrowUp","false","","","","","","","",""
"html-keyboard-response","15","118938","0.0-3.0-2.0-1.1","spark_pilot_2","7370","4","15","Male","","","","","","","null","<div style=""font-size:60px;"">+</div>","null","fixation","","","","","","","","","","","","","",""
"revaluation","16","122954","0.0-3.0-2.0-0.2","spark_pilot_2","7370","4","15","Male","","","false","","","","[621.3999996185303]","./assets/img/space/2.jpg","[""ArrowUp""]","first stage practice","space","0","null","null","ArrowUp","false","","","","","","","",""
"html-keyboard-response","17","123468","0.0-3.0-2.0-1.2","spark_pilot_2","7370","4","15","Male","","","","","","","null","<div style=""font-size:60px;"">+</div>","null","fixation","","","","","","","","","","","","","",""
"learning-instructions","18","128816","0.0-3.0-3.0-0.0","spark_pilot_2","7370","4","15","Male","","","","","","","652.5999984741211","<p> Great job! Now try pressing the <b>down</b> key to travel down. </p>
            <img src='./assets/img/instructions/pressDown.jpg' class='instructions-image'>","","instructions","","","","","","","","","","","","","",""
"revaluation","19","132843","0.0-3.0-4.0-0.0","spark_pilot_2","7370","4","15","Male","","","false","","","","[16.299999237060547]","./assets/img/space/3.jpg","[""ArrowDown""]","first stage practice","space","0","null","null","ArrowDown","false","","","","","","","",""
"html-keyboard-response","20","133347","0.0-3.0-4.0-1.0","spark_pilot_2","7370","4","15","Male","","","","","","","null","<div style=""font-size:60px;"">+</div>","null","fixation","","","","","","","","","","","","","",""
"revaluation","21","137376","0.0-3.0-4.0-0.1","spark_pilot_2","7370","4","15","Male","","","false","","","","[112.60000038146973]","./assets/img/space/4.jpg","[""ArrowDown""]","first stage practice","space","0","null","null","ArrowDown","false","","","","","","","",""
"html-keyboard-response","22","137884","0.0-3.0-4.0-1.1","spark_pilot_2","7370","4","15","Male","","","","","","","null","<div style=""font-size:60px;"">+</div>","null","fixation","","","","","","","","","","","","","",""
"revaluation","23","141913","0.0-3.0-4.0-0.2","spark_pilot_2","7370","4","15","Male","","","false","","","","[92.60000038146973]","./assets/img/space/5.jpg","[""ArrowDown""]","first stage practice","space","0","null","null","ArrowDown","false","","","","","","","",""
"html-keyboard-response","24","142424","0.0-3.0-4.0-1.2","spark_pilot_2","7370","4","15","Male","","","","","","","null","<div style=""font-size:60px;"">+</div>","null","fixation","","","","","","","","","","","","","",""
"learning-instructions","25","153187","0.0-3.0-5.0-0.0","spark_pilot_2","7370","4","15","Male","","","","","","","906","<p> The animals don’t move, so the animal in the upper part of a place will stay in the upper part of a place, and the animal in the lower part of a place will stay in the lower part of a place. </p>","","instructions","","","","","","","","","","","","","",""
"learning-instructions","26","164154","0.0-3.0-5.0-0.1","spark_pilot_2","7370","4","15","Male","","","","","","","1836.3999996185303","<p> Each animal has two treasure chests for you to choose from. </p>
            <p> The amount of treasure in each chest can range from <b> 0 to 40 pieces.</b></p>","","instructions","","","","","","","","","","","","","",""
"learning-instructions","27","176746","0.0-3.0-5.0-0.2","spark_pilot_2","7370","4","15","Male","","","","","","","1404.1000003814697","<p> You should decide which chest to search for treasure by using the <b>left</b> and <b>right</b> arrow keys. </p>
            <p><b> Pay attention to which animal is on the screen, as the animals have different treasure chests. </b></p>
            <img src='./assets/img/instructions/leftright.jpg' class='instructions-image'>","","instructions","","","","","","","","","","","","","",""
"learning-instructions","28","183782","0.0-3.0-5.0-0.3","spark_pilot_2","7370","4","15","Male","","","","","","","664.8000011444092","<p> Let’s try practicing that now. </p>
            <p> When you see an animal, choose which chest to search for treasure. </p>
            <img src='./assets/img/instructions/chooseChest.jpg' class='instructions-image'>","","instructions","","","","","","","","","","","","","",""
"revaluation","29","187796","0.0-3.0-6.0-0.0","spark_pilot_2","7370","4","15","Male","","","false","","","","[326.70000076293945]","./assets/img/space/animals/rabbit.jpg","[""ArrowLeft""]","second stage practice","space","15","{""ArrowUp,ArrowLeft"":3,""ArrowUp,ArrowRight"":36,""ArrowDown,ArrowLeft"":15,""ArrowDown,ArrowRight"":23}","false","ArrowDown,ArrowLeft","","","","","","","","",""
"html-keyboard-response","30","188308","0.0-3.0-6.0-1.0","spark_pilot_2","7370","4","15","Male","","","","","","","null","<div style=""font-size:60px;"">+</div>","null","fixation","","","","","","","","","","","","","",""
"revaluation","31","192336","0.0-3.0-6.0-0.1","spark_pilot_2","7370","4","15","Male","","","false","","","","[597.6000003814697]","./assets/img/space/animals/rabbit.jpg","[""ArrowLeft""]","second stage practice","space","15","{""ArrowUp,ArrowLeft"":3,""ArrowUp,ArrowRight"":36,""ArrowDown,ArrowLeft"":15,""ArrowDown,ArrowRight"":23}","false","ArrowDown,ArrowLeft","","","","","","","","",""
"html-keyboard-response","32","192851","0.0-3.0-6.0-1.1","spark_pilot_2","7370","4","15","Male","","","","","","","null","<div style=""font-size:60px;"">+</div>","null","fixation","","","","","","","","","","","","","",""
"revaluation","33","196872","0.0-3.0-6.0-0.2","spark_pilot_2","7370","4","15","Male","","","false","","","","[920.6000003814697]","./assets/img/space/animals/cat.jpg","[""ArrowLeft""]","second stage practice","space","3","{""ArrowUp,ArrowLeft"":3,""ArrowUp,ArrowRight"":36,""ArrowDown,ArrowLeft"":15,""ArrowDown,ArrowRight"":23}","false","ArrowUp,ArrowLeft","","","","","","","","",""
"html-keyboard-response","34","197384","0.0-3.0-6.0-1.2","spark_pilot_2","7370","4","15","Male","","","","","","","null","<div style=""font-size:60px;"">+</div>","null","fixation","","","","","","","","","","","","","",""
"revaluation","35","201408","0.0-3.0-6.0-0.3","spark_pilot_2","7370","4","15","Male","","","false","","","","[484]","./assets/img/space/animals/cat.jpg","[""ArrowRight""]","second stage practice","space","36","{""ArrowUp,ArrowLeft"":3,""ArrowUp,ArrowRight"":36,""ArrowDown,ArrowLeft"":15,""ArrowDown,ArrowRight"":23}","true","ArrowUp,ArrowRight","","","","","","","","",""
"html-keyboard-response","36","201923","0.0-3.0-6.0-1.3","spark_pilot_2","7370","4","15","Male","","","","","","","null","<div style=""font-size:60px;"">+</div>","null","fixation","","","","","","","","","","","","","",""
"learning-instructions","37","219975","0.0-3.0-7.0-0.0","spark_pilot_2","7370","4","15","Male","","","","","","","1220.2000007629395","<p> Great job. Now let’s try putting it together. </p>
            <p> On each turn, you will first see a picture to remind you of the place you are in, and you need to choose whether to go up or down. </p>
            <p> Then you will see an animal and choose which of its chests to search for treasure. </p>","","instructions","","","","","","","","","","","","","",""
"learning-instructions","38","229369","0.0-3.0-7.0-0.1","spark_pilot_2","7370","4","15","Male","","","","","","","1130.6000003814697","<p> When you choose whether to go up or down, try to go to the animal with the chest with the most treasure. </p>
            <p> Try practicing that now! </p>","","instructions","","","","","","","","","","","","","",""
"revaluation","39","235396","0.0-3.0-8.0-0.0","spark_pilot_2","7370","4","15","Male","","","false","","","","[317.8999996185303,399.5]","./assets/img/space/6.jpg","[""ArrowUp"",""ArrowLeft""]","full practice","space","3","{""ArrowUp,ArrowLeft"":3,""ArrowUp,ArrowRight"":36,""ArrowDown,ArrowLeft"":15,""ArrowDown,ArrowRight"":23}","false","ArrowUp,ArrowLeft","false","","","","","","","",""
"html-keyboard-response","40","235903","0.0-3.0-8.0-1.0","spark_pilot_2","7370","4","15","Male","","","","","","","null","<div style=""font-size:60px;"">+</div>","null","fixation","","","","","","","","","","","","","",""
"revaluation","41","241941","0.0-3.0-8.0-0.1","spark_pilot_2","7370","4","15","Male","","","false","","","","[44,342.6000003814697]","./assets/img/space/7.jpg","[""ArrowUp"",""ArrowRight""]","full practice","space","36","{""ArrowUp,ArrowLeft"":3,""ArrowUp,ArrowRight"":36,""ArrowDown,ArrowLeft"":15,""ArrowDown,ArrowRight"":23}","true","ArrowUp,ArrowRight","false","","","","","","","",""
"html-keyboard-response","42","242455","0.0-3.0-8.0-1.1","spark_pilot_2","7370","4","15","Male","","","","","","","null","<div style=""font-size:60px;"">+</div>","null","fixation","","","","","","","","","","","","","",""
"revaluation","43","248497","0.0-3.0-8.0-0.2","spark_pilot_2","7370","4","15","Male","","","false","","","","[234.39999961853027,307]","./assets/img/space/8.jpg","[""ArrowDown"",""ArrowRight""]","full practice","space","23","{""ArrowUp,ArrowLeft"":3,""ArrowUp,ArrowRight"":36,""ArrowDown,ArrowLeft"":15,""ArrowDown,ArrowRight"":23}","false","ArrowDown,ArrowRight","false","","","","","","","",""
"html-keyboard-response","44","249017","0.0-3.0-8.0-1.2","spark_pilot_2","7370","4","15","Male","","","","","","","null","<div style=""font-size:60px;"">+</div>","null","fixation","","","","","","","","","","","","","",""
"revaluation","45","255051","0.0-3.0-8.0-0.3","spark_pilot_2","7370","4","15","Male","","","false","","","","[0.10000038146972656,187]","./assets/img/space/9.jpg","[""ArrowUp"",""ArrowRight""]","full practice","space","36","{""ArrowUp,ArrowLeft"":3,""ArrowUp,ArrowRight"":36,""ArrowDown,ArrowLeft"":15,""ArrowDown,ArrowRight"":23}","true","ArrowUp,ArrowRight","false","","","","","","","",""
"html-keyboard-response","46","255564","0.0-3.0-8.0-1.3","spark_pilot_2","7370","4","15","Male","","","","","","","null","<div style=""font-size:60px;"">+</div>","null","fixation","","","","","","","","","","","","","",""
"revaluation","47","261586","0.0-3.0-8.0-0.4","spark_pilot_2","7370","4","15","Male","","","false","","","","[132,214.80000114440918]","./assets/img/space/10.jpg","[""ArrowUp"",""ArrowRight""]","full practice","space","36","{""ArrowUp,ArrowLeft"":3,""ArrowUp,ArrowRight"":36,""ArrowDown,ArrowLeft"":15,""ArrowDown,ArrowRight"":23}","true","ArrowUp,ArrowRight","false","","","","","","","",""
"html-keyboard-response","48","262089","0.0-3.0-8.0-1.4","spark_pilot_2","7370","4","15","Male","","","","","","","null","<div style=""font-size:60px;"">+</div>","null","fixation","","","","","","","","","","","","","",""
"learning-instructions","49","273835","0.0-3.0-9.0-0.0","spark_pilot_2","7370","4","15","Male","","","","","","","1200.8999996185303","<p> One last thing: sometimes, you will see a robber. The robber can be anywhere in the picture. </p>
            <p> If you do not stop them, you will lose treasure. </p>
            <img src='./assets/img/instructions/robber.jpg' class='instructions-image'>","","instructions","","","","","","","","","","","","","",""
"learning-instructions","50","281692","0.0-3.0-9.0-0.1","spark_pilot_2","7370","4","15","Male","","","","","","","683.7999992370605","<p> If you see the robber, you should <b>press the space bar</b> rather than using the arrow keys. </p>
            <p> Try practicing that now! </p>","","instructions","","","","","","","","","","","","","",""
"revaluation","51","285715","0.0-3.0-10.0-0.0","spark_pilot_2","7370","4","15","Male","","","false","","","","[613.2999992370605]","./assets/img/space/catch/0.jpg","[""spaceBar""]","catch practice","space","0","{""ArrowUp,ArrowLeft"":3,""ArrowUp,ArrowRight"":36,""ArrowDown,ArrowLeft"":15,""ArrowDown,ArrowRight"":23}","true","spaceBar","true","","","","","","","",""
"html-keyboard-response","52","286228","0.0-3.0-10.0-1.0","spark_pilot_2","7370","4","15","Male","","","","","","","null","<div style=""font-size:60px;"">+</div>","null","fixation","","","","","","","","","","","","","",""
"revaluation","53","290248","0.0-3.0-10.0-0.1","spark_pilot_2","7370","4","15","Male","","","false","","","","[468.79999923706055]","./assets/img/space/catch/1.jpg","[""spaceBar""]","catch practice","space","0","{""ArrowUp,ArrowLeft"":3,""ArrowUp,ArrowRight"":36,""ArrowDown,ArrowLeft"":15,""ArrowDown,ArrowRight"":23}","true","spaceBar","true","","","","","","","",""
"html-keyboard-response","54","290769","0.0-3.0-10.0-1.1","spark_pilot_2","7370","4","15","Male","","","","","","","null","<div style=""font-size:60px;"">+</div>","null","fixation","","","","","","","","","","","","","",""
"revaluation","55","294788","0.0-3.0-10.0-0.2","spark_pilot_2","7370","4","15","Male","","","false","","","","[434.6000003814697]","./assets/img/space/catch/2.jpg","[""spaceBar""]","catch practice","space","0","{""ArrowUp,ArrowLeft"":3,""ArrowUp,ArrowRight"":36,""ArrowDown,ArrowLeft"":15,""ArrowDown,ArrowRight"":23}","true","spaceBar","true","","","","","","","",""
"html-keyboard-response","56","295303","0.0-3.0-10.0-1.2","spark_pilot_2","7370","4","15","Male","","","","","","","null","<div style=""font-size:60px;"">+</div>","null","fixation","","","","","","","","","","","","","",""
"learning-instructions","57","312168","0.0-3.0-11.0-0.0","spark_pilot_2","7370","4","15","Male","","","","","","","3267.2999992370605","<p> After you explore a place to find treasure, it will be time to play a different game. </p>
            <p> During this game, red dots will appear on the screen and fall down slowly. </p>
            <p><b> You must click on them before they reach the bottom. </b></p>
            <img src='./assets/img/instructions/dotGame.jpg' class='instructions-image'>","","instructions","","","","","","","","","","","","","",""
"learning-instructions","58","318381","0.0-3.0-11.0-0.1","spark_pilot_2","7370","4","15","Male","","","","","","","541.8000011444092","<p> For every dot you click, you will earn additional treasure. </p>
            <p> Let’s try practicing that now. </p>","","instructions","","","","","","","","","","","","","",""
"revaluation","59","333388","0.0-3.0-12.0-0.0","spark_pilot_2","7370","4","15","Male","","","","","","","[83]","","","rest practice","","10","","","","","0","15000","","","","","",""
"learning-instructions","60","339853","0.0-3.0-13.0-0.0-0.0","spark_pilot_2","7370","4","15","Male","","","","","","","1192.8999996185303","<p> Now, you will practice a shortened version of the game to get a sense of how it all fits together. </p>","","instructions","","","","","","","","","","","","","",""
"learning-instructions","61","344084","0.0-3.0-13.0-0.0-0.1","spark_pilot_2","7370","4","15","Male","","","","","","","1039.3999996185303","<p>This time you are searching for treasure in outer space.</p>","","instructions","","","","","","","","","","","","","",""
"learning-instructions","62","359711","0.0-3.0-13.0-1.0-0.0","spark_pilot_2","7370","4","15","Male","","","","","","","858","<p> Remember, when you see a picture of the place, use the up and down keys to <b>find an animal</b>.</p>
            <p> When you encounter an animal, you should use the left and right keys to <b>select a treasure chest</b>.</p>
            <p> Don't forget to look out for the robber! </p>","","instructions","","","","","","","","","","","","","",""
"revaluation","63","365745","0.0-3.0-13.0-2.0-0.0","spark_pilot_2","7370","4","15","Male","","","false","","","","[918.8000011444092,383.9000015258789]","./assets/img/space/11.jpg","[""ArrowUp"",""ArrowLeft""]","practice block","space","3","{""ArrowUp,ArrowLeft"":3,""ArrowUp,ArrowRight"":36,""ArrowDown,ArrowLeft"":15,""ArrowDown,ArrowRight"":23}","false","ArrowUp,ArrowLeft","false","","","","","","","",""
"html-keyboard-response","64","366262","0.0-3.0-13.0-2.0-1.0","spark_pilot_2","7370","4","15","Male","","","","","","","null","<div style=""font-size:60px;"">+</div>","null","fixation","","","","","","","","","","","","","",""
"revaluation","65","372315","0.0-3.0-13.0-2.0-0.1","spark_pilot_2","7370","4","15","Male","","","false","","","","[933.1000003814697,271.5]","./assets/img/space/12.jpg","[""ArrowUp"",""ArrowRight""]","practice block","space","36","{""ArrowUp,ArrowLeft"":3,""ArrowUp,ArrowRight"":36,""ArrowDown,ArrowLeft"":15,""ArrowDown,ArrowRight"":23}","true","ArrowUp,ArrowRight","false","","","","","","","",""
"html-keyboard-response","66","372830","0.0-3.0-13.0-2.0-1.1","spark_pilot_2","7370","4","15","Male","","","","","","","null","<div style=""font-size:60px;"">+</div>","null","fixation","","","","","","","","","","","","","",""
"revaluation","67","378872","0.0-3.0-13.0-2.0-0.2","spark_pilot_2","7370","4","15","Male","","","false","","","","[539.1999988555908,65.30000114440918]","./assets/img/space/13.jpg","[""ArrowUp"",""ArrowRight""]","practice block","space","36","{""ArrowUp,ArrowLeft"":3,""ArrowUp,ArrowRight"":36,""ArrowDown,ArrowLeft"":15,""ArrowDown,ArrowRight"":23}","true","ArrowUp,ArrowRight","false","","","","","","","",""
"html-keyboard-response","68","379386","0.0-3.0-13.0-2.0-1.2","spark_pilot_2","7370","4","15","Male","","","","","","","null","<div style=""font-size:60px;"">+</div>","null","fixation","","","","","","","","","","","","","",""
"revaluation","69","385436","0.0-3.0-13.0-2.0-0.3","spark_pilot_2","7370","4","15","Male","","","false","","","","[513,267.3000011444092]","./assets/img/space/14.jpg","[""ArrowUp"",""ArrowRight""]","practice block","space","36","{""ArrowUp,ArrowLeft"":3,""ArrowUp,ArrowRight"":36,""ArrowDown,ArrowLeft"":15,""ArrowDown,ArrowRight"":23}","true","ArrowUp,ArrowRight","false","","","","","","","",""
"html-keyboard-response","70","385950","0.0-3.0-13.0-2.0-1.3","spark_pilot_2","7370","4","15","Male","","","","","","","null","<div style=""font-size:60px;"">+</div>","null","fixation","","","","","","","","","","","","","",""
"revaluation","71","391978","0.0-3.0-13.0-2.0-0.4","spark_pilot_2","7370","4","15","Male","","","false","","","","[596,306.5999984741211]","./assets/img/space/11.jpg","[""ArrowUp"",""ArrowRight""]","practice block","space","36","{""ArrowUp,ArrowLeft"":3,""ArrowUp,ArrowRight"":36,""ArrowDown,ArrowLeft"":15,""ArrowDown,ArrowRight"":23}","true","ArrowUp,ArrowRight","false","","","","","","","",""
"html-keyboard-response","72","392482","0.0-3.0-13.0-2.0-1.4","spark_pilot_2","7370","4","15","Male","","","","","","","null","<div style=""font-size:60px;"">+</div>","null","fixation","","","","","","","","","","","","","",""
"revaluation","73","398506","0.0-3.0-13.0-2.0-0.5","spark_pilot_2","7370","4","15","Male","","","false","","","","[522.5999984741211,291.5]","./assets/img/space/12.jpg","[""ArrowUp"",""ArrowRight""]","practice block","space","36","{""ArrowUp,ArrowLeft"":3,""ArrowUp,ArrowRight"":36,""ArrowDown,ArrowLeft"":15,""ArrowDown,ArrowRight"":23}","true","ArrowUp,ArrowRight","false","","","","","","","",""
"html-keyboard-response","74","399009","0.0-3.0-13.0-2.0-1.5","spark_pilot_2","7370","4","15","Male","","","","","","","null","<div style=""font-size:60px;"">+</div>","null","fixation","","","","","","","","","","","","","",""
"revaluation","75","405040","0.0-3.0-13.0-2.0-0.6","spark_pilot_2","7370","4","15","Male","","","false","","","","[606.2000007629395,252.79999923706055]","./assets/img/space/13.jpg","[""ArrowUp"",""ArrowRight""]","practice block","space","36","{""ArrowUp,ArrowLeft"":3,""ArrowUp,ArrowRight"":36,""ArrowDown,ArrowLeft"":15,""ArrowDown,ArrowRight"":23}","true","ArrowUp,ArrowRight","false","","","","","","","",""
"html-keyboard-response","76","405545","0.0-3.0-13.0-2.0-1.6","spark_pilot_2","7370","4","15","Male","","","","","","","null","<div style=""font-size:60px;"">+</div>","null","fixation","","","","","","","","","","","","","",""
"revaluation","77","411569","0.0-3.0-13.0-2.0-0.7","spark_pilot_2","7370","4","15","Male","","","false","","","","[426.1000003814697,311.5]","./assets/img/space/14.jpg","[""ArrowUp"",""ArrowRight""]","practice block","space","36","{""ArrowUp,ArrowLeft"":3,""ArrowUp,ArrowRight"":36,""ArrowDown,ArrowLeft"":15,""ArrowDown,ArrowRight"":23}","true","ArrowUp,ArrowRight","false","","","","","","","",""
"html-keyboard-response","78","412073","0.0-3.0-13.0-2.0-1.7","spark_pilot_2","7370","4","15","Male","","","","","","","null","<div style=""font-size:60px;"">+</div>","null","fixation","","","","","","","","","","","","","",""
"revaluation","79","416090","0.0-3.0-13.0-2.0-0.8","spark_pilot_2","7370","4","15","Male","","","false","","","","[750.5]","./assets/img/space/catch/3.jpg","[""spaceBar""]","practice block","space","0","{""ArrowUp,ArrowLeft"":3,""ArrowUp,ArrowRight"":36,""ArrowDown,ArrowLeft"":15,""ArrowDown,ArrowRight"":23}","true","spaceBar","true","","","","","","","",""
"html-keyboard-response","80","416594","0.0-3.0-13.0-2.0-1.8","spark_pilot_2","7370","4","15","Male","","","","","","","null","<div style=""font-size:60px;"">+</div>","null","fixation","","","","","","","","","","","","","",""
"learning-instructions","81","432077","0.0-3.0-13.0-3.0-0.0","spark_pilot_2","7370","4","15","Male","","","","","","","2278","<p> Now, you will travel with a friend who will choose whether you go up or down first. </p>
            <p> On these turns, you will just see the animal that they found. You will still get to choose which chest to search for treasure.</p>","","instructions","","","","","","","","","","","","","",""
"revaluation","82","436090","0.0-3.0-13.0-4.0-0.0","spark_pilot_2","7370","4","15","Male","","","false","","","","[1695.7999992370605]","./assets/img/space/animals/cat.jpg","[""ArrowRight""]","practice block","space","36","{""ArrowUp,ArrowLeft"":3,""ArrowUp,ArrowRight"":36,""ArrowDown,ArrowLeft"":15,""ArrowDown,ArrowRight"":23}","true","ArrowUp,ArrowRight","","","","","","","","",""
"html-keyboard-response","83","436600","0.0-3.0-13.0-4.0-1.0","spark_pilot_2","7370","4","15","Male","","","","","","","null","<div style=""font-size:60px;"">+</div>","null","fixation","","","","","","","","","","","","","",""
"revaluation","84","440620","0.0-3.0-13.0-4.0-0.1","spark_pilot_2","7370","4","15","Male","","","false","","","","[439.29999923706055]","./assets/img/space/animals/cat.jpg","[""ArrowRight""]","practice block","space","36","{""ArrowUp,ArrowLeft"":3,""ArrowUp,ArrowRight"":36,""ArrowDown,ArrowLeft"":15,""ArrowDown,ArrowRight"":23}","true","ArrowUp,ArrowRight","","","","","","","","",""
"html-keyboard-response","85","441129","0.0-3.0-13.0-4.0-1.1","spark_pilot_2","7370","4","15","Male","","","","","","","null","<div style=""font-size:60px;"">+</div>","null","fixation","","","","","","","","","","","","","",""
"revaluation","86","445155","0.0-3.0-13.0-4.0-0.2","spark_pilot_2","7370","4","15","Male","","","false","","","","[653.3000011444092]","./assets/img/space/animals/rabbit.jpg","[""ArrowLeft""]","practice block","space","15","{""ArrowUp,ArrowLeft"":3,""ArrowUp,ArrowRight"":36,""ArrowDown,ArrowLeft"":15,""ArrowDown,ArrowRight"":23}","false","ArrowDown,ArrowLeft","","","","","","","","",""
"html-keyboard-response","87","445664","0.0-3.0-13.0-4.0-1.2","spark_pilot_2","7370","4","15","Male","","","","","","","null","<div style=""font-size:60px;"">+</div>","null","fixation","","","","","","","","","","","","","",""
"revaluation","88","449692","0.0-3.0-13.0-4.0-0.3","spark_pilot_2","7370","4","15","Male","","","false","","","","[75.89999961853027]","./assets/img/space/animals/rabbit.jpg","[""ArrowRight""]","practice block","space","23","{""ArrowUp,ArrowLeft"":3,""ArrowUp,ArrowRight"":36,""ArrowDown,ArrowLeft"":15,""ArrowDown,ArrowRight"":23}","true","ArrowDown,ArrowRight","","","","","","","","",""
"html-keyboard-response","89","450204","0.0-3.0-13.0-4.0-1.3","spark_pilot_2","7370","4","15","Male","","","","","","","null","<div style=""font-size:60px;"">+</div>","null","fixation","","","","","","","","","","","","","",""
"learning-instructions","90","458928","0.0-3.0-13.0-5.0-0.0","spark_pilot_2","7370","4","15","Male","","","","","","","1352.7000007629395","<p> Time to play the dot game! </p>
            <p> For 15 seconds, click the red dots on the following screen as they appear. </p>","","instructions","","","","","","","","","","","","","",""
"revaluation","91","473930","0.0-3.0-13.0-6.0-0.0","spark_pilot_2","7370","4","15","Male","","","","","","","[67,75]","","","rest practice","","20","","","","","0","15000","","","","","",""
"learning-instructions","92","480918","0.0-3.0-13.0-7.0-0.0","spark_pilot_2","7370","4","15","Male","","","","","","","867.1000003814697","<p> You have almost finished this part of the game! </p>
            <p> We are going to ask you to make a few more choices. </p>","","instructions","","","","","","","","","","","","","",""
"learning-instructions","93","496598","0.0-3.0-13.0-7.0-0.1","spark_pilot_2","7370","4","15","Male","","","","","","","1677.3000011444092","<p> First, you need to decide whether to go up or down. When you see each picture, use the arrow keys to make your choice. </p>
            <p><b>You will not see which animal you found, but try to get to the one that will give you the most treasure.</b></p>","","instructions","","","","","","","","","","","","","",""
"revaluation","94","497459","0.0-3.0-13.0-8.0","spark_pilot_2","7370","4","15","Male","","","false","","","","[859.3999996185303]","./assets/img/space/15.jpg","[""ArrowUp""]","practice block","space","0","{""ArrowUp,ArrowLeft"":3,""ArrowUp,ArrowRight"":36,""ArrowDown,ArrowLeft"":15,""ArrowDown,ArrowRight"":23}","true","ArrowUp","false","","","","","","","",""
"html-keyboard-response","95","497975","0.0-3.0-13.0-9.0","spark_pilot_2","7370","4","15","Male","","","","","","","null","<div style=""font-size:60px;"">+</div>","null","fixation","","","","","","","","","","","","","",""
"learning-instructions","96","511056","0.0-3.0-13.0-10.0-0.0","spark_pilot_2","7370","4","15","Male","","","","","","","1692.6000003814697","<p> Now you will see the animals again and can search their chests for treasure. </p>
            <p> This time, you will not see how much treasure you earned, but you will earn more bonus money for making better choices. </p>","","instructions","","","","","","","","","","","","","",""
"revaluation","97","511563","0.0-3.0-13.0-11.0-0.0","spark_pilot_2","7370","4","15","Male","","","false","","","","[505.5]","./assets/img/space/animals/cat.jpg","[""ArrowRight""]","practice block","space","0","{""ArrowUp,ArrowLeft"":3,""ArrowUp,ArrowRight"":36,""ArrowDown,ArrowLeft"":15,""ArrowDown,ArrowRight"":23}","true","ArrowUp,ArrowRight","","","","","","","","",""
"html-keyboard-response","98","512073","0.0-3.0-13.0-11.0-1.0","spark_pilot_2","7370","4","15","Male","","","","","","","null","<div style=""font-size:60px;"">+</div>","null","fixation","","","","","","","","","","","","","",""
"revaluation","99","512853","0.0-3.0-13.0-11.0-0.1","spark_pilot_2","7370","4","15","Male","","","false","","","","[776.9000015258789]","./assets/img/space/animals/rabbit.jpg","[""ArrowRight""]","practice block","space","0","{""ArrowUp,ArrowLeft"":3,""ArrowUp,ArrowRight"":36,""ArrowDown,ArrowLeft"":15,""ArrowDown,ArrowRight"":23}","true","ArrowDown,ArrowRight","","","","","","","","",""
"html-keyboard-response","100","513373","0.0-3.0-13.0-11.0-1.1","spark_pilot_2","7370","4","15","Male","","","","","","","null","<div style=""font-size:60px;"">+</div>","null","fixation","","","","","","","","","","","","","",""
"learning-instructions","101","519318","0.0-3.0-14.0-0.0","spark_pilot_2","7370","4","15","Male","","","","","","","1358.2000007629395","<p> Before you start, we're going to ask you a few questions about how the game works. </p>","","instructions","","","","","","","","","","","","","",""
"comp-q","102","526002","0.0-3.0-15.0-0.0-0.0","spark_pilot_2","7370","4","15","Male","","","","","","","1095.2999992370605","<p> <b> True or False? </b> </p>
            <p> There can be 50 pieces of treasure in a given animal's chest. </p>","1","comp_question","","","","true","","","","","","","","","",""
"comp-q","103","534115","0.0-3.0-15.0-0.0-1.0","spark_pilot_2","7370","4","15","Male","","","","","","","1456.3999996185303","<p> <b> That's right! </b> The amount of treasure in each chest can range from 0 to 40 pieces. </p>","0","comp_answer","","","","","","","","","","","","","",""
"comp-q","104","542278","0.0-3.0-15.0-0.1-0.1","spark_pilot_2","7370","4","15","Male","","","","","","","1043","<p> <b> True or False? </b> </p><p> In this game, all animals have the same amount of treasure in their left and right chests. </p>","1","comp_question","","","","true","","","","","","","","","",""
"comp-q","105","548488","0.0-3.0-15.0-0.1-1.1","spark_pilot_2","7370","4","15","Male","","","","","","","971","<p> <b> That's right! </b> Animals have different amounts of treasure in their treasure chests. </p>","0","comp_answer","","","","","","","","","","","","","",""
"comp-q","106","555565","0.0-3.0-15.0-0.2-0.2","spark_pilot_2","7370","4","15","Male","","","","","","","1231","<p> <b> True or False? </b> </p><p> The same animal will always be there if you go up in the same place. </p>","0","comp_question","","","","true","","","","","","","","","",""
"comp-q","107","563325","0.0-3.0-15.0-0.2-1.2","spark_pilot_2","7370","4","15","Male","","","","","","","1321.400001525879","<p> <b> That's right! </b> One animal lives in the upper part and one lives in the lower part of every place. </p>","0","comp_answer","","","","","","","","","","","","","",""
"comp-q","108","569564","0.0-3.0-15.0-0.3-0.3","spark_pilot_2","7370","4","15","Male","","","","","","","713.9000015258789","<p> <b> True or False? </b> </p><p> If you see a different picture, it means you are in a new place. </p>","1","comp_question","","","","true","","","","","","","","","",""
"comp-q","109","581980","0.0-3.0-15.0-0.3-1.3","spark_pilot_2","7370","4","15","Male","","","","","","","1182.8000011444092","<p> <b> That's right! </b> Lots of different images may show the same place. For example,  you may see three different images that all remind you that you are in outer space. </p>","0","comp_answer","","","","","","","","","","","","","",""
"learning-instructions","110","593116","0.0-3.0-16.0-0.0","spark_pilot_2","7370","4","15","Male","","","","","","","1278.8000011444092","<p> Good job. Remember to do your best because the amount of treasure you earn will be converted into bonus money. </p>
            <p> It’s time to start the real game! </p>","","instructions","","","","","","","","","","","","","",""
"learning-instructions","111","596947","0.0-4.0-0.0-0.0","spark_pilot_2","7370","4","15","Male","","","","","","","1120.7999992370605","<p> This time you are searching for treasure in the <b>ocean</b>.</p>","","instructions","","","","","","","","","","","","","",""
"learning-instructions","112","615625","0.0-4.0-0.0-0.1","spark_pilot_2","7370","4","15","Male","","","","","","","1377","<p><b>New</b> animals with <b>new</b> treasure chests live here. You need to explore to discover where the animal with the best treasure chest is.</p>
                    <p> Like before, once you figure out which animal has the chest with the most treasure, you should try to get to that animal and select that chest! </p>","","instructions","","","","","","","","","","","","","",""
"learning-instructions","113","631841","0.0-4.0-1.0-0.0","spark_pilot_2","7370","4","15","Male","","","","","","","1487.2999992370605","<p> Remember, when you see a picture of the place, use the up and down keys to <b>find an animal</b>.</p>
            <p> When you encounter an animal, you should use the left and right keys to <b>select a treasure chest</b>.</p>
            <p> Don't forget to look out for the robber! </p>","","instructions","","","","","","","","","","","","","",""
"revaluation","114","637884","0.0-4.0-2.0-0.0","spark_pilot_2","7370","4","15","Male","","","false","","","","[879.8999996185303,415]","./assets/img/ocean/memory/26.jpg","[""ArrowUp"",""ArrowLeft""]","value training","ocean","26","{""ArrowUp,ArrowLeft"":26,""ArrowUp,ArrowRight"":10,""ArrowDown,ArrowLeft"":5,""ArrowDown,ArrowRight"":17}","true","ArrowUp,ArrowLeft","false","","","revaluation","1","0","","",""
"html-keyboard-response","115","638400","0.0-4.0-2.0-1.0","spark_pilot_2","7370","4","15","Male","","","","","","","null","<div style=""font-size:60px;"">+</div>","null","fixation","","","","","","","","","","","1","","",""
"revaluation","116","644436","0.0-4.0-2.0-0.1","spark_pilot_2","7370","4","15","Male","","","false","","","","[517.5999984741211,269.70000076293945]","./assets/img/ocean/memory/9.jpg","[""ArrowUp"",""ArrowRight""]","value training","ocean","10","{""ArrowUp,ArrowLeft"":26,""ArrowUp,ArrowRight"":10,""ArrowDown,ArrowLeft"":5,""ArrowDown,ArrowRight"":17}","false","ArrowUp,ArrowRight","false","","","revaluation","1","2","","",""
"html-keyboard-response","117","644952","0.0-4.0-2.0-1.1","spark_pilot_2","7370","4","15","Male","","","","","","","null","<div style=""font-size:60px;"">+</div>","null","fixation","","","","","","","","","","","3","","",""
"revaluation","118","648976","0.0-4.0-2.0-0.2","spark_pilot_2","7370","4","15","Male","","","false","","","","[404.3999996185303]","./assets/img/ocean/catch/6.jpg","[""ArrowDown""]","value training","ocean","-10","{""ArrowUp,ArrowLeft"":26,""ArrowUp,ArrowRight"":10,""ArrowDown,ArrowLeft"":5,""ArrowDown,ArrowRight"":17}","false","ArrowDown","true","","","revaluation","1","4","","",""
"html-keyboard-response","119","649493","0.0-4.0-2.0-1.2","spark_pilot_2","7370","4","15","Male","","","","","","","null","<div style=""font-size:60px;"">+</div>","null","fixation","","","","","","","","","","","5","","",""
"revaluation","120","655533","0.0-4.0-2.0-0.3","spark_pilot_2","7370","4","15","Male","","","false","","","","[534.8000011444092,308.8999996185303]","./assets/img/ocean/memory/36.jpg","[""ArrowDown"",""ArrowLeft""]","value training","ocean","5","{""ArrowUp,ArrowLeft"":26,""ArrowUp,ArrowRight"":10,""ArrowDown,ArrowLeft"":5,""ArrowDown,ArrowRight"":17}","false","ArrowDown,ArrowLeft","false","","","revaluation","1","6","","",""
"html-keyboard-response","121","656049","0.0-4.0-2.0-1.3","spark_pilot_2","7370","4","15","Male","","","","","","","null","<div style=""font-size:60px;"">+</div>","null","fixation","","","","","","","","","","","7","","",""
"revaluation","122","660072","0.0-4.0-2.0-0.4","spark_pilot_2","7370","4","15","Male","","","false","","","","[328.5]","./assets/img/ocean/catch/7.jpg","[""ArrowDown""]","value training","ocean","-10","{""ArrowUp,ArrowLeft"":26,""ArrowUp,ArrowRight"":10,""ArrowDown,ArrowLeft"":5,""ArrowDown,ArrowRight"":17}","false","ArrowDown","true","","","revaluation","1","8","","",""
"html-keyboard-response","123","660578","0.0-4.0-2.0-1.4","spark_pilot_2","7370","4","15","Male","","","","","","","null","<div style=""font-size:60px;"">+</div>","null","fixation","","","","","","","","","","","9","","",""
"revaluation","124","666602","0.0-4.0-2.0-0.5","spark_pilot_2","7370","4","15","Male","","","false","","","","[499.79999923706055,408.1000003814697]","./assets/img/ocean/memory/29.jpg","[""ArrowDown"",""ArrowRight""]","value training","ocean","17","{""ArrowUp,ArrowLeft"":26,""ArrowUp,ArrowRight"":10,""ArrowDown,ArrowLeft"":5,""ArrowDown,ArrowRight"":17}","false","ArrowDown,ArrowRight","false","","","revaluation","1","10","","",""
"html-keyboard-response","125","667106","0.0-4.0-2.0-1.5","spark_pilot_2","7370","4","15","Male","","","","","","","null","<div style=""font-size:60px;"">+</div>","null","fixation","","","","","","","","","","","11","","",""
"revaluation","126","673130","0.0-4.0-2.0-0.6","spark_pilot_2","7370","4","15","Male","","","false","","","","[589,233.5]","./assets/img/ocean/memory/19.jpg","[""ArrowUp"",""ArrowLeft""]","value training","ocean","26","{""ArrowUp,ArrowLeft"":26,""ArrowUp,ArrowRight"":10,""ArrowDown,ArrowLeft"":5,""ArrowDown,ArrowRight"":17}","true","ArrowUp,ArrowLeft","false","","","revaluation","1","12","","",""
"html-keyboard-response","127","673633","0.0-4.0-2.0-1.6","spark_pilot_2","7370","4","15","Male","","","","","","","null","<div style=""font-size:60px;"">+</div>","null","fixation","","","","","","","","","","","13","","",""
"revaluation","128","679658","0.0-4.0-2.0-0.7","spark_pilot_2","7370","4","15","Male","","","false","","","","[531.2000007629395,234.60000038146973]","./assets/img/ocean/memory/34.jpg","[""ArrowUp"",""ArrowLeft""]","value training","ocean","26","{""ArrowUp,ArrowLeft"":26,""ArrowUp,ArrowRight"":10,""ArrowDown,ArrowLeft"":5,""ArrowDown,ArrowRight"":17}","true","ArrowUp,ArrowLeft","false","","","revaluation","1","14","","",""
"html-keyboard-response","129","680161","0.0-4.0-2.0-1.7","spark_pilot_2","7370","4","15","Male","","","","","","","null","<div style=""font-size:60px;"">+</div>","null","fixation","","","","","","","","","","","15","","",""
"revaluation","130","686186","0.0-4.0-2.0-0.8","spark_pilot_2","7370","4","15","Male","","","false","","","","[546.7999992370605,289.9000015258789]","./assets/img/ocean/memory/30.jpg","[""ArrowUp"",""ArrowLeft""]","value training","ocean","26","{""ArrowUp,ArrowLeft"":26,""ArrowUp,ArrowRight"":10,""ArrowDown,ArrowLeft"":5,""ArrowDown,ArrowRight"":17}","true","ArrowUp,ArrowLeft","false","","","revaluation","1","16","","",""
"html-keyboard-response","131","686689","0.0-4.0-2.0-1.8","spark_pilot_2","7370","4","15","Male","","","","","","","null","<div style=""font-size:60px;"">+</div>","null","fixation","","","","","","","","","","","17","","",""
"revaluation","132","692714","0.0-4.0-2.0-0.9","spark_pilot_2","7370","4","15","Male","","","false","","","","[730.6000003814697,353.1000003814697]","./assets/img/ocean/memory/9.jpg","[""ArrowUp"",""ArrowLeft""]","value training","ocean","26","{""ArrowUp,ArrowLeft"":26,""ArrowUp,ArrowRight"":10,""ArrowDown,ArrowLeft"":5,""ArrowDown,ArrowRight"":17}","true","ArrowUp,ArrowLeft","false","","","revaluation","1","18","","",""
"html-keyboard-response","133","693218","0.0-4.0-2.0-1.9","spark_pilot_2","7370","4","15","Male","","","","","","","null","<div style=""font-size:60px;"">+</div>","null","fixation","","","","","","","","","","","19","","",""
"revaluation","134","699242","0.0-4.0-2.0-0.10","spark_pilot_2","7370","4","15","Male","","","false","","","","[505.1000003814697,264.6999988555908]","./assets/img/ocean/memory/25.jpg","[""ArrowUp"",""ArrowLeft""]","value training","ocean","26","{""ArrowUp,ArrowLeft"":26,""ArrowUp,ArrowRight"":10,""ArrowDown,ArrowLeft"":5,""ArrowDown,ArrowRight"":17}","true","ArrowUp,ArrowLeft","false","","","revaluation","1","20","","",""
"html-keyboard-response","135","699746","0.0-4.0-2.0-1.10","spark_pilot_2","7370","4","15","Male","","","","","","","null","<div style=""font-size:60px;"">+</div>","null","fixation","","","","","","","","","","","21","","",""
"revaluation","136","705770","0.0-4.0-2.0-0.11","spark_pilot_2","7370","4","15","Male","","","false","","","","[570,644.3999996185303]","./assets/img/ocean/memory/41.jpg","[""ArrowUp"",""ArrowLeft""]","value training","ocean","26","{""ArrowUp,ArrowLeft"":26,""ArrowUp,ArrowRight"":10,""ArrowDown,ArrowLeft"":5,""ArrowDown,ArrowRight"":17}","true","ArrowUp,ArrowLeft","false","","","revaluation","1","22","","",""
"html-keyboard-response","137","706274","0.0-4.0-2.0-1.11","spark_pilot_2","7370","4","15","Male","","","","","","","null","<div style=""font-size:60px;"">+</div>","null","fixation","","","","","","","","","","","23","","",""
"revaluation","138","710291","0.0-4.0-2.0-0.12","spark_pilot_2","7370","4","15","Male","","","false","","","","[644.1000003814697]","./assets/img/ocean/catch/2.jpg","[""spaceBar""]","value training","ocean","0","{""ArrowUp,ArrowLeft"":26,""ArrowUp,ArrowRight"":10,""ArrowDown,ArrowLeft"":5,""ArrowDown,ArrowRight"":17}","true","spaceBar","true","","","revaluation","1","24","","",""
"html-keyboard-response","139","710794","0.0-4.0-2.0-1.12","spark_pilot_2","7370","4","15","Male","","","","","","","null","<div style=""font-size:60px;"">+</div>","null","fixation","","","","","","","","","","","25","","",""
"revaluation","140","716818","0.0-4.0-2.0-0.13","spark_pilot_2","7370","4","15","Male","","","false","","","","[572.3000011444092,30]","./assets/img/ocean/memory/2.jpg","[""ArrowUp"",""ArrowLeft""]","value training","ocean","26","{""ArrowUp,ArrowLeft"":26,""ArrowUp,ArrowRight"":10,""ArrowDown,ArrowLeft"":5,""ArrowDown,ArrowRight"":17}","true","ArrowUp,ArrowLeft","false","","","revaluation","1","26","","",""
"html-keyboard-response","141","717322","0.0-4.0-2.0-1.13","spark_pilot_2","7370","4","15","Male","","","","","","","null","<div style=""font-size:60px;"">+</div>","null","fixation","","","","","","","","","","","27","","",""
"revaluation","142","723346","0.0-4.0-2.0-0.14","spark_pilot_2","7370","4","15","Male","","","false","","","","[462.5,235]","./assets/img/ocean/memory/38.jpg","[""ArrowUp"",""ArrowLeft""]","value training","ocean","26","{""ArrowUp,ArrowLeft"":26,""ArrowUp,ArrowRight"":10,""ArrowDown,ArrowLeft"":5,""ArrowDown,ArrowRight"":17}","true","ArrowUp,ArrowLeft","false","","","revaluation","1","28","","",""
"html-keyboard-response","143","723849","0.0-4.0-2.0-1.14","spark_pilot_2","7370","4","15","Male","","","","","","","null","<div style=""font-size:60px;"">+</div>","null","fixation","","","","","","","","","","","29","","",""
"revaluation","144","729874","0.0-4.0-2.0-0.15","spark_pilot_2","7370","4","15","Male","","","false","","","","[456.1000003814697,269.5]","./assets/img/ocean/memory/35.jpg","[""ArrowUp"",""ArrowLeft""]","value training","ocean","26","{""ArrowUp,ArrowLeft"":26,""ArrowUp,ArrowRight"":10,""ArrowDown,ArrowLeft"":5,""ArrowDown,ArrowRight"":17}","true","ArrowUp,ArrowLeft","false","","","revaluation","1","30","","",""
"html-keyboard-response","145","730378","0.0-4.0-2.0-1.15","spark_pilot_2","7370","4","15","Male","","","","","","","null","<div style=""font-size:60px;"">+</div>","null","fixation","","","","","","","","","","","31","","",""
"revaluation","146","736402","0.0-4.0-2.0-0.16","spark_pilot_2","7370","4","15","Male","","","false","","","","[540.1000003814697,169.20000076293945]","./assets/img/ocean/memory/3.jpg","[""ArrowUp"",""ArrowLeft""]","value training","ocean","26","{""ArrowUp,ArrowLeft"":26,""ArrowUp,ArrowRight"":10,""ArrowDown,ArrowLeft"":5,""ArrowDown,ArrowRight"":17}","true","ArrowUp,ArrowLeft","false","","","revaluation","1","32","","",""
"html-keyboard-response","147","736905","0.0-4.0-2.0-1.16","spark_pilot_2","7370","4","15","Male","","","","","","","null","<div style=""font-size:60px;"">+</div>","null","fixation","","","","","","","","","","","33","","",""
"revaluation","148","740922","0.0-4.0-2.0-0.17","spark_pilot_2","7370","4","15","Male","","","false","","","","[646.8000011444092]","./assets/img/ocean/catch/0.jpg","[""spaceBar""]","value training","ocean","0","{""ArrowUp,ArrowLeft"":26,""ArrowUp,ArrowRight"":10,""ArrowDown,ArrowLeft"":5,""ArrowDown,ArrowRight"":17}","true","spaceBar","true","","","revaluation","1","34","","",""
"html-keyboard-response","149","741426","0.0-4.0-2.0-1.17","spark_pilot_2","7370","4","15","Male","","","","","","","null","<div style=""font-size:60px;"">+</div>","null","fixation","","","","","","","","","","","35","","",""
"revaluation","150","747450","0.0-4.0-2.0-0.18","spark_pilot_2","7370","4","15","Male","","","false","","","","[450.8999996185303,105.29999923706055]","./assets/img/ocean/memory/39.jpg","[""ArrowUp"",""ArrowLeft""]","value training","ocean","26","{""ArrowUp,ArrowLeft"":26,""ArrowUp,ArrowRight"":10,""ArrowDown,ArrowLeft"":5,""ArrowDown,ArrowRight"":17}","true","ArrowUp,ArrowLeft","false","","","revaluation","1","36","","",""
"html-keyboard-response","151","747954","0.0-4.0-2.0-1.18","spark_pilot_2","7370","4","15","Male","","","","","","","null","<div style=""font-size:60px;"">+</div>","null","fixation","","","","","","","","","","","37","","",""
"revaluation","152","753979","0.0-4.0-2.0-0.19","spark_pilot_2","7370","4","15","Male","","","false","","","","[446.5,243.5]","./assets/img/ocean/memory/31.jpg","[""ArrowUp"",""ArrowLeft""]","value training","ocean","26","{""ArrowUp,ArrowLeft"":26,""ArrowUp,ArrowRight"":10,""ArrowDown,ArrowLeft"":5,""ArrowDown,ArrowRight"":17}","true","ArrowUp,ArrowLeft","false","","","revaluation","1","38","","",""
"html-keyboard-response","153","754490","0.0-4.0-2.0-1.19","spark_pilot_2","7370","4","15","Male","","","","","","","null","<div style=""font-size:60px;"">+</div>","null","fixation","","","","","","","","","","","39","","",""
"revaluation","154","760514","0.0-4.0-2.0-0.20","spark_pilot_2","7370","4","15","Male","","","false","","","","[569.8000011444092,397.6000003814697]","./assets/img/ocean/memory/1.jpg","[""ArrowUp"",""ArrowLeft""]","value training","ocean","26","{""ArrowUp,ArrowLeft"":26,""ArrowUp,ArrowRight"":10,""ArrowDown,ArrowLeft"":5,""ArrowDown,ArrowRight"":17}","true","ArrowUp,ArrowLeft","false","","","revaluation","1","40","","",""
"html-keyboard-response","155","761018","0.0-4.0-2.0-1.20","spark_pilot_2","7370","4","15","Male","","","","","","","null","<div style=""font-size:60px;"">+</div>","null","fixation","","","","","","","","","","","41","","",""
"revaluation","156","767042","0.0-4.0-2.0-0.21","spark_pilot_2","7370","4","15","Male","","","false","","","","[436.29999923706055,81.29999923706055]","./assets/img/ocean/memory/1.jpg","[""ArrowUp"",""ArrowLeft""]","value training","ocean","26","{""ArrowUp,ArrowLeft"":26,""ArrowUp,ArrowRight"":10,""ArrowDown,ArrowLeft"":5,""ArrowDown,ArrowRight"":17}","true","ArrowUp,ArrowLeft","false","","","revaluation","1","42","","",""
"html-keyboard-response","157","767547","0.0-4.0-2.0-1.21","spark_pilot_2","7370","4","15","Male","","","","","","","null","<div style=""font-size:60px;"">+</div>","null","fixation","","","","","","","","","","","43","","",""
"revaluation","158","773570","0.0-4.0-2.0-0.22","spark_pilot_2","7370","4","15","Male","","","false","","","","[538.4000015258789,235.70000076293945]","./assets/img/ocean/memory/13.jpg","[""ArrowUp"",""ArrowLeft""]","value training","ocean","26","{""ArrowUp,ArrowLeft"":26,""ArrowUp,ArrowRight"":10,""ArrowDown,ArrowLeft"":5,""ArrowDown,ArrowRight"":17}","true","ArrowUp,ArrowLeft","false","","","revaluation","1","44","","",""
"html-keyboard-response","159","774074","0.0-4.0-2.0-1.22","spark_pilot_2","7370","4","15","Male","","","","","","","null","<div style=""font-size:60px;"">+</div>","null","fixation","","","","","","","","","","","45","","",""
"revaluation","160","780098","0.0-4.0-2.0-0.23","spark_pilot_2","7370","4","15","Male","","","false","","","","[499.6000003814697,5.5]","./assets/img/ocean/memory/19.jpg","[""ArrowUp"",""ArrowLeft""]","value training","ocean","26","{""ArrowUp,ArrowLeft"":26,""ArrowUp,ArrowRight"":10,""ArrowDown,ArrowLeft"":5,""ArrowDown,ArrowRight"":17}","true","ArrowUp,ArrowLeft","false","","","revaluation","1","46","","",""
"html-keyboard-response","161","780602","0.0-4.0-2.0-1.23","spark_pilot_2","7370","4","15","Male","","","","","","","null","<div style=""font-size:60px;"">+</div>","null","fixation","","","","","","","","","","","47","","",""
"revaluation","162","784618","0.0-4.0-2.0-0.24","spark_pilot_2","7370","4","15","Male","","","false","","","","[468]","./assets/img/ocean/catch/4.jpg","[""ArrowUp""]","value training","ocean","-10","{""ArrowUp,ArrowLeft"":26,""ArrowUp,ArrowRight"":10,""ArrowDown,ArrowLeft"":5,""ArrowDown,ArrowRight"":17}","false","ArrowUp","true","","","revaluation","1","48","","",""
"html-keyboard-response","163","785122","0.0-4.0-2.0-1.24","spark_pilot_2","7370","4","15","Male","","","","","","","null","<div style=""font-size:60px;"">+</div>","null","fixation","","","","","","","","","","","49","","",""
"revaluation","164","791147","0.0-4.0-2.0-0.25","spark_pilot_2","7370","4","15","Male","","","false","","","","[787.2000007629395,267.6999988555908]","./assets/img/ocean/memory/14.jpg","[""ArrowUp"",""ArrowLeft""]","value training","ocean","26","{""ArrowUp,ArrowLeft"":26,""ArrowUp,ArrowRight"":10,""ArrowDown,ArrowLeft"":5,""ArrowDown,ArrowRight"":17}","true","ArrowUp,ArrowLeft","false","","","revaluation","1","50","","",""
"html-keyboard-response","165","791650","0.0-4.0-2.0-1.25","spark_pilot_2","7370","4","15","Male","","","","","","","null","<div style=""font-size:60px;"">+</div>","null","fixation","","","","","","","","","","","51","","",""
"revaluation","166","797675","0.0-4.0-2.0-0.26","spark_pilot_2","7370","4","15","Male","","","false","","","","[467.1999988555908,125.69999885559082]","./assets/img/ocean/memory/29.jpg","[""ArrowUp"",""ArrowLeft""]","value training","ocean","26","{""ArrowUp,ArrowLeft"":26,""ArrowUp,ArrowRight"":10,""ArrowDown,ArrowLeft"":5,""ArrowDown,ArrowRight"":17}","true","ArrowUp,ArrowLeft","false","","","revaluation","1","52","","",""
"html-keyboard-response","167","798178","0.0-4.0-2.0-1.26","spark_pilot_2","7370","4","15","Male","","","","","","","null","<div style=""font-size:60px;"">+</div>","null","fixation","","","","","","","","","","","53","","",""
"revaluation","168","804203","0.0-4.0-2.0-0.27","spark_pilot_2","7370","4","15","Male","","","false","","","","[492.5,357.8999996185303]","./assets/img/ocean/memory/41.jpg","[""ArrowUp"",""ArrowLeft""]","value training","ocean","26","{""ArrowUp,ArrowLeft"":26,""ArrowUp,ArrowRight"":10,""ArrowDown,ArrowLeft"":5,""ArrowDown,ArrowRight"":17}","true","ArrowUp,ArrowLeft","false","","","revaluation","1","54","","",""
"html-keyboard-response","169","804706","0.0-4.0-2.0-1.27","spark_pilot_2","7370","4","15","Male","","","","","","","null","<div style=""font-size:60px;"">+</div>","null","fixation","","","","","","","","","","","55","","",""
"revaluation","170","808722","0.0-4.0-2.0-0.28","spark_pilot_2","7370","4","15","Male","","","false","","","","[678.6000003814697]","./assets/img/ocean/catch/5.jpg","[""spaceBar""]","value training","ocean","0","{""ArrowUp,ArrowLeft"":26,""ArrowUp,ArrowRight"":10,""ArrowDown,ArrowLeft"":5,""ArrowDown,ArrowRight"":17}","true","spaceBar","true","","","revaluation","1","56","","",""
"html-keyboard-response","171","809227","0.0-4.0-2.0-1.28","spark_pilot_2","7370","4","15","Male","","","","","","","null","<div style=""font-size:60px;"">+</div>","null","fixation","","","","","","","","","","","57","","",""
"revaluation","172","815258","0.0-4.0-2.0-0.29","spark_pilot_2","7370","4","15","Male","","","false","","","","[553.6999988555908,85.60000038146973]","./assets/img/ocean/memory/36.jpg","[""ArrowUp"",""ArrowLeft""]","value training","ocean","26","{""ArrowUp,ArrowLeft"":26,""ArrowUp,ArrowRight"":10,""ArrowDown,ArrowLeft"":5,""ArrowDown,ArrowRight"":17}","true","ArrowUp,ArrowLeft","false","","","revaluation","1","58","","",""
"html-keyboard-response","173","815764","0.0-4.0-2.0-1.29","spark_pilot_2","7370","4","15","Male","","","","","","","null","<div style=""font-size:60px;"">+</div>","null","fixation","","","","","","","","","","","59","","",""
"revaluation","174","821787","0.0-4.0-2.0-0.30","spark_pilot_2","7370","4","15","Male","","","false","","","","[574.1000003814697,239.19999885559082]","./assets/img/ocean/memory/39.jpg","[""ArrowUp"",""ArrowLeft""]","value training","ocean","26","{""ArrowUp,ArrowLeft"":26,""ArrowUp,ArrowRight"":10,""ArrowDown,ArrowLeft"":5,""ArrowDown,ArrowRight"":17}","true","ArrowUp,ArrowLeft","false","","","revaluation","1","60","","",""
"html-keyboard-response","175","822290","0.0-4.0-2.0-1.30","spark_pilot_2","7370","4","15","Male","","","","","","","null","<div style=""font-size:60px;"">+</div>","null","fixation","","","","","","","","","","","61","","",""
"revaluation","176","828315","0.0-4.0-2.0-0.31","spark_pilot_2","7370","4","15","Male","","","false","","","","[883.6000003814697,586]","./assets/img/ocean/memory/10.jpg","[""ArrowUp"",""ArrowLeft""]","value training","ocean","26","{""ArrowUp,ArrowLeft"":26,""ArrowUp,ArrowRight"":10,""ArrowDown,ArrowLeft"":5,""ArrowDown,ArrowRight"":17}","true","ArrowUp,ArrowLeft","false","","","revaluation","1","62","","",""
"html-keyboard-response","177","828818","0.0-4.0-2.0-1.31","spark_pilot_2","7370","4","15","Male","","","","","","","null","<div style=""font-size:60px;"">+</div>","null","fixation","","","","","","","","","","","63","","",""
"revaluation","178","834843","0.0-4.0-2.0-0.32","spark_pilot_2","7370","4","15","Male","","","false","","","","[569.8999996185303,362.8000011444092]","./assets/img/ocean/memory/38.jpg","[""ArrowUp"",""ArrowLeft""]","value training","ocean","26","{""ArrowUp,ArrowLeft"":26,""ArrowUp,ArrowRight"":10,""ArrowDown,ArrowLeft"":5,""ArrowDown,ArrowRight"":17}","true","ArrowUp,ArrowLeft","false","","","revaluation","1","64","","",""
"html-keyboard-response","179","835348","0.0-4.0-2.0-1.32","spark_pilot_2","7370","4","15","Male","","","","","","","null","<div style=""font-size:60px;"">+</div>","null","fixation","","","","","","","","","","","65","","",""
"revaluation","180","841370","0.0-4.0-2.0-0.33","spark_pilot_2","7370","4","15","Male","","","false","","","","[701.6000003814697,237.60000038146973]","./assets/img/ocean/memory/3.jpg","[""ArrowUp"",""ArrowLeft""]","value training","ocean","26","{""ArrowUp,ArrowLeft"":26,""ArrowUp,ArrowRight"":10,""ArrowDown,ArrowLeft"":5,""ArrowDown,ArrowRight"":17}","true","ArrowUp,ArrowLeft","false","","","revaluation","1","66","","",""
"html-keyboard-response","181","841874","0.0-4.0-2.0-1.33","spark_pilot_2","7370","4","15","Male","","","","","","","null","<div style=""font-size:60px;"">+</div>","null","fixation","","","","","","","","","","","67","","",""
"revaluation","182","847899","0.0-4.0-2.0-0.34","spark_pilot_2","7370","4","15","Male","","","false","","","","[603,272.1000003814697]","./assets/img/ocean/memory/27.jpg","[""ArrowUp"",""ArrowLeft""]","value training","ocean","26","{""ArrowUp,ArrowLeft"":26,""ArrowUp,ArrowRight"":10,""ArrowDown,ArrowLeft"":5,""ArrowDown,ArrowRight"":17}","true","ArrowUp,ArrowLeft","false","","","revaluation","1","68","","",""
"html-keyboard-response","183","848402","0.0-4.0-2.0-1.34","spark_pilot_2","7370","4","15","Male","","","","","","","null","<div style=""font-size:60px;"">+</div>","null","fixation","","","","","","","","","","","69","","",""
"revaluation","184","854427","0.0-4.0-2.0-0.35","spark_pilot_2","7370","4","15","Male","","","false","","","","[384.29999923706055,528.7000007629395]","./assets/img/ocean/memory/26.jpg","[""ArrowUp"",""ArrowLeft""]","value training","ocean","26","{""ArrowUp,ArrowLeft"":26,""ArrowUp,ArrowRight"":10,""ArrowDown,ArrowLeft"":5,""ArrowDown,ArrowRight"":17}","true","ArrowUp,ArrowLeft","false","","","revaluation","1","70","","",""
"html-keyboard-response","185","854930","0.0-4.0-2.0-1.35","spark_pilot_2","7370","4","15","Male","","","","","","","null","<div style=""font-size:60px;"">+</div>","null","fixation","","","","","","","","","","","71","","",""
"revaluation","186","858946","0.0-4.0-2.0-0.36","spark_pilot_2","7370","4","15","Male","","","false","","","","[637.3999996185303]","./assets/img/ocean/catch/3.jpg","[""spaceBar""]","value training","ocean","0","{""ArrowUp,ArrowLeft"":26,""ArrowUp,ArrowRight"":10,""ArrowDown,ArrowLeft"":5,""ArrowDown,ArrowRight"":17}","true","spaceBar","true","","","revaluation","1","72","","",""
"html-keyboard-response","187","859450","0.0-4.0-2.0-1.36","spark_pilot_2","7370","4","15","Male","","","","","","","null","<div style=""font-size:60px;"">+</div>","null","fixation","","","","","","","","","","","73","","",""
"revaluation","188","865474","0.0-4.0-2.0-0.37","spark_pilot_2","7370","4","15","Male","","","false","","","","[594.3999996185303,112.60000038146973]","./assets/img/ocean/memory/31.jpg","[""ArrowUp"",""ArrowLeft""]","value training","ocean","26","{""ArrowUp,ArrowLeft"":26,""ArrowUp,ArrowRight"":10,""ArrowDown,ArrowLeft"":5,""ArrowDown,ArrowRight"":17}","true","ArrowUp,ArrowLeft","false","","","revaluation","1","74","","",""
"html-keyboard-response","189","865977","0.0-4.0-2.0-1.37","spark_pilot_2","7370","4","15","Male","","","","","","","null","<div style=""font-size:60px;"">+</div>","null","fixation","","","","","","","","","","","75","","",""
"revaluation","190","872003","0.0-4.0-2.0-0.38","spark_pilot_2","7370","4","15","Male","","","false","","","","[616.6000003814697,207.10000038146973]","./assets/img/ocean/memory/34.jpg","[""ArrowUp"",""ArrowLeft""]","value training","ocean","26","{""ArrowUp,ArrowLeft"":26,""ArrowUp,ArrowRight"":10,""ArrowDown,ArrowLeft"":5,""ArrowDown,ArrowRight"":17}","true","ArrowUp,ArrowLeft","false","","","revaluation","1","76","","",""
"html-keyboard-response","191","872506","0.0-4.0-2.0-1.38","spark_pilot_2","7370","4","15","Male","","","","","","","null","<div style=""font-size:60px;"">+</div>","null","fixation","","","","","","","","","","","77","","",""
"revaluation","192","878531","0.0-4.0-2.0-0.39","spark_pilot_2","7370","4","15","Male","","","false","","","","[653,436.79999923706055]","./assets/img/ocean/memory/13.jpg","[""ArrowUp"",""ArrowLeft""]","value training","ocean","26","{""ArrowUp,ArrowLeft"":26,""ArrowUp,ArrowRight"":10,""ArrowDown,ArrowLeft"":5,""ArrowDown,ArrowRight"":17}","true","ArrowUp,ArrowLeft","false","","","revaluation","1","78","","",""
"html-keyboard-response","193","879033","0.0-4.0-2.0-1.39","spark_pilot_2","7370","4","15","Male","","","","","","","null","<div style=""font-size:60px;"">+</div>","null","fixation","","","","","","","","","","","79","","",""
"revaluation","194","885058","0.0-4.0-2.0-0.40","spark_pilot_2","7370","4","15","Male","","","false","","","","[454.0999984741211,322.79999923706055]","./assets/img/ocean/memory/2.jpg","[""ArrowUp"",""ArrowLeft""]","value training","ocean","26","{""ArrowUp,ArrowLeft"":26,""ArrowUp,ArrowRight"":10,""ArrowDown,ArrowLeft"":5,""ArrowDown,ArrowRight"":17}","true","ArrowUp,ArrowLeft","false","","","revaluation","1","80","","",""
"html-keyboard-response","195","885561","0.0-4.0-2.0-1.40","spark_pilot_2","7370","4","15","Male","","","","","","","null","<div style=""font-size:60px;"">+</div>","null","fixation","","","","","","","","","","","81","","",""
"revaluation","196","891586","0.0-4.0-2.0-0.41","spark_pilot_2","7370","4","15","Male","","","false","","","","[698.2000007629395,309.6000003814697]","./assets/img/ocean/memory/10.jpg","[""ArrowUp"",""ArrowLeft""]","value training","ocean","26","{""ArrowUp,ArrowLeft"":26,""ArrowUp,ArrowRight"":10,""ArrowDown,ArrowLeft"":5,""ArrowDown,ArrowRight"":17}","true","ArrowUp,ArrowLeft","false","","","revaluation","1","82","","",""
"html-keyboard-response","197","892089","0.0-4.0-2.0-1.41","spark_pilot_2","7370","4","15","Male","","","","","","","null","<div style=""font-size:60px;"">+</div>","null","fixation","","","","","","","","","","","83","","",""
"revaluation","198","896106","0.0-4.0-2.0-0.42","spark_pilot_2","7370","4","15","Male","","","false","","","","[581.1000003814697]","./assets/img/ocean/catch/1.jpg","[""spaceBar""]","value training","ocean","0","{""ArrowUp,ArrowLeft"":26,""ArrowUp,ArrowRight"":10,""ArrowDown,ArrowLeft"":5,""ArrowDown,ArrowRight"":17}","true","spaceBar","true","","","revaluation","1","84","","",""
"html-keyboard-response","199","896609","0.0-4.0-2.0-1.42","spark_pilot_2","7370","4","15","Male","","","","","","","null","<div style=""font-size:60px;"">+</div>","null","fixation","","","","","","","","","","","85","","",""
"revaluation","200","902634","0.0-4.0-2.0-0.43","spark_pilot_2","7370","4","15","Male","","","false","","","","[663.5,412.79999923706055]","./assets/img/ocean/memory/32.jpg","[""ArrowUp"",""ArrowLeft""]","value training","ocean","26","{""ArrowUp,ArrowLeft"":26,""ArrowUp,ArrowRight"":10,""ArrowDown,ArrowLeft"":5,""ArrowDown,ArrowRight"":17}","true","ArrowUp,ArrowLeft","false","","","revaluation","1","86","","",""
"html-keyboard-response","201","903137","0.0-4.0-2.0-1.43","spark_pilot_2","7370","4","15","Male","","","","","","","null","<div style=""font-size:60px;"">+</div>","null","fixation","","","","","","","","","","","87","","",""
"revaluation","202","909163","0.0-4.0-2.0-0.44","spark_pilot_2","7370","4","15","Male","","","false","","","","[595.6999988555908,526.1000003814697]","./assets/img/ocean/memory/35.jpg","[""ArrowUp"",""ArrowLeft""]","value training","ocean","26","{""ArrowUp,ArrowLeft"":26,""ArrowUp,ArrowRight"":10,""ArrowDown,ArrowLeft"":5,""ArrowDown,ArrowRight"":17}","true","ArrowUp,ArrowLeft","false","","","revaluation","1","88","","",""
"html-keyboard-response","203","909674","0.0-4.0-2.0-1.44","spark_pilot_2","7370","4","15","Male","","","","","","","null","<div style=""font-size:60px;"">+</div>","null","fixation","","","","","","","","","","","89","","",""
"revaluation","204","915699","0.0-4.0-2.0-0.45","spark_pilot_2","7370","4","15","Male","","","false","","","","[562.7000007629395,31.80000114440918]","./assets/img/ocean/memory/14.jpg","[""ArrowUp"",""ArrowLeft""]","value training","ocean","26","{""ArrowUp,ArrowLeft"":26,""ArrowUp,ArrowRight"":10,""ArrowDown,ArrowLeft"":5,""ArrowDown,ArrowRight"":17}","true","ArrowUp,ArrowLeft","false","","","revaluation","1","90","","",""
"html-keyboard-response","205","916202","0.0-4.0-2.0-1.45","spark_pilot_2","7370","4","15","Male","","","","","","","null","<div style=""font-size:60px;"">+</div>","null","fixation","","","","","","","","","","","91","","",""
"revaluation","206","922227","0.0-4.0-2.0-0.46","spark_pilot_2","7370","4","15","Male","","","false","","","","[412,105.30000114440918]","./assets/img/ocean/memory/32.jpg","[""ArrowUp"",""ArrowLeft""]","value training","ocean","26","{""ArrowUp,ArrowLeft"":26,""ArrowUp,ArrowRight"":10,""ArrowDown,ArrowLeft"":5,""ArrowDown,ArrowRight"":17}","true","ArrowUp,ArrowLeft","false","","","revaluation","1","92","","",""
"html-keyboard-response","207","922730","0.0-4.0-2.0-1.46","spark_pilot_2","7370","4","15","Male","","","","","","","null","<div style=""font-size:60px;"">+</div>","null","fixation","","","","","","","","","","","93","","",""
"revaluation","208","928754","0.0-4.0-2.0-0.47","spark_pilot_2","7370","4","15","Male","","","false","","","","[615,504.79999923706055]","./assets/img/ocean/memory/27.jpg","[""ArrowUp"",""ArrowLeft""]","value training","ocean","26","{""ArrowUp,ArrowLeft"":26,""ArrowUp,ArrowRight"":10,""ArrowDown,ArrowLeft"":5,""ArrowDown,ArrowRight"":17}","true","ArrowUp,ArrowLeft","false","","","revaluation","1","94","","",""
"html-keyboard-response","209","929259","0.0-4.0-2.0-1.47","spark_pilot_2","7370","4","15","Male","","","","","","","null","<div style=""font-size:60px;"">+</div>","null","fixation","","","","","","","","","","","95","","",""
"revaluation","210","935283","0.0-4.0-2.0-0.48","spark_pilot_2","7370","4","15","Male","","","false","","","","[651.6000003814697,469.6000003814697]","./assets/img/ocean/memory/30.jpg","[""ArrowUp"",""ArrowLeft""]","value training","ocean","26","{""ArrowUp,ArrowLeft"":26,""ArrowUp,ArrowRight"":10,""ArrowDown,ArrowLeft"":5,""ArrowDown,ArrowRight"":17}","true","ArrowUp,ArrowLeft","false","","","revaluation","1","96","","",""
"html-keyboard-response","211","935786","0.0-4.0-2.0-1.48","spark_pilot_2","7370","4","15","Male","","","","","","","null","<div style=""font-size:60px;"">+</div>","null","fixation","","","","","","","","","","","97","","",""
"revaluation","212","941810","0.0-4.0-2.0-0.49","spark_pilot_2","7370","4","15","Male","","","false","","","","[603.8999996185303,483.6000003814697]","./assets/img/ocean/memory/25.jpg","[""ArrowUp"",""ArrowLeft""]","value training","ocean","26","{""ArrowUp,ArrowLeft"":26,""ArrowUp,ArrowRight"":10,""ArrowDown,ArrowLeft"":5,""ArrowDown,ArrowRight"":17}","true","ArrowUp,ArrowLeft","false","","","revaluation","1","98","","",""
"html-keyboard-response","213","942314","0.0-4.0-2.0-1.49","spark_pilot_2","7370","4","15","Male","","","","","","","null","<div style=""font-size:60px;"">+</div>","null","fixation","","","","","","","","","","","99","","",""
"learning-instructions","214","958261","0.0-4.0-3.0-0.0","spark_pilot_2","7370","4","15","Male","","","","","","","2751.699998855591","<p> Now, you will travel with a friend who will choose whether you go up or down first. </p>
            <p> On these turns, you will just see the animal that they found. You will still get to choose which chest to search for treasure.</p>","","instructions","","","","","","","","","","","","","",""
"revaluation","215","962292","0.0-4.0-4.0-0.0","spark_pilot_2","7370","4","15","Male","","","false","","","","[934.2000007629395]","./assets/img/ocean/animals/octopus.jpg","[""ArrowLeft""]","revaluation","ocean","2","{""ArrowUp,ArrowLeft"":2,""ArrowUp,ArrowRight"":11,""ArrowDown,ArrowLeft"":8,""ArrowDown,ArrowRight"":27}","false","ArrowUp,ArrowLeft","","","","revaluation","1","0","","",""
"html-keyboard-response","216","962803","0.0-4.0-4.0-1.0","spark_pilot_2","7370","4","15","Male","","","","","","","null","<div style=""font-size:60px;"">+</div>","null","fixation","","","","","","","","","","","1","","",""
"revaluation","217","966835","0.0-4.0-4.0-0.1","spark_pilot_2","7370","4","15","Male","","","false","","","","[673.1000003814697]","./assets/img/ocean/animals/seahorse.jpg","[""ArrowLeft""]","revaluation","ocean","8","{""ArrowUp,ArrowLeft"":2,""ArrowUp,ArrowRight"":11,""ArrowDown,ArrowLeft"":8,""ArrowDown,ArrowRight"":27}","false","ArrowDown,ArrowLeft","","","","revaluation","1","2","","",""
"html-keyboard-response","218","967351","0.0-4.0-4.0-1.1","spark_pilot_2","7370","4","15","Male","","","","","","","null","<div style=""font-size:60px;"">+</div>","null","fixation","","","","","","","","","","","3","","",""
"revaluation","219","971383","0.0-4.0-4.0-0.2","spark_pilot_2","7370","4","15","Male","","","false","","","","[409.1000003814697]","./assets/img/ocean/animals/octopus.jpg","[""ArrowRight""]","revaluation","ocean","11","{""ArrowUp,ArrowLeft"":2,""ArrowUp,ArrowRight"":11,""ArrowDown,ArrowLeft"":8,""ArrowDown,ArrowRight"":27}","true","ArrowUp,ArrowRight","","","","revaluation","1","4","","",""
"html-keyboard-response","220","971903","0.0-4.0-4.0-1.2","spark_pilot_2","7370","4","15","Male","","","","","","","null","<div style=""font-size:60px;"">+</div>","null","fixation","","","","","","","","","","","5","","",""
"revaluation","221","975935","0.0-4.0-4.0-0.3","spark_pilot_2","7370","4","15","Male","","","false","","","","[79.60000038146973]","./assets/img/ocean/animals/seahorse.jpg","[""ArrowRight""]","revaluation","ocean","27","{""ArrowUp,ArrowLeft"":2,""ArrowUp,ArrowRight"":11,""ArrowDown,ArrowLeft"":8,""ArrowDown,ArrowRight"":27}","true","ArrowDown,ArrowRight","","","","revaluation","1","6","","",""
"html-keyboard-response","222","976454","0.0-4.0-4.0-1.3","spark_pilot_2","7370","4","15","Male","","","","","","","null","<div style=""font-size:60px;"">+</div>","null","fixation","","","","","","","","","","","7","","",""
"revaluation","223","980484","0.0-4.0-4.0-0.4","spark_pilot_2","7370","4","15","Male","","","false","","","","[84.19999885559082]","./assets/img/ocean/animals/seahorse.jpg","[""ArrowRight""]","revaluation","ocean","27","{""ArrowUp,ArrowLeft"":2,""ArrowUp,ArrowRight"":11,""ArrowDown,ArrowLeft"":8,""ArrowDown,ArrowRight"":27}","true","ArrowDown,ArrowRight","","","","revaluation","1","8","","",""
"html-keyboard-response","224","980999","0.0-4.0-4.0-1.4","spark_pilot_2","7370","4","15","Male","","","","","","","null","<div style=""font-size:60px;"">+</div>","null","fixation","","","","","","","","","","","9","","",""
"revaluation","225","985024","0.0-4.0-4.0-0.5","spark_pilot_2","7370","4","15","Male","","","false","","","","[722.8999996185303]","./assets/img/ocean/animals/octopus.jpg","[""ArrowRight""]","revaluation","ocean","11","{""ArrowUp,ArrowLeft"":2,""ArrowUp,ArrowRight"":11,""ArrowDown,ArrowLeft"":8,""ArrowDown,ArrowRight"":27}","true","ArrowUp,ArrowRight","","","","revaluation","1","10","","",""
"html-keyboard-response","226","985531","0.0-4.0-4.0-1.5","spark_pilot_2","7370","4","15","Male","","","","","","","null","<div style=""font-size:60px;"">+</div>","null","fixation","","","","","","","","","","","11","","",""
"revaluation","227","989546","0.0-4.0-4.0-0.6","spark_pilot_2","7370","4","15","Male","","","false","","","","[22.599998474121094]","./assets/img/ocean/animals/octopus.jpg","[""ArrowRight""]","revaluation","ocean","11","{""ArrowUp,ArrowLeft"":2,""ArrowUp,ArrowRight"":11,""ArrowDown,ArrowLeft"":8,""ArrowDown,ArrowRight"":27}","true","ArrowUp,ArrowRight","","","","revaluation","1","12","","",""
"html-keyboard-response","228","990049","0.0-4.0-4.0-1.6","spark_pilot_2","7370","4","15","Male","","","","","","","null","<div style=""font-size:60px;"">+</div>","null","fixation","","","","","","","","","","","13","","",""
"revaluation","229","994066","0.0-4.0-4.0-0.7","spark_pilot_2","7370","4","15","Male","","","false","","","","[7.5]","./assets/img/ocean/animals/seahorse.jpg","[""ArrowRight""]","revaluation","ocean","27","{""ArrowUp,ArrowLeft"":2,""ArrowUp,ArrowRight"":11,""ArrowDown,ArrowLeft"":8,""ArrowDown,ArrowRight"":27}","true","ArrowDown,ArrowRight","","","","revaluation","1","14","","",""
"html-keyboard-response","230","994569","0.0-4.0-4.0-1.7","spark_pilot_2","7370","4","15","Male","","","","","","","null","<div style=""font-size:60px;"">+</div>","null","fixation","","","","","","","","","","","15","","",""
"revaluation","231","998586","0.0-4.0-4.0-0.8","spark_pilot_2","7370","4","15","Male","","","false","","","","[47.400001525878906]","./assets/img/ocean/animals/octopus.jpg","[""ArrowRight""]","revaluation","ocean","11","{""ArrowUp,ArrowLeft"":2,""ArrowUp,ArrowRight"":11,""ArrowDown,ArrowLeft"":8,""ArrowDown,ArrowRight"":27}","true","ArrowUp,ArrowRight","","","","revaluation","1","16","","",""
"html-keyboard-response","232","999090","0.0-4.0-4.0-1.8","spark_pilot_2","7370","4","15","Male","","","","","","","null","<div style=""font-size:60px;"">+</div>","null","fixation","","","","","","","","","","","17","","",""
"revaluation","233","1003106","0.0-4.0-4.0-0.9","spark_pilot_2","7370","4","15","Male","","","false","","","","[1.7999992370605469]","./assets/img/ocean/animals/octopus.jpg","[""ArrowRight""]","revaluation","ocean","11","{""ArrowUp,ArrowLeft"":2,""ArrowUp,ArrowRight"":11,""ArrowDown,ArrowLeft"":8,""ArrowDown,ArrowRight"":27}","true","ArrowUp,ArrowRight","","","","revaluation","1","18","","",""
"html-keyboard-response","234","1003610","0.0-4.0-4.0-1.9","spark_pilot_2","7370","4","15","Male","","","","","","","null","<div style=""font-size:60px;"">+</div>","null","fixation","","","","","","","","","","","19","","",""
"revaluation","235","1007626","0.0-4.0-4.0-0.10","spark_pilot_2","7370","4","15","Male","","","false","","","","[49.60000038146973]","./assets/img/ocean/animals/octopus.jpg","[""ArrowRight""]","revaluation","ocean","11","{""ArrowUp,ArrowLeft"":2,""ArrowUp,ArrowRight"":11,""ArrowDown,ArrowLeft"":8,""ArrowDown,ArrowRight"":27}","true","ArrowUp,ArrowRight","","","","revaluation","1","20","","",""
"html-keyboard-response","236","1008132","0.0-4.0-4.0-1.10","spark_pilot_2","7370","4","15","Male","","","","","","","null","<div style=""font-size:60px;"">+</div>","null","fixation","","","","","","","","","","","21","","",""
"revaluation","237","1012147","0.0-4.0-4.0-0.11","spark_pilot_2","7370","4","15","Male","","","false","","","","[98]","./assets/img/ocean/animals/octopus.jpg","[""ArrowRight""]","revaluation","ocean","11","{""ArrowUp,ArrowLeft"":2,""ArrowUp,ArrowRight"":11,""ArrowDown,ArrowLeft"":8,""ArrowDown,ArrowRight"":27}","true","ArrowUp,ArrowRight","","","","revaluation","1","22","","",""
"html-keyboard-response","238","1012650","0.0-4.0-4.0-1.11","spark_pilot_2","7370","4","15","Male","","","","","","","null","<div style=""font-size:60px;"">+</div>","null","fixation","","","","","","","","","","","23","","",""
"revaluation","239","1016667","0.0-4.0-4.0-0.12","spark_pilot_2","7370","4","15","Male","","","false","","","","[61]","./assets/img/ocean/animals/seahorse.jpg","[""ArrowRight""]","revaluation","ocean","27","{""ArrowUp,ArrowLeft"":2,""ArrowUp,ArrowRight"":11,""ArrowDown,ArrowLeft"":8,""ArrowDown,ArrowRight"":27}","true","ArrowDown,ArrowRight","","","","revaluation","1","24","","",""
"html-keyboard-response","240","1017170","0.0-4.0-4.0-1.12","spark_pilot_2","7370","4","15","Male","","","","","","","null","<div style=""font-size:60px;"">+</div>","null","fixation","","","","","","","","","","","25","","",""
"revaluation","241","1021186","0.0-4.0-4.0-0.13","spark_pilot_2","7370","4","15","Male","","","false","","","","[1.6000003814697266]","./assets/img/ocean/animals/seahorse.jpg","[""ArrowRight""]","revaluation","ocean","27","{""ArrowUp,ArrowLeft"":2,""ArrowUp,ArrowRight"":11,""ArrowDown,ArrowLeft"":8,""ArrowDown,ArrowRight"":27}","true","ArrowDown,ArrowRight","","","","revaluation","1","26","","",""
"html-keyboard-response","242","1021689","0.0-4.0-4.0-1.13","spark_pilot_2","7370","4","15","Male","","","","","","","null","<div style=""font-size:60px;"">+</div>","null","fixation","","","","","","","","","","","27","","",""
"revaluation","243","1025706","0.0-4.0-4.0-0.14","spark_pilot_2","7370","4","15","Male","","","false","","","","[112]","./assets/img/ocean/animals/seahorse.jpg","[""ArrowRight""]","revaluation","ocean","27","{""ArrowUp,ArrowLeft"":2,""ArrowUp,ArrowRight"":11,""ArrowDown,ArrowLeft"":8,""ArrowDown,ArrowRight"":27}","true","ArrowDown,ArrowRight","","","","revaluation","1","28","","",""
"html-keyboard-response","244","1026210","0.0-4.0-4.0-1.14","spark_pilot_2","7370","4","15","Male","","","","","","","null","<div style=""font-size:60px;"">+</div>","null","fixation","","","","","","","","","","","29","","",""
"revaluation","245","1030226","0.0-4.0-4.0-0.15","spark_pilot_2","7370","4","15","Male","","","false","","","","[130.69999885559082]","./assets/img/ocean/animals/seahorse.jpg","[""ArrowRight""]","revaluation","ocean","27","{""ArrowUp,ArrowLeft"":2,""ArrowUp,ArrowRight"":11,""ArrowDown,ArrowLeft"":8,""ArrowDown,ArrowRight"":27}","true","ArrowDown,ArrowRight","","","","revaluation","1","30","","",""
"html-keyboard-response","246","1030730","0.0-4.0-4.0-1.15","spark_pilot_2","7370","4","15","Male","","","","","","","null","<div style=""font-size:60px;"">+</div>","null","fixation","","","","","","","","","","","31","","",""
"revaluation","247","1034746","0.0-4.0-4.0-0.16","spark_pilot_2","7370","4","15","Male","","","false","","","","[118.30000114440918]","./assets/img/ocean/animals/octopus.jpg","[""ArrowRight""]","revaluation","ocean","11","{""ArrowUp,ArrowLeft"":2,""ArrowUp,ArrowRight"":11,""ArrowDown,ArrowLeft"":8,""ArrowDown,ArrowRight"":27}","true","ArrowUp,ArrowRight","","","","revaluation","1","32","","",""
"html-keyboard-response","248","1035250","0.0-4.0-4.0-1.16","spark_pilot_2","7370","4","15","Male","","","","","","","null","<div style=""font-size:60px;"">+</div>","null","fixation","","","","","","","","","","","33","","",""
"revaluation","249","1039266","0.0-4.0-4.0-0.17","spark_pilot_2","7370","4","15","Male","","","false","","","","[235.5999984741211]","./assets/img/ocean/animals/seahorse.jpg","[""ArrowRight""]","revaluation","ocean","27","{""ArrowUp,ArrowLeft"":2,""ArrowUp,ArrowRight"":11,""ArrowDown,ArrowLeft"":8,""ArrowDown,ArrowRight"":27}","true","ArrowDown,ArrowRight","","","","revaluation","1","34","","",""
"html-keyboard-response","250","1039769","0.0-4.0-4.0-1.17","spark_pilot_2","7370","4","15","Male","","","","","","","null","<div style=""font-size:60px;"">+</div>","null","fixation","","","","","","","","","","","35","","",""
"learning-instructions","251","1052508","0.0-4.0-5.0-0.0","spark_pilot_2","7370","4","15","Male","","","","","","","1047.7999992370605","<p> Time to play the dot game! </p>
            <p> For one minute, click the red dots on the following screen as they appear. </p>
            <p><b> Don't look away, as you will earn bonus for clicking dots</b>. </p>","","instructions","","","","","","","","","","","","","",""
"revaluation","252","1112518","0.0-4.0-6.0-0.0","spark_pilot_2","7370","4","15","Male","","","","","","","[67,36,47,79,61,55]","","","rest","","60","","","","","0","60000","","","","","",""
"learning-instructions","253","1121340","0.0-4.0-7.0-0.0","spark_pilot_2","7370","4","15","Male","","","","","","","2415","<p> You have almost finished this part of the game! </p>
            <p> We are going to ask you to make a few more choices. </p>","","instructions","","","","","","","","","","","","","",""
"learning-instructions","254","1136185","0.0-4.0-7.0-0.1","spark_pilot_2","7370","4","15","Male","","","","","","","876","<p> First, you need to decide whether to go up or down. When you see each picture, use the arrow keys to make your choice. </p>
            <p><b>You will not see which animal you found, but try to get to the one that will give you the most treasure.</b></p>","","instructions","","","","","","","","","","","","","",""
"revaluation","255","1136867","0.0-4.0-8.0-0.0","spark_pilot_2","7370","4","15","Male","","","false","","","","[679.8999996185303]","./assets/img/ocean/test/0.jpg","[""ArrowUp""]","first stage test","ocean","0","{""ArrowUp,ArrowLeft"":2,""ArrowUp,ArrowRight"":11,""ArrowDown,ArrowLeft"":8,""ArrowDown,ArrowRight"":27}","false","ArrowUp","false","","","revaluation","1","","","",""
"html-keyboard-response","256","1137376","0.0-4.0-8.0-1.0","spark_pilot_2","7370","4","15","Male","","","","","","","null","<div style=""font-size:60px;"">+</div>","null","fixation","","","","","","","","","","","","","",""
"revaluation","257","1138439","0.0-4.0-8.0-0.1","spark_pilot_2","7370","4","15","Male","","","false","","","","[1060.2999992370605]","./assets/img/ocean/test/2.jpg","[""ArrowUp""]","first stage test","ocean","0","{""ArrowUp,ArrowLeft"":2,""ArrowUp,ArrowRight"":11,""ArrowDown,ArrowLeft"":8,""ArrowDown,ArrowRight"":27}","false","ArrowUp","false","","","revaluation","1","","","",""
"html-keyboard-response","258","1138953","0.0-4.0-8.0-1.1","spark_pilot_2","7370","4","15","Male","","","","","","","null","<div style=""font-size:60px;"">+</div>","null","fixation","","","","","","","","","","","","","",""
"revaluation","259","1139483","0.0-4.0-8.0-0.2","spark_pilot_2","7370","4","15","Male","","","false","","","","[527.3999996185303]","./assets/img/ocean/test/3.jpg","[""ArrowDown""]","first stage test","ocean","0","{""ArrowUp,ArrowLeft"":2,""ArrowUp,ArrowRight"":11,""ArrowDown,ArrowLeft"":8,""ArrowDown,ArrowRight"":27}","true","ArrowDown","false","","","revaluation","1","","","",""
"html-keyboard-response","260","1139995","0.0-4.0-8.0-1.2","spark_pilot_2","7370","4","15","Male","","","","","","","null","<div style=""font-size:60px;"">+</div>","null","fixation","","","","","","","","","","","","","",""
"revaluation","261","1140365","0.0-4.0-8.0-0.3","spark_pilot_2","7370","4","15","Male","","","false","","","","[366.20000076293945]","./assets/img/ocean/test/1.jpg","[""ArrowDown""]","first stage test","ocean","0","{""ArrowUp,ArrowLeft"":2,""ArrowUp,ArrowRight"":11,""ArrowDown,ArrowLeft"":8,""ArrowDown,ArrowRight"":27}","true","ArrowDown","false","","","revaluation","1","","","",""
"html-keyboard-response","262","1140867","0.0-4.0-8.0-1.3","spark_pilot_2","7370","4","15","Male","","","","","","","null","<div style=""font-size:60px;"">+</div>","null","fixation","","","","","","","","","","","","","",""
"learning-instructions","263","1153444","0.0-4.0-9.0-0.0","spark_pilot_2","7370","4","15","Male","","","","","","","1228.6000003814697","<p> Now you will see the animals again and can search their chests for treasure. </p>
            <p> This time, you will not see how much treasure you earned, but you will earn more bonus money for making better choices. </p>","","instructions","","","","","","","","","","","","","",""
"revaluation","264","1153940","0.0-4.0-10.0-0.0","spark_pilot_2","7370","4","15","Male","","","false","","","","[493]","./assets/img/ocean/animals/octopus.jpg","[""ArrowRight""]","second stage test","ocean","0","{""ArrowUp,ArrowLeft"":2,""ArrowUp,ArrowRight"":11,""ArrowDown,ArrowLeft"":8,""ArrowDown,ArrowRight"":27}","true","ArrowUp,ArrowRight","","","","revaluation","1","","","",""
"html-keyboard-response","265","1154453","0.0-4.0-10.0-1.0","spark_pilot_2","7370","4","15","Male","","","","","","","null","<div style=""font-size:60px;"">+</div>","null","fixation","","","","","","","","","","","","","",""
"revaluation","266","1154964","0.0-4.0-10.0-0.1","spark_pilot_2","7370","4","15","Male","","","false","","","","[507.5]","./assets/img/ocean/animals/octopus.jpg","[""ArrowRight""]","second stage test","ocean","0","{""ArrowUp,ArrowLeft"":2,""ArrowUp,ArrowRight"":11,""ArrowDown,ArrowLeft"":8,""ArrowDown,ArrowRight"":27}","true","ArrowUp,ArrowRight","","","","revaluation","1","","","",""
"html-keyboard-response","267","1155467","0.0-4.0-10.0-1.1","spark_pilot_2","7370","4","15","Male","","","","","","","null","<div style=""font-size:60px;"">+</div>","null","fixation","","","","","","","","","","","","","",""
"revaluation","268","1155806","0.0-4.0-10.0-0.2","spark_pilot_2","7370","4","15","Male","","","false","","","","[335.79999923706055]","./assets/img/ocean/animals/octopus.jpg","[""ArrowRight""]","second stage test","ocean","0","{""ArrowUp,ArrowLeft"":2,""ArrowUp,ArrowRight"":11,""ArrowDown,ArrowLeft"":8,""ArrowDown,ArrowRight"":27}","true","ArrowUp,ArrowRight","","","","revaluation","1","","","",""
"html-keyboard-response","269","1156323","0.0-4.0-10.0-1.2","spark_pilot_2","7370","4","15","Male","","","","","","","null","<div style=""font-size:60px;"">+</div>","null","fixation","","","","","","","","","","","","","",""
"revaluation","270","1156592","0.0-4.0-10.0-0.3","spark_pilot_2","7370","4","15","Male","","","false","","","","[267.1000003814697]","./assets/img/ocean/animals/octopus.jpg","[""ArrowRight""]","second stage test","ocean","0","{""ArrowUp,ArrowLeft"":2,""ArrowUp,ArrowRight"":11,""ArrowDown,ArrowLeft"":8,""ArrowDown,ArrowRight"":27}","true","ArrowUp,ArrowRight","","","","revaluation","1","","","",""
"html-keyboard-response","271","1157101","0.0-4.0-10.0-1.3","spark_pilot_2","7370","4","15","Male","","","","","","","null","<div style=""font-size:60px;"">+</div>","null","fixation","","","","","","","","","","","","","",""
"revaluation","272","1157661","0.0-4.0-10.0-0.4","spark_pilot_2","7370","4","15","Male","","","false","","","","[554.8000011444092]","./assets/img/ocean/animals/seahorse.jpg","[""ArrowRight""]","second stage test","ocean","0","{""ArrowUp,ArrowLeft"":2,""ArrowUp,ArrowRight"":11,""ArrowDown,ArrowLeft"":8,""ArrowDown,ArrowRight"":27}","true","ArrowDown,ArrowRight","","","","revaluation","1","","","",""
"html-keyboard-response","273","1158176","0.0-4.0-10.0-1.4","spark_pilot_2","7370","4","15","Male","","","","","","","null","<div style=""font-size:60px;"">+</div>","null","fixation","","","","","","","","","","","","","",""
"revaluation","274","1158523","0.0-4.0-10.0-0.5","spark_pilot_2","7370","4","15","Male","","","false","","","","[341.8999996185303]","./assets/img/ocean/animals/seahorse.jpg","[""ArrowRight""]","second stage test","ocean","0","{""ArrowUp,ArrowLeft"":2,""ArrowUp,ArrowRight"":11,""ArrowDown,ArrowLeft"":8,""ArrowDown,ArrowRight"":27}","true","ArrowDown,ArrowRight","","","","revaluation","1","","","",""
"html-keyboard-response","275","1159034","0.0-4.0-10.0-1.5","spark_pilot_2","7370","4","15","Male","","","","","","","null","<div style=""font-size:60px;"">+</div>","null","fixation","","","","","","","","","","","","","",""
"revaluation","276","1159328","0.0-4.0-10.0-0.6","spark_pilot_2","7370","4","15","Male","","","false","","","","[291.5]","./assets/img/ocean/animals/seahorse.jpg","[""ArrowRight""]","second stage test","ocean","0","{""ArrowUp,ArrowLeft"":2,""ArrowUp,ArrowRight"":11,""ArrowDown,ArrowLeft"":8,""ArrowDown,ArrowRight"":27}","true","ArrowDown,ArrowRight","","","","revaluation","1","","","",""
"html-keyboard-response","277","1159847","0.0-4.0-10.0-1.6","spark_pilot_2","7370","4","15","Male","","","","","","","null","<div style=""font-size:60px;"">+</div>","null","fixation","","","","","","","","","","","","","",""
"revaluation","278","1160352","0.0-4.0-10.0-0.7","spark_pilot_2","7370","4","15","Male","","","false","","","","[501.5]","./assets/img/ocean/animals/seahorse.jpg","[""ArrowRight""]","second stage test","ocean","0","{""ArrowUp,ArrowLeft"":2,""ArrowUp,ArrowRight"":11,""ArrowDown,ArrowLeft"":8,""ArrowDown,ArrowRight"":27}","true","ArrowDown,ArrowRight","","","","revaluation","1","","","",""
"html-keyboard-response","279","1160863","0.0-4.0-10.0-1.7","spark_pilot_2","7370","4","15","Male","","","","","","","null","<div style=""font-size:60px;"">+</div>","null","fixation","","","","","","","","","","","","","",""
"learning-instructions","280","1164601","0.0-4.0-0.1-0.2","spark_pilot_2","7370","4","15","Male","","","","","","","961.3999996185303","<p> This time you are searching for treasure in the <b>canyon</b>.</p>","","instructions","","","","","","","","","","","","","",""
"learning-instructions","281","1183166","0.0-4.0-0.1-0.3","spark_pilot_2","7370","4","15","Male","","","","","","","1307.8999996185303","<p><b>New</b> animals with <b>new</b> treasure chests live here. You need to explore to discover where the animal with the best treasure chest is.</p>
                    <p> Like before, once you figure out which animal has the chest with the most treasure, you should try to get to that animal and select that chest! </p>","","instructions","","","","","","","","","","","","","",""
"learning-instructions","282","1199022","0.0-4.0-1.1-0.1","spark_pilot_2","7370","4","15","Male","","","","","","","1131.900001525879","<p> Remember, when you see a picture of the place, use the up and down keys to <b>find an animal</b>.</p>
            <p> When you encounter an animal, you should use the left and right keys to <b>select a treasure chest</b>.</p>
            <p> Don't forget to look out for the robber! </p>","","instructions","","","","","","","","","","","","","",""
"revaluation","283","1205067","0.0-4.0-2.1-0.50","spark_pilot_2","7370","4","15","Male","","","false","","","","[627.8999996185303,440.1999988555908]","./assets/img/canyon/memory/31.jpg","[""ArrowUp"",""ArrowLeft""]","value training","canyon","23","{""ArrowUp,ArrowLeft"":23,""ArrowUp,ArrowRight"":10,""ArrowDown,ArrowLeft"":8,""ArrowDown,ArrowRight"":30}","false","ArrowUp,ArrowLeft","false","","","original","2","0","","",""
"html-keyboard-response","284","1205581","0.0-4.0-2.1-1.50","spark_pilot_2","7370","4","15","Male","","","","","","","null","<div style=""font-size:60px;"">+</div>","null","fixation","","","","","","","","","","","1","","",""
"revaluation","285","1211622","0.0-4.0-2.1-0.51","spark_pilot_2","7370","4","15","Male","","","false","","","","[432.1000003814697,272.6999988555908]","./assets/img/canyon/memory/41.jpg","[""ArrowUp"",""ArrowRight""]","value training","canyon","10","{""ArrowUp,ArrowLeft"":23,""ArrowUp,ArrowRight"":10,""ArrowDown,ArrowLeft"":8,""ArrowDown,ArrowRight"":30}","false","ArrowUp,ArrowRight","false","","","original","2","2","","",""
"html-keyboard-response","286","1212136","0.0-4.0-2.1-1.51","spark_pilot_2","7370","4","15","Male","","","","","","","null","<div style=""font-size:60px;"">+</div>","null","fixation","","","","","","","","","","","3","","",""
"revaluation","287","1218174","0.0-4.0-2.1-0.52","spark_pilot_2","7370","4","15","Male","","","false","","","","[304.70000076293945,383.29999923706055]","./assets/img/canyon/memory/41.jpg","[""ArrowDown"",""ArrowLeft""]","value training","canyon","8","{""ArrowUp,ArrowLeft"":23,""ArrowUp,ArrowRight"":10,""ArrowDown,ArrowLeft"":8,""ArrowDown,ArrowRight"":30}","false","ArrowDown,ArrowLeft","false","","","original","2","4","","",""
"html-keyboard-response","288","1218689","0.0-4.0-2.1-1.52","spark_pilot_2","7370","4","15","Male","","","","","","","null","<div style=""font-size:60px;"">+</div>","null","fixation","","","","","","","","","","","5","","",""
"revaluation","289","1222715","0.0-4.0-2.1-0.53","spark_pilot_2","7370","4","15","Male","","","false","","","","[362.70000076293945]","./assets/img/canyon/catch/1.jpg","[""ArrowDown""]","value training","canyon","-10","{""ArrowUp,ArrowLeft"":23,""ArrowUp,ArrowRight"":10,""ArrowDown,ArrowLeft"":8,""ArrowDown,ArrowRight"":30}","false","ArrowDown","true","","","original","2","6","","",""
"html-keyboard-response","290","1223232","0.0-4.0-2.1-1.53","spark_pilot_2","7370","4","15","Male","","","","","","","null","<div style=""font-size:60px;"">+</div>","null","fixation","","","","","","","","","","","7","","",""
"revaluation","291","1229259","0.0-4.0-2.1-0.54","spark_pilot_2","7370","4","15","Male","","","false","","","","[576,233.79999923706055]","./assets/img/canyon/memory/1.jpg","[""ArrowDown"",""ArrowRight""]","value training","canyon","30","{""ArrowUp,ArrowLeft"":23,""ArrowUp,ArrowRight"":10,""ArrowDown,ArrowLeft"":8,""ArrowDown,ArrowRight"":30}","true","ArrowDown,ArrowRight","false","","","original","2","8","","",""
"html-keyboard-response","292","1229763","0.0-4.0-2.1-1.54","spark_pilot_2","7370","4","15","Male","","","","","","","null","<div style=""font-size:60px;"">+</div>","null","fixation","","","","","","","","","","","9","","",""
"revaluation","293","1235786","0.0-4.0-2.1-0.55","spark_pilot_2","7370","4","15","Male","","","false","","","","[537.7999992370605,98.9000015258789]","./assets/img/canyon/memory/10.jpg","[""ArrowDown"",""ArrowRight""]","value training","canyon","30","{""ArrowUp,ArrowLeft"":23,""ArrowUp,ArrowRight"":10,""ArrowDown,ArrowLeft"":8,""ArrowDown,ArrowRight"":30}","true","ArrowDown,ArrowRight","false","","","original","2","10","","",""
"html-keyboard-response","294","1236290","0.0-4.0-2.1-1.55","spark_pilot_2","7370","4","15","Male","","","","","","","null","<div style=""font-size:60px;"">+</div>","null","fixation","","","","","","","","","","","11","","",""
"revaluation","295","1242314","0.0-4.0-2.1-0.56","spark_pilot_2","7370","4","15","Male","","","false","","","","[590.3999996185303,339.70000076293945]","./assets/img/canyon/memory/36.jpg","[""ArrowDown"",""ArrowRight""]","value training","canyon","30","{""ArrowUp,ArrowLeft"":23,""ArrowUp,ArrowRight"":10,""ArrowDown,ArrowLeft"":8,""ArrowDown,ArrowRight"":30}","true","ArrowDown,ArrowRight","false","","","original","2","12","","",""
"html-keyboard-response","296","1242818","0.0-4.0-2.1-1.56","spark_pilot_2","7370","4","15","Male","","","","","","","null","<div style=""font-size:60px;"">+</div>","null","fixation","","","","","","","","","","","13","","",""
"revaluation","297","1248843","0.0-4.0-2.1-0.57","spark_pilot_2","7370","4","15","Male","","","false","","","","[737.3999996185303,177.20000076293945]","./assets/img/canyon/memory/14.jpg","[""ArrowDown"",""ArrowRight""]","value training","canyon","30","{""ArrowUp,ArrowLeft"":23,""ArrowUp,ArrowRight"":10,""ArrowDown,ArrowLeft"":8,""ArrowDown,ArrowRight"":30}","true","ArrowDown,ArrowRight","false","","","original","2","14","","",""
"html-keyboard-response","298","1249346","0.0-4.0-2.1-1.57","spark_pilot_2","7370","4","15","Male","","","","","","","null","<div style=""font-size:60px;"">+</div>","null","fixation","","","","","","","","","","","15","","",""
"revaluation","299","1255371","0.0-4.0-2.1-0.58","spark_pilot_2","7370","4","15","Male","","","false","","","","[763.1000003814697,610.5]","./assets/img/canyon/memory/19.jpg","[""ArrowDown"",""ArrowRight""]","value training","canyon","30","{""ArrowUp,ArrowLeft"":23,""ArrowUp,ArrowRight"":10,""ArrowDown,ArrowLeft"":8,""ArrowDown,ArrowRight"":30}","true","ArrowDown,ArrowRight","false","","","original","2","16","","",""
"html-keyboard-response","300","1255874","0.0-4.0-2.1-1.58","spark_pilot_2","7370","4","15","Male","","","","","","","null","<div style=""font-size:60px;"">+</div>","null","fixation","","","","","","","","","","","17","","",""
"revaluation","301","1261898","0.0-4.0-2.1-0.59","spark_pilot_2","7370","4","15","Male","","","false","","","","[613,247.10000038146973]","./assets/img/canyon/memory/34.jpg","[""ArrowDown"",""ArrowRight""]","value training","canyon","30","{""ArrowUp,ArrowLeft"":23,""ArrowUp,ArrowRight"":10,""ArrowDown,ArrowLeft"":8,""ArrowDown,ArrowRight"":30}","true","ArrowDown,ArrowRight","false","","","original","2","18","","",""
"html-keyboard-response","302","1262402","0.0-4.0-2.1-1.59","spark_pilot_2","7370","4","15","Male","","","","","","","null","<div style=""font-size:60px;"">+</div>","null","fixation","","","","","","","","","","","19","","",""
"revaluation","303","1268427","0.0-4.0-2.1-0.60","spark_pilot_2","7370","4","15","Male","","","false","","","","[699.1000003814697,171.5]","./assets/img/canyon/memory/25.jpg","[""ArrowDown"",""ArrowRight""]","value training","canyon","30","{""ArrowUp,ArrowLeft"":23,""ArrowUp,ArrowRight"":10,""ArrowDown,ArrowLeft"":8,""ArrowDown,ArrowRight"":30}","true","ArrowDown,ArrowRight","false","","","original","2","20","","",""
"html-keyboard-response","304","1268931","0.0-4.0-2.1-1.60","spark_pilot_2","7370","4","15","Male","","","","","","","null","<div style=""font-size:60px;"">+</div>","null","fixation","","","","","","","","","","","21","","",""
"revaluation","305","1272947","0.0-4.0-2.1-0.61","spark_pilot_2","7370","4","15","Male","","","false","","","","[610.8999996185303]","./assets/img/canyon/catch/0.jpg","[""spaceBar""]","value training","canyon","0","{""ArrowUp,ArrowLeft"":23,""ArrowUp,ArrowRight"":10,""ArrowDown,ArrowLeft"":8,""ArrowDown,ArrowRight"":30}","true","spaceBar","true","","","original","2","22","","",""
"html-keyboard-response","306","1273450","0.0-4.0-2.1-1.61","spark_pilot_2","7370","4","15","Male","","","","","","","null","<div style=""font-size:60px;"">+</div>","null","fixation","","","","","","","","","","","23","","",""
