"trial_type","trial_index","time_elapsed","internal_node_id","task_version","subject_id","assigned_condition","age","gender","success","timeout","failed_images","failed_audio","failed_video","browser_interaction","rt","stimulus","response","task_part","environment","score","rewardMap","correct","fullState","isCatch","numberMissed","duration","condition","order","trial_num","key_press","ground_truth","bonus"
"pavlovia","0","1353","0.0-0.0","spark_pilot_2","7995","2","23","Female","","","","","","","","","","","","","","","","","","","","","","","",""
"preload","1","9781","0.0-1.0","spark_pilot_2","7995","2","23","Female","true","false","[]","[]","[]","[{""event"":""fullscreenenter"",""trial"":2,""time"":11457}]","","","","","","","","","","","","","","","","","",""
"fullscreen","2","12442","0.0-2.0","spark_pilot_2","7995","2","23","Female","true","","","","","","","","","","","","","","","","","","","","","","",""
"audio-button-response","3","16490","0.0-3.0-0.0-0.0","spark_pilot_2","7995","2","23","Female","","","","","","","3989","./assets/audio/audiotest/turtle.mp3","2","audio_test","","","","","","","","","","","","","",""
"learning-instructions","4","25348","0.0-3.0-1.0-0.0","spark_pilot_2","7995","2","23","Female","","","","","","","1826.3000001907349","<p> Welcome! Please remember to stay in fullscreen mode and don't click away from the experiment. </p>","","instructions","","","","","","","","","","","","","",""
"learning-instructions","5","34492","0.0-3.0-1.0-0.1","spark_pilot_2","7995","2","23","Female","","","","","","","727","<p> Today you will be playing a game to earn treasure. </p>
            <p> At the end of the experiment, you will earn a bonus based on how much treasure you find. </p>
            <img src='./assets/img/instructions/treasure.jpg' class='instructions-image'>","","instructions","","","","","","","","","","","","","",""
"learning-instructions","6","43380","0.0-3.0-1.0-0.2","spark_pilot_2","7995","2","23","Female","","","","","","","625.1999998092651","<p> Animals have hidden treasure in treasure chests. </p>
            <p> You need to first find an animal and then choose which of their treasure chests to search. </p>
            <img src='./assets/img/space/animals/cat.jpg' class='instructions-image'>","","instructions","","","","","","","","","","","","","",""
"learning-instructions","7","57128","0.0-3.0-1.0-0.3","spark_pilot_2","7995","2","23","Female","","","","","","","593","<p> In each round, you will search for treasure in a different place. In the real game, there will be two rounds. </p>
            <p> You will begin with a separate, practice round where you will search for treasure in outer space. </p>
            <img src='./assets/img/space/0.jpg' class='instructions-image'>","","instructions","","","","","","","","","","","","","",""
"learning-instructions","8","69256","0.0-3.0-1.0-0.4","spark_pilot_2","7995","2","23","Female","","","","","","","701","<p> On every turn, you will see a picture of the place that you are in, but the specific image may be different each time. </p>
            <p> For example, both of these images mean you are in outer space. </p>
            <img src='./assets/img/instructions/outerspace.jpg' class='instructions-image'>","","instructions","","","","","","","","","","","","","",""
"learning-instructions","9","77720","0.0-3.0-1.0-0.5","spark_pilot_2","7995","2","23","Female","","","","","","","635.4000000953674","<p> You need to decide which direction to travel in. </p>
            <p> You can choose between going <b>up or down</b> by using the arrow keys. </p>
            <img src='./assets/img/instructions/updown.jpg' class='instructions-image'>","","instructions","","","","","","","","","","","","","",""
"learning-instructions","10","86968","0.0-3.0-1.0-0.6","spark_pilot_2","7995","2","23","Female","","","","","","","432.90000009536743","<p> You will have <b>2 seconds</b> to make your choice. </p>
            <p> If you do not make a choice within 2 seconds, you will not find an animal or earn treasure. </p>
            <img src='./assets/img/instructions/2seconds.jpg' class='instructions-image'>","","instructions","","","","","","","","","","","","","",""
"learning-instructions","11","94488","0.0-3.0-1.0-0.7","spark_pilot_2","7995","2","23","Female","","","","","","","483.09999990463257","<p> Let’s try practicing that now! </p>
            <p> When you see a picture of the place you are in, press the <b>up</b> key to travel up. </p>
            <img src='./assets/img/instructions/pressUp.jpg' class='instructions-image'>","","instructions","","","","","","","","","","","","","",""
"revaluation","12","98510","0.0-3.0-2.0-0.0","spark_pilot_2","7995","2","23","Female","","false","","","","","[505.69999980926514]","./assets/img/space/0.jpg","[""ArrowUp""]","first stage practice","space","0","null","null","ArrowUp","false","","","","","","","",""
"html-keyboard-response","13","99018","0.0-3.0-2.0-1.0","spark_pilot_2","7995","2","23","Female","","","","","","","null","<div style=""font-size:60px;"">+</div>","null","fixation","","","","","","","","","","","","","",""
"revaluation","14","103036","0.0-3.0-2.0-0.1","spark_pilot_2","7995","2","23","Female","","false","","","","","[1018.9000000953674]","./assets/img/space/1.jpg","[""ArrowUp""]","first stage practice","space","0","null","null","ArrowUp","false","","","","","","","",""
"html-keyboard-response","15","103544","0.0-3.0-2.0-1.1","spark_pilot_2","7995","2","23","Female","","","","","","","null","<div style=""font-size:60px;"">+</div>","null","fixation","","","","","","","","","","","","","",""
"revaluation","16","107570","0.0-3.0-2.0-0.2","spark_pilot_2","7995","2","23","Female","","false","","","","","[646.7000002861023]","./assets/img/space/2.jpg","[""ArrowUp""]","first stage practice","space","0","null","null","ArrowUp","false","","","","","","","",""
"html-keyboard-response","17","108075","0.0-3.0-2.0-1.2","spark_pilot_2","7995","2","23","Female","","","","","","","null","<div style=""font-size:60px;"">+</div>","null","fixation","","","","","","","","","","","","","",""
"learning-instructions","18","113360","0.0-3.0-3.0-0.0","spark_pilot_2","7995","2","23","Female","","","","","","","557.5999999046326","<p> Great job! Now try pressing the <b>down</b> key to travel down. </p>
            <img src='./assets/img/instructions/pressDown.jpg' class='instructions-image'>","","instructions","","","","","","","","","","","","","",""
"revaluation","19","117389","0.0-3.0-4.0-0.0","spark_pilot_2","7995","2","23","Female","","false","","","","","[465.40000009536743]","./assets/img/space/3.jpg","[""ArrowDown""]","first stage practice","space","0","null","null","ArrowDown","false","","","","","","","",""
"html-keyboard-response","20","117902","0.0-3.0-4.0-1.0","spark_pilot_2","7995","2","23","Female","","","","","","","null","<div style=""font-size:60px;"">+</div>","null","fixation","","","","","","","","","","","","","",""
"revaluation","21","121928","0.0-3.0-4.0-0.1","spark_pilot_2","7995","2","23","Female","","false","","","","","[412.30000019073486]","./assets/img/space/4.jpg","[""ArrowDown""]","first stage practice","space","0","null","null","ArrowDown","false","","","","","","","",""
"html-keyboard-response","22","122439","0.0-3.0-4.0-1.1","spark_pilot_2","7995","2","23","Female","","","","","","","null","<div style=""font-size:60px;"">+</div>","null","fixation","","","","","","","","","","","","","",""
"revaluation","23","126467","0.0-3.0-4.0-0.2","spark_pilot_2","7995","2","23","Female","","false","","","","","[351.40000009536743]","./assets/img/space/5.jpg","[""ArrowDown""]","first stage practice","space","0","null","null","ArrowDown","false","","","","","","","",""
"html-keyboard-response","24","126971","0.0-3.0-4.0-1.2","spark_pilot_2","7995","2","23","Female","","","","","","","null","<div style=""font-size:60px;"">+</div>","null","fixation","","","","","","","","","","","","","",""
"learning-instructions","25","137683","0.0-3.0-5.0-0.0","spark_pilot_2","7995","2","23","Female","","","","","","","808.9000000953674","<p> The animals don’t move, so the animal in the upper part of a place will stay in the upper part of a place, and the animal in the lower part of a place will stay in the lower part of a place. </p>","","instructions","","","","","","","","","","","","","",""
"learning-instructions","26","147411","0.0-3.0-5.0-0.1","spark_pilot_2","7995","2","23","Female","","","","","","","597.3000001907349","<p> Each animal has two treasure chests for you to choose from. </p>
            <p> The amount of treasure in each chest can range from <b> 0 to 40 pieces.</b></p>","","instructions","","","","","","","","","","","","","",""
"learning-instructions","27","159180","0.0-3.0-5.0-0.2","spark_pilot_2","7995","2","23","Female","","","","","","","575","<p> You should decide which chest to search for treasure by using the <b>left</b> and <b>right</b> arrow keys. </p>
            <p><b> Pay attention to which animal is on the screen, as the animals have different treasure chests. </b></p>
            <img src='./assets/img/instructions/leftright.jpg' class='instructions-image'>","","instructions","","","","","","","","","","","","","",""
"learning-instructions","28","166736","0.0-3.0-5.0-0.3","spark_pilot_2","7995","2","23","Female","","","","","","","1181.0999999046326","<p> Let’s try practicing that now. </p>
            <p> When you see an animal, choose which chest to search for treasure. </p>
            <img src='./assets/img/instructions/chooseChest.jpg' class='instructions-image'>","","instructions","","","","","","","","","","","","","",""
"revaluation","29","170759","0.0-3.0-6.0-0.0","spark_pilot_2","7995","2","23","Female","","false","","","","","[393.80000019073486]","./assets/img/space/animals/rabbit.jpg","[""ArrowLeft""]","second stage practice","space","15","{""ArrowUp,ArrowLeft"":3,""ArrowUp,ArrowRight"":36,""ArrowDown,ArrowLeft"":15,""ArrowDown,ArrowRight"":23}","false","ArrowDown,ArrowLeft","","","","","","","","",""
"html-keyboard-response","30","171273","0.0-3.0-6.0-1.0","spark_pilot_2","7995","2","23","Female","","","","","","","null","<div style=""font-size:60px;"">+</div>","null","fixation","","","","","","","","","","","","","",""
"revaluation","31","175291","0.0-3.0-6.0-0.1","spark_pilot_2","7995","2","23","Female","","false","","","","","[473.59999990463257]","./assets/img/space/animals/cat.jpg","[""ArrowRight""]","second stage practice","space","36","{""ArrowUp,ArrowLeft"":3,""ArrowUp,ArrowRight"":36,""ArrowDown,ArrowLeft"":15,""ArrowDown,ArrowRight"":23}","true","ArrowUp,ArrowRight","","","","","","","","",""
"html-keyboard-response","32","175792","0.0-3.0-6.0-1.1","spark_pilot_2","7995","2","23","Female","","","","","","","null","<div style=""font-size:60px;"">+</div>","null","fixation","","","","","","","","","","","","","",""
"revaluation","33","179819","0.0-3.0-6.0-0.2","spark_pilot_2","7995","2","23","Female","","false","","","","","[856.5999999046326]","./assets/img/space/animals/rabbit.jpg","[""ArrowRight""]","second stage practice","space","23","{""ArrowUp,ArrowLeft"":3,""ArrowUp,ArrowRight"":36,""ArrowDown,ArrowLeft"":15,""ArrowDown,ArrowRight"":23}","true","ArrowDown,ArrowRight","","","","","","","","",""
"html-keyboard-response","34","180336","0.0-3.0-6.0-1.2","spark_pilot_2","7995","2","23","Female","","","","","","","null","<div style=""font-size:60px;"">+</div>","null","fixation","","","","","","","","","","","","","",""
"revaluation","35","184362","0.0-3.0-6.0-0.3","spark_pilot_2","7995","2","23","Female","","false","","","","","[790.0999999046326]","./assets/img/space/animals/cat.jpg","[""ArrowRight""]","second stage practice","space","36","{""ArrowUp,ArrowLeft"":3,""ArrowUp,ArrowRight"":36,""ArrowDown,ArrowLeft"":15,""ArrowDown,ArrowRight"":23}","true","ArrowUp,ArrowRight","","","","","","","","",""
"html-keyboard-response","36","184872","0.0-3.0-6.0-1.3","spark_pilot_2","7995","2","23","Female","","","","","","","null","<div style=""font-size:60px;"">+</div>","null","fixation","","","","","","","","","","","","","",""
"learning-instructions","37","203448","0.0-3.0-7.0-0.0","spark_pilot_2","7995","2","23","Female","","","","","","","1653.5999999046326","<p> Great job. Now let’s try putting it together. </p>
            <p> On each turn, you will first see a picture to remind you of the place you are in, and you need to choose whether to go up or down. </p>
            <p> Then you will see an animal and choose which of its chests to search for treasure. </p>","","instructions","","","","","","","","","","","","","",""
"learning-instructions","38","212284","0.0-3.0-7.0-0.1","spark_pilot_2","7995","2","23","Female","","","","","","","570","<p> When you choose whether to go up or down, try to go to the animal with the chest with the most treasure. </p>
            <p> Try practicing that now! </p>","","instructions","","","","","","","","","","","","","",""
"revaluation","39","218309","0.0-3.0-8.0-0.0","spark_pilot_2","7995","2","23","Female","","false","","","","","[438.59999990463257,401.40000009536743]","./assets/img/space/6.jpg","[""ArrowUp"",""ArrowRight""]","full practice","space","36","{""ArrowUp,ArrowLeft"":3,""ArrowUp,ArrowRight"":36,""ArrowDown,ArrowLeft"":15,""ArrowDown,ArrowRight"":23}","true","ArrowUp,ArrowRight","false","","","","","","","",""
"html-keyboard-response","40","218829","0.0-3.0-8.0-1.0","spark_pilot_2","7995","2","23","Female","","","","","","","null","<div style=""font-size:60px;"">+</div>","null","fixation","","","","","","","","","","","","","",""
"revaluation","41","224858","0.0-3.0-8.0-0.1","spark_pilot_2","7995","2","23","Female","","false","","","","","[688.2000002861023,1030.2000002861023]","./assets/img/space/7.jpg","[""ArrowDown"",""ArrowRight""]","full practice","space","23","{""ArrowUp,ArrowLeft"":3,""ArrowUp,ArrowRight"":36,""ArrowDown,ArrowLeft"":15,""ArrowDown,ArrowRight"":23}","false","ArrowDown,ArrowRight","false","","","","","","","",""
"html-keyboard-response","42","225370","0.0-3.0-8.0-1.1","spark_pilot_2","7995","2","23","Female","","","","","","","null","<div style=""font-size:60px;"">+</div>","null","fixation","","","","","","","","","","","","","",""
"revaluation","43","231413","0.0-3.0-8.0-0.2","spark_pilot_2","7995","2","23","Female","","false","","","","","[667.6999998092651,642]","./assets/img/space/8.jpg","[""ArrowUp"",""ArrowRight""]","full practice","space","36","{""ArrowUp,ArrowLeft"":3,""ArrowUp,ArrowRight"":36,""ArrowDown,ArrowLeft"":15,""ArrowDown,ArrowRight"":23}","true","ArrowUp,ArrowRight","false","","","","","","","",""
"html-keyboard-response","44","231921","0.0-3.0-8.0-1.2","spark_pilot_2","7995","2","23","Female","","","","","","","null","<div style=""font-size:60px;"">+</div>","null","fixation","","","","","","","","","","","","","",""
"revaluation","45","237966","0.0-3.0-8.0-0.3","spark_pilot_2","7995","2","23","Female","","false","","","","","[364.7999997138977,320.7000002861023]","./assets/img/space/9.jpg","[""ArrowUp"",""ArrowRight""]","full practice","space","36","{""ArrowUp,ArrowLeft"":3,""ArrowUp,ArrowRight"":36,""ArrowDown,ArrowLeft"":15,""ArrowDown,ArrowRight"":23}","true","ArrowUp,ArrowRight","false","","","","","","","",""
"html-keyboard-response","46","238479","0.0-3.0-8.0-1.3","spark_pilot_2","7995","2","23","Female","","","","","","","null","<div style=""font-size:60px;"">+</div>","null","fixation","","","","","","","","","","","","","",""
"revaluation","47","244515","0.0-3.0-8.0-0.4","spark_pilot_2","7995","2","23","Female","","false","","","","","[583.8999996185303,314.2999997138977]","./assets/img/space/10.jpg","[""ArrowUp"",""ArrowRight""]","full practice","space","36","{""ArrowUp,ArrowLeft"":3,""ArrowUp,ArrowRight"":36,""ArrowDown,ArrowLeft"":15,""ArrowDown,ArrowRight"":23}","true","ArrowUp,ArrowRight","false","","","","","","","",""
"html-keyboard-response","48","245018","0.0-3.0-8.0-1.4","spark_pilot_2","7995","2","23","Female","","","","","","","null","<div style=""font-size:60px;"">+</div>","null","fixation","","","","","","","","","","","","","",""
"learning-instructions","49","256398","0.0-3.0-9.0-0.0","spark_pilot_2","7995","2","23","Female","","","","","","","1034.0999999046326","<p> One last thing: sometimes, you will see a robber. The robber can be anywhere in the picture. </p>
            <p> If you do not stop them, you will lose treasure. </p>
            <img src='./assets/img/instructions/robber.jpg' class='instructions-image'>","","instructions","","","","","","","","","","","","","",""
"learning-instructions","50","264050","0.0-3.0-9.0-0.1","spark_pilot_2","7995","2","23","Female","","","","","","","477.2999997138977","<p> If you see the robber, you should <b>press the space bar</b> rather than using the arrow keys. </p>
            <p> Try practicing that now! </p>","","instructions","","","","","","","","","","","","","",""
"revaluation","51","268079","0.0-3.0-10.0-0.0","spark_pilot_2","7995","2","23","Female","","false","","","","","[1408.1999998092651]","./assets/img/space/catch/0.jpg","[""spaceBar""]","catch practice","space","0","{""ArrowUp,ArrowLeft"":3,""ArrowUp,ArrowRight"":36,""ArrowDown,ArrowLeft"":15,""ArrowDown,ArrowRight"":23}","true","spaceBar","true","","","","","","","",""
"html-keyboard-response","52","268593","0.0-3.0-10.0-1.0","spark_pilot_2","7995","2","23","Female","","","","","","","null","<div style=""font-size:60px;"">+</div>","null","fixation","","","","","","","","","","","","","",""
"revaluation","53","272619","0.0-3.0-10.0-0.1","spark_pilot_2","7995","2","23","Female","","false","","","","","[605.7000002861023]","./assets/img/space/catch/1.jpg","[""spaceBar""]","catch practice","space","0","{""ArrowUp,ArrowLeft"":3,""ArrowUp,ArrowRight"":36,""ArrowDown,ArrowLeft"":15,""ArrowDown,ArrowRight"":23}","true","spaceBar","true","","","","","","","",""
"html-keyboard-response","54","273134","0.0-3.0-10.0-1.1","spark_pilot_2","7995","2","23","Female","","","","","","","null","<div style=""font-size:60px;"">+</div>","null","fixation","","","","","","","","","","","","","",""
"revaluation","55","277156","0.0-3.0-10.0-0.2","spark_pilot_2","7995","2","23","Female","","false","","","","","[504.2000002861023]","./assets/img/space/catch/2.jpg","[""spaceBar""]","catch practice","space","0","{""ArrowUp,ArrowLeft"":3,""ArrowUp,ArrowRight"":36,""ArrowDown,ArrowLeft"":15,""ArrowDown,ArrowRight"":23}","true","spaceBar","true","","","","","","","",""
"html-keyboard-response","56","277666","0.0-3.0-10.0-1.2","spark_pilot_2","7995","2","23","Female","","","","","","","null","<div style=""font-size:60px;"">+</div>","null","fixation","","","","","","","","","","","","","",""
"learning-instructions","57","294751","0.0-3.0-11.0-0.0","spark_pilot_2","7995","2","23","Female","","","","","","","3396.2999997138977","<p> After you explore a place to find treasure, it will be time to play a different game. </p>
            <p> During this game, red dots will appear on the screen and fall down slowly. </p>
            <p><b> You must click on them before they reach the bottom. </b></p>
            <img src='./assets/img/instructions/dotGame.jpg' class='instructions-image'>","","instructions","","","","","","","","","","","","","",""
"learning-instructions","58","301551","0.0-3.0-11.0-0.1","spark_pilot_2","7995","2","23","Female","","","","","","","1126.9000000953674","<p> For every dot you click, you will earn additional treasure. </p>
            <p> Let’s try practicing that now. </p>","","instructions","","","","","","","","","","","","","",""
"revaluation","59","316567","0.0-3.0-12.0-0.0","spark_pilot_2","7995","2","23","Female","","","","","","","[76]","","","rest practice","","10","","","","","0","15000","","","","","",""
"learning-instructions","60","323415","0.0-3.0-13.0-0.0-0.0","spark_pilot_2","7995","2","23","Female","","","","","","","1520.1000003814697","<p> Now, you will practice a shortened version of the game to get a sense of how it all fits together. </p>","","instructions","","","","","","","","","","","","","",""
"learning-instructions","61","327111","0.0-3.0-13.0-0.0-0.1","spark_pilot_2","7995","2","23","Female","","","","","","","517.2000002861023","<p>This time you are searching for treasure in outer space.</p>","","instructions","","","","","","","","","","","","","",""
"learning-instructions","62","342738","0.0-3.0-13.0-1.0-0.0","spark_pilot_2","7995","2","23","Female","","","","","","","864.1999998092651","<p> Remember, when you see a picture of the place, use the up and down keys to <b>find an animal</b>.</p>
            <p> When you encounter an animal, you should use the left and right keys to <b>select a treasure chest</b>.</p>
            <p> Don't forget to look out for the robber! </p>","","instructions","","","","","","","","","","","","","",""
"revaluation","63","348772","0.0-3.0-13.0-2.0-0.0","spark_pilot_2","7995","2","23","Female","","false","","","","","[751.0999999046326,600]","./assets/img/space/11.jpg","[""ArrowUp"",""ArrowRight""]","practice block","space","36","{""ArrowUp,ArrowLeft"":3,""ArrowUp,ArrowRight"":36,""ArrowDown,ArrowLeft"":15,""ArrowDown,ArrowRight"":23}","true","ArrowUp,ArrowRight","false","","","","","","","",""
"html-keyboard-response","64","349285","0.0-3.0-13.0-2.0-1.0","spark_pilot_2","7995","2","23","Female","","","","","","","null","<div style=""font-size:60px;"">+</div>","null","fixation","","","","","","","","","","","","","",""
"revaluation","65","355315","0.0-3.0-13.0-2.0-0.1","spark_pilot_2","7995","2","23","Female","","false","","","","","[1055.8000001907349,429.90000009536743]","./assets/img/space/12.jpg","[""ArrowUp"",""ArrowRight""]","practice block","space","36","{""ArrowUp,ArrowLeft"":3,""ArrowUp,ArrowRight"":36,""ArrowDown,ArrowLeft"":15,""ArrowDown,ArrowRight"":23}","true","ArrowUp,ArrowRight","false","","","","","","","",""
"html-keyboard-response","66","355827","0.0-3.0-13.0-2.0-1.1","spark_pilot_2","7995","2","23","Female","","","","","","","null","<div style=""font-size:60px;"">+</div>","null","fixation","","","","","","","","","","","","","",""
"revaluation","67","361858","0.0-3.0-13.0-2.0-0.2","spark_pilot_2","7995","2","23","Female","","false","","","","","[779.5999999046326,331.5]","./assets/img/space/13.jpg","[""ArrowUp"",""ArrowRight""]","practice block","space","36","{""ArrowUp,ArrowLeft"":3,""ArrowUp,ArrowRight"":36,""ArrowDown,ArrowLeft"":15,""ArrowDown,ArrowRight"":23}","true","ArrowUp,ArrowRight","false","","","","","","","",""
"html-keyboard-response","68","362369","0.0-3.0-13.0-2.0-1.2","spark_pilot_2","7995","2","23","Female","","","","","","","null","<div style=""font-size:60px;"">+</div>","null","fixation","","","","","","","","","","","","","",""
"revaluation","69","368411","0.0-3.0-13.0-2.0-0.3","spark_pilot_2","7995","2","23","Female","","false","","","","","[892.8000001907349,340.2000002861023]","./assets/img/space/14.jpg","[""ArrowUp"",""ArrowRight""]","practice block","space","36","{""ArrowUp,ArrowLeft"":3,""ArrowUp,ArrowRight"":36,""ArrowDown,ArrowLeft"":15,""ArrowDown,ArrowRight"":23}","true","ArrowUp,ArrowRight","false","","","","","","","",""
"html-keyboard-response","70","368921","0.0-3.0-13.0-2.0-1.3","spark_pilot_2","7995","2","23","Female","","","","","","","null","<div style=""font-size:60px;"">+</div>","null","fixation","","","","","","","","","","","","","",""
"revaluation","71","374947","0.0-3.0-13.0-2.0-0.4","spark_pilot_2","7995","2","23","Female","","false","","","","","[1085.1999998092651,488.09999990463257]","./assets/img/space/11.jpg","[""ArrowUp"",""ArrowRight""]","practice block","space","36","{""ArrowUp,ArrowLeft"":3,""ArrowUp,ArrowRight"":36,""ArrowDown,ArrowLeft"":15,""ArrowDown,ArrowRight"":23}","true","ArrowUp,ArrowRight","false","","","","","","","",""
"html-keyboard-response","72","375450","0.0-3.0-13.0-2.0-1.4","spark_pilot_2","7995","2","23","Female","","","","","","","null","<div style=""font-size:60px;"">+</div>","null","fixation","","","","","","","","","","","","","",""
"revaluation","73","381475","0.0-3.0-13.0-2.0-0.5","spark_pilot_2","7995","2","23","Female","","false","","","","","[906.7999997138977,280.40000009536743]","./assets/img/space/12.jpg","[""ArrowUp"",""ArrowRight""]","practice block","space","36","{""ArrowUp,ArrowLeft"":3,""ArrowUp,ArrowRight"":36,""ArrowDown,ArrowLeft"":15,""ArrowDown,ArrowRight"":23}","true","ArrowUp,ArrowRight","false","","","","","","","",""
"html-keyboard-response","74","381979","0.0-3.0-13.0-2.0-1.5","spark_pilot_2","7995","2","23","Female","","","","","","","null","<div style=""font-size:60px;"">+</div>","null","fixation","","","","","","","","","","","","","",""
"revaluation","75","388002","0.0-3.0-13.0-2.0-0.6","spark_pilot_2","7995","2","23","Female","","false","","","","","[691.5,240.80000019073486]","./assets/img/space/13.jpg","[""ArrowUp"",""ArrowRight""]","practice block","space","36","{""ArrowUp,ArrowLeft"":3,""ArrowUp,ArrowRight"":36,""ArrowDown,ArrowLeft"":15,""ArrowDown,ArrowRight"":23}","true","ArrowUp,ArrowRight","false","","","","","","","",""
"html-keyboard-response","76","388505","0.0-3.0-13.0-2.0-1.6","spark_pilot_2","7995","2","23","Female","","","","","","","null","<div style=""font-size:60px;"">+</div>","null","fixation","","","","","","","","","","","","","",""
"revaluation","77","394531","0.0-3.0-13.0-2.0-0.7","spark_pilot_2","7995","2","23","Female","","false","","","","","[827.7999997138977,279.8999996185303]","./assets/img/space/14.jpg","[""ArrowUp"",""ArrowRight""]","practice block","space","36","{""ArrowUp,ArrowLeft"":3,""ArrowUp,ArrowRight"":36,""ArrowDown,ArrowLeft"":15,""ArrowDown,ArrowRight"":23}","true","ArrowUp,ArrowRight","false","","","","","","","",""
"html-keyboard-response","78","395034","0.0-3.0-13.0-2.0-1.7","spark_pilot_2","7995","2","23","Female","","","","","","","null","<div style=""font-size:60px;"">+</div>","null","fixation","","","","","","","","","","","","","",""
"revaluation","79","399050","0.0-3.0-13.0-2.0-0.8","spark_pilot_2","7995","2","23","Female","","false","","","","","[764.9000000953674]","./assets/img/space/catch/3.jpg","[""spaceBar""]","practice block","space","0","{""ArrowUp,ArrowLeft"":3,""ArrowUp,ArrowRight"":36,""ArrowDown,ArrowLeft"":15,""ArrowDown,ArrowRight"":23}","true","spaceBar","true","","","","","","","",""
"html-keyboard-response","80","399554","0.0-3.0-13.0-2.0-1.8","spark_pilot_2","7995","2","23","Female","","","","","","","null","<div style=""font-size:60px;"">+</div>","null","fixation","","","","","","","","","","","","","",""
"learning-instructions","81","415023","0.0-3.0-13.0-3.0-0.0","spark_pilot_2","7995","2","23","Female","","","","","","","2443.9000000953674","<p> Now, you will travel with a friend who will choose whether you go up or down first. </p>
            <p> On these turns, you will just see the animal that they found. You will still get to choose which chest to search for treasure.</p>","","instructions","","","","","","","","","","","","","",""
"revaluation","82","419044","0.0-3.0-13.0-4.0-0.0","spark_pilot_2","7995","2","23","Female","","false","","","","","[746.2999997138977]","./assets/img/space/animals/cat.jpg","[""ArrowRight""]","practice block","space","36","{""ArrowUp,ArrowLeft"":3,""ArrowUp,ArrowRight"":36,""ArrowDown,ArrowLeft"":15,""ArrowDown,ArrowRight"":23}","true","ArrowUp,ArrowRight","","","","","","","","",""
"html-keyboard-response","83","419557","0.0-3.0-13.0-4.0-1.0","spark_pilot_2","7995","2","23","Female","","","","","","","null","<div style=""font-size:60px;"">+</div>","null","fixation","","","","","","","","","","","","","",""
"revaluation","84","423579","0.0-3.0-13.0-4.0-0.1","spark_pilot_2","7995","2","23","Female","","false","","","","","[1008.5]","./assets/img/space/animals/rabbit.jpg","[""ArrowRight""]","practice block","space","23","{""ArrowUp,ArrowLeft"":3,""ArrowUp,ArrowRight"":36,""ArrowDown,ArrowLeft"":15,""ArrowDown,ArrowRight"":23}","true","ArrowDown,ArrowRight","","","","","","","","",""
"html-keyboard-response","85","424093","0.0-3.0-13.0-4.0-1.1","spark_pilot_2","7995","2","23","Female","","","","","","","null","<div style=""font-size:60px;"">+</div>","null","fixation","","","","","","","","","","","","","",""
"revaluation","86","428135","0.0-3.0-13.0-4.0-0.2","spark_pilot_2","7995","2","23","Female","","false","","","","","[448.40000009536743]","./assets/img/space/animals/cat.jpg","[""ArrowRight""]","practice block","space","36","{""ArrowUp,ArrowLeft"":3,""ArrowUp,ArrowRight"":36,""ArrowDown,ArrowLeft"":15,""ArrowDown,ArrowRight"":23}","true","ArrowUp,ArrowRight","","","","","","","","",""
"html-keyboard-response","87","428650","0.0-3.0-13.0-4.0-1.2","spark_pilot_2","7995","2","23","Female","","","","","","","null","<div style=""font-size:60px;"">+</div>","null","fixation","","","","","","","","","","","","","",""
"revaluation","88","432677","0.0-3.0-13.0-4.0-0.3","spark_pilot_2","7995","2","23","Female","","false","","","","","[436.7000002861023]","./assets/img/space/animals/rabbit.jpg","[""ArrowLeft""]","practice block","space","15","{""ArrowUp,ArrowLeft"":3,""ArrowUp,ArrowRight"":36,""ArrowDown,ArrowLeft"":15,""ArrowDown,ArrowRight"":23}","false","ArrowDown,ArrowLeft","","","","","","","","",""
"html-keyboard-response","89","433191","0.0-3.0-13.0-4.0-1.3","spark_pilot_2","7995","2","23","Female","","","","","","","null","<div style=""font-size:60px;"">+</div>","null","fixation","","","","","","","","","","","","","",""
"learning-instructions","90","442102","0.0-3.0-13.0-5.0-0.0","spark_pilot_2","7995","2","23","Female","","","","","","","1512.2000002861023","<p> Time to play the dot game! </p>
            <p> For 15 seconds, click the red dots on the following screen as they appear. </p>","","instructions","","","","","","","","","","","","","",""
"revaluation","91","457107","0.0-3.0-13.0-6.0-0.0","spark_pilot_2","7995","2","23","Female","","","","","","","[81]","","","rest practice","","10","","","","","0","15000","","","","","",""
"learning-instructions","92","464059","0.0-3.0-13.0-7.0-0.0","spark_pilot_2","7995","2","23","Female","","","","","","","797.6000003814697","<p> You have almost finished this part of the game! </p>
            <p> We are going to ask you to make a few more choices. </p>","","instructions","","","","","","","","","","","","","",""
"learning-instructions","93","479874","0.0-3.0-13.0-7.0-0.1","spark_pilot_2","7995","2","23","Female","","","","","","","1803.8000001907349","<p> First, you need to decide whether to go up or down. When you see each picture, use the arrow keys to make your choice. </p>
            <p><b>You will not see which animal you found, but try to get to the one that will give you the most treasure.</b></p>","","instructions","","","","","","","","","","","","","",""
"revaluation","94","480545","0.0-3.0-13.0-8.0","spark_pilot_2","7995","2","23","Female","","false","","","","","[670.5]","./assets/img/space/15.jpg","[""ArrowUp""]","practice block","space","0","{""ArrowUp,ArrowLeft"":3,""ArrowUp,ArrowRight"":36,""ArrowDown,ArrowLeft"":15,""ArrowDown,ArrowRight"":23}","true","ArrowUp","false","","","","","","","",""
"html-keyboard-response","95","481051","0.0-3.0-13.0-9.0","spark_pilot_2","7995","2","23","Female","","","","","","","null","<div style=""font-size:60px;"">+</div>","null","fixation","","","","","","","","","","","","","",""
"learning-instructions","96","493110","0.0-3.0-13.0-10.0-0.0","spark_pilot_2","7995","2","23","Female","","","","","","","680.6999998092651","<p> Now you will see the animals again and can search their chests for treasure. </p>
            <p> This time, you will not see how much treasure you earned, but you will earn more bonus money for making better choices. </p>","","instructions","","","","","","","","","","","","","",""
"revaluation","97","493939","0.0-3.0-13.0-11.0-0.0","spark_pilot_2","7995","2","23","Female","","false","","","","","[827.6999998092651]","./assets/img/space/animals/cat.jpg","[""ArrowRight""]","practice block","space","0","{""ArrowUp,ArrowLeft"":3,""ArrowUp,ArrowRight"":36,""ArrowDown,ArrowLeft"":15,""ArrowDown,ArrowRight"":23}","true","ArrowUp,ArrowRight","","","","","","","","",""
"html-keyboard-response","98","494442","0.0-3.0-13.0-11.0-1.0","spark_pilot_2","7995","2","23","Female","","","","","","","null","<div style=""font-size:60px;"">+</div>","null","fixation","","","","","","","","","","","","","",""
"revaluation","99","495346","0.0-3.0-13.0-11.0-0.1","spark_pilot_2","7995","2","23","Female","","false","","","","","[899.0999999046326]","./assets/img/space/animals/rabbit.jpg","[""ArrowRight""]","practice block","space","0","{""ArrowUp,ArrowLeft"":3,""ArrowUp,ArrowRight"":36,""ArrowDown,ArrowLeft"":15,""ArrowDown,ArrowRight"":23}","true","ArrowDown,ArrowRight","","","","","","","","",""
"html-keyboard-response","100","495851","0.0-3.0-13.0-11.0-1.1","spark_pilot_2","7995","2","23","Female","","","","","","","null","<div style=""font-size:60px;"">+</div>","null","fixation","","","","","","","","","","","","","",""
"learning-instructions","101","501937","0.0-3.0-14.0-0.0","spark_pilot_2","7995","2","23","Female","","","","","","","1477.6999998092651","<p> Before you start, we're going to ask you a few questions about how the game works. </p>","","instructions","","","","","","","","","","","","","",""
"comp-q","102","508574","0.0-3.0-15.0-0.0-0.0","spark_pilot_2","7995","2","23","Female","","","","","","","1047.5999999046326","<p> <b> True or False? </b> </p>
            <p> There can be 50 pieces of treasure in a given animal's chest. </p>","1","comp_question","","","","true","","","","","","","","","",""
"comp-q","103","516506","0.0-3.0-15.0-0.0-1.0","spark_pilot_2","7995","2","23","Female","","","","","","","1275.8999996185303","<p> <b> That's right! </b> The amount of treasure in each chest can range from 0 to 40 pieces. </p>","0","comp_answer","","","","","","","","","","","","","",""
"comp-q","104","524782","0.0-3.0-15.0-0.1-0.1","spark_pilot_2","7995","2","23","Female","","","","","","","1161.3000001907349","<p> <b> True or False? </b> </p><p> In this game, all animals have the same amount of treasure in their left and right chests. </p>","1","comp_question","","","","true","","","","","","","","","",""
"comp-q","105","530870","0.0-3.0-15.0-0.1-1.1","spark_pilot_2","7995","2","23","Female","","","","","","","859.8000001907349","<p> <b> That's right! </b> Animals have different amounts of treasure in their treasure chests. </p>","0","comp_answer","","","","","","","","","","","","","",""
"comp-q","106","537741","0.0-3.0-15.0-0.2-0.2","spark_pilot_2","7995","2","23","Female","","","","","","","1031","<p> <b> True or False? </b> </p><p> The same animal will always be there if you go up in the same place. </p>","0","comp_question","","","","true","","","","","","","","","",""
"comp-q","107","545254","0.0-3.0-15.0-0.2-1.2","spark_pilot_2","7995","2","23","Female","","","","","","","1073.8999996185303","<p> <b> That's right! </b> One animal lives in the upper part and one lives in the lower part of every place. </p>","0","comp_answer","","","","","","","","","","","","","",""
"comp-q","108","552254","0.0-3.0-15.0-0.3-0.3","spark_pilot_2","7995","2","23","Female","","","","","","","1473.6999998092651","<p> <b> True or False? </b> </p><p> If you see a different picture, it means you are in a new place. </p>","1","comp_question","","","","true","","","","","","","","","",""
"comp-q","109","565205","0.0-3.0-15.0-0.3-1.3","spark_pilot_2","7995","2","23","Female","","","","","","","1735.0999999046326","<p> <b> That's right! </b> Lots of different images may show the same place. For example,  you may see three different images that all remind you that you are in outer space. </p>","0","comp_answer","","","","","","","","","","","","","",""
"learning-instructions","110","575994","0.0-3.0-16.0-0.0","spark_pilot_2","7995","2","23","Female","","","","","","","933.5999999046326","<p> Good job. Remember to do your best because the amount of treasure you earn will be converted into bonus money. </p>
            <p> It’s time to start the real game! </p>","","instructions","","","","","","","","","","","","","",""
"learning-instructions","111","579538","0.0-4.0-0.0-0.0","spark_pilot_2","7995","2","23","Female","","","","","","","837.3000001907349","<p> This time you are searching for treasure in the <b>ocean</b>.</p>","","instructions","","","","","","","","","","","","","",""
"learning-instructions","112","597638","0.0-4.0-0.0-0.1","spark_pilot_2","7995","2","23","Female","","","","","","","807.1000003814697","<p><b>New</b> animals with <b>new</b> treasure chests live here. You need to explore to discover where the animal with the best treasure chest is.</p>
                    <p> Like before, once you figure out which animal has the chest with the most treasure, you should try to get to that animal and select that chest! </p>","","instructions","","","","","","","","","","","","","",""
"learning-instructions","113","613385","0.0-4.0-1.0-0.0","spark_pilot_2","7995","2","23","Female","","","","","","","1014.7999997138977","<p> Remember, when you see a picture of the place, use the up and down keys to <b>find an animal</b>.</p>
            <p> When you encounter an animal, you should use the left and right keys to <b>select a treasure chest</b>.</p>
            <p> Don't forget to look out for the robber! </p>","","instructions","","","","","","","","","","","","","",""
"revaluation","114","617403","0.0-4.0-2.0-0.0","spark_pilot_2","7995","2","23","Female","","false","","","","","[631.0999999046326]","./assets/img/ocean/catch/5.jpg","[""ArrowUp""]","value training","ocean","-10","{""ArrowUp,ArrowLeft"":23,""ArrowUp,ArrowRight"":10,""ArrowDown,ArrowLeft"":8,""ArrowDown,ArrowRight"":30}","false","ArrowUp","true","","","revaluation","1","0","","",""
"html-keyboard-response","115","617920","0.0-4.0-2.0-1.0","spark_pilot_2","7995","2","23","Female","","","","","","","null","<div style=""font-size:60px;"">+</div>","null","fixation","","","","","","","","","","","1","","",""
"revaluation","116","623948","0.0-4.0-2.0-0.1","spark_pilot_2","7995","2","23","Female","","false","","","","","[700.7999997138977,526.5999999046326]","./assets/img/ocean/memory/14.jpg","[""ArrowUp"",""ArrowRight""]","value training","ocean","10","{""ArrowUp,ArrowLeft"":23,""ArrowUp,ArrowRight"":10,""ArrowDown,ArrowLeft"":8,""ArrowDown,ArrowRight"":30}","false","ArrowUp,ArrowRight","false","","","revaluation","1","2","","",""
"html-keyboard-response","117","624458","0.0-4.0-2.0-1.1","spark_pilot_2","7995","2","23","Female","","","","","","","null","<div style=""font-size:60px;"">+</div>","null","fixation","","","","","","","","","","","3","","",""
"revaluation","118","628475","0.0-4.0-2.0-0.2","spark_pilot_2","7995","2","23","Female","","false","","","","","[313.40000009536743]","./assets/img/ocean/catch/1.jpg","[""ArrowUp""]","value training","ocean","-10","{""ArrowUp,ArrowLeft"":23,""ArrowUp,ArrowRight"":10,""ArrowDown,ArrowLeft"":8,""ArrowDown,ArrowRight"":30}","false","ArrowUp","true","","","revaluation","1","4","","",""
"html-keyboard-response","119","628984","0.0-4.0-2.0-1.2","spark_pilot_2","7995","2","23","Female","","","","","","","null","<div style=""font-size:60px;"">+</div>","null","fixation","","","","","","","","","","","5","","",""
"revaluation","120","635012","0.0-4.0-2.0-0.3","spark_pilot_2","7995","2","23","Female","","false","","","","","[676.9000000953674,494.5]","./assets/img/ocean/memory/2.jpg","[""ArrowUp"",""ArrowLeft""]","value training","ocean","23","{""ArrowUp,ArrowLeft"":23,""ArrowUp,ArrowRight"":10,""ArrowDown,ArrowLeft"":8,""ArrowDown,ArrowRight"":30}","false","ArrowUp,ArrowLeft","false","","","revaluation","1","6","","",""
"html-keyboard-response","121","635525","0.0-4.0-2.0-1.3","spark_pilot_2","7995","2","23","Female","","","","","","","null","<div style=""font-size:60px;"">+</div>","null","fixation","","","","","","","","","","","7","","",""
"revaluation","122","641569","0.0-4.0-2.0-0.4","spark_pilot_2","7995","2","23","Female","","false","","","","","[687.9000000953674,966.1000003814697]","./assets/img/ocean/memory/38.jpg","[""ArrowDown"",""ArrowLeft""]","value training","ocean","8","{""ArrowUp,ArrowLeft"":23,""ArrowUp,ArrowRight"":10,""ArrowDown,ArrowLeft"":8,""ArrowDown,ArrowRight"":30}","false","ArrowDown,ArrowLeft","false","","","revaluation","1","8","","",""
"html-keyboard-response","123","642084","0.0-4.0-2.0-1.4","spark_pilot_2","7995","2","23","Female","","","","","","","null","<div style=""font-size:60px;"">+</div>","null","fixation","","","","","","","","","","","9","","",""
"revaluation","124","648108","0.0-4.0-2.0-0.5","spark_pilot_2","7995","2","23","Female","","false","","","","","[432.30000019073486,390.5]","./assets/img/ocean/memory/10.jpg","[""ArrowDown"",""ArrowRight""]","value training","ocean","30","{""ArrowUp,ArrowLeft"":23,""ArrowUp,ArrowRight"":10,""ArrowDown,ArrowLeft"":8,""ArrowDown,ArrowRight"":30}","true","ArrowDown,ArrowRight","false","","","revaluation","1","10","","",""
"html-keyboard-response","125","648619","0.0-4.0-2.0-1.5","spark_pilot_2","7995","2","23","Female","","","","","","","null","<div style=""font-size:60px;"">+</div>","null","fixation","","","","","","","","","","","11","","",""
"revaluation","126","654644","0.0-4.0-2.0-0.6","spark_pilot_2","7995","2","23","Female","","false","","","","","[954.3999996185303,334.80000019073486]","./assets/img/ocean/memory/41.jpg","[""ArrowDown"",""ArrowRight""]","value training","ocean","30","{""ArrowUp,ArrowLeft"":23,""ArrowUp,ArrowRight"":10,""ArrowDown,ArrowLeft"":8,""ArrowDown,ArrowRight"":30}","true","ArrowDown,ArrowRight","false","","","revaluation","1","12","","",""
"html-keyboard-response","127","655155","0.0-4.0-2.0-1.6","spark_pilot_2","7995","2","23","Female","","","","","","","null","<div style=""font-size:60px;"">+</div>","null","fixation","","","","","","","","","","","13","","",""
"revaluation","128","661179","0.0-4.0-2.0-0.7","spark_pilot_2","7995","2","23","Female","","false","","","","","[777.5999999046326,286.6000003814697]","./assets/img/ocean/memory/19.jpg","[""ArrowDown"",""ArrowRight""]","value training","ocean","30","{""ArrowUp,ArrowLeft"":23,""ArrowUp,ArrowRight"":10,""ArrowDown,ArrowLeft"":8,""ArrowDown,ArrowRight"":30}","true","ArrowDown,ArrowRight","false","","","revaluation","1","14","","",""
"html-keyboard-response","129","661682","0.0-4.0-2.0-1.7","spark_pilot_2","7995","2","23","Female","","","","","","","null","<div style=""font-size:60px;"">+</div>","null","fixation","","","","","","","","","","","15","","",""
"revaluation","130","667707","0.0-4.0-2.0-0.8","spark_pilot_2","7995","2","23","Female","","false","","","","","[834.8999996185303,286.80000019073486]","./assets/img/ocean/memory/39.jpg","[""ArrowDown"",""ArrowRight""]","value training","ocean","30","{""ArrowUp,ArrowLeft"":23,""ArrowUp,ArrowRight"":10,""ArrowDown,ArrowLeft"":8,""ArrowDown,ArrowRight"":30}","true","ArrowDown,ArrowRight","false","","","revaluation","1","16","","",""
"html-keyboard-response","131","668210","0.0-4.0-2.0-1.8","spark_pilot_2","7995","2","23","Female","","","","","","","null","<div style=""font-size:60px;"">+</div>","null","fixation","","","","","","","","","","","17","","",""
"revaluation","132","674235","0.0-4.0-2.0-0.9","spark_pilot_2","7995","2","23","Female","","false","","","","","[794.5999999046326,302.59999990463257]","./assets/img/ocean/memory/21.jpg","[""ArrowDown"",""ArrowRight""]","value training","ocean","30","{""ArrowUp,ArrowLeft"":23,""ArrowUp,ArrowRight"":10,""ArrowDown,ArrowLeft"":8,""ArrowDown,ArrowRight"":30}","true","ArrowDown,ArrowRight","false","","","revaluation","1","18","","",""
"html-keyboard-response","133","674738","0.0-4.0-2.0-1.9","spark_pilot_2","7995","2","23","Female","","","","","","","null","<div style=""font-size:60px;"">+</div>","null","fixation","","","","","","","","","","","19","","",""
"revaluation","134","678754","0.0-4.0-2.0-0.10","spark_pilot_2","7995","2","23","Female","","true","","","","","[]","./assets/img/ocean/memory/14.jpg","[]","value training","ocean","-5","{""ArrowUp,ArrowLeft"":23,""ArrowUp,ArrowRight"":10,""ArrowDown,ArrowLeft"":8,""ArrowDown,ArrowRight"":30}","false","","false","","","revaluation","1","20","","",""
"html-keyboard-response","135","679258","0.0-4.0-2.0-1.10","spark_pilot_2","7995","2","23","Female","","","","","","","null","<div style=""font-size:60px;"">+</div>","null","fixation","","","","","","","","","","","21","","",""
"revaluation","136","685283","0.0-4.0-2.0-0.11","spark_pilot_2","7995","2","23","Female","","false","","","","","[1090.4000000953674,319.09999990463257]","./assets/img/ocean/memory/24.jpg","[""ArrowDown"",""ArrowRight""]","value training","ocean","30","{""ArrowUp,ArrowLeft"":23,""ArrowUp,ArrowRight"":10,""ArrowDown,ArrowLeft"":8,""ArrowDown,ArrowRight"":30}","true","ArrowDown,ArrowRight","false","","","revaluation","1","22","","",""
"html-keyboard-response","137","685793","0.0-4.0-2.0-1.11","spark_pilot_2","7995","2","23","Female","","","","","","","null","<div style=""font-size:60px;"">+</div>","null","fixation","","","","","","","","","","","23","","",""
"revaluation","138","689811","0.0-4.0-2.0-0.12","spark_pilot_2","7995","2","23","Female","","false","","","","","[635.4000000953674]","./assets/img/ocean/catch/6.jpg","[""spaceBar""]","value training","ocean","0","{""ArrowUp,ArrowLeft"":23,""ArrowUp,ArrowRight"":10,""ArrowDown,ArrowLeft"":8,""ArrowDown,ArrowRight"":30}","true","spaceBar","true","","","revaluation","1","24","","",""
"html-keyboard-response","139","690314","0.0-4.0-2.0-1.12","spark_pilot_2","7995","2","23","Female","","","","","","","null","<div style=""font-size:60px;"">+</div>","null","fixation","","","","","","","","","","","25","","",""
"revaluation","140","694331","0.0-4.0-2.0-0.13","spark_pilot_2","7995","2","23","Female","","false","","","","","[616.1000003814697]","./assets/img/ocean/catch/3.jpg","[""spaceBar""]","value training","ocean","0","{""ArrowUp,ArrowLeft"":23,""ArrowUp,ArrowRight"":10,""ArrowDown,ArrowLeft"":8,""ArrowDown,ArrowRight"":30}","true","spaceBar","true","","","revaluation","1","26","","",""
"html-keyboard-response","141","694842","0.0-4.0-2.0-1.13","spark_pilot_2","7995","2","23","Female","","","","","","","null","<div style=""font-size:60px;"">+</div>","null","fixation","","","","","","","","","","","27","","",""
"revaluation","142","700867","0.0-4.0-2.0-0.14","spark_pilot_2","7995","2","23","Female","","false","","","","","[746.4000000953674,247.59999990463257]","./assets/img/ocean/memory/15.jpg","[""ArrowDown"",""ArrowRight""]","value training","ocean","30","{""ArrowUp,ArrowLeft"":23,""ArrowUp,ArrowRight"":10,""ArrowDown,ArrowLeft"":8,""ArrowDown,ArrowRight"":30}","true","ArrowDown,ArrowRight","false","","","revaluation","1","28","","",""
"html-keyboard-response","143","701369","0.0-4.0-2.0-1.14","spark_pilot_2","7995","2","23","Female","","","","","","","null","<div style=""font-size:60px;"">+</div>","null","fixation","","","","","","","","","","","29","","",""
"revaluation","144","705387","0.0-4.0-2.0-0.15","spark_pilot_2","7995","2","23","Female","","false","","","","","[642.2999997138977]","./assets/img/ocean/catch/0.jpg","[""spaceBar""]","value training","ocean","0","{""ArrowUp,ArrowLeft"":23,""ArrowUp,ArrowRight"":10,""ArrowDown,ArrowLeft"":8,""ArrowDown,ArrowRight"":30}","true","spaceBar","true","","","revaluation","1","30","","",""
"html-keyboard-response","145","705897","0.0-4.0-2.0-1.15","spark_pilot_2","7995","2","23","Female","","","","","","","null","<div style=""font-size:60px;"">+</div>","null","fixation","","","","","","","","","","","31","","",""
"revaluation","146","711923","0.0-4.0-2.0-0.16","spark_pilot_2","7995","2","23","Female","","false","","","","","[586.4000000953674,271.40000009536743]","./assets/img/ocean/memory/4.jpg","[""ArrowDown"",""ArrowRight""]","value training","ocean","30","{""ArrowUp,ArrowLeft"":23,""ArrowUp,ArrowRight"":10,""ArrowDown,ArrowLeft"":8,""ArrowDown,ArrowRight"":30}","true","ArrowDown,ArrowRight","false","","","revaluation","1","32","","",""
"html-keyboard-response","147","712425","0.0-4.0-2.0-1.16","spark_pilot_2","7995","2","23","Female","","","","","","","null","<div style=""font-size:60px;"">+</div>","null","fixation","","","","","","","","","","","33","","",""
"revaluation","148","718451","0.0-4.0-2.0-0.17","spark_pilot_2","7995","2","23","Female","","false","","","","","[717.2999997138977,254.2999997138977]","./assets/img/ocean/memory/6.jpg","[""ArrowDown"",""ArrowRight""]","value training","ocean","30","{""ArrowUp,ArrowLeft"":23,""ArrowUp,ArrowRight"":10,""ArrowDown,ArrowLeft"":8,""ArrowDown,ArrowRight"":30}","true","ArrowDown,ArrowRight","false","","","revaluation","1","34","","",""
"html-keyboard-response","149","718962","0.0-4.0-2.0-1.17","spark_pilot_2","7995","2","23","Female","","","","","","","null","<div style=""font-size:60px;"">+</div>","null","fixation","","","","","","","","","","","35","","",""
"revaluation","150","724987","0.0-4.0-2.0-0.18","spark_pilot_2","7995","2","23","Female","","false","","","","","[722.4000000953674,229.80000019073486]","./assets/img/ocean/memory/9.jpg","[""ArrowDown"",""ArrowRight""]","value training","ocean","30","{""ArrowUp,ArrowLeft"":23,""ArrowUp,ArrowRight"":10,""ArrowDown,ArrowLeft"":8,""ArrowDown,ArrowRight"":30}","true","ArrowDown,ArrowRight","false","","","revaluation","1","36","","",""
"html-keyboard-response","151","725498","0.0-4.0-2.0-1.18","spark_pilot_2","7995","2","23","Female","","","","","","","null","<div style=""font-size:60px;"">+</div>","null","fixation","","","","","","","","","","","37","","",""
"revaluation","152","731523","0.0-4.0-2.0-0.19","spark_pilot_2","7995","2","23","Female","","false","","","","","[592.9000000953674,285.6000003814697]","./assets/img/ocean/memory/26.jpg","[""ArrowDown"",""ArrowRight""]","value training","ocean","30","{""ArrowUp,ArrowLeft"":23,""ArrowUp,ArrowRight"":10,""ArrowDown,ArrowLeft"":8,""ArrowDown,ArrowRight"":30}","true","ArrowDown,ArrowRight","false","","","revaluation","1","38","","",""
"html-keyboard-response","153","732026","0.0-4.0-2.0-1.19","spark_pilot_2","7995","2","23","Female","","","","","","","null","<div style=""font-size:60px;"">+</div>","null","fixation","","","","","","","","","","","39","","",""
"revaluation","154","738050","0.0-4.0-2.0-0.20","spark_pilot_2","7995","2","23","Female","","false","","","","","[618.5999999046326,519.7999997138977]","./assets/img/ocean/memory/31.jpg","[""ArrowDown"",""ArrowRight""]","value training","ocean","30","{""ArrowUp,ArrowLeft"":23,""ArrowUp,ArrowRight"":10,""ArrowDown,ArrowLeft"":8,""ArrowDown,ArrowRight"":30}","true","ArrowDown,ArrowRight","false","","","revaluation","1","40","","",""
"html-keyboard-response","155","738554","0.0-4.0-2.0-1.20","spark_pilot_2","7995","2","23","Female","","","","","","","null","<div style=""font-size:60px;"">+</div>","null","fixation","","","","","","","","","","","41","","",""
"revaluation","156","744579","0.0-4.0-2.0-0.21","spark_pilot_2","7995","2","23","Female","","false","","","","","[649.3000001907349,294.40000009536743]","./assets/img/ocean/memory/36.jpg","[""ArrowDown"",""ArrowRight""]","value training","ocean","30","{""ArrowUp,ArrowLeft"":23,""ArrowUp,ArrowRight"":10,""ArrowDown,ArrowLeft"":8,""ArrowDown,ArrowRight"":30}","true","ArrowDown,ArrowRight","false","","","revaluation","1","42","","",""
"html-keyboard-response","157","745082","0.0-4.0-2.0-1.21","spark_pilot_2","7995","2","23","Female","","","","","","","null","<div style=""font-size:60px;"">+</div>","null","fixation","","","","","","","","","","","43","","",""
"revaluation","158","751106","0.0-4.0-2.0-0.22","spark_pilot_2","7995","2","23","Female","","false","","","","","[569.8000001907349,286.80000019073486]","./assets/img/ocean/memory/39.jpg","[""ArrowDown"",""ArrowRight""]","value training","ocean","30","{""ArrowUp,ArrowLeft"":23,""ArrowUp,ArrowRight"":10,""ArrowDown,ArrowLeft"":8,""ArrowDown,ArrowRight"":30}","true","ArrowDown,ArrowRight","false","","","revaluation","1","44","","",""
"html-keyboard-response","159","751610","0.0-4.0-2.0-1.22","spark_pilot_2","7995","2","23","Female","","","","","","","null","<div style=""font-size:60px;"">+</div>","null","fixation","","","","","","","","","","","45","","",""
"revaluation","160","757635","0.0-4.0-2.0-0.23","spark_pilot_2","7995","2","23","Female","","false","","","","","[761.0999999046326,253.69999980926514]","./assets/img/ocean/memory/15.jpg","[""ArrowDown"",""ArrowRight""]","value training","ocean","30","{""ArrowUp,ArrowLeft"":23,""ArrowUp,ArrowRight"":10,""ArrowDown,ArrowLeft"":8,""ArrowDown,ArrowRight"":30}","true","ArrowDown,ArrowRight","false","","","revaluation","1","46","","",""
"html-keyboard-response","161","758138","0.0-4.0-2.0-1.23","spark_pilot_2","7995","2","23","Female","","","","","","","null","<div style=""font-size:60px;"">+</div>","null","fixation","","","","","","","","","","","47","","",""
"revaluation","162","764163","0.0-4.0-2.0-0.24","spark_pilot_2","7995","2","23","Female","","false","","","","","[482.5,239.2000002861023]","./assets/img/ocean/memory/40.jpg","[""ArrowDown"",""ArrowRight""]","value training","ocean","30","{""ArrowUp,ArrowLeft"":23,""ArrowUp,ArrowRight"":10,""ArrowDown,ArrowLeft"":8,""ArrowDown,ArrowRight"":30}","true","ArrowDown,ArrowRight","false","","","revaluation","1","48","","",""
"html-keyboard-response","163","764674","0.0-4.0-2.0-1.24","spark_pilot_2","7995","2","23","Female","","","","","","","null","<div style=""font-size:60px;"">+</div>","null","fixation","","","","","","","","","","","49","","",""
"revaluation","164","770699","0.0-4.0-2.0-0.25","spark_pilot_2","7995","2","23","Female","","false","","","","","[753.6999998092651,254.2999997138977]","./assets/img/ocean/memory/35.jpg","[""ArrowDown"",""ArrowRight""]","value training","ocean","30","{""ArrowUp,ArrowLeft"":23,""ArrowUp,ArrowRight"":10,""ArrowDown,ArrowLeft"":8,""ArrowDown,ArrowRight"":30}","true","ArrowDown,ArrowRight","false","","","revaluation","1","50","","",""
"html-keyboard-response","165","771202","0.0-4.0-2.0-1.25","spark_pilot_2","7995","2","23","Female","","","","","","","null","<div style=""font-size:60px;"">+</div>","null","fixation","","","","","","","","","","","51","","",""
"revaluation","166","777227","0.0-4.0-2.0-0.26","spark_pilot_2","7995","2","23","Female","","false","","","","","[603.1999998092651,221.59999990463257]","./assets/img/ocean/memory/35.jpg","[""ArrowDown"",""ArrowRight""]","value training","ocean","30","{""ArrowUp,ArrowLeft"":23,""ArrowUp,ArrowRight"":10,""ArrowDown,ArrowLeft"":8,""ArrowDown,ArrowRight"":30}","true","ArrowDown,ArrowRight","false","","","revaluation","1","52","","",""
"html-keyboard-response","167","777730","0.0-4.0-2.0-1.26","spark_pilot_2","7995","2","23","Female","","","","","","","null","<div style=""font-size:60px;"">+</div>","null","fixation","","","","","","","","","","","53","","",""
"revaluation","168","783756","0.0-4.0-2.0-0.27","spark_pilot_2","7995","2","23","Female","","false","","","","","[633.3000001907349,279.09999990463257]","./assets/img/ocean/memory/24.jpg","[""ArrowDown"",""ArrowRight""]","value training","ocean","30","{""ArrowUp,ArrowLeft"":23,""ArrowUp,ArrowRight"":10,""ArrowDown,ArrowLeft"":8,""ArrowDown,ArrowRight"":30}","true","ArrowDown,ArrowRight","false","","","revaluation","1","54","","",""
"html-keyboard-response","169","784267","0.0-4.0-2.0-1.27","spark_pilot_2","7995","2","23","Female","","","","","","","null","<div style=""font-size:60px;"">+</div>","null","fixation","","","","","","","","","","","55","","",""
"revaluation","170","790291","0.0-4.0-2.0-0.28","spark_pilot_2","7995","2","23","Female","","false","","","","","[505.59999990463257,246.10000038146973]","./assets/img/ocean/memory/2.jpg","[""ArrowDown"",""ArrowRight""]","value training","ocean","30","{""ArrowUp,ArrowLeft"":23,""ArrowUp,ArrowRight"":10,""ArrowDown,ArrowLeft"":8,""ArrowDown,ArrowRight"":30}","true","ArrowDown,ArrowRight","false","","","revaluation","1","56","","",""
"html-keyboard-response","171","790794","0.0-4.0-2.0-1.28","spark_pilot_2","7995","2","23","Female","","","","","","","null","<div style=""font-size:60px;"">+</div>","null","fixation","","","","","","","","","","","57","","",""
"revaluation","172","796820","0.0-4.0-2.0-0.29","spark_pilot_2","7995","2","23","Female","","false","","","","","[721.5999999046326,222.30000019073486]","./assets/img/ocean/memory/32.jpg","[""ArrowDown"",""ArrowRight""]","value training","ocean","30","{""ArrowUp,ArrowLeft"":23,""ArrowUp,ArrowRight"":10,""ArrowDown,ArrowLeft"":8,""ArrowDown,ArrowRight"":30}","true","ArrowDown,ArrowRight","false","","","revaluation","1","58","","",""
"html-keyboard-response","173","797330","0.0-4.0-2.0-1.29","spark_pilot_2","7995","2","23","Female","","","","","","","null","<div style=""font-size:60px;"">+</div>","null","fixation","","","","","","","","","","","59","","",""
"revaluation","174","803356","0.0-4.0-2.0-0.30","spark_pilot_2","7995","2","23","Female","","false","","","","","[521.4000000953674,246.40000009536743]","./assets/img/ocean/memory/3.jpg","[""ArrowDown"",""ArrowRight""]","value training","ocean","30","{""ArrowUp,ArrowLeft"":23,""ArrowUp,ArrowRight"":10,""ArrowDown,ArrowLeft"":8,""ArrowDown,ArrowRight"":30}","true","ArrowDown,ArrowRight","false","","","revaluation","1","60","","",""
"html-keyboard-response","175","803867","0.0-4.0-2.0-1.30","spark_pilot_2","7995","2","23","Female","","","","","","","null","<div style=""font-size:60px;"">+</div>","null","fixation","","","","","","","","","","","61","","",""
"revaluation","176","807884","0.0-4.0-2.0-0.31","spark_pilot_2","7995","2","23","Female","","false","","","","","[808.9000000953674]","./assets/img/ocean/catch/2.jpg","[""spaceBar""]","value training","ocean","0","{""ArrowUp,ArrowLeft"":23,""ArrowUp,ArrowRight"":10,""ArrowDown,ArrowLeft"":8,""ArrowDown,ArrowRight"":30}","true","spaceBar","true","","","revaluation","1","62","","",""
"html-keyboard-response","177","808395","0.0-4.0-2.0-1.31","spark_pilot_2","7995","2","23","Female","","","","","","","null","<div style=""font-size:60px;"">+</div>","null","fixation","","","","","","","","","","","63","","",""
"revaluation","178","814420","0.0-4.0-2.0-0.32","spark_pilot_2","7995","2","23","Female","","false","","","","","[585,254.19999980926514]","./assets/img/ocean/memory/3.jpg","[""ArrowDown"",""ArrowRight""]","value training","ocean","30","{""ArrowUp,ArrowLeft"":23,""ArrowUp,ArrowRight"":10,""ArrowDown,ArrowLeft"":8,""ArrowDown,ArrowRight"":30}","true","ArrowDown,ArrowRight","false","","","revaluation","1","64","","",""
"html-keyboard-response","179","814931","0.0-4.0-2.0-1.32","spark_pilot_2","7995","2","23","Female","","","","","","","null","<div style=""font-size:60px;"">+</div>","null","fixation","","","","","","","","","","","65","","",""
"revaluation","180","820956","0.0-4.0-2.0-0.33","spark_pilot_2","7995","2","23","Female","","false","","","","","[679.9000000953674,270]","./assets/img/ocean/memory/21.jpg","[""ArrowDown"",""ArrowRight""]","value training","ocean","30","{""ArrowUp,ArrowLeft"":23,""ArrowUp,ArrowRight"":10,""ArrowDown,ArrowLeft"":8,""ArrowDown,ArrowRight"":30}","true","ArrowDown,ArrowRight","false","","","revaluation","1","66","","",""
"html-keyboard-response","181","821467","0.0-4.0-2.0-1.33","spark_pilot_2","7995","2","23","Female","","","","","","","null","<div style=""font-size:60px;"">+</div>","null","fixation","","","","","","","","","","","67","","",""
"revaluation","182","827490","0.0-4.0-2.0-0.34","spark_pilot_2","7995","2","23","Female","","false","","","","","[521,246.30000019073486]","./assets/img/ocean/memory/16.jpg","[""ArrowDown"",""ArrowRight""]","value training","ocean","30","{""ArrowUp,ArrowLeft"":23,""ArrowUp,ArrowRight"":10,""ArrowDown,ArrowLeft"":8,""ArrowDown,ArrowRight"":30}","true","ArrowDown,ArrowRight","false","","","revaluation","1","68","","",""
"html-keyboard-response","183","827994","0.0-4.0-2.0-1.34","spark_pilot_2","7995","2","23","Female","","","","","","","null","<div style=""font-size:60px;"">+</div>","null","fixation","","","","","","","","","","","69","","",""
"revaluation","184","834018","0.0-4.0-2.0-0.35","spark_pilot_2","7995","2","23","Female","","false","","","","","[474.59999990463257,261.59999990463257]","./assets/img/ocean/memory/38.jpg","[""ArrowDown"",""ArrowRight""]","value training","ocean","30","{""ArrowUp,ArrowLeft"":23,""ArrowUp,ArrowRight"":10,""ArrowDown,ArrowLeft"":8,""ArrowDown,ArrowRight"":30}","true","ArrowDown,ArrowRight","false","","","revaluation","1","70","","",""
"html-keyboard-response","185","834522","0.0-4.0-2.0-1.35","spark_pilot_2","7995","2","23","Female","","","","","","","null","<div style=""font-size:60px;"">+</div>","null","fixation","","","","","","","","","","","71","","",""
"revaluation","186","840547","0.0-4.0-2.0-0.36","spark_pilot_2","7995","2","23","Female","","false","","","","","[674.4000000953674,309.90000009536743]","./assets/img/ocean/memory/32.jpg","[""ArrowDown"",""ArrowRight""]","value training","ocean","30","{""ArrowUp,ArrowLeft"":23,""ArrowUp,ArrowRight"":10,""ArrowDown,ArrowLeft"":8,""ArrowDown,ArrowRight"":30}","true","ArrowDown,ArrowRight","false","","","revaluation","1","72","","",""
"html-keyboard-response","187","841050","0.0-4.0-2.0-1.36","spark_pilot_2","7995","2","23","Female","","","","","","","null","<div style=""font-size:60px;"">+</div>","null","fixation","","","","","","","","","","","73","","",""
"revaluation","188","847074","0.0-4.0-2.0-0.37","spark_pilot_2","7995","2","23","Female","","false","","","","","[496.2999997138977,6.099999904632568]","./assets/img/ocean/memory/36.jpg","[""ArrowDown"",""ArrowRight""]","value training","ocean","30","{""ArrowUp,ArrowLeft"":23,""ArrowUp,ArrowRight"":10,""ArrowDown,ArrowLeft"":8,""ArrowDown,ArrowRight"":30}","true","ArrowDown,ArrowRight","false","","","revaluation","1","74","","",""
"html-keyboard-response","189","847578","0.0-4.0-2.0-1.37","spark_pilot_2","7995","2","23","Female","","","","","","","null","<div style=""font-size:60px;"">+</div>","null","fixation","","","","","","","","","","","75","","",""
"revaluation","190","853602","0.0-4.0-2.0-0.38","spark_pilot_2","7995","2","23","Female","","false","","","","","[482.40000009536743,230.5]","./assets/img/ocean/memory/40.jpg","[""ArrowDown"",""ArrowRight""]","value training","ocean","30","{""ArrowUp,ArrowLeft"":23,""ArrowUp,ArrowRight"":10,""ArrowDown,ArrowLeft"":8,""ArrowDown,ArrowRight"":30}","true","ArrowDown,ArrowRight","false","","","revaluation","1","76","","",""
"html-keyboard-response","191","854106","0.0-4.0-2.0-1.38","spark_pilot_2","7995","2","23","Female","","","","","","","null","<div style=""font-size:60px;"">+</div>","null","fixation","","","","","","","","","","","77","","",""
"revaluation","192","860131","0.0-4.0-2.0-0.39","spark_pilot_2","7995","2","23","Female","","false","","","","","[537.5999999046326,341.59999990463257]","./assets/img/ocean/memory/26.jpg","[""ArrowDown"",""ArrowRight""]","value training","ocean","30","{""ArrowUp,ArrowLeft"":23,""ArrowUp,ArrowRight"":10,""ArrowDown,ArrowLeft"":8,""ArrowDown,ArrowRight"":30}","true","ArrowDown,ArrowRight","false","","","revaluation","1","78","","",""
"html-keyboard-response","193","860633","0.0-4.0-2.0-1.39","spark_pilot_2","7995","2","23","Female","","","","","","","null","<div style=""font-size:60px;"">+</div>","null","fixation","","","","","","","","","","","79","","",""
"revaluation","194","866659","0.0-4.0-2.0-0.40","spark_pilot_2","7995","2","23","Female","","false","","","","","[618.4000000953674,237.10000038146973]","./assets/img/ocean/memory/10.jpg","[""ArrowDown"",""ArrowRight""]","value training","ocean","30","{""ArrowUp,ArrowLeft"":23,""ArrowUp,ArrowRight"":10,""ArrowDown,ArrowLeft"":8,""ArrowDown,ArrowRight"":30}","true","ArrowDown,ArrowRight","false","","","revaluation","1","80","","",""
"html-keyboard-response","195","867162","0.0-4.0-2.0-1.40","spark_pilot_2","7995","2","23","Female","","","","","","","null","<div style=""font-size:60px;"">+</div>","null","fixation","","","","","","","","","","","81","","",""
"revaluation","196","873187","0.0-4.0-2.0-0.41","spark_pilot_2","7995","2","23","Female","","false","","","","","[449,214.7999997138977]","./assets/img/ocean/memory/16.jpg","[""ArrowDown"",""ArrowRight""]","value training","ocean","30","{""ArrowUp,ArrowLeft"":23,""ArrowUp,ArrowRight"":10,""ArrowDown,ArrowLeft"":8,""ArrowDown,ArrowRight"":30}","true","ArrowDown,ArrowRight","false","","","revaluation","1","82","","",""
"html-keyboard-response","197","873690","0.0-4.0-2.0-1.41","spark_pilot_2","7995","2","23","Female","","","","","","","null","<div style=""font-size:60px;"">+</div>","null","fixation","","","","","","","","","","","83","","",""
"revaluation","198","879715","0.0-4.0-2.0-0.42","spark_pilot_2","7995","2","23","Female","","false","","","","","[442.2999997138977,230.10000038146973]","./assets/img/ocean/memory/4.jpg","[""ArrowDown"",""ArrowRight""]","value training","ocean","30","{""ArrowUp,ArrowLeft"":23,""ArrowUp,ArrowRight"":10,""ArrowDown,ArrowLeft"":8,""ArrowDown,ArrowRight"":30}","true","ArrowDown,ArrowRight","false","","","revaluation","1","84","","",""
"html-keyboard-response","199","880218","0.0-4.0-2.0-1.42","spark_pilot_2","7995","2","23","Female","","","","","","","null","<div style=""font-size:60px;"">+</div>","null","fixation","","","","","","","","","","","85","","",""
"revaluation","200","886243","0.0-4.0-2.0-0.43","spark_pilot_2","7995","2","23","Female","","false","","","","","[736.5999999046326,278]","./assets/img/ocean/memory/19.jpg","[""ArrowDown"",""ArrowRight""]","value training","ocean","30","{""ArrowUp,ArrowLeft"":23,""ArrowUp,ArrowRight"":10,""ArrowDown,ArrowLeft"":8,""ArrowDown,ArrowRight"":30}","true","ArrowDown,ArrowRight","false","","","revaluation","1","86","","",""
"html-keyboard-response","201","886746","0.0-4.0-2.0-1.43","spark_pilot_2","7995","2","23","Female","","","","","","","null","<div style=""font-size:60px;"">+</div>","null","fixation","","","","","","","","","","","87","","",""
"revaluation","202","890763","0.0-4.0-2.0-0.44","spark_pilot_2","7995","2","23","Female","","false","","","","","[683.9000000953674]","./assets/img/ocean/catch/4.jpg","[""spaceBar""]","value training","ocean","0","{""ArrowUp,ArrowLeft"":23,""ArrowUp,ArrowRight"":10,""ArrowDown,ArrowLeft"":8,""ArrowDown,ArrowRight"":30}","true","spaceBar","true","","","revaluation","1","88","","",""
"html-keyboard-response","203","891274","0.0-4.0-2.0-1.44","spark_pilot_2","7995","2","23","Female","","","","","","","null","<div style=""font-size:60px;"">+</div>","null","fixation","","","","","","","","","","","89","","",""
"revaluation","204","895291","0.0-4.0-2.0-0.45","spark_pilot_2","7995","2","23","Female","","false","","","","","[572.4000000953674]","./assets/img/ocean/catch/7.jpg","[""spaceBar""]","value training","ocean","0","{""ArrowUp,ArrowLeft"":23,""ArrowUp,ArrowRight"":10,""ArrowDown,ArrowLeft"":8,""ArrowDown,ArrowRight"":30}","true","spaceBar","true","","","revaluation","1","90","","",""
"html-keyboard-response","205","895794","0.0-4.0-2.0-1.45","spark_pilot_2","7995","2","23","Female","","","","","","","null","<div style=""font-size:60px;"">+</div>","null","fixation","","","","","","","","","","","91","","",""
"revaluation","206","901819","0.0-4.0-2.0-0.46","spark_pilot_2","7995","2","23","Female","","false","","","","","[793.2000002861023,278.90000009536743]","./assets/img/ocean/memory/9.jpg","[""ArrowDown"",""ArrowRight""]","value training","ocean","30","{""ArrowUp,ArrowLeft"":23,""ArrowUp,ArrowRight"":10,""ArrowDown,ArrowLeft"":8,""ArrowDown,ArrowRight"":30}","true","ArrowDown,ArrowRight","false","","","revaluation","1","92","","",""
"html-keyboard-response","207","902323","0.0-4.0-2.0-1.46","spark_pilot_2","7995","2","23","Female","","","","","","","null","<div style=""font-size:60px;"">+</div>","null","fixation","","","","","","","","","","","93","","",""
"revaluation","208","908347","0.0-4.0-2.0-0.47","spark_pilot_2","7995","2","23","Female","","false","","","","","[656.8999996185303,261.80000019073486]","./assets/img/ocean/memory/41.jpg","[""ArrowDown"",""ArrowRight""]","value training","ocean","30","{""ArrowUp,ArrowLeft"":23,""ArrowUp,ArrowRight"":10,""ArrowDown,ArrowLeft"":8,""ArrowDown,ArrowRight"":30}","true","ArrowDown,ArrowRight","false","","","revaluation","1","94","","",""
"html-keyboard-response","209","908850","0.0-4.0-2.0-1.47","spark_pilot_2","7995","2","23","Female","","","","","","","null","<div style=""font-size:60px;"">+</div>","null","fixation","","","","","","","","","","","95","","",""
"revaluation","210","914875","0.0-4.0-2.0-0.48","spark_pilot_2","7995","2","23","Female","","false","","","","","[538,349.90000009536743]","./assets/img/ocean/memory/6.jpg","[""ArrowDown"",""ArrowRight""]","value training","ocean","30","{""ArrowUp,ArrowLeft"":23,""ArrowUp,ArrowRight"":10,""ArrowDown,ArrowLeft"":8,""ArrowDown,ArrowRight"":30}","true","ArrowDown,ArrowRight","false","","","revaluation","1","96","","",""
"html-keyboard-response","211","915378","0.0-4.0-2.0-1.48","spark_pilot_2","7995","2","23","Female","","","","","","","null","<div style=""font-size:60px;"">+</div>","null","fixation","","","","","","","","","","","97","","",""
"revaluation","212","921403","0.0-4.0-2.0-0.49","spark_pilot_2","7995","2","23","Female","","false","","","","","[568.5,253.19999980926514]","./assets/img/ocean/memory/31.jpg","[""ArrowDown"",""ArrowRight""]","value training","ocean","30","{""ArrowUp,ArrowLeft"":23,""ArrowUp,ArrowRight"":10,""ArrowDown,ArrowLeft"":8,""ArrowDown,ArrowRight"":30}","true","ArrowDown,ArrowRight","false","","","revaluation","1","98","","",""
"html-keyboard-response","213","921906","0.0-4.0-2.0-1.49","spark_pilot_2","7995","2","23","Female","","","","","","","null","<div style=""font-size:60px;"">+</div>","null","fixation","","","","","","","","","","","99","","",""
"learning-instructions","214","939100","0.0-4.0-3.0-0.0","spark_pilot_2","7995","2","23","Female","","","","","","","4164.800000190735","<p> Now, you will travel with a friend who will choose whether you go up or down first. </p>
            <p> On these turns, you will just see the animal that they found. You will still get to choose which chest to search for treasure.</p>","","instructions","","","","","","","","","","","","","",""
"revaluation","215","943126","0.0-4.0-4.0-0.0","spark_pilot_2","7995","2","23","Female","","false","","","","","[1354.7999997138977]","./assets/img/ocean/animals/octopus.jpg","[""ArrowLeft""]","revaluation","ocean","27","{""ArrowUp,ArrowLeft"":27,""ArrowUp,ArrowRight"":15,""ArrowDown,ArrowLeft"":21,""ArrowDown,ArrowRight"":7}","true","ArrowUp,ArrowLeft","","","","revaluation","1","0","","",""
"html-keyboard-response","216","943643","0.0-4.0-4.0-1.0","spark_pilot_2","7995","2","23","Female","","","","","","","null","<div style=""font-size:60px;"">+</div>","null","fixation","","","","","","","","","","","1","","",""
"revaluation","217","947666","0.0-4.0-4.0-0.1","spark_pilot_2","7995","2","23","Female","","false","","","","","[591.8000001907349]","./assets/img/ocean/animals/seahorse.jpg","[""ArrowRight""]","revaluation","ocean","7","{""ArrowUp,ArrowLeft"":27,""ArrowUp,ArrowRight"":15,""ArrowDown,ArrowLeft"":21,""ArrowDown,ArrowRight"":7}","false","ArrowDown,ArrowRight","","","","revaluation","1","2","","",""
"html-keyboard-response","218","948181","0.0-4.0-4.0-1.1","spark_pilot_2","7995","2","23","Female","","","","","","","null","<div style=""font-size:60px;"">+</div>","null","fixation","","","","","","","","","","","3","","",""
"revaluation","219","952219","0.0-4.0-4.0-0.2","spark_pilot_2","7995","2","23","Female","","false","","","","","[693.5]","./assets/img/ocean/animals/octopus.jpg","[""ArrowLeft""]","revaluation","ocean","27","{""ArrowUp,ArrowLeft"":27,""ArrowUp,ArrowRight"":15,""ArrowDown,ArrowLeft"":21,""ArrowDown,ArrowRight"":7}","true","ArrowUp,ArrowLeft","","","","revaluation","1","4","","",""
"html-keyboard-response","220","952724","0.0-4.0-4.0-1.2","spark_pilot_2","7995","2","23","Female","","","","","","","null","<div style=""font-size:60px;"">+</div>","null","fixation","","","","","","","","","","","5","","",""
"revaluation","221","956767","0.0-4.0-4.0-0.3","spark_pilot_2","7995","2","23","Female","","false","","","","","[619.7000002861023]","./assets/img/ocean/animals/octopus.jpg","[""ArrowLeft""]","revaluation","ocean","27","{""ArrowUp,ArrowLeft"":27,""ArrowUp,ArrowRight"":15,""ArrowDown,ArrowLeft"":21,""ArrowDown,ArrowRight"":7}","true","ArrowUp,ArrowLeft","","","","revaluation","1","6","","",""
"html-keyboard-response","222","957274","0.0-4.0-4.0-1.3","spark_pilot_2","7995","2","23","Female","","","","","","","null","<div style=""font-size:60px;"">+</div>","null","fixation","","","","","","","","","","","7","","",""
"revaluation","223","961290","0.0-4.0-4.0-0.4","spark_pilot_2","7995","2","23","Female","","false","","","","","[952.7999997138977]","./assets/img/ocean/animals/seahorse.jpg","[""ArrowLeft""]","revaluation","ocean","21","{""ArrowUp,ArrowLeft"":27,""ArrowUp,ArrowRight"":15,""ArrowDown,ArrowLeft"":21,""ArrowDown,ArrowRight"":7}","true","ArrowDown,ArrowLeft","","","","revaluation","1","8","","",""
"html-keyboard-response","224","961795","0.0-4.0-4.0-1.4","spark_pilot_2","7995","2","23","Female","","","","","","","null","<div style=""font-size:60px;"">+</div>","null","fixation","","","","","","","","","","","9","","",""
"revaluation","225","965811","0.0-4.0-4.0-0.5","spark_pilot_2","7995","2","23","Female","","false","","","","","[422.30000019073486]","./assets/img/ocean/animals/octopus.jpg","[""ArrowRight""]","revaluation","ocean","15","{""ArrowUp,ArrowLeft"":27,""ArrowUp,ArrowRight"":15,""ArrowDown,ArrowLeft"":21,""ArrowDown,ArrowRight"":7}","false","ArrowUp,ArrowRight","","","","revaluation","1","10","","",""
"html-keyboard-response","226","966315","0.0-4.0-4.0-1.5","spark_pilot_2","7995","2","23","Female","","","","","","","null","<div style=""font-size:60px;"">+</div>","null","fixation","","","","","","","","","","","11","","",""
"revaluation","227","970331","0.0-4.0-4.0-0.6","spark_pilot_2","7995","2","23","Female","","false","","","","","[688.3000001907349]","./assets/img/ocean/animals/seahorse.jpg","[""ArrowLeft""]","revaluation","ocean","21","{""ArrowUp,ArrowLeft"":27,""ArrowUp,ArrowRight"":15,""ArrowDown,ArrowLeft"":21,""ArrowDown,ArrowRight"":7}","true","ArrowDown,ArrowLeft","","","","revaluation","1","12","","",""
"html-keyboard-response","228","970834","0.0-4.0-4.0-1.6","spark_pilot_2","7995","2","23","Female","","","","","","","null","<div style=""font-size:60px;"">+</div>","null","fixation","","","","","","","","","","","13","","",""
"revaluation","229","974851","0.0-4.0-4.0-0.7","spark_pilot_2","7995","2","23","Female","","false","","","","","[440.59999990463257]","./assets/img/ocean/animals/seahorse.jpg","[""ArrowLeft""]","revaluation","ocean","21","{""ArrowUp,ArrowLeft"":27,""ArrowUp,ArrowRight"":15,""ArrowDown,ArrowLeft"":21,""ArrowDown,ArrowRight"":7}","true","ArrowDown,ArrowLeft","","","","revaluation","1","14","","",""
"html-keyboard-response","230","975355","0.0-4.0-4.0-1.7","spark_pilot_2","7995","2","23","Female","","","","","","","null","<div style=""font-size:60px;"">+</div>","null","fixation","","","","","","","","","","","15","","",""
"revaluation","231","979370","0.0-4.0-4.0-0.8","spark_pilot_2","7995","2","23","Female","","false","","","","","[408.09999990463257]","./assets/img/ocean/animals/octopus.jpg","[""ArrowLeft""]","revaluation","ocean","27","{""ArrowUp,ArrowLeft"":27,""ArrowUp,ArrowRight"":15,""ArrowDown,ArrowLeft"":21,""ArrowDown,ArrowRight"":7}","true","ArrowUp,ArrowLeft","","","","revaluation","1","16","","",""
"html-keyboard-response","232","979874","0.0-4.0-4.0-1.8","spark_pilot_2","7995","2","23","Female","","","","","","","null","<div style=""font-size:60px;"">+</div>","null","fixation","","","","","","","","","","","17","","",""
"revaluation","233","983891","0.0-4.0-4.0-0.9","spark_pilot_2","7995","2","23","Female","","false","","","","","[345]","./assets/img/ocean/animals/seahorse.jpg","[""ArrowLeft""]","revaluation","ocean","21","{""ArrowUp,ArrowLeft"":27,""ArrowUp,ArrowRight"":15,""ArrowDown,ArrowLeft"":21,""ArrowDown,ArrowRight"":7}","true","ArrowDown,ArrowLeft","","","","revaluation","1","18","","",""
"html-keyboard-response","234","984394","0.0-4.0-4.0-1.9","spark_pilot_2","7995","2","23","Female","","","","","","","null","<div style=""font-size:60px;"">+</div>","null","fixation","","","","","","","","","","","19","","",""
"revaluation","235","988411","0.0-4.0-4.0-0.10","spark_pilot_2","7995","2","23","Female","","false","","","","","[344.2000002861023]","./assets/img/ocean/animals/seahorse.jpg","[""ArrowLeft""]","revaluation","ocean","21","{""ArrowUp,ArrowLeft"":27,""ArrowUp,ArrowRight"":15,""ArrowDown,ArrowLeft"":21,""ArrowDown,ArrowRight"":7}","true","ArrowDown,ArrowLeft","","","","revaluation","1","20","","",""
"html-keyboard-response","236","988915","0.0-4.0-4.0-1.10","spark_pilot_2","7995","2","23","Female","","","","","","","null","<div style=""font-size:60px;"">+</div>","null","fixation","","","","","","","","","","","21","","",""
"revaluation","237","992931","0.0-4.0-4.0-0.11","spark_pilot_2","7995","2","23","Female","","false","","","","","[384.2000002861023]","./assets/img/ocean/animals/octopus.jpg","[""ArrowLeft""]","revaluation","ocean","27","{""ArrowUp,ArrowLeft"":27,""ArrowUp,ArrowRight"":15,""ArrowDown,ArrowLeft"":21,""ArrowDown,ArrowRight"":7}","true","ArrowUp,ArrowLeft","","","","revaluation","1","22","","",""
"html-keyboard-response","238","993434","0.0-4.0-4.0-1.11","spark_pilot_2","7995","2","23","Female","","","","","","","null","<div style=""font-size:60px;"">+</div>","null","fixation","","","","","","","","","","","23","","",""
"revaluation","239","997451","0.0-4.0-4.0-0.12","spark_pilot_2","7995","2","23","Female","","false","","","","","[336.19999980926514]","./assets/img/ocean/animals/octopus.jpg","[""ArrowLeft""]","revaluation","ocean","27","{""ArrowUp,ArrowLeft"":27,""ArrowUp,ArrowRight"":15,""ArrowDown,ArrowLeft"":21,""ArrowDown,ArrowRight"":7}","true","ArrowUp,ArrowLeft","","","","revaluation","1","24","","",""
"html-keyboard-response","240","997955","0.0-4.0-4.0-1.12","spark_pilot_2","7995","2","23","Female","","","","","","","null","<div style=""font-size:60px;"">+</div>","null","fixation","","","","","","","","","","","25","","",""
"revaluation","241","1001970","0.0-4.0-4.0-0.13","spark_pilot_2","7995","2","23","Female","","false","","","","","[399.90000009536743]","./assets/img/ocean/animals/seahorse.jpg","[""ArrowLeft""]","revaluation","ocean","21","{""ArrowUp,ArrowLeft"":27,""ArrowUp,ArrowRight"":15,""ArrowDown,ArrowLeft"":21,""ArrowDown,ArrowRight"":7}","true","ArrowDown,ArrowLeft","","","","revaluation","1","26","","",""
"html-keyboard-response","242","1002475","0.0-4.0-4.0-1.13","spark_pilot_2","7995","2","23","Female","","","","","","","null","<div style=""font-size:60px;"">+</div>","null","fixation","","","","","","","","","","","27","","",""
"revaluation","243","1006491","0.0-4.0-4.0-0.14","spark_pilot_2","7995","2","23","Female","","false","","","","","[327.69999980926514]","./assets/img/ocean/animals/octopus.jpg","[""ArrowLeft""]","revaluation","ocean","27","{""ArrowUp,ArrowLeft"":27,""ArrowUp,ArrowRight"":15,""ArrowDown,ArrowLeft"":21,""ArrowDown,ArrowRight"":7}","true","ArrowUp,ArrowLeft","","","","revaluation","1","28","","",""
"html-keyboard-response","244","1006995","0.0-4.0-4.0-1.14","spark_pilot_2","7995","2","23","Female","","","","","","","null","<div style=""font-size:60px;"">+</div>","null","fixation","","","","","","","","","","","29","","",""
"revaluation","245","1011011","0.0-4.0-4.0-0.15","spark_pilot_2","7995","2","23","Female","","false","","","","","[336.5]","./assets/img/ocean/animals/seahorse.jpg","[""ArrowLeft""]","revaluation","ocean","21","{""ArrowUp,ArrowLeft"":27,""ArrowUp,ArrowRight"":15,""ArrowDown,ArrowLeft"":21,""ArrowDown,ArrowRight"":7}","true","ArrowDown,ArrowLeft","","","","revaluation","1","30","","",""
"html-keyboard-response","246","1011514","0.0-4.0-4.0-1.15","spark_pilot_2","7995","2","23","Female","","","","","","","null","<div style=""font-size:60px;"">+</div>","null","fixation","","","","","","","","","","","31","","",""
"revaluation","247","1015531","0.0-4.0-4.0-0.16","spark_pilot_2","7995","2","23","Female","","false","","","","","[367.80000019073486]","./assets/img/ocean/animals/seahorse.jpg","[""ArrowLeft""]","revaluation","ocean","21","{""ArrowUp,ArrowLeft"":27,""ArrowUp,ArrowRight"":15,""ArrowDown,ArrowLeft"":21,""ArrowDown,ArrowRight"":7}","true","ArrowDown,ArrowLeft","","","","revaluation","1","32","","",""
"html-keyboard-response","248","1016034","0.0-4.0-4.0-1.16","spark_pilot_2","7995","2","23","Female","","","","","","","null","<div style=""font-size:60px;"">+</div>","null","fixation","","","","","","","","","","","33","","",""
"revaluation","249","1020051","0.0-4.0-4.0-0.17","spark_pilot_2","7995","2","23","Female","","false","","","","","[324]","./assets/img/ocean/animals/octopus.jpg","[""ArrowLeft""]","revaluation","ocean","27","{""ArrowUp,ArrowLeft"":27,""ArrowUp,ArrowRight"":15,""ArrowDown,ArrowLeft"":21,""ArrowDown,ArrowRight"":7}","true","ArrowUp,ArrowLeft","","","","revaluation","1","34","","",""
"html-keyboard-response","250","1020555","0.0-4.0-4.0-1.17","spark_pilot_2","7995","2","23","Female","","","","","","","null","<div style=""font-size:60px;"">+</div>","null","fixation","","","","","","","","","","","35","","",""
"learning-instructions","251","1032803","0.0-4.0-5.0-0.0","spark_pilot_2","7995","2","23","Female","","","","","","","786.3000001907349","<p> Time to play the dot game! </p>
            <p> For one minute, click the red dots on the following screen as they appear. </p>
            <p><b> Don't look away, as you will earn bonus for clicking dots</b>. </p>","","instructions","","","","","","","","","","","","","",""
"revaluation","252","1092808","0.0-4.0-6.0-0.0","spark_pilot_2","7995","2","23","Female","","","","","","","[78,67,71,62,60,65,53]","","","rest","","70","","","","","0","60000","","","","","",""
"learning-instructions","253","1100090","0.0-4.0-7.0-0.0","spark_pilot_2","7995","2","23","Female","","","","","","","1083.1999998092651","<p> You have almost finished this part of the game! </p>
            <p> We are going to ask you to make a few more choices. </p>","","instructions","","","","","","","","","","","","","",""
"learning-instructions","254","1115439","0.0-4.0-7.0-0.1","spark_pilot_2","7995","2","23","Female","","","","","","","1380.7999997138977","<p> First, you need to decide whether to go up or down. When you see each picture, use the arrow keys to make your choice. </p>
            <p><b>You will not see which animal you found, but try to get to the one that will give you the most treasure.</b></p>","","instructions","","","","","","","","","","","","","",""
"revaluation","255","1116094","0.0-4.0-8.0-0.0","spark_pilot_2","7995","2","23","Female","","false","","","","","[653.8000001907349]","./assets/img/ocean/test/3.jpg","[""ArrowDown""]","first stage test","ocean","0","{""ArrowUp,ArrowLeft"":27,""ArrowUp,ArrowRight"":15,""ArrowDown,ArrowLeft"":21,""ArrowDown,ArrowRight"":7}","false","ArrowDown","false","","","revaluation","1","","","",""
"html-keyboard-response","256","1116602","0.0-4.0-8.0-1.0","spark_pilot_2","7995","2","23","Female","","","","","","","null","<div style=""font-size:60px;"">+</div>","null","fixation","","","","","","","","","","","","","",""
"revaluation","257","1117366","0.0-4.0-8.0-0.1","spark_pilot_2","7995","2","23","Female","","false","","","","","[758.9000000953674]","./assets/img/ocean/test/0.jpg","[""ArrowDown""]","first stage test","ocean","0","{""ArrowUp,ArrowLeft"":27,""ArrowUp,ArrowRight"":15,""ArrowDown,ArrowLeft"":21,""ArrowDown,ArrowRight"":7}","false","ArrowDown","false","","","revaluation","1","","","",""
"html-keyboard-response","258","1117887","0.0-4.0-8.0-1.1","spark_pilot_2","7995","2","23","Female","","","","","","","null","<div style=""font-size:60px;"">+</div>","null","fixation","","","","","","","","","","","","","",""
"revaluation","259","1118343","0.0-4.0-8.0-0.2","spark_pilot_2","7995","2","23","Female","","false","","","","","[450.59999990463257]","./assets/img/ocean/test/2.jpg","[""ArrowDown""]","first stage test","ocean","0","{""ArrowUp,ArrowLeft"":27,""ArrowUp,ArrowRight"":15,""ArrowDown,ArrowLeft"":21,""ArrowDown,ArrowRight"":7}","false","ArrowDown","false","","","revaluation","1","","","",""
"html-keyboard-response","260","1118853","0.0-4.0-8.0-1.2","spark_pilot_2","7995","2","23","Female","","","","","","","null","<div style=""font-size:60px;"">+</div>","null","fixation","","","","","","","","","","","","","",""
"revaluation","261","1119375","0.0-4.0-8.0-0.3","spark_pilot_2","7995","2","23","Female","","false","","","","","[516.6999998092651]","./assets/img/ocean/test/1.jpg","[""ArrowDown""]","first stage test","ocean","0","{""ArrowUp,ArrowLeft"":27,""ArrowUp,ArrowRight"":15,""ArrowDown,ArrowLeft"":21,""ArrowDown,ArrowRight"":7}","false","ArrowDown","false","","","revaluation","1","","","",""
"html-keyboard-response","262","1119882","0.0-4.0-8.0-1.3","spark_pilot_2","7995","2","23","Female","","","","","","","null","<div style=""font-size:60px;"">+</div>","null","fixation","","","","","","","","","","","","","",""
"learning-instructions","263","1131891","0.0-4.0-9.0-0.0","spark_pilot_2","7995","2","23","Female","","","","","","","675.1999998092651","<p> Now you will see the animals again and can search their chests for treasure. </p>
            <p> This time, you will not see how much treasure you earned, but you will earn more bonus money for making better choices. </p>","","instructions","","","","","","","","","","","","","",""
"revaluation","264","1133248","0.0-4.0-10.0-0.0","spark_pilot_2","7995","2","23","Female","","false","","","","","[1354.7000002861023]","./assets/img/ocean/animals/octopus.jpg","[""ArrowLeft""]","second stage test","ocean","0","{""ArrowUp,ArrowLeft"":27,""ArrowUp,ArrowRight"":15,""ArrowDown,ArrowLeft"":21,""ArrowDown,ArrowRight"":7}","true","ArrowUp,ArrowLeft","","","","revaluation","1","","","",""
"html-keyboard-response","265","1133753","0.0-4.0-10.0-1.0","spark_pilot_2","7995","2","23","Female","","","","","","","null","<div style=""font-size:60px;"">+</div>","null","fixation","","","","","","","","","","","","","",""
"revaluation","266","1135022","0.0-4.0-10.0-0.1","spark_pilot_2","7995","2","23","Female","","false","","","","","[1266.8000001907349]","./assets/img/ocean/animals/octopus.jpg","[""ArrowRight""]","second stage test","ocean","0","{""ArrowUp,ArrowLeft"":27,""ArrowUp,ArrowRight"":15,""ArrowDown,ArrowLeft"":21,""ArrowDown,ArrowRight"":7}","false","ArrowUp,ArrowRight","","","","revaluation","1","","","",""
"html-keyboard-response","267","1135530","0.0-4.0-10.0-1.1","spark_pilot_2","7995","2","23","Female","","","","","","","null","<div style=""font-size:60px;"">+</div>","null","fixation","","","","","","","","","","","","","",""
"revaluation","268","1135919","0.0-4.0-10.0-0.2","spark_pilot_2","7995","2","23","Female","","false","","","","","[382.2999997138977]","./assets/img/ocean/animals/octopus.jpg","[""ArrowLeft""]","second stage test","ocean","0","{""ArrowUp,ArrowLeft"":27,""ArrowUp,ArrowRight"":15,""ArrowDown,ArrowLeft"":21,""ArrowDown,ArrowRight"":7}","true","ArrowUp,ArrowLeft","","","","revaluation","1","","","",""
"html-keyboard-response","269","1136426","0.0-4.0-10.0-1.2","spark_pilot_2","7995","2","23","Female","","","","","","","null","<div style=""font-size:60px;"">+</div>","null","fixation","","","","","","","","","","","","","",""
"revaluation","270","1136808","0.0-4.0-10.0-0.3","spark_pilot_2","7995","2","23","Female","","false","","","","","[379.2999997138977]","./assets/img/ocean/animals/octopus.jpg","[""ArrowLeft""]","second stage test","ocean","0","{""ArrowUp,ArrowLeft"":27,""ArrowUp,ArrowRight"":15,""ArrowDown,ArrowLeft"":21,""ArrowDown,ArrowRight"":7}","true","ArrowUp,ArrowLeft","","","","revaluation","1","","","",""
"html-keyboard-response","271","1137314","0.0-4.0-10.0-1.3","spark_pilot_2","7995","2","23","Female","","","","","","","null","<div style=""font-size:60px;"">+</div>","null","fixation","","","","","","","","","","","","","",""
"revaluation","272","1138936","0.0-4.0-10.0-0.4","spark_pilot_2","7995","2","23","Female","","false","","","","","[1615.7000002861023]","./assets/img/ocean/animals/seahorse.jpg","[""ArrowRight""]","second stage test","ocean","0","{""ArrowUp,ArrowLeft"":27,""ArrowUp,ArrowRight"":15,""ArrowDown,ArrowLeft"":21,""ArrowDown,ArrowRight"":7}","false","ArrowDown,ArrowRight","","","","revaluation","1","","","",""
"html-keyboard-response","273","1139454","0.0-4.0-10.0-1.4","spark_pilot_2","7995","2","23","Female","","","","","","","null","<div style=""font-size:60px;"">+</div>","null","fixation","","","","","","","","","","","","","",""
"revaluation","274","1139775","0.0-4.0-10.0-0.5","spark_pilot_2","7995","2","23","Female","","false","","","","","[315.5]","./assets/img/ocean/animals/seahorse.jpg","[""ArrowRight""]","second stage test","ocean","0","{""ArrowUp,ArrowLeft"":27,""ArrowUp,ArrowRight"":15,""ArrowDown,ArrowLeft"":21,""ArrowDown,ArrowRight"":7}","false","ArrowDown,ArrowRight","","","","revaluation","1","","","",""
"html-keyboard-response","275","1140293","0.0-4.0-10.0-1.5","spark_pilot_2","7995","2","23","Female","","","","","","","null","<div style=""font-size:60px;"">+</div>","null","fixation","","","","","","","","","","","","","",""
"revaluation","276","1140614","0.0-4.0-10.0-0.6","spark_pilot_2","7995","2","23","Female","","false","","","","","[315.59999990463257]","./assets/img/ocean/animals/seahorse.jpg","[""ArrowRight""]","second stage test","ocean","0","{""ArrowUp,ArrowLeft"":27,""ArrowUp,ArrowRight"":15,""ArrowDown,ArrowLeft"":21,""ArrowDown,ArrowRight"":7}","false","ArrowDown,ArrowRight","","","","revaluation","1","","","",""
"html-keyboard-response","277","1141123","0.0-4.0-10.0-1.6","spark_pilot_2","7995","2","23","Female","","","","","","","null","<div style=""font-size:60px;"">+</div>","null","fixation","","","","","","","","","","","","","",""
"revaluation","278","1141415","0.0-4.0-10.0-0.7","spark_pilot_2","7995","2","23","Female","","false","","","","","[286.5]","./assets/img/ocean/animals/seahorse.jpg","[""ArrowRight""]","second stage test","ocean","0","{""ArrowUp,ArrowLeft"":27,""ArrowUp,ArrowRight"":15,""ArrowDown,ArrowLeft"":21,""ArrowDown,ArrowRight"":7}","false","ArrowDown,ArrowRight","","","","revaluation","1","","","",""
"html-keyboard-response","279","1141932","0.0-4.0-10.0-1.7","spark_pilot_2","7995","2","23","Female","","","","","","","null","<div style=""font-size:60px;"">+</div>","null","fixation","","","","","","","","","","","","","",""
"learning-instructions","280","1145555","0.0-4.0-0.1-0.2","spark_pilot_2","7995","2","23","Female","","","","","","","809.0999999046326","<p> This time you are searching for treasure in the <b>canyon</b>.</p>","","instructions","","","","","","","","","","","","","",""
"learning-instructions","281","1164214","0.0-4.0-0.1-0.3","spark_pilot_2","7995","2","23","Female","","","","","","","1406.6000003814697","<p><b>New</b> animals with <b>new</b> treasure chests live here. You need to explore to discover where the animal with the best treasure chest is.</p>
                    <p> Like before, once you figure out which animal has the chest with the most treasure, you should try to get to that animal and select that chest! </p>","","instructions","","","","","","","","","","","","","",""
"learning-instructions","282","1181155","0.0-4.0-1.1-0.1","spark_pilot_2","7995","2","23","Female","","","","","","","2207","<p> Remember, when you see a picture of the place, use the up and down keys to <b>find an animal</b>.</p>
            <p> When you encounter an animal, you should use the left and right keys to <b>select a treasure chest</b>.</p>
            <p> Don't forget to look out for the robber! </p>","","instructions","","","","","","","","","","","","","",""
"revaluation","283","1187196","0.0-4.0-2.1-0.50","spark_pilot_2","7995","2","23","Female","","false","","","","","[1322,507.09999990463257]","./assets/img/canyon/memory/21.jpg","[""ArrowDown"",""ArrowRight""]","value training","canyon","17","{""ArrowUp,ArrowLeft"":26,""ArrowUp,ArrowRight"":10,""ArrowDown,ArrowLeft"":5,""ArrowDown,ArrowRight"":17}","false","ArrowDown,ArrowRight","false","","","original","2","0","","",""
"html-keyboard-response","284","1187713","0.0-4.0-2.1-1.50","spark_pilot_2","7995","2","23","Female","","","","","","","null","<div style=""font-size:60px;"">+</div>","null","fixation","","","","","","","","","","","1","","",""
"revaluation","285","1193756","0.0-4.0-2.1-0.51","spark_pilot_2","7995","2","23","Female","","false","","","","","[552.5,385.19999980926514]","./assets/img/canyon/memory/24.jpg","[""ArrowUp"",""ArrowLeft""]","value training","canyon","26","{""ArrowUp,ArrowLeft"":26,""ArrowUp,ArrowRight"":10,""ArrowDown,ArrowLeft"":5,""ArrowDown,ArrowRight"":17}","true","ArrowUp,ArrowLeft","false","","","original","2","2","","",""
"html-keyboard-response","286","1194275","0.0-4.0-2.1-1.51","spark_pilot_2","7995","2","23","Female","","","","","","","null","<div style=""font-size:60px;"">+</div>","null","fixation","","","","","","","","","","","3","","",""
"revaluation","287","1200316","0.0-4.0-2.1-0.52","spark_pilot_2","7995","2","23","Female","","false","","","","","[697.7999997138977,323.59999990463257]","./assets/img/canyon/memory/10.jpg","[""ArrowUp"",""ArrowRight""]","value training","canyon","10","{""ArrowUp,ArrowLeft"":26,""ArrowUp,ArrowRight"":10,""ArrowDown,ArrowLeft"":5,""ArrowDown,ArrowRight"":17}","false","ArrowUp,ArrowRight","false","","","original","2","4","","",""
"html-keyboard-response","288","1200831","0.0-4.0-2.1-1.52","spark_pilot_2","7995","2","23","Female","","","","","","","null","<div style=""font-size:60px;"">+</div>","null","fixation","","","","","","","","","","","5","","",""
"revaluation","289","1206877","0.0-4.0-2.1-0.53","spark_pilot_2","7995","2","23","Female","","false","","","","","[875.0999999046326,347]","./assets/img/canyon/memory/24.jpg","[""ArrowDown"",""ArrowLeft""]","value training","canyon","5","{""ArrowUp,ArrowLeft"":26,""ArrowUp,ArrowRight"":10,""ArrowDown,ArrowLeft"":5,""ArrowDown,ArrowRight"":17}","false","ArrowDown,ArrowLeft","false","","","original","2","6","","",""
"html-keyboard-response","290","1207388","0.0-4.0-2.1-1.53","spark_pilot_2","7995","2","23","Female","","","","","","","null","<div style=""font-size:60px;"">+</div>","null","fixation","","","","","","","","","","","7","","",""
"revaluation","291","1213411","0.0-4.0-2.1-0.54","spark_pilot_2","7995","2","23","Female","","false","","","","","[453.59999990463257,212.2000002861023]","./assets/img/canyon/memory/14.jpg","[""ArrowUp"",""ArrowLeft""]","value training","canyon","26","{""ArrowUp,ArrowLeft"":26,""ArrowUp,ArrowRight"":10,""ArrowDown,ArrowLeft"":5,""ArrowDown,ArrowRight"":17}","true","ArrowUp,ArrowLeft","false","","","original","2","8","","",""
"html-keyboard-response","292","1213922","0.0-4.0-2.1-1.54","spark_pilot_2","7995","2","23","Female","","","","","","","null","<div style=""font-size:60px;"">+</div>","null","fixation","","","","","","","","","","","9","","",""
"revaluation","293","1219947","0.0-4.0-2.1-0.55","spark_pilot_2","7995","2","23","Female","","false","","","","","[759.8000001907349,419.69999980926514]","./assets/img/canyon/memory/6.jpg","[""ArrowUp"",""ArrowLeft""]","value training","canyon","26","{""ArrowUp,ArrowLeft"":26,""ArrowUp,ArrowRight"":10,""ArrowDown,ArrowLeft"":5,""ArrowDown,ArrowRight"":17}","true","ArrowUp,ArrowLeft","false","","","original","2","10","","",""
"html-keyboard-response","294","1220451","0.0-4.0-2.1-1.55","spark_pilot_2","7995","2","23","Female","","","","","","","null","<div style=""font-size:60px;"">+</div>","null","fixation","","","","","","","","","","","11","","",""
"revaluation","295","1226475","0.0-4.0-2.1-0.56","spark_pilot_2","7995","2","23","Female","","false","","","","","[775.0999999046326,284.09999990463257]","./assets/img/canyon/memory/31.jpg","[""ArrowUp"",""ArrowLeft""]","value training","canyon","26","{""ArrowUp,ArrowLeft"":26,""ArrowUp,ArrowRight"":10,""ArrowDown,ArrowLeft"":5,""ArrowDown,ArrowRight"":17}","true","ArrowUp,ArrowLeft","false","","","original","2","12","","",""
"html-keyboard-response","296","1226987","0.0-4.0-2.1-1.56","spark_pilot_2","7995","2","23","Female","","","","","","","null","<div style=""font-size:60px;"">+</div>","null","fixation","","","","","","","","","","","13","","",""
"revaluation","297","1231003","0.0-4.0-2.1-0.57","spark_pilot_2","7995","2","23","Female","","false","","","","","[782.5]","./assets/img/canyon/catch/1.jpg","[""spaceBar""]","value training","canyon","0","{""ArrowUp,ArrowLeft"":26,""ArrowUp,ArrowRight"":10,""ArrowDown,ArrowLeft"":5,""ArrowDown,ArrowRight"":17}","true","spaceBar","true","","","original","2","14","","",""
"html-keyboard-response","298","1231507","0.0-4.0-2.1-1.57","spark_pilot_2","7995","2","23","Female","","","","","","","null","<div style=""font-size:60px;"">+</div>","null","fixation","","","","","","","","","","","15","","",""
"revaluation","299","1237531","0.0-4.0-2.1-0.58","spark_pilot_2","7995","2","23","Female","","false","","","","","[630.0999999046326,211.59999990463257]","./assets/img/canyon/memory/6.jpg","[""ArrowUp"",""ArrowLeft""]","value training","canyon","26","{""ArrowUp,ArrowLeft"":26,""ArrowUp,ArrowRight"":10,""ArrowDown,ArrowLeft"":5,""ArrowDown,ArrowRight"":17}","true","ArrowUp,ArrowLeft","false","","","original","2","16","","",""
"html-keyboard-response","300","1238042","0.0-4.0-2.1-1.58","spark_pilot_2","7995","2","23","Female","","","","","","","null","<div style=""font-size:60px;"">+</div>","null","fixation","","","","","","","","","","","17","","",""
"revaluation","301","1244068","0.0-4.0-2.1-0.59","spark_pilot_2","7995","2","23","Female","","false","","","","","[655.9000000953674,451.59999990463257]","./assets/img/canyon/memory/4.jpg","[""ArrowUp"",""ArrowLeft""]","value training","canyon","26","{""ArrowUp,ArrowLeft"":26,""ArrowUp,ArrowRight"":10,""ArrowDown,ArrowLeft"":5,""ArrowDown,ArrowRight"":17}","true","ArrowUp,ArrowLeft","false","","","original","2","18","","",""
"html-keyboard-response","302","1244579","0.0-4.0-2.1-1.59","spark_pilot_2","7995","2","23","Female","","","","","","","null","<div style=""font-size:60px;"">+</div>","null","fixation","","","","","","","","","","","19","","",""
"revaluation","303","1250603","0.0-4.0-2.1-0.60","spark_pilot_2","7995","2","23","Female","","false","","","","","[766,483.69999980926514]","./assets/img/canyon/memory/32.jpg","[""ArrowUp"",""ArrowLeft""]","value training","canyon","26","{""ArrowUp,ArrowLeft"":26,""ArrowUp,ArrowRight"":10,""ArrowDown,ArrowLeft"":5,""ArrowDown,ArrowRight"":17}","true","ArrowUp,ArrowLeft","false","","","original","2","20","","",""
"html-keyboard-response","304","1251115","0.0-4.0-2.1-1.60","spark_pilot_2","7995","2","23","Female","","","","","","","null","<div style=""font-size:60px;"">+</div>","null","fixation","","","","","","","","","","","21","","",""
