"trial_type","trial_index","time_elapsed","internal_node_id","task_version","subject_id","assigned_condition","age","gender","success","timeout","failed_images","failed_audio","failed_video","browser_interaction","rt","stimulus","response","task_part","environment","score","rewardMap","correct","fullState","isCatch","numberMissed","duration","condition","order","trial_num","key_press","ground_truth","bonus"
"pavlovia","0","980","0.0-0.0","spark_pilot_2","7299","3","11","Male","","","","","","","","","","","","","","","","","","","","","","","",""
"preload","1","5983","0.0-1.0","spark_pilot_2","7299","3","11","Male","true","false","[]","[]","[]","[{""event"":""fullscreenenter"",""trial"":2,""time"":10403}]","","","","","","","","","","","","","","","","","",""
"fullscreen","2","11408","0.0-2.0","spark_pilot_2","7299","3","11","Male","true","","","","","","","","","","","","","","","","","","","","","","",""
"audio-button-response","3","14193","0.0-3.0-0.0-0.0","spark_pilot_2","7299","3","11","Male","","","","","","","2747","./assets/audio/audiotest/turtle.mp3","2","audio_test","","","","","","","","","","","","","",""
"learning-instructions","4","40821","0.0-3.0-1.0-0.0","spark_pilot_2","7299","3","11","Male","","","","","","","19646.899999976158","<p> Welcome! Please remember to stay in fullscreen mode and don't click away from the experiment. </p>","","instructions","","","","","","","","","","","","","",""
"learning-instructions","5","51144","0.0-3.0-1.0-0.1","spark_pilot_2","7299","3","11","Male","","","","","","","1910.7000000178814","<p> Today you will be playing a game to earn treasure. </p>
            <p> At the end of the experiment, you will earn a bonus based on how much treasure you find. </p>
            <img src='./assets/img/instructions/treasure.jpg' class='instructions-image'>","","instructions","","","","","","","","","","","","","",""
"learning-instructions","6","60236","0.0-3.0-1.0-0.2","spark_pilot_2","7299","3","11","Male","","","","","","","837.2999999821186","<p> Animals have hidden treasure in treasure chests. </p>
            <p> You need to first find an animal and then choose which of their treasure chests to search. </p>
            <img src='./assets/img/space/animals/cat.jpg' class='instructions-image'>","","instructions","","","","","","","","","","","","","",""
"learning-instructions","7","74148","0.0-3.0-1.0-0.3","spark_pilot_2","7299","3","11","Male","","","","","","","765.5999999940395","<p> In each round, you will search for treasure in a different place. In the real game, there will be two rounds. </p>
            <p> You will begin with a separate, practice round where you will search for treasure in outer space. </p>
            <img src='./assets/img/space/0.jpg' class='instructions-image'>","","instructions","","","","","","","","","","","","","",""
"learning-instructions","8","90481","0.0-3.0-1.0-0.4","spark_pilot_2","7299","3","11","Male","","","","","","","4923.200000017881","<p> On every turn, you will see a picture of the place that you are in, but the specific image may be different each time. </p>
            <p> For example, both of these images mean you are in outer space. </p>
            <img src='./assets/img/instructions/outerspace.jpg' class='instructions-image'>","","instructions","","","","","","","","","","","","","",""
"learning-instructions","9","99244","0.0-3.0-1.0-0.5","spark_pilot_2","7299","3","11","Male","","","","","","","939.5","<p> You need to decide which direction to travel in. </p>
            <p> You can choose between going <b>up or down</b> by using the arrow keys. </p>
            <img src='./assets/img/instructions/updown.jpg' class='instructions-image'>","","instructions","","","","","","","","","","","","","",""
"learning-instructions","10","109279","0.0-3.0-1.0-0.6","spark_pilot_2","7299","3","11","Male","","","","","","","1230.7000000178814","<p> You will have <b>2 seconds</b> to make your choice. </p>
            <p> If you do not make a choice within 2 seconds, you will not find an animal or earn treasure. </p>
            <img src='./assets/img/instructions/2seconds.jpg' class='instructions-image'>","","instructions","","","","","","","","","","","","","",""
"learning-instructions","11","117196","0.0-3.0-1.0-0.7","spark_pilot_2","7299","3","11","Male","","","","","","","886","<p> Let’s try practicing that now! </p>
            <p> When you see a picture of the place you are in, press the <b>up</b> key to travel up. </p>
            <img src='./assets/img/instructions/pressUp.jpg' class='instructions-image'>","","instructions","","","","","","","","","","","","","",""
"revaluation","12","121212","0.0-3.0-2.0-0.0","spark_pilot_2","7299","3","11","Male","","false","","","","","[716.5]","./assets/img/space/0.jpg","[""ArrowUp""]","first stage practice","space","0","null","null","ArrowUp","false","","","","","","","",""
"html-keyboard-response","13","121721","0.0-3.0-2.0-1.0","spark_pilot_2","7299","3","11","Male","","","","","","","null","<div style=""font-size:60px;"">+</div>","null","fixation","","","","","","","","","","","","","",""
"revaluation","14","125738","0.0-3.0-2.0-0.1","spark_pilot_2","7299","3","11","Male","","false","","","","","[1162.699999988079]","./assets/img/space/1.jpg","[""ArrowUp""]","first stage practice","space","0","null","null","ArrowUp","false","","","","","","","",""
"html-keyboard-response","15","126245","0.0-3.0-2.0-1.1","spark_pilot_2","7299","3","11","Male","","","","","","","null","<div style=""font-size:60px;"">+</div>","null","fixation","","","","","","","","","","","","","",""
"revaluation","16","130266","0.0-3.0-2.0-0.2","spark_pilot_2","7299","3","11","Male","","false","","","","","[1528.699999988079]","./assets/img/space/2.jpg","[""ArrowUp""]","first stage practice","space","0","null","null","ArrowUp","false","","","","","","","",""
"html-keyboard-response","17","130769","0.0-3.0-2.0-1.2","spark_pilot_2","7299","3","11","Male","","","","","","","null","<div style=""font-size:60px;"">+</div>","null","fixation","","","","","","","","","","","","","",""
"learning-instructions","18","137573","0.0-3.0-3.0-0.0","spark_pilot_2","7299","3","11","Male","","","","","","","2105.699999988079","<p> Great job! Now try pressing the <b>down</b> key to travel down. </p>
            <img src='./assets/img/instructions/pressDown.jpg' class='instructions-image'>","","instructions","","","","","","","","","","","","","",""
"revaluation","19","141589","0.0-3.0-4.0-0.0","spark_pilot_2","7299","3","11","Male","","false","","","","","[1143.300000011921]","./assets/img/space/3.jpg","[""ArrowDown""]","first stage practice","space","0","null","null","ArrowDown","false","","","","","","","",""
"html-keyboard-response","20","142096","0.0-3.0-4.0-1.0","spark_pilot_2","7299","3","11","Male","","","","","","","null","<div style=""font-size:60px;"">+</div>","null","fixation","","","","","","","","","","","","","",""
"revaluation","21","146116","0.0-3.0-4.0-0.1","spark_pilot_2","7299","3","11","Male","","false","","","","","[361.5]","./assets/img/space/4.jpg","[""ArrowDown""]","first stage practice","space","0","null","null","ArrowDown","false","","","","","","","",""
"html-keyboard-response","22","146625","0.0-3.0-4.0-1.1","spark_pilot_2","7299","3","11","Male","","","","","","","null","<div style=""font-size:60px;"">+</div>","null","fixation","","","","","","","","","","","","","",""
"revaluation","23","150641","0.0-3.0-4.0-0.2","spark_pilot_2","7299","3","11","Male","","false","","","","","[305.59999999403954]","./assets/img/space/5.jpg","[""ArrowDown""]","first stage practice","space","0","null","null","ArrowDown","false","","","","","","","",""
"html-keyboard-response","24","151148","0.0-3.0-4.0-1.2","spark_pilot_2","7299","3","11","Male","","","","","","","null","<div style=""font-size:60px;"">+</div>","null","fixation","","","","","","","","","","","","","",""
"learning-instructions","25","161809","0.0-3.0-5.0-0.0","spark_pilot_2","7299","3","11","Male","","","","","","","812.5","<p> The animals don’t move, so the animal in the upper part of a place will stay in the upper part of a place, and the animal in the lower part of a place will stay in the lower part of a place. </p>","","instructions","","","","","","","","","","","","","",""
"learning-instructions","26","172060","0.0-3.0-5.0-0.1","spark_pilot_2","7299","3","11","Male","","","","","","","1122.3999999761581","<p> Each animal has two treasure chests for you to choose from. </p>
            <p> The amount of treasure in each chest can range from <b> 0 to 40 pieces.</b></p>","","instructions","","","","","","","","","","","","","",""
"learning-instructions","27","183940","0.0-3.0-5.0-0.2","spark_pilot_2","7299","3","11","Male","","","","","","","703.2000000178814","<p> You should decide which chest to search for treasure by using the <b>left</b> and <b>right</b> arrow keys. </p>
            <p><b> Pay attention to which animal is on the screen, as the animals have different treasure chests. </b></p>
            <img src='./assets/img/instructions/leftright.jpg' class='instructions-image'>","","instructions","","","","","","","","","","","","","",""
"learning-instructions","28","191019","0.0-3.0-5.0-0.3","spark_pilot_2","7299","3","11","Male","","","","","","","720.8000000119209","<p> Let’s try practicing that now. </p>
            <p> When you see an animal, choose which chest to search for treasure. </p>
            <img src='./assets/img/instructions/chooseChest.jpg' class='instructions-image'>","","instructions","","","","","","","","","","","","","",""
"revaluation","29","195039","0.0-3.0-6.0-0.0","spark_pilot_2","7299","3","11","Male","","false","","","","","[519]","./assets/img/space/animals/cat.jpg","[""ArrowRight""]","second stage practice","space","36","{""ArrowUp,ArrowLeft"":3,""ArrowUp,ArrowRight"":36,""ArrowDown,ArrowLeft"":15,""ArrowDown,ArrowRight"":23}","true","ArrowUp,ArrowRight","","","","","","","","",""
"html-keyboard-response","30","195542","0.0-3.0-6.0-1.0","spark_pilot_2","7299","3","11","Male","","","","","","","null","<div style=""font-size:60px;"">+</div>","null","fixation","","","","","","","","","","","","","",""
"revaluation","31","199563","0.0-3.0-6.0-0.1","spark_pilot_2","7299","3","11","Male","","false","","","","","[683.1999999880791]","./assets/img/space/animals/rabbit.jpg","[""ArrowLeft""]","second stage practice","space","15","{""ArrowUp,ArrowLeft"":3,""ArrowUp,ArrowRight"":36,""ArrowDown,ArrowLeft"":15,""ArrowDown,ArrowRight"":23}","false","ArrowDown,ArrowLeft","","","","","","","","",""
"html-keyboard-response","32","200070","0.0-3.0-6.0-1.1","spark_pilot_2","7299","3","11","Male","","","","","","","null","<div style=""font-size:60px;"">+</div>","null","fixation","","","","","","","","","","","","","",""
"revaluation","33","204091","0.0-3.0-6.0-0.2","spark_pilot_2","7299","3","11","Male","","false","","","","","[545.7000000178814]","./assets/img/space/animals/rabbit.jpg","[""ArrowLeft""]","second stage practice","space","15","{""ArrowUp,ArrowLeft"":3,""ArrowUp,ArrowRight"":36,""ArrowDown,ArrowLeft"":15,""ArrowDown,ArrowRight"":23}","false","ArrowDown,ArrowLeft","","","","","","","","",""
"html-keyboard-response","34","204602","0.0-3.0-6.0-1.2","spark_pilot_2","7299","3","11","Male","","","","","","","null","<div style=""font-size:60px;"">+</div>","null","fixation","","","","","","","","","","","","","",""
"revaluation","35","208626","0.0-3.0-6.0-0.3","spark_pilot_2","7299","3","11","Male","","false","","","","","[821.1999999880791]","./assets/img/space/animals/cat.jpg","[""ArrowRight""]","second stage practice","space","36","{""ArrowUp,ArrowLeft"":3,""ArrowUp,ArrowRight"":36,""ArrowDown,ArrowLeft"":15,""ArrowDown,ArrowRight"":23}","true","ArrowUp,ArrowRight","","","","","","","","",""
"html-keyboard-response","36","209136","0.0-3.0-6.0-1.3","spark_pilot_2","7299","3","11","Male","","","","","","","null","<div style=""font-size:60px;"">+</div>","null","fixation","","","","","","","","","","","","","",""
"learning-instructions","37","226749","0.0-3.0-7.0-0.0","spark_pilot_2","7299","3","11","Male","","","","","","","803.5","<p> Great job. Now let’s try putting it together. </p>
            <p> On each turn, you will first see a picture to remind you of the place you are in, and you need to choose whether to go up or down. </p>
            <p> Then you will see an animal and choose which of its chests to search for treasure. </p>","","instructions","","","","","","","","","","","","","",""
"learning-instructions","38","235569","0.0-3.0-7.0-0.1","spark_pilot_2","7299","3","11","Male","","","","","","","562.7999999821186","<p> When you choose whether to go up or down, try to go to the animal with the chest with the most treasure. </p>
            <p> Try practicing that now! </p>","","instructions","","","","","","","","","","","","","",""
"revaluation","39","241601","0.0-3.0-8.0-0.0","spark_pilot_2","7299","3","11","Male","","false","","","","","[1170.300000011921,547]","./assets/img/space/6.jpg","[""ArrowUp"",""ArrowLeft""]","full practice","space","3","{""ArrowUp,ArrowLeft"":3,""ArrowUp,ArrowRight"":36,""ArrowDown,ArrowLeft"":15,""ArrowDown,ArrowRight"":23}","false","ArrowUp,ArrowLeft","false","","","","","","","",""
"html-keyboard-response","40","242110","0.0-3.0-8.0-1.0","spark_pilot_2","7299","3","11","Male","","","","","","","null","<div style=""font-size:60px;"">+</div>","null","fixation","","","","","","","","","","","","","",""
"revaluation","41","248137","0.0-3.0-8.0-0.1","spark_pilot_2","7299","3","11","Male","","false","","","","","[1300.4000000059605,783.2000000178814]","./assets/img/space/7.jpg","[""ArrowUp"",""ArrowRight""]","full practice","space","36","{""ArrowUp,ArrowLeft"":3,""ArrowUp,ArrowRight"":36,""ArrowDown,ArrowLeft"":15,""ArrowDown,ArrowRight"":23}","true","ArrowUp,ArrowRight","false","","","","","","","",""
"html-keyboard-response","42","248643","0.0-3.0-8.0-1.1","spark_pilot_2","7299","3","11","Male","","","","","","","null","<div style=""font-size:60px;"">+</div>","null","fixation","","","","","","","","","","","","","",""
"revaluation","43","254672","0.0-3.0-8.0-0.2","spark_pilot_2","7299","3","11","Male","","false","","","","","[998,605.4000000059605]","./assets/img/space/8.jpg","[""ArrowUp"",""ArrowRight""]","full practice","space","36","{""ArrowUp,ArrowLeft"":3,""ArrowUp,ArrowRight"":36,""ArrowDown,ArrowLeft"":15,""ArrowDown,ArrowRight"":23}","true","ArrowUp,ArrowRight","false","","","","","","","",""
"html-keyboard-response","44","255179","0.0-3.0-8.0-1.2","spark_pilot_2","7299","3","11","Male","","","","","","","null","<div style=""font-size:60px;"">+</div>","null","fixation","","","","","","","","","","","","","",""
"revaluation","45","261206","0.0-3.0-8.0-0.3","spark_pilot_2","7299","3","11","Male","","false","","","","","[505.60000002384186,682.5]","./assets/img/space/9.jpg","[""ArrowDown"",""ArrowLeft""]","full practice","space","15","{""ArrowUp,ArrowLeft"":3,""ArrowUp,ArrowRight"":36,""ArrowDown,ArrowLeft"":15,""ArrowDown,ArrowRight"":23}","false","ArrowDown,ArrowLeft","false","","","","","","","",""
"html-keyboard-response","46","261715","0.0-3.0-8.0-1.3","spark_pilot_2","7299","3","11","Male","","","","","","","null","<div style=""font-size:60px;"">+</div>","null","fixation","","","","","","","","","","","","","",""
"revaluation","47","267743","0.0-3.0-8.0-0.4","spark_pilot_2","7299","3","11","Male","","false","","","","","[466,408.59999999403954]","./assets/img/space/10.jpg","[""ArrowDown"",""ArrowRight""]","full practice","space","23","{""ArrowUp,ArrowLeft"":3,""ArrowUp,ArrowRight"":36,""ArrowDown,ArrowLeft"":15,""ArrowDown,ArrowRight"":23}","false","ArrowDown,ArrowRight","false","","","","","","","",""
"html-keyboard-response","48","268254","0.0-3.0-8.0-1.4","spark_pilot_2","7299","3","11","Male","","","","","","","null","<div style=""font-size:60px;"">+</div>","null","fixation","","","","","","","","","","","","","",""
"learning-instructions","49","279373","0.0-3.0-9.0-0.0","spark_pilot_2","7299","3","11","Male","","","","","","","776.3000000119209","<p> One last thing: sometimes, you will see a robber. The robber can be anywhere in the picture. </p>
            <p> If you do not stop them, you will lose treasure. </p>
            <img src='./assets/img/instructions/robber.jpg' class='instructions-image'>","","instructions","","","","","","","","","","","","","",""
"learning-instructions","50","287089","0.0-3.0-9.0-0.1","spark_pilot_2","7299","3","11","Male","","","","","","","556.9000000059605","<p> If you see the robber, you should <b>press the space bar</b> rather than using the arrow keys. </p>
            <p> Try practicing that now! </p>","","instructions","","","","","","","","","","","","","",""
"revaluation","51","291109","0.0-3.0-10.0-0.0","spark_pilot_2","7299","3","11","Male","","false","","","","","[937.6999999880791]","./assets/img/space/catch/0.jpg","[""spaceBar""]","catch practice","space","0","{""ArrowUp,ArrowLeft"":3,""ArrowUp,ArrowRight"":36,""ArrowDown,ArrowLeft"":15,""ArrowDown,ArrowRight"":23}","true","spaceBar","true","","","","","","","",""
"html-keyboard-response","52","291617","0.0-3.0-10.0-1.0","spark_pilot_2","7299","3","11","Male","","","","","","","null","<div style=""font-size:60px;"">+</div>","null","fixation","","","","","","","","","","","","","",""
"revaluation","53","295635","0.0-3.0-10.0-0.1","spark_pilot_2","7299","3","11","Male","","false","","","","","[673]","./assets/img/space/catch/1.jpg","[""spaceBar""]","catch practice","space","0","{""ArrowUp,ArrowLeft"":3,""ArrowUp,ArrowRight"":36,""ArrowDown,ArrowLeft"":15,""ArrowDown,ArrowRight"":23}","true","spaceBar","true","","","","","","","",""
"html-keyboard-response","54","296141","0.0-3.0-10.0-1.1","spark_pilot_2","7299","3","11","Male","","","","","","","null","<div style=""font-size:60px;"">+</div>","null","fixation","","","","","","","","","","","","","",""
"revaluation","55","300166","0.0-3.0-10.0-0.2","spark_pilot_2","7299","3","11","Male","","false","","","","","[608.3000000119209]","./assets/img/space/catch/2.jpg","[""spaceBar""]","catch practice","space","0","{""ArrowUp,ArrowLeft"":3,""ArrowUp,ArrowRight"":36,""ArrowDown,ArrowLeft"":15,""ArrowDown,ArrowRight"":23}","true","spaceBar","true","","","","","","","",""
"html-keyboard-response","56","300673","0.0-3.0-10.0-1.2","spark_pilot_2","7299","3","11","Male","","","","","","","null","<div style=""font-size:60px;"">+</div>","null","fixation","","","","","","","","","","","","","",""
"learning-instructions","57","316783","0.0-3.0-11.0-0.0","spark_pilot_2","7299","3","11","Male","","","","","","","2454","<p> After you explore a place to find treasure, it will be time to play a different game. </p>
            <p> During this game, red dots will appear on the screen and fall down slowly. </p>
            <p><b> You must click on them before they reach the bottom. </b></p>
            <img src='./assets/img/instructions/dotGame.jpg' class='instructions-image'>","","instructions","","","","","","","","","","","","","",""
"learning-instructions","58","323035","0.0-3.0-11.0-0.1","spark_pilot_2","7299","3","11","Male","","","","","","","583.2000000178814","<p> For every dot you click, you will earn additional treasure. </p>
            <p> Let’s try practicing that now. </p>","","instructions","","","","","","","","","","","","","",""
"revaluation","59","338055","0.0-3.0-12.0-0.0","spark_pilot_2","7299","3","11","Male","","","","","","","[116]","","","rest practice","","10","","","","","0","15000","","","","","",""
"learning-instructions","60","345567","0.0-3.0-13.0-0.0-0.0","spark_pilot_2","7299","3","11","Male","","","","","","","2251.4000000059605","<p> Now, you will practice a shortened version of the game to get a sense of how it all fits together. </p>","","instructions","","","","","","","","","","","","","",""
"learning-instructions","61","349966","0.0-3.0-13.0-0.0-0.1","spark_pilot_2","7299","3","11","Male","","","","","","","1211.0999999940395","<p>This time you are searching for treasure in outer space.</p>","","instructions","","","","","","","","","","","","","",""
"learning-instructions","62","365648","0.0-3.0-13.0-1.0-0.0","spark_pilot_2","7299","3","11","Male","","","","","","","920.1999999880791","<p> Remember, when you see a picture of the place, use the up and down keys to <b>find an animal</b>.</p>
            <p> When you encounter an animal, you should use the left and right keys to <b>select a treasure chest</b>.</p>
            <p> Don't forget to look out for the robber! </p>","","instructions","","","","","","","","","","","","","",""
"revaluation","63","369664","0.0-3.0-13.0-2.0-0.0","spark_pilot_2","7299","3","11","Male","","true","","","","","[]","./assets/img/space/11.jpg","[]","practice block","space","-5","{""ArrowUp,ArrowLeft"":3,""ArrowUp,ArrowRight"":36,""ArrowDown,ArrowLeft"":15,""ArrowDown,ArrowRight"":23}","false","","false","","","","","","","",""
"html-keyboard-response","64","370170","0.0-3.0-13.0-2.0-1.0","spark_pilot_2","7299","3","11","Male","","","","","","","null","<div style=""font-size:60px;"">+</div>","null","fixation","","","","","","","","","","","","","",""
"revaluation","65","376198","0.0-3.0-13.0-2.0-0.1","spark_pilot_2","7299","3","11","Male","","false","","","","","[935.2000000178814,665.5999999940395]","./assets/img/space/12.jpg","[""ArrowUp"",""ArrowRight""]","practice block","space","36","{""ArrowUp,ArrowLeft"":3,""ArrowUp,ArrowRight"":36,""ArrowDown,ArrowLeft"":15,""ArrowDown,ArrowRight"":23}","true","ArrowUp,ArrowRight","false","","","","","","","",""
"html-keyboard-response","66","376704","0.0-3.0-13.0-2.0-1.1","spark_pilot_2","7299","3","11","Male","","","","","","","null","<div style=""font-size:60px;"">+</div>","null","fixation","","","","","","","","","","","","","",""
"revaluation","67","382727","0.0-3.0-13.0-2.0-0.2","spark_pilot_2","7299","3","11","Male","","false","","","","","[467.60000002384186,345.40000000596046]","./assets/img/space/13.jpg","[""ArrowDown"",""ArrowLeft""]","practice block","space","15","{""ArrowUp,ArrowLeft"":3,""ArrowUp,ArrowRight"":36,""ArrowDown,ArrowLeft"":15,""ArrowDown,ArrowRight"":23}","false","ArrowDown,ArrowLeft","false","","","","","","","",""
"html-keyboard-response","68","383233","0.0-3.0-13.0-2.0-1.2","spark_pilot_2","7299","3","11","Male","","","","","","","null","<div style=""font-size:60px;"">+</div>","null","fixation","","","","","","","","","","","","","",""
"revaluation","69","389266","0.0-3.0-13.0-2.0-0.3","spark_pilot_2","7299","3","11","Male","","false","","","","","[1150.2000000178814,393.59999999403954]","./assets/img/space/14.jpg","[""ArrowDown"",""ArrowRight""]","practice block","space","23","{""ArrowUp,ArrowLeft"":3,""ArrowUp,ArrowRight"":36,""ArrowDown,ArrowLeft"":15,""ArrowDown,ArrowRight"":23}","false","ArrowDown,ArrowRight","false","","","","","","","",""
"html-keyboard-response","70","389776","0.0-3.0-13.0-2.0-1.3","spark_pilot_2","7299","3","11","Male","","","","","","","null","<div style=""font-size:60px;"">+</div>","null","fixation","","","","","","","","","","","","","",""
"revaluation","71","395801","0.0-3.0-13.0-2.0-0.4","spark_pilot_2","7299","3","11","Male","","false","","","","","[1226.7000000178814,593.5999999940395]","./assets/img/space/11.jpg","[""ArrowDown"",""ArrowRight""]","practice block","space","23","{""ArrowUp,ArrowLeft"":3,""ArrowUp,ArrowRight"":36,""ArrowDown,ArrowLeft"":15,""ArrowDown,ArrowRight"":23}","false","ArrowDown,ArrowRight","false","","","","","","","",""
"html-keyboard-response","72","396312","0.0-3.0-13.0-2.0-1.4","spark_pilot_2","7299","3","11","Male","","","","","","","null","<div style=""font-size:60px;"">+</div>","null","fixation","","","","","","","","","","","","","",""
"revaluation","73","402334","0.0-3.0-13.0-2.0-0.5","spark_pilot_2","7299","3","11","Male","","false","","","","","[1188.0999999940395,667.4000000059605]","./assets/img/space/12.jpg","[""ArrowUp"",""ArrowRight""]","practice block","space","36","{""ArrowUp,ArrowLeft"":3,""ArrowUp,ArrowRight"":36,""ArrowDown,ArrowLeft"":15,""ArrowDown,ArrowRight"":23}","true","ArrowUp,ArrowRight","false","","","","","","","",""
"html-keyboard-response","74","402839","0.0-3.0-13.0-2.0-1.5","spark_pilot_2","7299","3","11","Male","","","","","","","null","<div style=""font-size:60px;"">+</div>","null","fixation","","","","","","","","","","","","","",""
"revaluation","75","408872","0.0-3.0-13.0-2.0-0.6","spark_pilot_2","7299","3","11","Male","","false","","","","","[1339.2999999821186,752.6999999880791]","./assets/img/space/13.jpg","[""ArrowUp"",""ArrowRight""]","practice block","space","36","{""ArrowUp,ArrowLeft"":3,""ArrowUp,ArrowRight"":36,""ArrowDown,ArrowLeft"":15,""ArrowDown,ArrowRight"":23}","true","ArrowUp,ArrowRight","false","","","","","","","",""
"html-keyboard-response","76","409384","0.0-3.0-13.0-2.0-1.6","spark_pilot_2","7299","3","11","Male","","","","","","","null","<div style=""font-size:60px;"">+</div>","null","fixation","","","","","","","","","","","","","",""
"revaluation","77","415405","0.0-3.0-13.0-2.0-0.7","spark_pilot_2","7299","3","11","Male","","false","","","","","[1043.0999999940395,482.59999999403954]","./assets/img/space/14.jpg","[""ArrowUp"",""ArrowRight""]","practice block","space","36","{""ArrowUp,ArrowLeft"":3,""ArrowUp,ArrowRight"":36,""ArrowDown,ArrowLeft"":15,""ArrowDown,ArrowRight"":23}","true","ArrowUp,ArrowRight","false","","","","","","","",""
"html-keyboard-response","78","415911","0.0-3.0-13.0-2.0-1.7","spark_pilot_2","7299","3","11","Male","","","","","","","null","<div style=""font-size:60px;"">+</div>","null","fixation","","","","","","","","","","","","","",""
"revaluation","79","419933","0.0-3.0-13.0-2.0-0.8","spark_pilot_2","7299","3","11","Male","","false","","","","","[1243.2999999821186]","./assets/img/space/catch/3.jpg","[""spaceBar""]","practice block","space","0","{""ArrowUp,ArrowLeft"":3,""ArrowUp,ArrowRight"":36,""ArrowDown,ArrowLeft"":15,""ArrowDown,ArrowRight"":23}","true","spaceBar","true","","","","","","","",""
"html-keyboard-response","80","420439","0.0-3.0-13.0-2.0-1.8","spark_pilot_2","7299","3","11","Male","","","","","","","null","<div style=""font-size:60px;"">+</div>","null","fixation","","","","","","","","","","","","","",""
"learning-instructions","81","434646","0.0-3.0-13.0-3.0-0.0","spark_pilot_2","7299","3","11","Male","","","","","","","1258.5","<p> Now, you will travel with a friend who will choose whether you go up or down first. </p>
            <p> On these turns, you will just see the animal that they found. You will still get to choose which chest to search for treasure.</p>","","instructions","","","","","","","","","","","","","",""
"revaluation","82","438660","0.0-3.0-13.0-4.0-0.0","spark_pilot_2","7299","3","11","Male","","false","","","","","[959.9000000059605]","./assets/img/space/animals/rabbit.jpg","[""ArrowRight""]","practice block","space","23","{""ArrowUp,ArrowLeft"":3,""ArrowUp,ArrowRight"":36,""ArrowDown,ArrowLeft"":15,""ArrowDown,ArrowRight"":23}","true","ArrowDown,ArrowRight","","","","","","","","",""
"html-keyboard-response","83","439163","0.0-3.0-13.0-4.0-1.0","spark_pilot_2","7299","3","11","Male","","","","","","","null","<div style=""font-size:60px;"">+</div>","null","fixation","","","","","","","","","","","","","",""
"revaluation","84","443180","0.0-3.0-13.0-4.0-0.1","spark_pilot_2","7299","3","11","Male","","false","","","","","[842.5999999940395]","./assets/img/space/animals/cat.jpg","[""ArrowRight""]","practice block","space","36","{""ArrowUp,ArrowLeft"":3,""ArrowUp,ArrowRight"":36,""ArrowDown,ArrowLeft"":15,""ArrowDown,ArrowRight"":23}","true","ArrowUp,ArrowRight","","","","","","","","",""
"html-keyboard-response","85","443687","0.0-3.0-13.0-4.0-1.1","spark_pilot_2","7299","3","11","Male","","","","","","","null","<div style=""font-size:60px;"">+</div>","null","fixation","","","","","","","","","","","","","",""
"revaluation","86","447712","0.0-3.0-13.0-4.0-0.2","spark_pilot_2","7299","3","11","Male","","false","","","","","[496.2999999821186]","./assets/img/space/animals/rabbit.jpg","[""ArrowRight""]","practice block","space","23","{""ArrowUp,ArrowLeft"":3,""ArrowUp,ArrowRight"":36,""ArrowDown,ArrowLeft"":15,""ArrowDown,ArrowRight"":23}","true","ArrowDown,ArrowRight","","","","","","","","",""
"html-keyboard-response","87","448220","0.0-3.0-13.0-4.0-1.2","spark_pilot_2","7299","3","11","Male","","","","","","","null","<div style=""font-size:60px;"">+</div>","null","fixation","","","","","","","","","","","","","",""
"revaluation","88","452235","0.0-3.0-13.0-4.0-0.3","spark_pilot_2","7299","3","11","Male","","false","","","","","[860.8999999761581]","./assets/img/space/animals/cat.jpg","[""ArrowRight""]","practice block","space","36","{""ArrowUp,ArrowLeft"":3,""ArrowUp,ArrowRight"":36,""ArrowDown,ArrowLeft"":15,""ArrowDown,ArrowRight"":23}","true","ArrowUp,ArrowRight","","","","","","","","",""
"html-keyboard-response","89","452740","0.0-3.0-13.0-4.0-1.3","spark_pilot_2","7299","3","11","Male","","","","","","","null","<div style=""font-size:60px;"">+</div>","null","fixation","","","","","","","","","","","","","",""
"learning-instructions","90","460614","0.0-3.0-13.0-5.0-0.0","spark_pilot_2","7299","3","11","Male","","","","","","","512.7000000178814","<p> Time to play the dot game! </p>
            <p> For 15 seconds, click the red dots on the following screen as they appear. </p>","","instructions","","","","","","","","","","","","","",""
"revaluation","91","475618","0.0-3.0-13.0-6.0-0.0","spark_pilot_2","7299","3","11","Male","","","","","","","[97]","","","rest practice","","10","","","","","0","15000","","","","","",""
"learning-instructions","92","485665","0.0-3.0-13.0-7.0-0.0","spark_pilot_2","7299","3","11","Male","","","","","","","3925.800000011921","<p> You have almost finished this part of the game! </p>
            <p> We are going to ask you to make a few more choices. </p>","","instructions","","","","","","","","","","","","","",""
"learning-instructions","93","500785","0.0-3.0-13.0-7.0-0.1","spark_pilot_2","7299","3","11","Male","","","","","","","1115.5999999940395","<p> First, you need to decide whether to go up or down. When you see each picture, use the arrow keys to make your choice. </p>
            <p><b>You will not see which animal you found, but try to get to the one that will give you the most treasure.</b></p>","","instructions","","","","","","","","","","","","","",""
"revaluation","94","501875","0.0-3.0-13.0-8.0","spark_pilot_2","7299","3","11","Male","","false","","","","","[1088.800000011921]","./assets/img/space/15.jpg","[""ArrowDown""]","practice block","space","0","{""ArrowUp,ArrowLeft"":3,""ArrowUp,ArrowRight"":36,""ArrowDown,ArrowLeft"":15,""ArrowDown,ArrowRight"":23}","false","ArrowDown","false","","","","","","","",""
"html-keyboard-response","95","502385","0.0-3.0-13.0-9.0","spark_pilot_2","7299","3","11","Male","","","","","","","null","<div style=""font-size:60px;"">+</div>","null","fixation","","","","","","","","","","","","","",""
"learning-instructions","96","514667","0.0-3.0-13.0-10.0-0.0","spark_pilot_2","7299","3","11","Male","","","","","","","906.7000000178814","<p> Now you will see the animals again and can search their chests for treasure. </p>
            <p> This time, you will not see how much treasure you earned, but you will earn more bonus money for making better choices. </p>","","instructions","","","","","","","","","","","","","",""
"revaluation","97","515253","0.0-3.0-13.0-11.0-0.0","spark_pilot_2","7299","3","11","Male","","false","","","","","[582.8000000119209]","./assets/img/space/animals/cat.jpg","[""ArrowRight""]","practice block","space","0","{""ArrowUp,ArrowLeft"":3,""ArrowUp,ArrowRight"":36,""ArrowDown,ArrowLeft"":15,""ArrowDown,ArrowRight"":23}","true","ArrowUp,ArrowRight","","","","","","","","",""
"html-keyboard-response","98","515761","0.0-3.0-13.0-11.0-1.0","spark_pilot_2","7299","3","11","Male","","","","","","","null","<div style=""font-size:60px;"">+</div>","null","fixation","","","","","","","","","","","","","",""
"revaluation","99","516766","0.0-3.0-13.0-11.0-0.1","spark_pilot_2","7299","3","11","Male","","false","","","","","[1001.7000000178814]","./assets/img/space/animals/rabbit.jpg","[""ArrowRight""]","practice block","space","0","{""ArrowUp,ArrowLeft"":3,""ArrowUp,ArrowRight"":36,""ArrowDown,ArrowLeft"":15,""ArrowDown,ArrowRight"":23}","true","ArrowDown,ArrowRight","","","","","","","","",""
"html-keyboard-response","100","517272","0.0-3.0-13.0-11.0-1.1","spark_pilot_2","7299","3","11","Male","","","","","","","null","<div style=""font-size:60px;"">+</div>","null","fixation","","","","","","","","","","","","","",""
"learning-instructions","101","523094","0.0-3.0-14.0-0.0","spark_pilot_2","7299","3","11","Male","","","","","","","1249.2000000178814","<p> Before you start, we're going to ask you a few questions about how the game works. </p>","","instructions","","","","","","","","","","","","","",""
"comp-q","102","532276","0.0-3.0-15.0-0.0-0.0","spark_pilot_2","7299","3","11","Male","","","","","","","3599.699999988079","<p> <b> True or False? </b> </p>
            <p> There can be 50 pieces of treasure in a given animal's chest. </p>","1","comp_question","","","","true","","","","","","","","","",""
"comp-q","103","540842","0.0-3.0-15.0-0.0-1.0","spark_pilot_2","7299","3","11","Male","","","","","","","1915","<p> <b> That's right! </b> The amount of treasure in each chest can range from 0 to 40 pieces. </p>","0","comp_answer","","","","","","","","","","","","","",""
"comp-q","104","549529","0.0-3.0-15.0-0.1-0.1","spark_pilot_2","7299","3","11","Male","","","","","","","1577.5","<p> <b> True or False? </b> </p><p> In this game, all animals have the same amount of treasure in their left and right chests. </p>","1","comp_question","","","","true","","","","","","","","","",""
"comp-q","105","556310","0.0-3.0-15.0-0.1-1.1","spark_pilot_2","7299","3","11","Male","","","","","","","1553.0999999940395","<p> <b> That's right! </b> Animals have different amounts of treasure in their treasure chests. </p>","0","comp_answer","","","","","","","","","","","","","",""
"comp-q","106","563141","0.0-3.0-15.0-0.2-0.2","spark_pilot_2","7299","3","11","Male","","","","","","","992.0999999940395","<p> <b> True or False? </b> </p><p> The same animal will always be there if you go up in the same place. </p>","0","comp_question","","","","true","","","","","","","","","",""
"comp-q","107","571285","0.0-3.0-15.0-0.2-1.2","spark_pilot_2","7299","3","11","Male","","","","","","","1707.3999999761581","<p> <b> That's right! </b> One animal lives in the upper part and one lives in the lower part of every place. </p>","0","comp_answer","","","","","","","","","","","","","",""
"comp-q","108","578045","0.0-3.0-15.0-0.3-0.3","spark_pilot_2","7299","3","11","Male","","","","","","","1240.2999999821186","<p> <b> True or False? </b> </p><p> If you see a different picture, it means you are in a new place. </p>","0","comp_question","","","","false","","","","","","","","","",""
"comp-q","109","590918","0.0-3.0-15.0-0.3-1.3","spark_pilot_2","7299","3","11","Male","","","","","","","1782.5999999940395","<p> <b>Incorrect.</b> Lots of different images may show the same place. For example,  you may see three different images that all remind you that you are in outer space. </p>","0","comp_answer","","","","","","","","","","","","","",""
"comp-q","110","597797","0.0-3.0-15.0-0.4-0.4","spark_pilot_2","7299","3","11","Male","","","","","","","1376.5","<p> <b> True or False? </b> </p><p> If you see a different picture, it means you are in a new place. </p>","1","comp_question","","","","true","","","","","","","","","",""
"comp-q","111","610091","0.0-3.0-15.0-0.4-1.4","spark_pilot_2","7299","3","11","Male","","","","","","","1073.2000000178814","<p> <b> That's right! </b> Lots of different images may show the same place. For example,  you may see three different images that all remind you that you are in outer space. </p>","0","comp_answer","","","","","","","","","","","","","",""
"learning-instructions","112","622279","0.0-3.0-16.0-0.0","spark_pilot_2","7299","3","11","Male","","","","","","","2285.5999999940395","<p> Good job. Remember to do your best because the amount of treasure you earn will be converted into bonus money. </p>
            <p> It’s time to start the real game! </p>","","instructions","","","","","","","","","","","","","",""
"learning-instructions","113","626208","0.0-4.0-0.0-0.0","spark_pilot_2","7299","3","11","Male","","","","","","","1227.5","<p> This time you are searching for treasure in the <b>ocean</b>.</p>","","instructions","","","","","","","","","","","","","",""
"learning-instructions","114","644436","0.0-4.0-0.0-0.1","spark_pilot_2","7299","3","11","Male","","","","","","","938.6999999880791","<p><b>New</b> animals with <b>new</b> treasure chests live here. You need to explore to discover where the animal with the best treasure chest is.</p>
                    <p> Like before, once you figure out which animal has the chest with the most treasure, you should try to get to that animal and select that chest! </p>","","instructions","","","","","","","","","","","","","",""
"learning-instructions","115","660301","0.0-4.0-1.0-0.0","spark_pilot_2","7299","3","11","Male","","","","","","","1134.7000000178814","<p> Remember, when you see a picture of the place, use the up and down keys to <b>find an animal</b>.</p>
            <p> When you encounter an animal, you should use the left and right keys to <b>select a treasure chest</b>.</p>
            <p> Don't forget to look out for the robber! </p>","","instructions","","","","","","","","","","","","","",""
"revaluation","116","666323","0.0-4.0-2.0-0.0","spark_pilot_2","7299","3","11","Male","","false","","","","","[805.3999999761581,769.7000000178814]","./assets/img/ocean/memory/2.jpg","[""ArrowDown"",""ArrowRight""]","value training","ocean","30","{""ArrowUp,ArrowLeft"":23,""ArrowUp,ArrowRight"":10,""ArrowDown,ArrowLeft"":8,""ArrowDown,ArrowRight"":30}","true","ArrowDown,ArrowRight","false","","","original","1","0","","",""
"html-keyboard-response","117","666834","0.0-4.0-2.0-1.0","spark_pilot_2","7299","3","11","Male","","","","","","","null","<div style=""font-size:60px;"">+</div>","null","fixation","","","","","","","","","","","1","","",""
"revaluation","118","672858","0.0-4.0-2.0-0.1","spark_pilot_2","7299","3","11","Male","","false","","","","","[812.5,476]","./assets/img/ocean/memory/8.jpg","[""ArrowDown"",""ArrowLeft""]","value training","ocean","8","{""ArrowUp,ArrowLeft"":23,""ArrowUp,ArrowRight"":10,""ArrowDown,ArrowLeft"":8,""ArrowDown,ArrowRight"":30}","false","ArrowDown,ArrowLeft","false","","","original","1","2","","",""
"html-keyboard-response","119","673362","0.0-4.0-2.0-1.1","spark_pilot_2","7299","3","11","Male","","","","","","","null","<div style=""font-size:60px;"">+</div>","null","fixation","","","","","","","","","","","3","","",""
"revaluation","120","677381","0.0-4.0-2.0-0.2","spark_pilot_2","7299","3","11","Male","","false","","","","","[1152.7000000178814]","./assets/img/ocean/catch/1.jpg","[""ArrowDown""]","value training","ocean","-10","{""ArrowUp,ArrowLeft"":23,""ArrowUp,ArrowRight"":10,""ArrowDown,ArrowLeft"":8,""ArrowDown,ArrowRight"":30}","false","ArrowDown","true","","","original","1","4","","",""
"html-keyboard-response","121","677893","0.0-4.0-2.0-1.2","spark_pilot_2","7299","3","11","Male","","","","","","","null","<div style=""font-size:60px;"">+</div>","null","fixation","","","","","","","","","","","5","","",""
"revaluation","122","683920","0.0-4.0-2.0-0.3","spark_pilot_2","7299","3","11","Male","","false","","","","","[535.8000000119209,790.2999999821186]","./assets/img/ocean/memory/41.jpg","[""ArrowDown"",""ArrowRight""]","value training","ocean","30","{""ArrowUp,ArrowLeft"":23,""ArrowUp,ArrowRight"":10,""ArrowDown,ArrowLeft"":8,""ArrowDown,ArrowRight"":30}","true","ArrowDown,ArrowRight","false","","","original","1","6","","",""
"html-keyboard-response","123","684429","0.0-4.0-2.0-1.3","spark_pilot_2","7299","3","11","Male","","","","","","","null","<div style=""font-size:60px;"">+</div>","null","fixation","","","","","","","","","","","7","","",""
"revaluation","124","690458","0.0-4.0-2.0-0.4","spark_pilot_2","7299","3","11","Male","","false","","","","","[1707.699999988079,649.8000000119209]","./assets/img/ocean/memory/12.jpg","[""ArrowDown"",""ArrowRight""]","value training","ocean","30","{""ArrowUp,ArrowLeft"":23,""ArrowUp,ArrowRight"":10,""ArrowDown,ArrowLeft"":8,""ArrowDown,ArrowRight"":30}","true","ArrowDown,ArrowRight","false","","","original","1","8","","",""
"html-keyboard-response","125","690963","0.0-4.0-2.0-1.4","spark_pilot_2","7299","3","11","Male","","","","","","","null","<div style=""font-size:60px;"">+</div>","null","fixation","","","","","","","","","","","9","","",""
"revaluation","126","696985","0.0-4.0-2.0-0.5","spark_pilot_2","7299","3","11","Male","","false","","","","","[906.5,640.5999999940395]","./assets/img/ocean/memory/3.jpg","[""ArrowUp"",""ArrowRight""]","value training","ocean","10","{""ArrowUp,ArrowLeft"":23,""ArrowUp,ArrowRight"":10,""ArrowDown,ArrowLeft"":8,""ArrowDown,ArrowRight"":30}","false","ArrowUp,ArrowRight","false","","","original","1","10","","",""
"html-keyboard-response","127","697491","0.0-4.0-2.0-1.5","spark_pilot_2","7299","3","11","Male","","","","","","","null","<div style=""font-size:60px;"">+</div>","null","fixation","","","","","","","","","","","11","","",""
"revaluation","128","701507","0.0-4.0-2.0-0.6","spark_pilot_2","7299","3","11","Male","","false","","","","","[1018]","./assets/img/ocean/catch/2.jpg","[""spaceBar""]","value training","ocean","0","{""ArrowUp,ArrowLeft"":23,""ArrowUp,ArrowRight"":10,""ArrowDown,ArrowLeft"":8,""ArrowDown,ArrowRight"":30}","true","spaceBar","true","","","original","1","12","","",""
"html-keyboard-response","129","702019","0.0-4.0-2.0-1.6","spark_pilot_2","7299","3","11","Male","","","","","","","null","<div style=""font-size:60px;"">+</div>","null","fixation","","","","","","","","","","","13","","",""
"revaluation","130","708051","0.0-4.0-2.0-0.7","spark_pilot_2","7299","3","11","Male","","false","","","","","[986.7999999821186,838.5]","./assets/img/ocean/memory/35.jpg","[""ArrowDown"",""ArrowRight""]","value training","ocean","30","{""ArrowUp,ArrowLeft"":23,""ArrowUp,ArrowRight"":10,""ArrowDown,ArrowLeft"":8,""ArrowDown,ArrowRight"":30}","true","ArrowDown,ArrowRight","false","","","original","1","14","","",""
"html-keyboard-response","131","708563","0.0-4.0-2.0-1.7","spark_pilot_2","7299","3","11","Male","","","","","","","null","<div style=""font-size:60px;"">+</div>","null","fixation","","","","","","","","","","","15","","",""
"revaluation","132","714595","0.0-4.0-2.0-0.8","spark_pilot_2","7299","3","11","Male","","false","","","","","[1055.699999988079,575.2999999821186]","./assets/img/ocean/memory/35.jpg","[""ArrowUp"",""ArrowLeft""]","value training","ocean","23","{""ArrowUp,ArrowLeft"":23,""ArrowUp,ArrowRight"":10,""ArrowDown,ArrowLeft"":8,""ArrowDown,ArrowRight"":30}","false","ArrowUp,ArrowLeft","false","","","original","1","16","","",""
"html-keyboard-response","133","715106","0.0-4.0-2.0-1.8","spark_pilot_2","7299","3","11","Male","","","","","","","null","<div style=""font-size:60px;"">+</div>","null","fixation","","","","","","","","","","","17","","",""
"revaluation","134","721139","0.0-4.0-2.0-0.9","spark_pilot_2","7299","3","11","Male","","false","","","","","[1442.300000011921,498.60000002384186]","./assets/img/ocean/memory/41.jpg","[""ArrowDown"",""ArrowRight""]","value training","ocean","30","{""ArrowUp,ArrowLeft"":23,""ArrowUp,ArrowRight"":10,""ArrowDown,ArrowLeft"":8,""ArrowDown,ArrowRight"":30}","true","ArrowDown,ArrowRight","false","","","original","1","18","","",""
"html-keyboard-response","135","721650","0.0-4.0-2.0-1.9","spark_pilot_2","7299","3","11","Male","","","","","","","null","<div style=""font-size:60px;"">+</div>","null","fixation","","","","","","","","","","","19","","",""
"revaluation","136","727682","0.0-4.0-2.0-0.10","spark_pilot_2","7299","3","11","Male","","false","","","","","[1205.199999988079,458.5]","./assets/img/ocean/memory/15.jpg","[""ArrowDown"",""ArrowRight""]","value training","ocean","30","{""ArrowUp,ArrowLeft"":23,""ArrowUp,ArrowRight"":10,""ArrowDown,ArrowLeft"":8,""ArrowDown,ArrowRight"":30}","true","ArrowDown,ArrowRight","false","","","original","1","20","","",""
"html-keyboard-response","137","728194","0.0-4.0-2.0-1.10","spark_pilot_2","7299","3","11","Male","","","","","","","null","<div style=""font-size:60px;"">+</div>","null","fixation","","","","","","","","","","","21","","",""
"revaluation","138","734226","0.0-4.0-2.0-0.11","spark_pilot_2","7299","3","11","Male","","false","","","","","[1080.5999999940395,689.6999999880791]","./assets/img/ocean/memory/10.jpg","[""ArrowDown"",""ArrowRight""]","value training","ocean","30","{""ArrowUp,ArrowLeft"":23,""ArrowUp,ArrowRight"":10,""ArrowDown,ArrowLeft"":8,""ArrowDown,ArrowRight"":30}","true","ArrowDown,ArrowRight","false","","","original","1","22","","",""
"html-keyboard-response","139","734737","0.0-4.0-2.0-1.11","spark_pilot_2","7299","3","11","Male","","","","","","","null","<div style=""font-size:60px;"">+</div>","null","fixation","","","","","","","","","","","23","","",""
"revaluation","140","740770","0.0-4.0-2.0-0.12","spark_pilot_2","7299","3","11","Male","","false","","","","","[1231.5,549.2000000178814]","./assets/img/ocean/memory/0.jpg","[""ArrowDown"",""ArrowRight""]","value training","ocean","30","{""ArrowUp,ArrowLeft"":23,""ArrowUp,ArrowRight"":10,""ArrowDown,ArrowLeft"":8,""ArrowDown,ArrowRight"":30}","true","ArrowDown,ArrowRight","false","","","original","1","24","","",""
"html-keyboard-response","141","741281","0.0-4.0-2.0-1.12","spark_pilot_2","7299","3","11","Male","","","","","","","null","<div style=""font-size:60px;"">+</div>","null","fixation","","","","","","","","","","","25","","",""
"revaluation","142","747313","0.0-4.0-2.0-0.13","spark_pilot_2","7299","3","11","Male","","false","","","","","[1070,597]","./assets/img/ocean/memory/6.jpg","[""ArrowDown"",""ArrowRight""]","value training","ocean","30","{""ArrowUp,ArrowLeft"":23,""ArrowUp,ArrowRight"":10,""ArrowDown,ArrowLeft"":8,""ArrowDown,ArrowRight"":30}","true","ArrowDown,ArrowRight","false","","","original","1","26","","",""
"html-keyboard-response","143","747825","0.0-4.0-2.0-1.13","spark_pilot_2","7299","3","11","Male","","","","","","","null","<div style=""font-size:60px;"">+</div>","null","fixation","","","","","","","","","","","27","","",""
"revaluation","144","753857","0.0-4.0-2.0-0.14","spark_pilot_2","7299","3","11","Male","","false","","","","","[1173.300000011921,555.2000000178814]","./assets/img/ocean/memory/9.jpg","[""ArrowDown"",""ArrowRight""]","value training","ocean","30","{""ArrowUp,ArrowLeft"":23,""ArrowUp,ArrowRight"":10,""ArrowDown,ArrowLeft"":8,""ArrowDown,ArrowRight"":30}","true","ArrowDown,ArrowRight","false","","","original","1","28","","",""
"html-keyboard-response","145","754369","0.0-4.0-2.0-1.14","spark_pilot_2","7299","3","11","Male","","","","","","","null","<div style=""font-size:60px;"">+</div>","null","fixation","","","","","","","","","","","29","","",""
"revaluation","146","760401","0.0-4.0-2.0-0.15","spark_pilot_2","7299","3","11","Male","","false","","","","","[1073,521.0999999940395]","./assets/img/ocean/memory/33.jpg","[""ArrowDown"",""ArrowRight""]","value training","ocean","30","{""ArrowUp,ArrowLeft"":23,""ArrowUp,ArrowRight"":10,""ArrowDown,ArrowLeft"":8,""ArrowDown,ArrowRight"":30}","true","ArrowDown,ArrowRight","false","","","original","1","30","","",""
"html-keyboard-response","147","760912","0.0-4.0-2.0-1.15","spark_pilot_2","7299","3","11","Male","","","","","","","null","<div style=""font-size:60px;"">+</div>","null","fixation","","","","","","","","","","","31","","",""
"revaluation","148","766945","0.0-4.0-2.0-0.16","spark_pilot_2","7299","3","11","Male","","false","","","","","[1052.5,530.2999999821186]","./assets/img/ocean/memory/32.jpg","[""ArrowDown"",""ArrowRight""]","value training","ocean","30","{""ArrowUp,ArrowLeft"":23,""ArrowUp,ArrowRight"":10,""ArrowDown,ArrowLeft"":8,""ArrowDown,ArrowRight"":30}","true","ArrowDown,ArrowRight","false","","","original","1","32","","",""
"html-keyboard-response","149","767456","0.0-4.0-2.0-1.16","spark_pilot_2","7299","3","11","Male","","","","","","","null","<div style=""font-size:60px;"">+</div>","null","fixation","","","","","","","","","","","33","","",""
"revaluation","150","773488","0.0-4.0-2.0-0.17","spark_pilot_2","7299","3","11","Male","","false","","","","","[644.5,566.5999999940395]","./assets/img/ocean/memory/32.jpg","[""ArrowDown"",""ArrowRight""]","value training","ocean","30","{""ArrowUp,ArrowLeft"":23,""ArrowUp,ArrowRight"":10,""ArrowDown,ArrowLeft"":8,""ArrowDown,ArrowRight"":30}","true","ArrowDown,ArrowRight","false","","","original","1","34","","",""
"html-keyboard-response","151","774000","0.0-4.0-2.0-1.17","spark_pilot_2","7299","3","11","Male","","","","","","","null","<div style=""font-size:60px;"">+</div>","null","fixation","","","","","","","","","","","35","","",""
"revaluation","152","780032","0.0-4.0-2.0-0.18","spark_pilot_2","7299","3","11","Male","","false","","","","","[730.8000000119209,556.3999999761581]","./assets/img/ocean/memory/2.jpg","[""ArrowDown"",""ArrowRight""]","value training","ocean","30","{""ArrowUp,ArrowLeft"":23,""ArrowUp,ArrowRight"":10,""ArrowDown,ArrowLeft"":8,""ArrowDown,ArrowRight"":30}","true","ArrowDown,ArrowRight","false","","","original","1","36","","",""
"html-keyboard-response","153","780543","0.0-4.0-2.0-1.18","spark_pilot_2","7299","3","11","Male","","","","","","","null","<div style=""font-size:60px;"">+</div>","null","fixation","","","","","","","","","","","37","","",""
"revaluation","154","786576","0.0-4.0-2.0-0.19","spark_pilot_2","7299","3","11","Male","","false","","","","","[1003.6000000238419,348.7999999821186]","./assets/img/ocean/memory/21.jpg","[""ArrowDown"",""ArrowRight""]","value training","ocean","30","{""ArrowUp,ArrowLeft"":23,""ArrowUp,ArrowRight"":10,""ArrowDown,ArrowLeft"":8,""ArrowDown,ArrowRight"":30}","true","ArrowDown,ArrowRight","false","","","original","1","38","","",""
"html-keyboard-response","155","787087","0.0-4.0-2.0-1.19","spark_pilot_2","7299","3","11","Male","","","","","","","null","<div style=""font-size:60px;"">+</div>","null","fixation","","","","","","","","","","","39","","",""
"revaluation","156","793108","0.0-4.0-2.0-0.20","spark_pilot_2","7299","3","11","Male","","false","","","","","[747.5999999940395,620.6999999880791]","./assets/img/ocean/memory/36.jpg","[""ArrowDown"",""ArrowRight""]","value training","ocean","30","{""ArrowUp,ArrowLeft"":23,""ArrowUp,ArrowRight"":10,""ArrowDown,ArrowLeft"":8,""ArrowDown,ArrowRight"":30}","true","ArrowDown,ArrowRight","false","","","original","1","40","","",""
"html-keyboard-response","157","793615","0.0-4.0-2.0-1.20","spark_pilot_2","7299","3","11","Male","","","","","","","null","<div style=""font-size:60px;"">+</div>","null","fixation","","","","","","","","","","","41","","",""
"revaluation","158","799636","0.0-4.0-2.0-0.21","spark_pilot_2","7299","3","11","Male","","false","","","","","[788.0999999940395,604.4000000059605]","./assets/img/ocean/memory/10.jpg","[""ArrowDown"",""ArrowRight""]","value training","ocean","30","{""ArrowUp,ArrowLeft"":23,""ArrowUp,ArrowRight"":10,""ArrowDown,ArrowLeft"":8,""ArrowDown,ArrowRight"":30}","true","ArrowDown,ArrowRight","false","","","original","1","42","","",""
"html-keyboard-response","159","800143","0.0-4.0-2.0-1.21","spark_pilot_2","7299","3","11","Male","","","","","","","null","<div style=""font-size:60px;"">+</div>","null","fixation","","","","","","","","","","","43","","",""
"revaluation","160","804164","0.0-4.0-2.0-0.22","spark_pilot_2","7299","3","11","Male","","false","","","","","[887.9000000059605]","./assets/img/ocean/catch/4.jpg","[""spaceBar""]","value training","ocean","0","{""ArrowUp,ArrowLeft"":23,""ArrowUp,ArrowRight"":10,""ArrowDown,ArrowLeft"":8,""ArrowDown,ArrowRight"":30}","true","spaceBar","true","","","original","1","44","","",""
"html-keyboard-response","161","804670","0.0-4.0-2.0-1.22","spark_pilot_2","7299","3","11","Male","","","","","","","null","<div style=""font-size:60px;"">+</div>","null","fixation","","","","","","","","","","","45","","",""
"revaluation","162","810703","0.0-4.0-2.0-0.23","spark_pilot_2","7299","3","11","Male","","false","","","","","[687.1999999880791,447.7000000178814]","./assets/img/ocean/memory/28.jpg","[""ArrowDown"",""ArrowRight""]","value training","ocean","30","{""ArrowUp,ArrowLeft"":23,""ArrowUp,ArrowRight"":10,""ArrowDown,ArrowLeft"":8,""ArrowDown,ArrowRight"":30}","true","ArrowDown,ArrowRight","false","","","original","1","46","","",""
"html-keyboard-response","163","811214","0.0-4.0-2.0-1.23","spark_pilot_2","7299","3","11","Male","","","","","","","null","<div style=""font-size:60px;"">+</div>","null","fixation","","","","","","","","","","","47","","",""
"revaluation","164","817246","0.0-4.0-2.0-0.24","spark_pilot_2","7299","3","11","Male","","false","","","","","[1119.300000011921,402.7999999821186]","./assets/img/ocean/memory/9.jpg","[""ArrowDown"",""ArrowRight""]","value training","ocean","30","{""ArrowUp,ArrowLeft"":23,""ArrowUp,ArrowRight"":10,""ArrowDown,ArrowLeft"":8,""ArrowDown,ArrowRight"":30}","true","ArrowDown,ArrowRight","false","","","original","1","48","","",""
"html-keyboard-response","165","817758","0.0-4.0-2.0-1.24","spark_pilot_2","7299","3","11","Male","","","","","","","null","<div style=""font-size:60px;"">+</div>","null","fixation","","","","","","","","","","","49","","",""
"revaluation","166","823790","0.0-4.0-2.0-0.25","spark_pilot_2","7299","3","11","Male","","false","","","","","[831.0999999940395,518.2999999821186]","./assets/img/ocean/memory/36.jpg","[""ArrowDown"",""ArrowRight""]","value training","ocean","30","{""ArrowUp,ArrowLeft"":23,""ArrowUp,ArrowRight"":10,""ArrowDown,ArrowLeft"":8,""ArrowDown,ArrowRight"":30}","true","ArrowDown,ArrowRight","false","","","original","1","50","","",""
"html-keyboard-response","167","824302","0.0-4.0-2.0-1.25","spark_pilot_2","7299","3","11","Male","","","","","","","null","<div style=""font-size:60px;"">+</div>","null","fixation","","","","","","","","","","","51","","",""
"revaluation","168","830334","0.0-4.0-2.0-0.26","spark_pilot_2","7299","3","11","Male","","false","","","","","[1037.800000011921,346.59999999403954]","./assets/img/ocean/memory/6.jpg","[""ArrowDown"",""ArrowRight""]","value training","ocean","30","{""ArrowUp,ArrowLeft"":23,""ArrowUp,ArrowRight"":10,""ArrowDown,ArrowLeft"":8,""ArrowDown,ArrowRight"":30}","true","ArrowDown,ArrowRight","false","","","original","1","52","","",""
"html-keyboard-response","169","830845","0.0-4.0-2.0-1.26","spark_pilot_2","7299","3","11","Male","","","","","","","null","<div style=""font-size:60px;"">+</div>","null","fixation","","","","","","","","","","","53","","",""
"revaluation","170","836878","0.0-4.0-2.0-0.27","spark_pilot_2","7299","3","11","Male","","false","","","","","[1048.5,419.2999999821186]","./assets/img/ocean/memory/14.jpg","[""ArrowDown"",""ArrowRight""]","value training","ocean","30","{""ArrowUp,ArrowLeft"":23,""ArrowUp,ArrowRight"":10,""ArrowDown,ArrowLeft"":8,""ArrowDown,ArrowRight"":30}","true","ArrowDown,ArrowRight","false","","","original","1","54","","",""
"html-keyboard-response","171","837389","0.0-4.0-2.0-1.27","spark_pilot_2","7299","3","11","Male","","","","","","","null","<div style=""font-size:60px;"">+</div>","null","fixation","","","","","","","","","","","55","","",""
"revaluation","172","841411","0.0-4.0-2.0-0.28","spark_pilot_2","7299","3","11","Male","","false","","","","","[1487.800000011921]","./assets/img/ocean/catch/6.jpg","[""spaceBar""]","value training","ocean","0","{""ArrowUp,ArrowLeft"":23,""ArrowUp,ArrowRight"":10,""ArrowDown,ArrowLeft"":8,""ArrowDown,ArrowRight"":30}","true","spaceBar","true","","","original","1","56","","",""
"html-keyboard-response","173","841917","0.0-4.0-2.0-1.28","spark_pilot_2","7299","3","11","Male","","","","","","","null","<div style=""font-size:60px;"">+</div>","null","fixation","","","","","","","","","","","57","","",""
"revaluation","174","847949","0.0-4.0-2.0-0.29","spark_pilot_2","7299","3","11","Male","","false","","","","","[893.6999999880791,436]","./assets/img/ocean/memory/14.jpg","[""ArrowDown"",""ArrowRight""]","value training","ocean","30","{""ArrowUp,ArrowLeft"":23,""ArrowUp,ArrowRight"":10,""ArrowDown,ArrowLeft"":8,""ArrowDown,ArrowRight"":30}","true","ArrowDown,ArrowRight","false","","","original","1","58","","",""
"html-keyboard-response","175","848460","0.0-4.0-2.0-1.29","spark_pilot_2","7299","3","11","Male","","","","","","","null","<div style=""font-size:60px;"">+</div>","null","fixation","","","","","","","","","","","59","","",""
"revaluation","176","854493","0.0-4.0-2.0-0.30","spark_pilot_2","7299","3","11","Male","","false","","","","","[868.7999999821186,735.2999999821186]","./assets/img/ocean/memory/1.jpg","[""ArrowDown"",""ArrowRight""]","value training","ocean","30","{""ArrowUp,ArrowLeft"":23,""ArrowUp,ArrowRight"":10,""ArrowDown,ArrowLeft"":8,""ArrowDown,ArrowRight"":30}","true","ArrowDown,ArrowRight","false","","","original","1","60","","",""
"html-keyboard-response","177","855004","0.0-4.0-2.0-1.30","spark_pilot_2","7299","3","11","Male","","","","","","","null","<div style=""font-size:60px;"">+</div>","null","fixation","","","","","","","","","","","61","","",""
"revaluation","178","861036","0.0-4.0-2.0-0.31","spark_pilot_2","7299","3","11","Male","","false","","","","","[864.1999999880791,393.90000000596046]","./assets/img/ocean/memory/3.jpg","[""ArrowDown"",""ArrowRight""]","value training","ocean","30","{""ArrowUp,ArrowLeft"":23,""ArrowUp,ArrowRight"":10,""ArrowDown,ArrowLeft"":8,""ArrowDown,ArrowRight"":30}","true","ArrowDown,ArrowRight","false","","","original","1","62","","",""
"html-keyboard-response","179","861548","0.0-4.0-2.0-1.31","spark_pilot_2","7299","3","11","Male","","","","","","","null","<div style=""font-size:60px;"">+</div>","null","fixation","","","","","","","","","","","63","","",""
"revaluation","180","865570","0.0-4.0-2.0-0.32","spark_pilot_2","7299","3","11","Male","","false","","","","","[744.3999999761581]","./assets/img/ocean/catch/0.jpg","[""spaceBar""]","value training","ocean","0","{""ArrowUp,ArrowLeft"":23,""ArrowUp,ArrowRight"":10,""ArrowDown,ArrowLeft"":8,""ArrowDown,ArrowRight"":30}","true","spaceBar","true","","","original","1","64","","",""
"html-keyboard-response","181","866076","0.0-4.0-2.0-1.32","spark_pilot_2","7299","3","11","Male","","","","","","","null","<div style=""font-size:60px;"">+</div>","null","fixation","","","","","","","","","","","65","","",""
"revaluation","182","872108","0.0-4.0-2.0-0.33","spark_pilot_2","7299","3","11","Male","","false","","","","","[798.2000000178814,387.5]","./assets/img/ocean/memory/15.jpg","[""ArrowDown"",""ArrowRight""]","value training","ocean","30","{""ArrowUp,ArrowLeft"":23,""ArrowUp,ArrowRight"":10,""ArrowDown,ArrowLeft"":8,""ArrowDown,ArrowRight"":30}","true","ArrowDown,ArrowRight","false","","","original","1","66","","",""
"html-keyboard-response","183","872619","0.0-4.0-2.0-1.33","spark_pilot_2","7299","3","11","Male","","","","","","","null","<div style=""font-size:60px;"">+</div>","null","fixation","","","","","","","","","","","67","","",""
"revaluation","184","876641","0.0-4.0-2.0-0.34","spark_pilot_2","7299","3","11","Male","","false","","","","","[892.1999999880791]","./assets/img/ocean/catch/7.jpg","[""spaceBar""]","value training","ocean","0","{""ArrowUp,ArrowLeft"":23,""ArrowUp,ArrowRight"":10,""ArrowDown,ArrowLeft"":8,""ArrowDown,ArrowRight"":30}","true","spaceBar","true","","","original","1","68","","",""
"html-keyboard-response","185","877147","0.0-4.0-2.0-1.34","spark_pilot_2","7299","3","11","Male","","","","","","","null","<div style=""font-size:60px;"">+</div>","null","fixation","","","","","","","","","","","69","","",""
"revaluation","186","883180","0.0-4.0-2.0-0.35","spark_pilot_2","7299","3","11","Male","","false","","","","","[928.8999999761581,307.5]","./assets/img/ocean/memory/1.jpg","[""ArrowDown"",""ArrowRight""]","value training","ocean","30","{""ArrowUp,ArrowLeft"":23,""ArrowUp,ArrowRight"":10,""ArrowDown,ArrowLeft"":8,""ArrowDown,ArrowRight"":30}","true","ArrowDown,ArrowRight","false","","","original","1","70","","",""
"html-keyboard-response","187","883691","0.0-4.0-2.0-1.35","spark_pilot_2","7299","3","11","Male","","","","","","","null","<div style=""font-size:60px;"">+</div>","null","fixation","","","","","","","","","","","71","","",""
"revaluation","188","887713","0.0-4.0-2.0-0.36","spark_pilot_2","7299","3","11","Male","","true","","","","","[]","./assets/img/ocean/memory/40.jpg","[]","value training","ocean","-5","{""ArrowUp,ArrowLeft"":23,""ArrowUp,ArrowRight"":10,""ArrowDown,ArrowLeft"":8,""ArrowDown,ArrowRight"":30}","false","","false","","","original","1","72","","",""
"html-keyboard-response","189","888219","0.0-4.0-2.0-1.36","spark_pilot_2","7299","3","11","Male","","","","","","","null","<div style=""font-size:60px;"">+</div>","null","fixation","","","","","","","","","","","73","","",""
"revaluation","190","892241","0.0-4.0-2.0-0.37","spark_pilot_2","7299","3","11","Male","","false","","","","","[799.8000000119209]","./assets/img/ocean/catch/3.jpg","[""spaceBar""]","value training","ocean","0","{""ArrowUp,ArrowLeft"":23,""ArrowUp,ArrowRight"":10,""ArrowDown,ArrowLeft"":8,""ArrowDown,ArrowRight"":30}","true","spaceBar","true","","","original","1","74","","",""
"html-keyboard-response","191","892747","0.0-4.0-2.0-1.37","spark_pilot_2","7299","3","11","Male","","","","","","","null","<div style=""font-size:60px;"">+</div>","null","fixation","","","","","","","","","","","75","","",""
"revaluation","192","898779","0.0-4.0-2.0-0.38","spark_pilot_2","7299","3","11","Male","","false","","","","","[813.2999999821186,399.09999999403954]","./assets/img/ocean/memory/28.jpg","[""ArrowDown"",""ArrowRight""]","value training","ocean","30","{""ArrowUp,ArrowLeft"":23,""ArrowUp,ArrowRight"":10,""ArrowDown,ArrowLeft"":8,""ArrowDown,ArrowRight"":30}","true","ArrowDown,ArrowRight","false","","","original","1","76","","",""
"html-keyboard-response","193","899290","0.0-4.0-2.0-1.38","spark_pilot_2","7299","3","11","Male","","","","","","","null","<div style=""font-size:60px;"">+</div>","null","fixation","","","","","","","","","","","77","","",""
"revaluation","194","905323","0.0-4.0-2.0-0.39","spark_pilot_2","7299","3","11","Male","","false","","","","","[594.5999999940395,519.5]","./assets/img/ocean/memory/17.jpg","[""ArrowDown"",""ArrowRight""]","value training","ocean","30","{""ArrowUp,ArrowLeft"":23,""ArrowUp,ArrowRight"":10,""ArrowDown,ArrowLeft"":8,""ArrowDown,ArrowRight"":30}","true","ArrowDown,ArrowRight","false","","","original","1","78","","",""
"html-keyboard-response","195","905834","0.0-4.0-2.0-1.39","spark_pilot_2","7299","3","11","Male","","","","","","","null","<div style=""font-size:60px;"">+</div>","null","fixation","","","","","","","","","","","79","","",""
"revaluation","196","911866","0.0-4.0-2.0-0.40","spark_pilot_2","7299","3","11","Male","","false","","","","","[782.0999999940395,428.7999999821186]","./assets/img/ocean/memory/21.jpg","[""ArrowDown"",""ArrowRight""]","value training","ocean","30","{""ArrowUp,ArrowLeft"":23,""ArrowUp,ArrowRight"":10,""ArrowDown,ArrowLeft"":8,""ArrowDown,ArrowRight"":30}","true","ArrowDown,ArrowRight","false","","","original","1","80","","",""
"html-keyboard-response","197","912378","0.0-4.0-2.0-1.40","spark_pilot_2","7299","3","11","Male","","","","","","","null","<div style=""font-size:60px;"">+</div>","null","fixation","","","","","","","","","","","81","","",""
"revaluation","198","918410","0.0-4.0-2.0-0.41","spark_pilot_2","7299","3","11","Male","","false","","","","","[961.5,647.3999999761581]","./assets/img/ocean/memory/39.jpg","[""ArrowDown"",""ArrowRight""]","value training","ocean","30","{""ArrowUp,ArrowLeft"":23,""ArrowUp,ArrowRight"":10,""ArrowDown,ArrowLeft"":8,""ArrowDown,ArrowRight"":30}","true","ArrowDown,ArrowRight","false","","","original","1","82","","",""
"html-keyboard-response","199","918921","0.0-4.0-2.0-1.41","spark_pilot_2","7299","3","11","Male","","","","","","","null","<div style=""font-size:60px;"">+</div>","null","fixation","","","","","","","","","","","83","","",""
"revaluation","200","924954","0.0-4.0-2.0-0.42","spark_pilot_2","7299","3","11","Male","","false","","","","","[951.5,462.80000001192093]","./assets/img/ocean/memory/33.jpg","[""ArrowDown"",""ArrowRight""]","value training","ocean","30","{""ArrowUp,ArrowLeft"":23,""ArrowUp,ArrowRight"":10,""ArrowDown,ArrowLeft"":8,""ArrowDown,ArrowRight"":30}","true","ArrowDown,ArrowRight","false","","","original","1","84","","",""
"html-keyboard-response","201","925465","0.0-4.0-2.0-1.42","spark_pilot_2","7299","3","11","Male","","","","","","","null","<div style=""font-size:60px;"">+</div>","null","fixation","","","","","","","","","","","85","","",""
"revaluation","202","931498","0.0-4.0-2.0-0.43","spark_pilot_2","7299","3","11","Male","","false","","","","","[1193.2999999821186,356.10000002384186]","./assets/img/ocean/memory/0.jpg","[""ArrowDown"",""ArrowRight""]","value training","ocean","30","{""ArrowUp,ArrowLeft"":23,""ArrowUp,ArrowRight"":10,""ArrowDown,ArrowLeft"":8,""ArrowDown,ArrowRight"":30}","true","ArrowDown,ArrowRight","false","","","original","1","86","","",""
"html-keyboard-response","203","932009","0.0-4.0-2.0-1.43","spark_pilot_2","7299","3","11","Male","","","","","","","null","<div style=""font-size:60px;"">+</div>","null","fixation","","","","","","","","","","","87","","",""
"revaluation","204","938041","0.0-4.0-2.0-0.44","spark_pilot_2","7299","3","11","Male","","false","","","","","[691.5999999940395,300.59999999403954]","./assets/img/ocean/memory/40.jpg","[""ArrowDown"",""ArrowRight""]","value training","ocean","30","{""ArrowUp,ArrowLeft"":23,""ArrowUp,ArrowRight"":10,""ArrowDown,ArrowLeft"":8,""ArrowDown,ArrowRight"":30}","true","ArrowDown,ArrowRight","false","","","original","1","88","","",""
"html-keyboard-response","205","938553","0.0-4.0-2.0-1.44","spark_pilot_2","7299","3","11","Male","","","","","","","null","<div style=""font-size:60px;"">+</div>","null","fixation","","","","","","","","","","","89","","",""
"revaluation","206","942574","0.0-4.0-2.0-0.45","spark_pilot_2","7299","3","11","Male","","false","","","","","[987]","./assets/img/ocean/catch/5.jpg","[""spaceBar""]","value training","ocean","0","{""ArrowUp,ArrowLeft"":23,""ArrowUp,ArrowRight"":10,""ArrowDown,ArrowLeft"":8,""ArrowDown,ArrowRight"":30}","true","spaceBar","true","","","original","1","90","","",""
"html-keyboard-response","207","943080","0.0-4.0-2.0-1.45","spark_pilot_2","7299","3","11","Male","","","","","","","null","<div style=""font-size:60px;"">+</div>","null","fixation","","","","","","","","","","","91","","",""
"revaluation","208","949102","0.0-4.0-2.0-0.46","spark_pilot_2","7299","3","11","Male","","false","","","","","[1351.0999999940395,358.90000000596046]","./assets/img/ocean/memory/17.jpg","[""ArrowDown"",""ArrowRight""]","value training","ocean","30","{""ArrowUp,ArrowLeft"":23,""ArrowUp,ArrowRight"":10,""ArrowDown,ArrowLeft"":8,""ArrowDown,ArrowRight"":30}","true","ArrowDown,ArrowRight","false","","","original","1","92","","",""
"html-keyboard-response","209","949608","0.0-4.0-2.0-1.46","spark_pilot_2","7299","3","11","Male","","","","","","","null","<div style=""font-size:60px;"">+</div>","null","fixation","","","","","","","","","","","93","","",""
"revaluation","210","955640","0.0-4.0-2.0-0.47","spark_pilot_2","7299","3","11","Male","","false","","","","","[1044.9000000059605,477.69999998807907]","./assets/img/ocean/memory/12.jpg","[""ArrowDown"",""ArrowRight""]","value training","ocean","30","{""ArrowUp,ArrowLeft"":23,""ArrowUp,ArrowRight"":10,""ArrowDown,ArrowLeft"":8,""ArrowDown,ArrowRight"":30}","true","ArrowDown,ArrowRight","false","","","original","1","94","","",""
"html-keyboard-response","211","956152","0.0-4.0-2.0-1.47","spark_pilot_2","7299","3","11","Male","","","","","","","null","<div style=""font-size:60px;"">+</div>","null","fixation","","","","","","","","","","","95","","",""
"revaluation","212","962184","0.0-4.0-2.0-0.48","spark_pilot_2","7299","3","11","Male","","false","","","","","[1098.4000000059605,428.90000000596046]","./assets/img/ocean/memory/8.jpg","[""ArrowDown"",""ArrowRight""]","value training","ocean","30","{""ArrowUp,ArrowLeft"":23,""ArrowUp,ArrowRight"":10,""ArrowDown,ArrowLeft"":8,""ArrowDown,ArrowRight"":30}","true","ArrowDown,ArrowRight","false","","","original","1","96","","",""
"html-keyboard-response","213","962695","0.0-4.0-2.0-1.48","spark_pilot_2","7299","3","11","Male","","","","","","","null","<div style=""font-size:60px;"">+</div>","null","fixation","","","","","","","","","","","97","","",""
"revaluation","214","968728","0.0-4.0-2.0-0.49","spark_pilot_2","7299","3","11","Male","","false","","","","","[1091,624.1999999880791]","./assets/img/ocean/memory/39.jpg","[""ArrowDown"",""ArrowRight""]","value training","ocean","30","{""ArrowUp,ArrowLeft"":23,""ArrowUp,ArrowRight"":10,""ArrowDown,ArrowLeft"":8,""ArrowDown,ArrowRight"":30}","true","ArrowDown,ArrowRight","false","","","original","1","98","","",""
"html-keyboard-response","215","969239","0.0-4.0-2.0-1.49","spark_pilot_2","7299","3","11","Male","","","","","","","null","<div style=""font-size:60px;"">+</div>","null","fixation","","","","","","","","","","","99","","",""
"learning-instructions","216","983936","0.0-4.0-3.0-0.0","spark_pilot_2","7299","3","11","Male","","","","","","","1779.5999999940395","<p> Now, you will travel with a friend who will choose whether you go up or down first. </p>
            <p> On these turns, you will just see the animal that they found. You will still get to choose which chest to search for treasure.</p>","","instructions","","","","","","","","","","","","","",""
"revaluation","217","987960","0.0-4.0-4.0-0.0","spark_pilot_2","7299","3","11","Male","","false","","","","","[1150.5999999940395]","./assets/img/ocean/animals/octopus.jpg","[""ArrowRight""]","revaluation","ocean","30","{""ArrowUp,ArrowLeft"":23,""ArrowUp,ArrowRight"":10,""ArrowDown,ArrowLeft"":8,""ArrowDown,ArrowRight"":30}","true","ArrowDown,ArrowRight","","","","original","1","0","","",""
"html-keyboard-response","218","988471","0.0-4.0-4.0-1.0","spark_pilot_2","7299","3","11","Male","","","","","","","null","<div style=""font-size:60px;"">+</div>","null","fixation","","","","","","","","","","","1","","",""
"revaluation","219","992494","0.0-4.0-4.0-0.1","spark_pilot_2","7299","3","11","Male","","false","","","","","[588.4000000059605]","./assets/img/ocean/animals/octopus.jpg","[""ArrowRight""]","revaluation","ocean","30","{""ArrowUp,ArrowLeft"":23,""ArrowUp,ArrowRight"":10,""ArrowDown,ArrowLeft"":8,""ArrowDown,ArrowRight"":30}","true","ArrowDown,ArrowRight","","","","original","1","2","","",""
"html-keyboard-response","220","993007","0.0-4.0-4.0-1.1","spark_pilot_2","7299","3","11","Male","","","","","","","null","<div style=""font-size:60px;"">+</div>","null","fixation","","","","","","","","","","","3","","",""
"revaluation","221","997028","0.0-4.0-4.0-0.2","spark_pilot_2","7299","3","11","Male","","false","","","","","[451.30000001192093]","./assets/img/ocean/animals/octopus.jpg","[""ArrowLeft""]","revaluation","ocean","8","{""ArrowUp,ArrowLeft"":23,""ArrowUp,ArrowRight"":10,""ArrowDown,ArrowLeft"":8,""ArrowDown,ArrowRight"":30}","false","ArrowDown,ArrowLeft","","","","original","1","4","","",""
"html-keyboard-response","222","997535","0.0-4.0-4.0-1.2","spark_pilot_2","7299","3","11","Male","","","","","","","null","<div style=""font-size:60px;"">+</div>","null","fixation","","","","","","","","","","","5","","",""
"revaluation","223","1001559","0.0-4.0-4.0-0.3","spark_pilot_2","7299","3","11","Male","","false","","","","","[654.5]","./assets/img/ocean/animals/seahorse.jpg","[""ArrowLeft""]","revaluation","ocean","23","{""ArrowUp,ArrowLeft"":23,""ArrowUp,ArrowRight"":10,""ArrowDown,ArrowLeft"":8,""ArrowDown,ArrowRight"":30}","true","ArrowUp,ArrowLeft","","","","original","1","6","","",""
"html-keyboard-response","224","1002071","0.0-4.0-4.0-1.3","spark_pilot_2","7299","3","11","Male","","","","","","","null","<div style=""font-size:60px;"">+</div>","null","fixation","","","","","","","","","","","7","","",""
"revaluation","225","1006091","0.0-4.0-4.0-0.4","spark_pilot_2","7299","3","11","Male","","false","","","","","[1174.800000011921]","./assets/img/ocean/animals/seahorse.jpg","[""ArrowLeft""]","revaluation","ocean","23","{""ArrowUp,ArrowLeft"":23,""ArrowUp,ArrowRight"":10,""ArrowDown,ArrowLeft"":8,""ArrowDown,ArrowRight"":30}","true","ArrowUp,ArrowLeft","","","","original","1","8","","",""
"html-keyboard-response","226","1006598","0.0-4.0-4.0-1.4","spark_pilot_2","7299","3","11","Male","","","","","","","null","<div style=""font-size:60px;"">+</div>","null","fixation","","","","","","","","","","","9","","",""
"revaluation","227","1010621","0.0-4.0-4.0-0.5","spark_pilot_2","7299","3","11","Male","","false","","","","","[650.3000000119209]","./assets/img/ocean/animals/seahorse.jpg","[""ArrowLeft""]","revaluation","ocean","23","{""ArrowUp,ArrowLeft"":23,""ArrowUp,ArrowRight"":10,""ArrowDown,ArrowLeft"":8,""ArrowDown,ArrowRight"":30}","true","ArrowUp,ArrowLeft","","","","original","1","10","","",""
"html-keyboard-response","228","1011134","0.0-4.0-4.0-1.5","spark_pilot_2","7299","3","11","Male","","","","","","","null","<div style=""font-size:60px;"">+</div>","null","fixation","","","","","","","","","","","11","","",""
"revaluation","229","1015154","0.0-4.0-4.0-0.6","spark_pilot_2","7299","3","11","Male","","false","","","","","[797.1000000238419]","./assets/img/ocean/animals/octopus.jpg","[""ArrowRight""]","revaluation","ocean","30","{""ArrowUp,ArrowLeft"":23,""ArrowUp,ArrowRight"":10,""ArrowDown,ArrowLeft"":8,""ArrowDown,ArrowRight"":30}","true","ArrowDown,ArrowRight","","","","original","1","12","","",""
"html-keyboard-response","230","1015660","0.0-4.0-4.0-1.6","spark_pilot_2","7299","3","11","Male","","","","","","","null","<div style=""font-size:60px;"">+</div>","null","fixation","","","","","","","","","","","13","","",""
"revaluation","231","1019677","0.0-4.0-4.0-0.7","spark_pilot_2","7299","3","11","Male","","false","","","","","[617.0999999940395]","./assets/img/ocean/animals/octopus.jpg","[""ArrowRight""]","revaluation","ocean","30","{""ArrowUp,ArrowLeft"":23,""ArrowUp,ArrowRight"":10,""ArrowDown,ArrowLeft"":8,""ArrowDown,ArrowRight"":30}","true","ArrowDown,ArrowRight","","","","original","1","14","","",""
"html-keyboard-response","232","1020188","0.0-4.0-4.0-1.7","spark_pilot_2","7299","3","11","Male","","","","","","","null","<div style=""font-size:60px;"">+</div>","null","fixation","","","","","","","","","","","15","","",""
"revaluation","233","1024205","0.0-4.0-4.0-0.8","spark_pilot_2","7299","3","11","Male","","false","","","","","[734.6000000238419]","./assets/img/ocean/animals/seahorse.jpg","[""ArrowLeft""]","revaluation","ocean","23","{""ArrowUp,ArrowLeft"":23,""ArrowUp,ArrowRight"":10,""ArrowDown,ArrowLeft"":8,""ArrowDown,ArrowRight"":30}","true","ArrowUp,ArrowLeft","","","","original","1","16","","",""
"html-keyboard-response","234","1024716","0.0-4.0-4.0-1.8","spark_pilot_2","7299","3","11","Male","","","","","","","null","<div style=""font-size:60px;"">+</div>","null","fixation","","","","","","","","","","","17","","",""
"revaluation","235","1028733","0.0-4.0-4.0-0.9","spark_pilot_2","7299","3","11","Male","","false","","","","","[836.2000000178814]","./assets/img/ocean/animals/seahorse.jpg","[""ArrowLeft""]","revaluation","ocean","23","{""ArrowUp,ArrowLeft"":23,""ArrowUp,ArrowRight"":10,""ArrowDown,ArrowLeft"":8,""ArrowDown,ArrowRight"":30}","true","ArrowUp,ArrowLeft","","","","original","1","18","","",""
"html-keyboard-response","236","1029244","0.0-4.0-4.0-1.9","spark_pilot_2","7299","3","11","Male","","","","","","","null","<div style=""font-size:60px;"">+</div>","null","fixation","","","","","","","","","","","19","","",""
"revaluation","237","1033266","0.0-4.0-4.0-0.10","spark_pilot_2","7299","3","11","Male","","false","","","","","[569.3000000119209]","./assets/img/ocean/animals/octopus.jpg","[""ArrowRight""]","revaluation","ocean","30","{""ArrowUp,ArrowLeft"":23,""ArrowUp,ArrowRight"":10,""ArrowDown,ArrowLeft"":8,""ArrowDown,ArrowRight"":30}","true","ArrowDown,ArrowRight","","","","original","1","20","","",""
"html-keyboard-response","238","1033772","0.0-4.0-4.0-1.10","spark_pilot_2","7299","3","11","Male","","","","","","","null","<div style=""font-size:60px;"">+</div>","null","fixation","","","","","","","","","","","21","","",""
"revaluation","239","1037788","0.0-4.0-4.0-0.11","spark_pilot_2","7299","3","11","Male","","false","","","","","[737.7999999821186]","./assets/img/ocean/animals/seahorse.jpg","[""ArrowLeft""]","revaluation","ocean","23","{""ArrowUp,ArrowLeft"":23,""ArrowUp,ArrowRight"":10,""ArrowDown,ArrowLeft"":8,""ArrowDown,ArrowRight"":30}","true","ArrowUp,ArrowLeft","","","","original","1","22","","",""
"html-keyboard-response","240","1038299","0.0-4.0-4.0-1.11","spark_pilot_2","7299","3","11","Male","","","","","","","null","<div style=""font-size:60px;"">+</div>","null","fixation","","","","","","","","","","","23","","",""
"revaluation","241","1042316","0.0-4.0-4.0-0.12","spark_pilot_2","7299","3","11","Male","","false","","","","","[849.2999999821186]","./assets/img/ocean/animals/seahorse.jpg","[""ArrowLeft""]","revaluation","ocean","23","{""ArrowUp,ArrowLeft"":23,""ArrowUp,ArrowRight"":10,""ArrowDown,ArrowLeft"":8,""ArrowDown,ArrowRight"":30}","true","ArrowUp,ArrowLeft","","","","original","1","24","","",""
"html-keyboard-response","242","1042827","0.0-4.0-4.0-1.12","spark_pilot_2","7299","3","11","Male","","","","","","","null","<div style=""font-size:60px;"">+</div>","null","fixation","","","","","","","","","","","25","","",""
"revaluation","243","1046844","0.0-4.0-4.0-0.13","spark_pilot_2","7299","3","11","Male","","false","","","","","[878.5]","./assets/img/ocean/animals/octopus.jpg","[""ArrowRight""]","revaluation","ocean","30","{""ArrowUp,ArrowLeft"":23,""ArrowUp,ArrowRight"":10,""ArrowDown,ArrowLeft"":8,""ArrowDown,ArrowRight"":30}","true","ArrowDown,ArrowRight","","","","original","1","26","","",""
"html-keyboard-response","244","1047355","0.0-4.0-4.0-1.13","spark_pilot_2","7299","3","11","Male","","","","","","","null","<div style=""font-size:60px;"">+</div>","null","fixation","","","","","","","","","","","27","","",""
"revaluation","245","1051371","0.0-4.0-4.0-0.14","spark_pilot_2","7299","3","11","Male","","false","","","","","[622.0999999940395]","./assets/img/ocean/animals/octopus.jpg","[""ArrowRight""]","revaluation","ocean","30","{""ArrowUp,ArrowLeft"":23,""ArrowUp,ArrowRight"":10,""ArrowDown,ArrowLeft"":8,""ArrowDown,ArrowRight"":30}","true","ArrowDown,ArrowRight","","","","original","1","28","","",""
"html-keyboard-response","246","1051883","0.0-4.0-4.0-1.14","spark_pilot_2","7299","3","11","Male","","","","","","","null","<div style=""font-size:60px;"">+</div>","null","fixation","","","","","","","","","","","29","","",""
"revaluation","247","1055899","0.0-4.0-4.0-0.15","spark_pilot_2","7299","3","11","Male","","false","","","","","[558]","./assets/img/ocean/animals/octopus.jpg","[""ArrowRight""]","revaluation","ocean","30","{""ArrowUp,ArrowLeft"":23,""ArrowUp,ArrowRight"":10,""ArrowDown,ArrowLeft"":8,""ArrowDown,ArrowRight"":30}","true","ArrowDown,ArrowRight","","","","original","1","30","","",""
"html-keyboard-response","248","1056412","0.0-4.0-4.0-1.15","spark_pilot_2","7299","3","11","Male","","","","","","","null","<div style=""font-size:60px;"">+</div>","null","fixation","","","","","","","","","","","31","","",""
"revaluation","249","1060432","0.0-4.0-4.0-0.16","spark_pilot_2","7299","3","11","Male","","false","","","","","[452.2999999821186]","./assets/img/ocean/animals/seahorse.jpg","[""ArrowLeft""]","revaluation","ocean","23","{""ArrowUp,ArrowLeft"":23,""ArrowUp,ArrowRight"":10,""ArrowDown,ArrowLeft"":8,""ArrowDown,ArrowRight"":30}","true","ArrowUp,ArrowLeft","","","","original","1","32","","",""
"html-keyboard-response","250","1060938","0.0-4.0-4.0-1.16","spark_pilot_2","7299","3","11","Male","","","","","","","null","<div style=""font-size:60px;"">+</div>","null","fixation","","","","","","","","","","","33","","",""
"revaluation","251","1064955","0.0-4.0-4.0-0.17","spark_pilot_2","7299","3","11","Male","","false","","","","","[685.7999999821186]","./assets/img/ocean/animals/seahorse.jpg","[""ArrowLeft""]","revaluation","ocean","23","{""ArrowUp,ArrowLeft"":23,""ArrowUp,ArrowRight"":10,""ArrowDown,ArrowLeft"":8,""ArrowDown,ArrowRight"":30}","true","ArrowUp,ArrowLeft","","","","original","1","34","","",""
"html-keyboard-response","252","1065466","0.0-4.0-4.0-1.17","spark_pilot_2","7299","3","11","Male","","","","","","","null","<div style=""font-size:60px;"">+</div>","null","fixation","","","","","","","","","","","35","","",""
"learning-instructions","253","1078656","0.0-4.0-5.0-0.0","spark_pilot_2","7299","3","11","Male","","","","","","","1765.7000000178814","<p> Time to play the dot game! </p>
            <p> For one minute, click the red dots on the following screen as they appear. </p>
            <p><b> Don't look away, as you will earn bonus for clicking dots</b>. </p>","","instructions","","","","","","","","","","","","","",""
"revaluation","254","1138663","0.0-4.0-6.0-0.0","spark_pilot_2","7299","3","11","Male","","","","","","","[96,89,100,69,60,67,77]","","","rest","","70","","","","","0","60000","","","","","",""
"learning-instructions","255","1148010","0.0-4.0-7.0-0.0","spark_pilot_2","7299","3","11","Male","","","","","","","3212.5999999940395","<p> You have almost finished this part of the game! </p>
            <p> We are going to ask you to make a few more choices. </p>","","instructions","","","","","","","","","","","","","",""
"learning-instructions","256","1163073","0.0-4.0-7.0-0.1","spark_pilot_2","7299","3","11","Male","","","","","","","1091.800000011921","<p> First, you need to decide whether to go up or down. When you see each picture, use the arrow keys to make your choice. </p>
            <p><b>You will not see which animal you found, but try to get to the one that will give you the most treasure.</b></p>","","instructions","","","","","","","","","","","","","",""
"revaluation","257","1163778","0.0-4.0-8.0-0.0","spark_pilot_2","7299","3","11","Male","","false","","","","","[701.4000000059605]","./assets/img/ocean/test/1.jpg","[""ArrowDown""]","first stage test","ocean","0","{""ArrowUp,ArrowLeft"":23,""ArrowUp,ArrowRight"":10,""ArrowDown,ArrowLeft"":8,""ArrowDown,ArrowRight"":30}","true","ArrowDown","false","","","original","1","","","",""
"html-keyboard-response","258","1164286","0.0-4.0-8.0-1.0","spark_pilot_2","7299","3","11","Male","","","","","","","null","<div style=""font-size:60px;"">+</div>","null","fixation","","","","","","","","","","","","","",""
"revaluation","259","1165817","0.0-4.0-8.0-0.1","spark_pilot_2","7299","3","11","Male","","false","","","","","[1526.199999988079]","./assets/img/ocean/test/2.jpg","[""ArrowDown""]","first stage test","ocean","0","{""ArrowUp,ArrowLeft"":23,""ArrowUp,ArrowRight"":10,""ArrowDown,ArrowLeft"":8,""ArrowDown,ArrowRight"":30}","true","ArrowDown","false","","","original","1","","","",""
"html-keyboard-response","260","1166327","0.0-4.0-8.0-1.1","spark_pilot_2","7299","3","11","Male","","","","","","","null","<div style=""font-size:60px;"">+</div>","null","fixation","","","","","","","","","","","","","",""
"revaluation","261","1167593","0.0-4.0-8.0-0.2","spark_pilot_2","7299","3","11","Male","","false","","","","","[1260.4000000059605]","./assets/img/ocean/test/3.jpg","[""ArrowDown""]","first stage test","ocean","0","{""ArrowUp,ArrowLeft"":23,""ArrowUp,ArrowRight"":10,""ArrowDown,ArrowLeft"":8,""ArrowDown,ArrowRight"":30}","true","ArrowDown","false","","","original","1","","","",""
"html-keyboard-response","262","1168103","0.0-4.0-8.0-1.2","spark_pilot_2","7299","3","11","Male","","","","","","","null","<div style=""font-size:60px;"">+</div>","null","fixation","","","","","","","","","","","","","",""
"revaluation","263","1168845","0.0-4.0-8.0-0.3","spark_pilot_2","7299","3","11","Male","","false","","","","","[737.9000000059605]","./assets/img/ocean/test/0.jpg","[""ArrowDown""]","first stage test","ocean","0","{""ArrowUp,ArrowLeft"":23,""ArrowUp,ArrowRight"":10,""ArrowDown,ArrowLeft"":8,""ArrowDown,ArrowRight"":30}","true","ArrowDown","false","","","original","1","","","",""
"html-keyboard-response","264","1169351","0.0-4.0-8.0-1.3","spark_pilot_2","7299","3","11","Male","","","","","","","null","<div style=""font-size:60px;"">+</div>","null","fixation","","","","","","","","","","","","","",""
"learning-instructions","265","1181448","0.0-4.0-9.0-0.0","spark_pilot_2","7299","3","11","Male","","","","","","","751.9000000059605","<p> Now you will see the animals again and can search their chests for treasure. </p>
            <p> This time, you will not see how much treasure you earned, but you will earn more bonus money for making better choices. </p>","","instructions","","","","","","","","","","","","","",""
"revaluation","266","1182430","0.0-4.0-10.0-0.0","spark_pilot_2","7299","3","11","Male","","false","","","","","[979.5]","./assets/img/ocean/animals/seahorse.jpg","[""ArrowLeft""]","second stage test","ocean","0","{""ArrowUp,ArrowLeft"":23,""ArrowUp,ArrowRight"":10,""ArrowDown,ArrowLeft"":8,""ArrowDown,ArrowRight"":30}","true","ArrowUp,ArrowLeft","","","","original","1","","","",""
"html-keyboard-response","267","1182934","0.0-4.0-10.0-1.0","spark_pilot_2","7299","3","11","Male","","","","","","","null","<div style=""font-size:60px;"">+</div>","null","fixation","","","","","","","","","","","","","",""
"revaluation","268","1183661","0.0-4.0-10.0-0.1","spark_pilot_2","7299","3","11","Male","","false","","","","","[722.6999999880791]","./assets/img/ocean/animals/seahorse.jpg","[""ArrowLeft""]","second stage test","ocean","0","{""ArrowUp,ArrowLeft"":23,""ArrowUp,ArrowRight"":10,""ArrowDown,ArrowLeft"":8,""ArrowDown,ArrowRight"":30}","true","ArrowUp,ArrowLeft","","","","original","1","","","",""
"html-keyboard-response","269","1184171","0.0-4.0-10.0-1.1","spark_pilot_2","7299","3","11","Male","","","","","","","null","<div style=""font-size:60px;"">+</div>","null","fixation","","","","","","","","","","","","","",""
"revaluation","270","1184759","0.0-4.0-10.0-0.2","spark_pilot_2","7299","3","11","Male","","false","","","","","[583.9000000059605]","./assets/img/ocean/animals/seahorse.jpg","[""ArrowLeft""]","second stage test","ocean","0","{""ArrowUp,ArrowLeft"":23,""ArrowUp,ArrowRight"":10,""ArrowDown,ArrowLeft"":8,""ArrowDown,ArrowRight"":30}","true","ArrowUp,ArrowLeft","","","","original","1","","","",""
"html-keyboard-response","271","1185269","0.0-4.0-10.0-1.2","spark_pilot_2","7299","3","11","Male","","","","","","","null","<div style=""font-size:60px;"">+</div>","null","fixation","","","","","","","","","","","","","",""
"revaluation","272","1185753","0.0-4.0-10.0-0.3","spark_pilot_2","7299","3","11","Male","","false","","","","","[479.2000000178814]","./assets/img/ocean/animals/seahorse.jpg","[""ArrowLeft""]","second stage test","ocean","0","{""ArrowUp,ArrowLeft"":23,""ArrowUp,ArrowRight"":10,""ArrowDown,ArrowLeft"":8,""ArrowDown,ArrowRight"":30}","true","ArrowUp,ArrowLeft","","","","original","1","","","",""
"html-keyboard-response","273","1186261","0.0-4.0-10.0-1.3","spark_pilot_2","7299","3","11","Male","","","","","","","null","<div style=""font-size:60px;"">+</div>","null","fixation","","","","","","","","","","","","","",""
"revaluation","274","1186894","0.0-4.0-10.0-0.4","spark_pilot_2","7299","3","11","Male","","false","","","","","[628.6999999880791]","./assets/img/ocean/animals/octopus.jpg","[""ArrowRight""]","second stage test","ocean","0","{""ArrowUp,ArrowLeft"":23,""ArrowUp,ArrowRight"":10,""ArrowDown,ArrowLeft"":8,""ArrowDown,ArrowRight"":30}","true","ArrowDown,ArrowRight","","","","original","1","","","",""
"html-keyboard-response","275","1187405","0.0-4.0-10.0-1.4","spark_pilot_2","7299","3","11","Male","","","","","","","null","<div style=""font-size:60px;"">+</div>","null","fixation","","","","","","","","","","","","","",""
"revaluation","276","1187975","0.0-4.0-10.0-0.5","spark_pilot_2","7299","3","11","Male","","false","","","","","[565.1999999880791]","./assets/img/ocean/animals/octopus.jpg","[""ArrowRight""]","second stage test","ocean","0","{""ArrowUp,ArrowLeft"":23,""ArrowUp,ArrowRight"":10,""ArrowDown,ArrowLeft"":8,""ArrowDown,ArrowRight"":30}","true","ArrowDown,ArrowRight","","","","original","1","","","",""
"html-keyboard-response","277","1188486","0.0-4.0-10.0-1.5","spark_pilot_2","7299","3","11","Male","","","","","","","null","<div style=""font-size:60px;"">+</div>","null","fixation","","","","","","","","","","","","","",""
"revaluation","278","1188949","0.0-4.0-10.0-0.6","spark_pilot_2","7299","3","11","Male","","false","","","","","[458.80000001192093]","./assets/img/ocean/animals/octopus.jpg","[""ArrowRight""]","second stage test","ocean","0","{""ArrowUp,ArrowLeft"":23,""ArrowUp,ArrowRight"":10,""ArrowDown,ArrowLeft"":8,""ArrowDown,ArrowRight"":30}","true","ArrowDown,ArrowRight","","","","original","1","","","",""
"html-keyboard-response","279","1189454","0.0-4.0-10.0-1.6","spark_pilot_2","7299","3","11","Male","","","","","","","null","<div style=""font-size:60px;"">+</div>","null","fixation","","","","","","","","","","","","","",""
"revaluation","280","1189935","0.0-4.0-10.0-0.7","spark_pilot_2","7299","3","11","Male","","false","","","","","[476.5]","./assets/img/ocean/animals/octopus.jpg","[""ArrowRight""]","second stage test","ocean","0","{""ArrowUp,ArrowLeft"":23,""ArrowUp,ArrowRight"":10,""ArrowDown,ArrowLeft"":8,""ArrowDown,ArrowRight"":30}","true","ArrowDown,ArrowRight","","","","original","1","","","",""
"html-keyboard-response","281","1190445","0.0-4.0-10.0-1.7","spark_pilot_2","7299","3","11","Male","","","","","","","null","<div style=""font-size:60px;"">+</div>","null","fixation","","","","","","","","","","","","","",""
"learning-instructions","282","1194225","0.0-4.0-0.1-0.2","spark_pilot_2","7299","3","11","Male","","","","","","","1017.6999999880791","<p> This time you are searching for treasure in the <b>canyon</b>.</p>","","instructions","","","","","","","","","","","","","",""
"learning-instructions","283","1212334","0.0-4.0-0.1-0.3","spark_pilot_2","7299","3","11","Male","","","","","","","853.9000000059605","<p><b>New</b> animals with <b>new</b> treasure chests live here. You need to explore to discover where the animal with the best treasure chest is.</p>
                    <p> Like before, once you figure out which animal has the chest with the most treasure, you should try to get to that animal and select that chest! </p>","","instructions","","","","","","","","","","","","","",""
"learning-instructions","284","1228650","0.0-4.0-1.1-0.1","spark_pilot_2","7299","3","11","Male","","","","","","","1586.300000011921","<p> Remember, when you see a picture of the place, use the up and down keys to <b>find an animal</b>.</p>
            <p> When you encounter an animal, you should use the left and right keys to <b>select a treasure chest</b>.</p>
            <p> Don't forget to look out for the robber! </p>","","instructions","","","","","","","","","","","","","",""
"revaluation","285","1234677","0.0-4.0-2.1-0.50","spark_pilot_2","7299","3","11","Male","","false","","","","","[905.8999999761581,430.7000000178814]","./assets/img/canyon/memory/28.jpg","[""ArrowDown"",""ArrowRight""]","value training","canyon","17","{""ArrowUp,ArrowLeft"":26,""ArrowUp,ArrowRight"":10,""ArrowDown,ArrowLeft"":5,""ArrowDown,ArrowRight"":17}","false","ArrowDown,ArrowRight","false","","","revaluation","2","0","","",""
"html-keyboard-response","286","1235184","0.0-4.0-2.1-1.50","spark_pilot_2","7299","3","11","Male","","","","","","","null","<div style=""font-size:60px;"">+</div>","null","fixation","","","","","","","","","","","1","","",""
"revaluation","287","1239201","0.0-4.0-2.1-0.51","spark_pilot_2","7299","3","11","Male","","false","","","","","[888.8999999761581]","./assets/img/canyon/catch/0.jpg","[""ArrowDown""]","value training","canyon","-10","{""ArrowUp,ArrowLeft"":26,""ArrowUp,ArrowRight"":10,""ArrowDown,ArrowLeft"":5,""ArrowDown,ArrowRight"":17}","false","ArrowDown","true","","","revaluation","2","2","","",""
"html-keyboard-response","288","1239708","0.0-4.0-2.1-1.51","spark_pilot_2","7299","3","11","Male","","","","","","","null","<div style=""font-size:60px;"">+</div>","null","fixation","","","","","","","","","","","3","","",""
"revaluation","289","1245736","0.0-4.0-2.1-0.52","spark_pilot_2","7299","3","11","Male","","false","","","","","[666.1999999880791,350.2999999821186]","./assets/img/canyon/memory/9.jpg","[""ArrowDown"",""ArrowLeft""]","value training","canyon","5","{""ArrowUp,ArrowLeft"":26,""ArrowUp,ArrowRight"":10,""ArrowDown,ArrowLeft"":5,""ArrowDown,ArrowRight"":17}","false","ArrowDown,ArrowLeft","false","","","revaluation","2","4","","",""
"html-keyboard-response","290","1246240","0.0-4.0-2.1-1.52","spark_pilot_2","7299","3","11","Male","","","","","","","null","<div style=""font-size:60px;"">+</div>","null","fixation","","","","","","","","","","","5","","",""
"revaluation","291","1252267","0.0-4.0-2.1-0.53","spark_pilot_2","7299","3","11","Male","","false","","","","","[617.5,323.09999999403954]","./assets/img/canyon/memory/40.jpg","[""ArrowUp"",""ArrowRight""]","value training","canyon","10","{""ArrowUp,ArrowLeft"":26,""ArrowUp,ArrowRight"":10,""ArrowDown,ArrowLeft"":5,""ArrowDown,ArrowRight"":17}","false","ArrowUp,ArrowRight","false","","","revaluation","2","6","","",""
"html-keyboard-response","292","1252778","0.0-4.0-2.1-1.53","spark_pilot_2","7299","3","11","Male","","","","","","","null","<div style=""font-size:60px;"">+</div>","null","fixation","","","","","","","","","","","7","","",""
"revaluation","293","1256791","0.0-4.0-2.1-0.54","spark_pilot_2","7299","3","11","Male","","false","","","","","[784.6999999880791]","./assets/img/canyon/catch/7.jpg","[""spaceBar""]","value training","canyon","0","{""ArrowUp,ArrowLeft"":26,""ArrowUp,ArrowRight"":10,""ArrowDown,ArrowLeft"":5,""ArrowDown,ArrowRight"":17}","true","spaceBar","true","","","revaluation","2","8","","",""
"html-keyboard-response","294","1257297","0.0-4.0-2.1-1.54","spark_pilot_2","7299","3","11","Male","","","","","","","null","<div style=""font-size:60px;"">+</div>","null","fixation","","","","","","","","","","","9","","",""
"revaluation","295","1263319","0.0-4.0-2.1-0.55","spark_pilot_2","7299","3","11","Male","","false","","","","","[696.8999999761581,600]","./assets/img/canyon/memory/21.jpg","[""ArrowUp"",""ArrowLeft""]","value training","canyon","26","{""ArrowUp,ArrowLeft"":26,""ArrowUp,ArrowRight"":10,""ArrowDown,ArrowLeft"":5,""ArrowDown,ArrowRight"":17}","true","ArrowUp,ArrowLeft","false","","","revaluation","2","10","","",""
"html-keyboard-response","296","1263825","0.0-4.0-2.1-1.55","spark_pilot_2","7299","3","11","Male","","","","","","","null","<div style=""font-size:60px;"">+</div>","null","fixation","","","","","","","","","","","11","","",""
"revaluation","297","1269847","0.0-4.0-2.1-0.56","spark_pilot_2","7299","3","11","Male","","false","","","","","[753.1999999880791,346.69999998807907]","./assets/img/canyon/memory/28.jpg","[""ArrowUp"",""ArrowLeft""]","value training","canyon","26","{""ArrowUp,ArrowLeft"":26,""ArrowUp,ArrowRight"":10,""ArrowDown,ArrowLeft"":5,""ArrowDown,ArrowRight"":17}","true","ArrowUp,ArrowLeft","false","","","revaluation","2","12","","",""
"html-keyboard-response","298","1270353","0.0-4.0-2.1-1.56","spark_pilot_2","7299","3","11","Male","","","","","","","null","<div style=""font-size:60px;"">+</div>","null","fixation","","","","","","","","","","","13","","",""
"revaluation","299","1276375","0.0-4.0-2.1-0.57","spark_pilot_2","7299","3","11","Male","","false","","","","","[1232.800000011921,483.80000001192093]","./assets/img/canyon/memory/39.jpg","[""ArrowUp"",""ArrowLeft""]","value training","canyon","26","{""ArrowUp,ArrowLeft"":26,""ArrowUp,ArrowRight"":10,""ArrowDown,ArrowLeft"":5,""ArrowDown,ArrowRight"":17}","true","ArrowUp,ArrowLeft","false","","","revaluation","2","14","","",""
"html-keyboard-response","300","1276880","0.0-4.0-2.1-1.57","spark_pilot_2","7299","3","11","Male","","","","","","","null","<div style=""font-size:60px;"">+</div>","null","fixation","","","","","","","","","","","15","","",""
"revaluation","301","1282904","0.0-4.0-2.1-0.58","spark_pilot_2","7299","3","11","Male","","false","","","","","[1956.5,730.4000000059605]","./assets/img/canyon/memory/12.jpg","[""ArrowUp"",""ArrowLeft""]","value training","canyon","26","{""ArrowUp,ArrowLeft"":26,""ArrowUp,ArrowRight"":10,""ArrowDown,ArrowLeft"":5,""ArrowDown,ArrowRight"":17}","true","ArrowUp,ArrowLeft","false","","","revaluation","2","16","","",""
"html-keyboard-response","302","1283415","0.0-4.0-2.1-1.58","spark_pilot_2","7299","3","11","Male","","","","","","","null","<div style=""font-size:60px;"">+</div>","null","fixation","","","","","","","","","","","17","","",""
"revaluation","303","1289441","0.0-4.0-2.1-0.59","spark_pilot_2","7299","3","11","Male","","false","","","","","[633,500.40000000596046]","./assets/img/canyon/memory/3.jpg","[""ArrowUp"",""ArrowLeft""]","value training","canyon","26","{""ArrowUp,ArrowLeft"":26,""ArrowUp,ArrowRight"":10,""ArrowDown,ArrowLeft"":5,""ArrowDown,ArrowRight"":17}","true","ArrowUp,ArrowLeft","false","","","revaluation","2","18","","",""
"html-keyboard-response","304","1289952","0.0-4.0-2.1-1.59","spark_pilot_2","7299","3","11","Male","","","","","","","null","<div style=""font-size:60px;"">+</div>","null","fixation","","","","","","","","","","","19","","",""
"revaluation","305","1293968","0.0-4.0-2.1-0.60","spark_pilot_2","7299","3","11","Male","","false","","","","","[587.8000000119209]","./assets/img/canyon/catch/3.jpg","[""spaceBar""]","value training","canyon","0","{""ArrowUp,ArrowLeft"":26,""ArrowUp,ArrowRight"":10,""ArrowDown,ArrowLeft"":5,""ArrowDown,ArrowRight"":17}","true","spaceBar","true","","","revaluation","2","20","","",""
"html-keyboard-response","306","1294480","0.0-4.0-2.1-1.60","spark_pilot_2","7299","3","11","Male","","","","","","","null","<div style=""font-size:60px;"">+</div>","null","fixation","","","","","","","","","","","21","","",""
"revaluation","307","1300502","0.0-4.0-2.1-0.61","spark_pilot_2","7299","3","11","Male","","false","","","","","[689.5,396.2000000178814]","./assets/img/canyon/memory/2.jpg","[""ArrowUp"",""ArrowLeft""]","value training","canyon","26","{""ArrowUp,ArrowLeft"":26,""ArrowUp,ArrowRight"":10,""ArrowDown,ArrowLeft"":5,""ArrowDown,ArrowRight"":17}","true","ArrowUp,ArrowLeft","false","","","revaluation","2","22","","",""
"html-keyboard-response","308","1301008","0.0-4.0-2.1-1.61","spark_pilot_2","7299","3","11","Male","","","","","","","null","<div style=""font-size:60px;"">+</div>","null","fixation","","","","","","","","","","","23","","",""
