"trial_type","trial_index","time_elapsed","internal_node_id","task_version","subject_id","assigned_condition","age","gender","success","timeout","failed_images","failed_audio","failed_video","browser_interaction","rt","stimulus","response","task_part","environment","score","rewardMap","correct","fullState","isCatch","numberMissed","duration","condition","order","trial_num","key_press","ground_truth","bonus"
"pavlovia","0","1421","0.0-0.0","spark_pilot_2","7792","1","22","Female","","","","","","","","","","","","","","","","","","","","","","","",""
"preload","1","13990","0.0-1.0","spark_pilot_2","7792","1","22","Female","true","false","[]","[]","[]","[{""event"":""fullscreenenter"",""trial"":2,""time"":17466}]","","","","","","","","","","","","","","","","","",""
"fullscreen","2","18460","0.0-2.0","spark_pilot_2","7792","1","22","Female","true","","","","","","","","","","","","","","","","","","","","","","",""
"audio-button-response","3","20443","0.0-3.0-0.0-0.0","spark_pilot_2","7792","1","22","Female","","","","","","","1845","./assets/audio/audiotest/turtle.mp3","2","audio_test","","","","","","","","","","","","","",""
"learning-instructions","4","30233","0.0-3.0-1.0-0.0","spark_pilot_2","7792","1","22","Female","","","","","","","2805.0999999940395","<p> Welcome! Please remember to stay in fullscreen mode and don't click away from the experiment. </p>","","instructions","","","","","","","","","","","","","",""
"learning-instructions","5","39932","0.0-3.0-1.0-0.1","spark_pilot_2","7792","1","22","Female","","","","","","","1277.7000000178814","<p> Today you will be playing a game to earn treasure. </p>
            <p> At the end of the experiment, you will earn a bonus based on how much treasure you find. </p>
            <img src='./assets/img/instructions/treasure.jpg' class='instructions-image'>","","instructions","","","","","","","","","","","","","",""
"learning-instructions","6","54096","0.0-3.0-1.0-0.2","spark_pilot_2","7792","1","22","Female","","","","","","","5900","<p> Animals have hidden treasure in treasure chests. </p>
            <p> You need to first find an animal and then choose which of their treasure chests to search. </p>
            <img src='./assets/img/space/animals/cat.jpg' class='instructions-image'>","","instructions","","","","","","","","","","","","","",""
"learning-instructions","7","68786","0.0-3.0-1.0-0.3","spark_pilot_2","7792","1","22","Female","","","","","","","1530.199999988079","<p> In each round, you will search for treasure in a different place. In the real game, there will be two rounds. </p>
            <p> You will begin with a separate, practice round where you will search for treasure in outer space. </p>
            <img src='./assets/img/space/0.jpg' class='instructions-image'>","","instructions","","","","","","","","","","","","","",""
"learning-instructions","8","105117","0.0-3.0-1.0-0.4","spark_pilot_2","7792","1","22","Female","","","","","","","24912.59999999404","<p> On every turn, you will see a picture of the place that you are in, but the specific image may be different each time. </p>
            <p> For example, both of these images mean you are in outer space. </p>
            <img src='./assets/img/instructions/outerspace.jpg' class='instructions-image'>","","instructions","","","","","","","","","","","","","",""
"learning-instructions","9","113868","0.0-3.0-1.0-0.5","spark_pilot_2","7792","1","22","Female","","","","","","","916.7000000178814","<p> You need to decide which direction to travel in. </p>
            <p> You can choose between going <b>up or down</b> by using the arrow keys. </p>
            <img src='./assets/img/instructions/updown.jpg' class='instructions-image'>","","instructions","","","","","","","","","","","","","",""
"learning-instructions","10","123756","0.0-3.0-1.0-0.6","spark_pilot_2","7792","1","22","Female","","","","","","","1073","<p> You will have <b>2 seconds</b> to make your choice. </p>
            <p> If you do not make a choice within 2 seconds, you will not find an animal or earn treasure. </p>
            <img src='./assets/img/instructions/2seconds.jpg' class='instructions-image'>","","instructions","","","","","","","","","","","","","",""
"learning-instructions","11","132146","0.0-3.0-1.0-0.7","spark_pilot_2","7792","1","22","Female","","","","","","","1345.2000000178814","<p> Let’s try practicing that now! </p>
            <p> When you see a picture of the place you are in, press the <b>up</b> key to travel up. </p>
            <img src='./assets/img/instructions/pressUp.jpg' class='instructions-image'>","","instructions","","","","","","","","","","","","","",""
"revaluation","12","136181","0.0-3.0-2.0-0.0","spark_pilot_2","7792","1","22","Female","","false","","","","","[391.60000002384186]","./assets/img/space/0.jpg","[""ArrowUp""]","first stage practice","space","0","null","null","ArrowUp","false","","","","","","","",""
"html-keyboard-response","13","136692","0.0-3.0-2.0-1.0","spark_pilot_2","7792","1","22","Female","","","","","","","null","<div style=""font-size:60px;"">+</div>","null","fixation","","","","","","","","","","","","","",""
"revaluation","14","140706","0.0-3.0-2.0-0.1","spark_pilot_2","7792","1","22","Female","","false","","","","","[689.0999999940395]","./assets/img/space/1.jpg","[""ArrowUp""]","first stage practice","space","0","null","null","ArrowUp","false","","","","","","","",""
"html-keyboard-response","15","141208","0.0-3.0-2.0-1.1","spark_pilot_2","7792","1","22","Female","","","","","","","null","<div style=""font-size:60px;"">+</div>","null","fixation","","","","","","","","","","","","","",""
"revaluation","16","145226","0.0-3.0-2.0-0.2","spark_pilot_2","7792","1","22","Female","","false","","","","","[575.0999999940395]","./assets/img/space/2.jpg","[""ArrowUp""]","first stage practice","space","0","null","null","ArrowUp","false","","","","","","","",""
"html-keyboard-response","17","145730","0.0-3.0-2.0-1.2","spark_pilot_2","7792","1","22","Female","","","","","","","null","<div style=""font-size:60px;"">+</div>","null","fixation","","","","","","","","","","","","","",""
"learning-instructions","18","151216","0.0-3.0-3.0-0.0","spark_pilot_2","7792","1","22","Female","","","","","","","779","<p> Great job! Now try pressing the <b>down</b> key to travel down. </p>
            <img src='./assets/img/instructions/pressDown.jpg' class='instructions-image'>","","instructions","","","","","","","","","","","","","",""
"revaluation","19","155237","0.0-3.0-4.0-0.0","spark_pilot_2","7792","1","22","Female","","false","","","","","[895.5999999940395]","./assets/img/space/3.jpg","[""ArrowDown""]","first stage practice","space","0","null","null","ArrowDown","false","","","","","","","",""
"html-keyboard-response","20","155745","0.0-3.0-4.0-1.0","spark_pilot_2","7792","1","22","Female","","","","","","","null","<div style=""font-size:60px;"">+</div>","null","fixation","","","","","","","","","","","","","",""
"revaluation","21","159761","0.0-3.0-4.0-0.1","spark_pilot_2","7792","1","22","Female","","false","","","","","[711.7000000178814]","./assets/img/space/4.jpg","[""ArrowDown""]","first stage practice","space","0","null","null","ArrowDown","false","","","","","","","",""
"html-keyboard-response","22","160264","0.0-3.0-4.0-1.1","spark_pilot_2","7792","1","22","Female","","","","","","","null","<div style=""font-size:60px;"">+</div>","null","fixation","","","","","","","","","","","","","",""
"revaluation","23","164281","0.0-3.0-4.0-0.2","spark_pilot_2","7792","1","22","Female","","false","","","","","[644.6999999880791]","./assets/img/space/5.jpg","[""ArrowDown""]","first stage practice","space","0","null","null","ArrowDown","false","","","","","","","",""
"html-keyboard-response","24","164787","0.0-3.0-4.0-1.2","spark_pilot_2","7792","1","22","Female","","","","","","","null","<div style=""font-size:60px;"">+</div>","null","fixation","","","","","","","","","","","","","",""
"learning-instructions","25","175754","0.0-3.0-5.0-0.0","spark_pilot_2","7792","1","22","Female","","","","","","","1104.800000011921","<p> The animals don’t move, so the animal in the upper part of a place will stay in the upper part of a place, and the animal in the lower part of a place will stay in the lower part of a place. </p>","","instructions","","","","","","","","","","","","","",""
"learning-instructions","26","187949","0.0-3.0-5.0-0.1","spark_pilot_2","7792","1","22","Female","","","","","","","3055.100000023842","<p> Each animal has two treasure chests for you to choose from. </p>
            <p> The amount of treasure in each chest can range from <b> 0 to 40 pieces.</b></p>","","instructions","","","","","","","","","","","","","",""
"learning-instructions","27","200347","0.0-3.0-5.0-0.2","spark_pilot_2","7792","1","22","Female","","","","","","","1207.9000000059605","<p> You should decide which chest to search for treasure by using the <b>left</b> and <b>right</b> arrow keys. </p>
            <p><b> Pay attention to which animal is on the screen, as the animals have different treasure chests. </b></p>
            <img src='./assets/img/instructions/leftright.jpg' class='instructions-image'>","","instructions","","","","","","","","","","","","","",""
"learning-instructions","28","207480","0.0-3.0-5.0-0.3","spark_pilot_2","7792","1","22","Female","","","","","","","762.5","<p> Let’s try practicing that now. </p>
            <p> When you see an animal, choose which chest to search for treasure. </p>
            <img src='./assets/img/instructions/chooseChest.jpg' class='instructions-image'>","","instructions","","","","","","","","","","","","","",""
"revaluation","29","211501","0.0-3.0-6.0-0.0","spark_pilot_2","7792","1","22","Female","","false","","","","","[710.7000000178814]","./assets/img/space/animals/rabbit.jpg","[""ArrowLeft""]","second stage practice","space","15","{""ArrowUp,ArrowLeft"":3,""ArrowUp,ArrowRight"":36,""ArrowDown,ArrowLeft"":15,""ArrowDown,ArrowRight"":23}","false","ArrowDown,ArrowLeft","","","","","","","","",""
"html-keyboard-response","30","212011","0.0-3.0-6.0-1.0","spark_pilot_2","7792","1","22","Female","","","","","","","null","<div style=""font-size:60px;"">+</div>","null","fixation","","","","","","","","","","","","","",""
"revaluation","31","216028","0.0-3.0-6.0-0.1","spark_pilot_2","7792","1","22","Female","","false","","","","","[683]","./assets/img/space/animals/cat.jpg","[""ArrowRight""]","second stage practice","space","36","{""ArrowUp,ArrowLeft"":3,""ArrowUp,ArrowRight"":36,""ArrowDown,ArrowLeft"":15,""ArrowDown,ArrowRight"":23}","true","ArrowUp,ArrowRight","","","","","","","","",""
"html-keyboard-response","32","216539","0.0-3.0-6.0-1.1","spark_pilot_2","7792","1","22","Female","","","","","","","null","<div style=""font-size:60px;"">+</div>","null","fixation","","","","","","","","","","","","","",""
"revaluation","33","220556","0.0-3.0-6.0-0.2","spark_pilot_2","7792","1","22","Female","","false","","","","","[598.0999999940395]","./assets/img/space/animals/rabbit.jpg","[""ArrowRight""]","second stage practice","space","23","{""ArrowUp,ArrowLeft"":3,""ArrowUp,ArrowRight"":36,""ArrowDown,ArrowLeft"":15,""ArrowDown,ArrowRight"":23}","true","ArrowDown,ArrowRight","","","","","","","","",""
"html-keyboard-response","34","221068","0.0-3.0-6.0-1.2","spark_pilot_2","7792","1","22","Female","","","","","","","null","<div style=""font-size:60px;"">+</div>","null","fixation","","","","","","","","","","","","","",""
"revaluation","35","225089","0.0-3.0-6.0-0.3","spark_pilot_2","7792","1","22","Female","","false","","","","","[765.6999999880791]","./assets/img/space/animals/cat.jpg","[""ArrowLeft""]","second stage practice","space","3","{""ArrowUp,ArrowLeft"":3,""ArrowUp,ArrowRight"":36,""ArrowDown,ArrowLeft"":15,""ArrowDown,ArrowRight"":23}","false","ArrowUp,ArrowLeft","","","","","","","","",""
"html-keyboard-response","36","225595","0.0-3.0-6.0-1.3","spark_pilot_2","7792","1","22","Female","","","","","","","null","<div style=""font-size:60px;"">+</div>","null","fixation","","","","","","","","","","","","","",""
"learning-instructions","37","246570","0.0-3.0-7.0-0.0","spark_pilot_2","7792","1","22","Female","","","","","","","4148","<p> Great job. Now let’s try putting it together. </p>
            <p> On each turn, you will first see a picture to remind you of the place you are in, and you need to choose whether to go up or down. </p>
            <p> Then you will see an animal and choose which of its chests to search for treasure. </p>","","instructions","","","","","","","","","","","","","",""
"learning-instructions","38","264579","0.0-3.0-7.0-0.1","spark_pilot_2","7792","1","22","Female","","","","","","","9736.299999982119","<p> When you choose whether to go up or down, try to go to the animal with the chest with the most treasure. </p>
            <p> Try practicing that now! </p>","","instructions","","","","","","","","","","","","","",""
"revaluation","39","270603","0.0-3.0-8.0-0.0","spark_pilot_2","7792","1","22","Female","","false","","","","","[941.6999999880791,818]","./assets/img/space/6.jpg","[""ArrowDown"",""ArrowRight""]","full practice","space","23","{""ArrowUp,ArrowLeft"":3,""ArrowUp,ArrowRight"":36,""ArrowDown,ArrowLeft"":15,""ArrowDown,ArrowRight"":23}","false","ArrowDown,ArrowRight","false","","","","","","","",""
"html-keyboard-response","40","271114","0.0-3.0-8.0-1.0","spark_pilot_2","7792","1","22","Female","","","","","","","null","<div style=""font-size:60px;"">+</div>","null","fixation","","","","","","","","","","","","","",""
"revaluation","41","277135","0.0-3.0-8.0-0.1","spark_pilot_2","7792","1","22","Female","","false","","","","","[822.5,803.6000000238419]","./assets/img/space/7.jpg","[""ArrowDown"",""ArrowLeft""]","full practice","space","15","{""ArrowUp,ArrowLeft"":3,""ArrowUp,ArrowRight"":36,""ArrowDown,ArrowLeft"":15,""ArrowDown,ArrowRight"":23}","false","ArrowDown,ArrowLeft","false","","","","","","","",""
"html-keyboard-response","42","277641","0.0-3.0-8.0-1.1","spark_pilot_2","7792","1","22","Female","","","","","","","null","<div style=""font-size:60px;"">+</div>","null","fixation","","","","","","","","","","","","","",""
"revaluation","43","283664","0.0-3.0-8.0-0.2","spark_pilot_2","7792","1","22","Female","","false","","","","","[972.5999999940395,811.5999999940395]","./assets/img/space/8.jpg","[""ArrowDown"",""ArrowRight""]","full practice","space","23","{""ArrowUp,ArrowLeft"":3,""ArrowUp,ArrowRight"":36,""ArrowDown,ArrowLeft"":15,""ArrowDown,ArrowRight"":23}","false","ArrowDown,ArrowRight","false","","","","","","","",""
"html-keyboard-response","44","284168","0.0-3.0-8.0-1.2","spark_pilot_2","7792","1","22","Female","","","","","","","null","<div style=""font-size:60px;"">+</div>","null","fixation","","","","","","","","","","","","","",""
"revaluation","45","290192","0.0-3.0-8.0-0.3","spark_pilot_2","7792","1","22","Female","","false","","","","","[1058.5,875.2999999821186]","./assets/img/space/9.jpg","[""ArrowUp"",""ArrowLeft""]","full practice","space","3","{""ArrowUp,ArrowLeft"":3,""ArrowUp,ArrowRight"":36,""ArrowDown,ArrowLeft"":15,""ArrowDown,ArrowRight"":23}","false","ArrowUp,ArrowLeft","false","","","","","","","",""
"html-keyboard-response","46","290699","0.0-3.0-8.0-1.3","spark_pilot_2","7792","1","22","Female","","","","","","","null","<div style=""font-size:60px;"">+</div>","null","fixation","","","","","","","","","","","","","",""
"revaluation","47","296720","0.0-3.0-8.0-0.4","spark_pilot_2","7792","1","22","Female","","false","","","","","[821.1000000238419,555]","./assets/img/space/10.jpg","[""ArrowDown"",""ArrowRight""]","full practice","space","23","{""ArrowUp,ArrowLeft"":3,""ArrowUp,ArrowRight"":36,""ArrowDown,ArrowLeft"":15,""ArrowDown,ArrowRight"":23}","false","ArrowDown,ArrowRight","false","","","","","","","",""
"html-keyboard-response","48","297226","0.0-3.0-8.0-1.4","spark_pilot_2","7792","1","22","Female","","","","","","","null","<div style=""font-size:60px;"">+</div>","null","fixation","","","","","","","","","","","","","",""
"learning-instructions","49","312401","0.0-3.0-9.0-0.0","spark_pilot_2","7792","1","22","Female","","","","","","","4813.700000017881","<p> One last thing: sometimes, you will see a robber. The robber can be anywhere in the picture. </p>
            <p> If you do not stop them, you will lose treasure. </p>
            <img src='./assets/img/instructions/robber.jpg' class='instructions-image'>","","instructions","","","","","","","","","","","","","",""
"learning-instructions","50","320380","0.0-3.0-9.0-0.1","spark_pilot_2","7792","1","22","Female","","","","","","","719.4000000059605","<p> If you see the robber, you should <b>press the space bar</b> rather than using the arrow keys. </p>
            <p> Try practicing that now! </p>","","instructions","","","","","","","","","","","","","",""
"revaluation","51","324401","0.0-3.0-10.0-0.0","spark_pilot_2","7792","1","22","Female","","false","","","","","[1275.5999999940395]","./assets/img/space/catch/0.jpg","[""spaceBar""]","catch practice","space","0","{""ArrowUp,ArrowLeft"":3,""ArrowUp,ArrowRight"":36,""ArrowDown,ArrowLeft"":15,""ArrowDown,ArrowRight"":23}","true","spaceBar","true","","","","","","","",""
"html-keyboard-response","52","324911","0.0-3.0-10.0-1.0","spark_pilot_2","7792","1","22","Female","","","","","","","null","<div style=""font-size:60px;"">+</div>","null","fixation","","","","","","","","","","","","","",""
"revaluation","53","328928","0.0-3.0-10.0-0.1","spark_pilot_2","7792","1","22","Female","","false","","","","","[607.9000000059605]","./assets/img/space/catch/1.jpg","[""spaceBar""]","catch practice","space","0","{""ArrowUp,ArrowLeft"":3,""ArrowUp,ArrowRight"":36,""ArrowDown,ArrowLeft"":15,""ArrowDown,ArrowRight"":23}","true","spaceBar","true","","","","","","","",""
"html-keyboard-response","54","329430","0.0-3.0-10.0-1.1","spark_pilot_2","7792","1","22","Female","","","","","","","null","<div style=""font-size:60px;"">+</div>","null","fixation","","","","","","","","","","","","","",""
"revaluation","55","333446","0.0-3.0-10.0-0.2","spark_pilot_2","7792","1","22","Female","","false","","","","","[745.7999999821186]","./assets/img/space/catch/2.jpg","[""spaceBar""]","catch practice","space","0","{""ArrowUp,ArrowLeft"":3,""ArrowUp,ArrowRight"":36,""ArrowDown,ArrowLeft"":15,""ArrowDown,ArrowRight"":23}","true","spaceBar","true","","","","","","","",""
"html-keyboard-response","56","333954","0.0-3.0-10.0-1.2","spark_pilot_2","7792","1","22","Female","","","","","","","null","<div style=""font-size:60px;"">+</div>","null","fixation","","","","","","","","","","","","","",""
"learning-instructions","57","357560","0.0-3.0-11.0-0.0","spark_pilot_2","7792","1","22","Female","","","","","","","10011.90000000596","<p> After you explore a place to find treasure, it will be time to play a different game. </p>
            <p> During this game, red dots will appear on the screen and fall down slowly. </p>
            <p><b> You must click on them before they reach the bottom. </b></p>
            <img src='./assets/img/instructions/dotGame.jpg' class='instructions-image'>","","instructions","","","","","","","","","","","","","",""
"learning-instructions","58","364167","0.0-3.0-11.0-0.1","spark_pilot_2","7792","1","22","Female","","","","","","","928.8000000119209","<p> For every dot you click, you will earn additional treasure. </p>
            <p> Let’s try practicing that now. </p>","","instructions","","","","","","","","","","","","","",""
"revaluation","59","379187","0.0-3.0-12.0-0.0","spark_pilot_2","7792","1","22","Female","","","","","","","[91]","","","rest practice","","10","","","","","0","15000","","","","","",""
"learning-instructions","60","390753","0.0-3.0-13.0-0.0-0.0","spark_pilot_2","7792","1","22","Female","","","","","","","6310.800000011921","<p> Now, you will practice a shortened version of the game to get a sense of how it all fits together. </p>","","instructions","","","","","","","","","","","","","",""
"learning-instructions","61","394577","0.0-3.0-13.0-0.0-0.1","spark_pilot_2","7792","1","22","Female","","","","","","","631.5999999940395","<p>This time you are searching for treasure in outer space.</p>","","instructions","","","","","","","","","","","","","",""
"learning-instructions","62","409968","0.0-3.0-13.0-1.0-0.0","spark_pilot_2","7792","1","22","Female","","","","","","","620.5999999940395","<p> Remember, when you see a picture of the place, use the up and down keys to <b>find an animal</b>.</p>
            <p> When you encounter an animal, you should use the left and right keys to <b>select a treasure chest</b>.</p>
            <p> Don't forget to look out for the robber! </p>","","instructions","","","","","","","","","","","","","",""
"revaluation","63","415993","0.0-3.0-13.0-2.0-0.0","spark_pilot_2","7792","1","22","Female","","false","","","","","[1409.0999999940395,640.3999999761581]","./assets/img/space/11.jpg","[""ArrowDown"",""ArrowRight""]","practice block","space","23","{""ArrowUp,ArrowLeft"":3,""ArrowUp,ArrowRight"":36,""ArrowDown,ArrowLeft"":15,""ArrowDown,ArrowRight"":23}","false","ArrowDown,ArrowRight","false","","","","","","","",""
"html-keyboard-response","64","416501","0.0-3.0-13.0-2.0-1.0","spark_pilot_2","7792","1","22","Female","","","","","","","null","<div style=""font-size:60px;"">+</div>","null","fixation","","","","","","","","","","","","","",""
"revaluation","65","422526","0.0-3.0-13.0-2.0-0.1","spark_pilot_2","7792","1","22","Female","","false","","","","","[910.8999999761581,472.69999998807907]","./assets/img/space/12.jpg","[""ArrowDown"",""ArrowRight""]","practice block","space","23","{""ArrowUp,ArrowLeft"":3,""ArrowUp,ArrowRight"":36,""ArrowDown,ArrowLeft"":15,""ArrowDown,ArrowRight"":23}","false","ArrowDown,ArrowRight","false","","","","","","","",""
"html-keyboard-response","66","423032","0.0-3.0-13.0-2.0-1.1","spark_pilot_2","7792","1","22","Female","","","","","","","null","<div style=""font-size:60px;"">+</div>","null","fixation","","","","","","","","","","","","","",""
"revaluation","67","429053","0.0-3.0-13.0-2.0-0.2","spark_pilot_2","7792","1","22","Female","","false","","","","","[734.5,535.8000000119209]","./assets/img/space/13.jpg","[""ArrowUp"",""ArrowRight""]","practice block","space","36","{""ArrowUp,ArrowLeft"":3,""ArrowUp,ArrowRight"":36,""ArrowDown,ArrowLeft"":15,""ArrowDown,ArrowRight"":23}","true","ArrowUp,ArrowRight","false","","","","","","","",""
"html-keyboard-response","68","429560","0.0-3.0-13.0-2.0-1.2","spark_pilot_2","7792","1","22","Female","","","","","","","null","<div style=""font-size:60px;"">+</div>","null","fixation","","","","","","","","","","","","","",""
"revaluation","69","435581","0.0-3.0-13.0-2.0-0.3","spark_pilot_2","7792","1","22","Female","","false","","","","","[717.5,438]","./assets/img/space/14.jpg","[""ArrowUp"",""ArrowRight""]","practice block","space","36","{""ArrowUp,ArrowLeft"":3,""ArrowUp,ArrowRight"":36,""ArrowDown,ArrowLeft"":15,""ArrowDown,ArrowRight"":23}","true","ArrowUp,ArrowRight","false","","","","","","","",""
"html-keyboard-response","70","436088","0.0-3.0-13.0-2.0-1.3","spark_pilot_2","7792","1","22","Female","","","","","","","null","<div style=""font-size:60px;"">+</div>","null","fixation","","","","","","","","","","","","","",""
"revaluation","71","442110","0.0-3.0-13.0-2.0-0.4","spark_pilot_2","7792","1","22","Female","","false","","","","","[820.4000000059605,781]","./assets/img/space/11.jpg","[""ArrowUp"",""ArrowRight""]","practice block","space","36","{""ArrowUp,ArrowLeft"":3,""ArrowUp,ArrowRight"":36,""ArrowDown,ArrowLeft"":15,""ArrowDown,ArrowRight"":23}","true","ArrowUp,ArrowRight","false","","","","","","","",""
"html-keyboard-response","72","442617","0.0-3.0-13.0-2.0-1.4","spark_pilot_2","7792","1","22","Female","","","","","","","null","<div style=""font-size:60px;"">+</div>","null","fixation","","","","","","","","","","","","","",""
"revaluation","73","448649","0.0-3.0-13.0-2.0-0.5","spark_pilot_2","7792","1","22","Female","","false","","","","","[772.7999999821186,413.39999997615814]","./assets/img/space/12.jpg","[""ArrowUp"",""ArrowRight""]","practice block","space","36","{""ArrowUp,ArrowLeft"":3,""ArrowUp,ArrowRight"":36,""ArrowDown,ArrowLeft"":15,""ArrowDown,ArrowRight"":23}","true","ArrowUp,ArrowRight","false","","","","","","","",""
"html-keyboard-response","74","449161","0.0-3.0-13.0-2.0-1.5","spark_pilot_2","7792","1","22","Female","","","","","","","null","<div style=""font-size:60px;"">+</div>","null","fixation","","","","","","","","","","","","","",""
"revaluation","75","455193","0.0-3.0-13.0-2.0-0.6","spark_pilot_2","7792","1","22","Female","","false","","","","","[773.6000000238419,364.30000001192093]","./assets/img/space/13.jpg","[""ArrowUp"",""ArrowRight""]","practice block","space","36","{""ArrowUp,ArrowLeft"":3,""ArrowUp,ArrowRight"":36,""ArrowDown,ArrowLeft"":15,""ArrowDown,ArrowRight"":23}","true","ArrowUp,ArrowRight","false","","","","","","","",""
"html-keyboard-response","76","455705","0.0-3.0-13.0-2.0-1.6","spark_pilot_2","7792","1","22","Female","","","","","","","null","<div style=""font-size:60px;"">+</div>","null","fixation","","","","","","","","","","","","","",""
"revaluation","77","461726","0.0-3.0-13.0-2.0-0.7","spark_pilot_2","7792","1","22","Female","","false","","","","","[865.7000000178814,369.59999999403954]","./assets/img/space/14.jpg","[""ArrowUp"",""ArrowRight""]","practice block","space","36","{""ArrowUp,ArrowLeft"":3,""ArrowUp,ArrowRight"":36,""ArrowDown,ArrowLeft"":15,""ArrowDown,ArrowRight"":23}","true","ArrowUp,ArrowRight","false","","","","","","","",""
"html-keyboard-response","78","462232","0.0-3.0-13.0-2.0-1.7","spark_pilot_2","7792","1","22","Female","","","","","","","null","<div style=""font-size:60px;"">+</div>","null","fixation","","","","","","","","","","","","","",""
"revaluation","79","466249","0.0-3.0-13.0-2.0-0.8","spark_pilot_2","7792","1","22","Female","","false","","","","","[1277.0999999940395]","./assets/img/space/catch/3.jpg","[""spaceBar""]","practice block","space","0","{""ArrowUp,ArrowLeft"":3,""ArrowUp,ArrowRight"":36,""ArrowDown,ArrowLeft"":15,""ArrowDown,ArrowRight"":23}","true","spaceBar","true","","","","","","","",""
"html-keyboard-response","80","466758","0.0-3.0-13.0-2.0-1.8","spark_pilot_2","7792","1","22","Female","","","","","","","null","<div style=""font-size:60px;"">+</div>","null","fixation","","","","","","","","","","","","","",""
"learning-instructions","81","482002","0.0-3.0-13.0-3.0-0.0","spark_pilot_2","7792","1","22","Female","","","","","","","2269.399999976158","<p> Now, you will travel with a friend who will choose whether you go up or down first. </p>
            <p> On these turns, you will just see the animal that they found. You will still get to choose which chest to search for treasure.</p>","","instructions","","","","","","","","","","","","","",""
"revaluation","82","486020","0.0-3.0-13.0-4.0-0.0","spark_pilot_2","7792","1","22","Female","","false","","","","","[1551.9000000059605]","./assets/img/space/animals/rabbit.jpg","[""ArrowRight""]","practice block","space","23","{""ArrowUp,ArrowLeft"":3,""ArrowUp,ArrowRight"":36,""ArrowDown,ArrowLeft"":15,""ArrowDown,ArrowRight"":23}","true","ArrowDown,ArrowRight","","","","","","","","",""
"html-keyboard-response","83","486526","0.0-3.0-13.0-4.0-1.0","spark_pilot_2","7792","1","22","Female","","","","","","","null","<div style=""font-size:60px;"">+</div>","null","fixation","","","","","","","","","","","","","",""
"revaluation","84","490542","0.0-3.0-13.0-4.0-0.1","spark_pilot_2","7792","1","22","Female","","false","","","","","[719.7000000178814]","./assets/img/space/animals/cat.jpg","[""ArrowRight""]","practice block","space","36","{""ArrowUp,ArrowLeft"":3,""ArrowUp,ArrowRight"":36,""ArrowDown,ArrowLeft"":15,""ArrowDown,ArrowRight"":23}","true","ArrowUp,ArrowRight","","","","","","","","",""
"html-keyboard-response","85","491054","0.0-3.0-13.0-4.0-1.1","spark_pilot_2","7792","1","22","Female","","","","","","","null","<div style=""font-size:60px;"">+</div>","null","fixation","","","","","","","","","","","","","",""
"revaluation","86","495070","0.0-3.0-13.0-4.0-0.2","spark_pilot_2","7792","1","22","Female","","false","","","","","[545.5999999940395]","./assets/img/space/animals/rabbit.jpg","[""ArrowRight""]","practice block","space","23","{""ArrowUp,ArrowLeft"":3,""ArrowUp,ArrowRight"":36,""ArrowDown,ArrowLeft"":15,""ArrowDown,ArrowRight"":23}","true","ArrowDown,ArrowRight","","","","","","","","",""
"html-keyboard-response","87","495571","0.0-3.0-13.0-4.0-1.2","spark_pilot_2","7792","1","22","Female","","","","","","","null","<div style=""font-size:60px;"">+</div>","null","fixation","","","","","","","","","","","","","",""
"revaluation","88","499587","0.0-3.0-13.0-4.0-0.3","spark_pilot_2","7792","1","22","Female","","false","","","","","[529.1000000238419]","./assets/img/space/animals/cat.jpg","[""ArrowRight""]","practice block","space","36","{""ArrowUp,ArrowLeft"":3,""ArrowUp,ArrowRight"":36,""ArrowDown,ArrowLeft"":15,""ArrowDown,ArrowRight"":23}","true","ArrowUp,ArrowRight","","","","","","","","",""
"html-keyboard-response","89","500094","0.0-3.0-13.0-4.0-1.3","spark_pilot_2","7792","1","22","Female","","","","","","","null","<div style=""font-size:60px;"">+</div>","null","fixation","","","","","","","","","","","","","",""
"learning-instructions","90","509201","0.0-3.0-13.0-5.0-0.0","spark_pilot_2","7792","1","22","Female","","","","","","","1736.199999988079","<p> Time to play the dot game! </p>
            <p> For 15 seconds, click the red dots on the following screen as they appear. </p>","","instructions","","","","","","","","","","","","","",""
"revaluation","91","524205","0.0-3.0-13.0-6.0-0.0","spark_pilot_2","7792","1","22","Female","","","","","","","[87]","","","rest practice","","10","","","","","0","15000","","","","","",""
"learning-instructions","92","531283","0.0-3.0-13.0-7.0-0.0","spark_pilot_2","7792","1","22","Female","","","","","","","949.9000000059605","<p> You have almost finished this part of the game! </p>
            <p> We are going to ask you to make a few more choices. </p>","","instructions","","","","","","","","","","","","","",""
"learning-instructions","93","551069","0.0-3.0-13.0-7.0-0.1","spark_pilot_2","7792","1","22","Female","","","","","","","5771","<p> First, you need to decide whether to go up or down. When you see each picture, use the arrow keys to make your choice. </p>
            <p><b>You will not see which animal you found, but try to get to the one that will give you the most treasure.</b></p>","","instructions","","","","","","","","","","","","","",""
"revaluation","94","553412","0.0-3.0-13.0-8.0","spark_pilot_2","7792","1","22","Female","","false","","","","","[2340.100000023842]","./assets/img/space/15.jpg","[""ArrowUp""]","practice block","space","0","{""ArrowUp,ArrowLeft"":3,""ArrowUp,ArrowRight"":36,""ArrowDown,ArrowLeft"":15,""ArrowDown,ArrowRight"":23}","true","ArrowUp","false","","","","","","","",""
"html-keyboard-response","95","553916","0.0-3.0-13.0-9.0","spark_pilot_2","7792","1","22","Female","","","","","","","null","<div style=""font-size:60px;"">+</div>","null","fixation","","","","","","","","","","","","","",""
"learning-instructions","96","578407","0.0-3.0-13.0-10.0-0.0","spark_pilot_2","7792","1","22","Female","","","","","","","13109.299999982119","<p> Now you will see the animals again and can search their chests for treasure. </p>
            <p> This time, you will not see how much treasure you earned, but you will earn more bonus money for making better choices. </p>","","instructions","","","","","","","","","","","","","",""
"revaluation","97","579400","0.0-3.0-13.0-11.0-0.0","spark_pilot_2","7792","1","22","Female","","false","","","","","[991]","./assets/img/space/animals/cat.jpg","[""ArrowRight""]","practice block","space","0","{""ArrowUp,ArrowLeft"":3,""ArrowUp,ArrowRight"":36,""ArrowDown,ArrowLeft"":15,""ArrowDown,ArrowRight"":23}","true","ArrowUp,ArrowRight","","","","","","","","",""
"html-keyboard-response","98","579910","0.0-3.0-13.0-11.0-1.0","spark_pilot_2","7792","1","22","Female","","","","","","","null","<div style=""font-size:60px;"">+</div>","null","fixation","","","","","","","","","","","","","",""
"revaluation","99","580908","0.0-3.0-13.0-11.0-0.1","spark_pilot_2","7792","1","22","Female","","false","","","","","[994.8000000119209]","./assets/img/space/animals/rabbit.jpg","[""ArrowRight""]","practice block","space","0","{""ArrowUp,ArrowLeft"":3,""ArrowUp,ArrowRight"":36,""ArrowDown,ArrowLeft"":15,""ArrowDown,ArrowRight"":23}","true","ArrowDown,ArrowRight","","","","","","","","",""
"html-keyboard-response","100","581413","0.0-3.0-13.0-11.0-1.1","spark_pilot_2","7792","1","22","Female","","","","","","","null","<div style=""font-size:60px;"">+</div>","null","fixation","","","","","","","","","","","","","",""
"learning-instructions","101","587109","0.0-3.0-14.0-0.0","spark_pilot_2","7792","1","22","Female","","","","","","","1114.0999999940395","<p> Before you start, we're going to ask you a few questions about how the game works. </p>","","instructions","","","","","","","","","","","","","",""
"comp-q","102","596409","0.0-3.0-15.0-0.0-0.0","spark_pilot_2","7792","1","22","Female","","","","","","","3710.0999999940395","<p> <b> True or False? </b> </p>
            <p> There can be 50 pieces of treasure in a given animal's chest. </p>","0","comp_question","","","","false","","","","","","","","","",""
"comp-q","103","604418","0.0-3.0-15.0-0.0-1.0","spark_pilot_2","7792","1","22","Female","","","","","","","1484.7000000178814","<p> <b>Incorrect.</b> The amount of treasure in each chest can range from 0 to 40 pieces. </p>","0","comp_answer","","","","","","","","","","","","","",""
"comp-q","104","610737","0.0-3.0-15.0-0.1-0.1","spark_pilot_2","7792","1","22","Female","","","","","","","753","<p> <b> True or False? </b> </p>
            <p> There can be 50 pieces of treasure in a given animal's chest. </p>","1","comp_question","","","","true","","","","","","","","","",""
"comp-q","105","618464","0.0-3.0-15.0-0.1-1.1","spark_pilot_2","7792","1","22","Female","","","","","","","1067.699999988079","<p> <b> That's right! </b> The amount of treasure in each chest can range from 0 to 40 pieces. </p>","0","comp_answer","","","","","","","","","","","","","",""
"comp-q","106","627173","0.0-3.0-15.0-0.2-0.2","spark_pilot_2","7792","1","22","Female","","","","","","","1504.9000000059605","<p> <b> True or False? </b> </p><p> In this game, all animals have the same amount of treasure in their left and right chests. </p>","1","comp_question","","","","true","","","","","","","","","",""
"comp-q","107","633553","0.0-3.0-15.0-0.2-1.2","spark_pilot_2","7792","1","22","Female","","","","","","","1144.1000000238419","<p> <b> That's right! </b> Animals have different amounts of treasure in their treasure chests. </p>","0","comp_answer","","","","","","","","","","","","","",""
"comp-q","108","640820","0.0-3.0-15.0-0.3-0.3","spark_pilot_2","7792","1","22","Female","","","","","","","1418.4000000059605","<p> <b> True or False? </b> </p><p> The same animal will always be there if you go up in the same place. </p>","1","comp_question","","","","false","","","","","","","","","",""
"comp-q","109","648300","0.0-3.0-15.0-0.3-1.3","spark_pilot_2","7792","1","22","Female","","","","","","","1170.7000000178814","<p> <b>Incorrect.</b> One animal lives in the upper part and one lives in the lower part of every place. </p>","0","comp_answer","","","","","","","","","","","","","",""
"comp-q","110","654738","0.0-3.0-15.0-0.4-0.4","spark_pilot_2","7792","1","22","Female","","","","","","","617.3000000119209","<p> <b> True or False? </b> </p><p> The same animal will always be there if you go up in the same place. </p>","0","comp_question","","","","true","","","","","","","","","",""
"comp-q","111","662021","0.0-3.0-15.0-0.4-1.4","spark_pilot_2","7792","1","22","Female","","","","","","","834.2999999821186","<p> <b> That's right! </b> One animal lives in the upper part and one lives in the lower part of every place. </p>","0","comp_answer","","","","","","","","","","","","","",""
"comp-q","112","668969","0.0-3.0-15.0-0.5-0.5","spark_pilot_2","7792","1","22","Female","","","","","","","1418.800000011921","<p> <b> True or False? </b> </p><p> If you see a different picture, it means you are in a new place. </p>","1","comp_question","","","","true","","","","","","","","","",""
"comp-q","113","690038","0.0-3.0-15.0-0.5-1.5","spark_pilot_2","7792","1","22","Female","","","","","","","9833.699999988079","<p> <b> That's right! </b> Lots of different images may show the same place. For example,  you may see three different images that all remind you that you are in outer space. </p>","0","comp_answer","","","","","","","","","","","","","",""
"learning-instructions","114","701519","0.0-3.0-16.0-0.0","spark_pilot_2","7792","1","22","Female","","","","","","","1624.5","<p> Good job. Remember to do your best because the amount of treasure you earn will be converted into bonus money. </p>
            <p> It’s time to start the real game! </p>","","instructions","","","","","","","","","","","","","",""
"learning-instructions","115","705430","0.0-4.0-0.0-0.0","spark_pilot_2","7792","1","22","Female","","","","","","","1199","<p> This time you are searching for treasure in the <b>ocean</b>.</p>","","instructions","","","","","","","","","","","","","",""
"learning-instructions","116","734168","0.0-4.0-0.0-0.1","spark_pilot_2","7792","1","22","Female","","","","","","","11431.799999982119","<p><b>New</b> animals with <b>new</b> treasure chests live here. You need to explore to discover where the animal with the best treasure chest is.</p>
                    <p> Like before, once you figure out which animal has the chest with the most treasure, you should try to get to that animal and select that chest! </p>","","instructions","","","","","","","","","","","","","",""
"learning-instructions","117","751581","0.0-4.0-1.0-0.0","spark_pilot_2","7792","1","22","Female","","","","","","","2685.699999988079","<p> Remember, when you see a picture of the place, use the up and down keys to <b>find an animal</b>.</p>
            <p> When you encounter an animal, you should use the left and right keys to <b>select a treasure chest</b>.</p>
            <p> Don't forget to look out for the robber! </p>","","instructions","","","","","","","","","","","","","",""
"revaluation","118","757610","0.0-4.0-2.0-0.0","spark_pilot_2","7792","1","22","Female","","false","","","","","[882.5999999940395,597.8000000119209]","./assets/img/ocean/memory/0.jpg","[""ArrowDown"",""ArrowLeft""]","value training","ocean","5","{""ArrowUp,ArrowLeft"":26,""ArrowUp,ArrowRight"":10,""ArrowDown,ArrowLeft"":5,""ArrowDown,ArrowRight"":17}","false","ArrowDown,ArrowLeft","false","","","original","1","0","","",""
"html-keyboard-response","119","758124","0.0-4.0-2.0-1.0","spark_pilot_2","7792","1","22","Female","","","","","","","null","<div style=""font-size:60px;"">+</div>","null","fixation","","","","","","","","","","","1","","",""
"revaluation","120","764153","0.0-4.0-2.0-0.1","spark_pilot_2","7792","1","22","Female","","false","","","","","[384.09999999403954,330.90000000596046]","./assets/img/ocean/memory/5.jpg","[""ArrowDown"",""ArrowRight""]","value training","ocean","17","{""ArrowUp,ArrowLeft"":26,""ArrowUp,ArrowRight"":10,""ArrowDown,ArrowLeft"":5,""ArrowDown,ArrowRight"":17}","false","ArrowDown,ArrowRight","false","","","original","1","2","","",""
"html-keyboard-response","121","764660","0.0-4.0-2.0-1.1","spark_pilot_2","7792","1","22","Female","","","","","","","null","<div style=""font-size:60px;"">+</div>","null","fixation","","","","","","","","","","","3","","",""
"revaluation","122","770692","0.0-4.0-2.0-0.2","spark_pilot_2","7792","1","22","Female","","false","","","","","[293.09999999403954,365.7999999821186]","./assets/img/ocean/memory/1.jpg","[""ArrowUp"",""ArrowLeft""]","value training","ocean","26","{""ArrowUp,ArrowLeft"":26,""ArrowUp,ArrowRight"":10,""ArrowDown,ArrowLeft"":5,""ArrowDown,ArrowRight"":17}","true","ArrowUp,ArrowLeft","false","","","original","1","4","","",""
"html-keyboard-response","123","771202","0.0-4.0-2.0-1.2","spark_pilot_2","7792","1","22","Female","","","","","","","null","<div style=""font-size:60px;"">+</div>","null","fixation","","","","","","","","","","","5","","",""
"revaluation","124","777224","0.0-4.0-2.0-0.3","spark_pilot_2","7792","1","22","Female","","false","","","","","[367.30000001192093,423]","./assets/img/ocean/memory/12.jpg","[""ArrowUp"",""ArrowRight""]","value training","ocean","10","{""ArrowUp,ArrowLeft"":26,""ArrowUp,ArrowRight"":10,""ArrowDown,ArrowLeft"":5,""ArrowDown,ArrowRight"":17}","false","ArrowUp,ArrowRight","false","","","original","1","6","","",""
"html-keyboard-response","125","777727","0.0-4.0-2.0-1.3","spark_pilot_2","7792","1","22","Female","","","","","","","null","<div style=""font-size:60px;"">+</div>","null","fixation","","","","","","","","","","","7","","",""
"revaluation","126","783754","0.0-4.0-2.0-0.4","spark_pilot_2","7792","1","22","Female","","false","","","","","[610.0999999940395,349.7999999821186]","./assets/img/ocean/memory/41.jpg","[""ArrowUp"",""ArrowLeft""]","value training","ocean","26","{""ArrowUp,ArrowLeft"":26,""ArrowUp,ArrowRight"":10,""ArrowDown,ArrowLeft"":5,""ArrowDown,ArrowRight"":17}","true","ArrowUp,ArrowLeft","false","","","original","1","8","","",""
"html-keyboard-response","127","784266","0.0-4.0-2.0-1.4","spark_pilot_2","7792","1","22","Female","","","","","","","null","<div style=""font-size:60px;"">+</div>","null","fixation","","","","","","","","","","","9","","",""
"revaluation","128","790291","0.0-4.0-2.0-0.5","spark_pilot_2","7792","1","22","Female","","false","","","","","[575.7000000178814,334.7000000178814]","./assets/img/ocean/memory/23.jpg","[""ArrowUp"",""ArrowLeft""]","value training","ocean","26","{""ArrowUp,ArrowLeft"":26,""ArrowUp,ArrowRight"":10,""ArrowDown,ArrowLeft"":5,""ArrowDown,ArrowRight"":17}","true","ArrowUp,ArrowLeft","false","","","original","1","10","","",""
"html-keyboard-response","129","790801","0.0-4.0-2.0-1.5","spark_pilot_2","7792","1","22","Female","","","","","","","null","<div style=""font-size:60px;"">+</div>","null","fixation","","","","","","","","","","","11","","",""
"revaluation","130","796825","0.0-4.0-2.0-0.6","spark_pilot_2","7792","1","22","Female","","false","","","","","[709.7999999821186,324.69999998807907]","./assets/img/ocean/memory/31.jpg","[""ArrowUp"",""ArrowLeft""]","value training","ocean","26","{""ArrowUp,ArrowLeft"":26,""ArrowUp,ArrowRight"":10,""ArrowDown,ArrowLeft"":5,""ArrowDown,ArrowRight"":17}","true","ArrowUp,ArrowLeft","false","","","original","1","12","","",""
"html-keyboard-response","131","797327","0.0-4.0-2.0-1.6","spark_pilot_2","7792","1","22","Female","","","","","","","null","<div style=""font-size:60px;"">+</div>","null","fixation","","","","","","","","","","","13","","",""
"revaluation","132","801343","0.0-4.0-2.0-0.7","spark_pilot_2","7792","1","22","Female","","false","","","","","[1112.3999999761581]","./assets/img/ocean/catch/3.jpg","[""spaceBar""]","value training","ocean","0","{""ArrowUp,ArrowLeft"":26,""ArrowUp,ArrowRight"":10,""ArrowDown,ArrowLeft"":5,""ArrowDown,ArrowRight"":17}","true","spaceBar","true","","","original","1","14","","",""
"html-keyboard-response","133","801850","0.0-4.0-2.0-1.7","spark_pilot_2","7792","1","22","Female","","","","","","","null","<div style=""font-size:60px;"">+</div>","null","fixation","","","","","","","","","","","15","","",""
"revaluation","134","807874","0.0-4.0-2.0-0.8","spark_pilot_2","7792","1","22","Female","","false","","","","","[675.8000000119209,375.2000000178814]","./assets/img/ocean/memory/39.jpg","[""ArrowUp"",""ArrowLeft""]","value training","ocean","26","{""ArrowUp,ArrowLeft"":26,""ArrowUp,ArrowRight"":10,""ArrowDown,ArrowLeft"":5,""ArrowDown,ArrowRight"":17}","true","ArrowUp,ArrowLeft","false","","","original","1","16","","",""
"html-keyboard-response","135","808383","0.0-4.0-2.0-1.8","spark_pilot_2","7792","1","22","Female","","","","","","","null","<div style=""font-size:60px;"">+</div>","null","fixation","","","","","","","","","","","17","","",""
"revaluation","136","814410","0.0-4.0-2.0-0.9","spark_pilot_2","7792","1","22","Female","","false","","","","","[823.5,339.19999998807907]","./assets/img/ocean/memory/3.jpg","[""ArrowUp"",""ArrowLeft""]","value training","ocean","26","{""ArrowUp,ArrowLeft"":26,""ArrowUp,ArrowRight"":10,""ArrowDown,ArrowLeft"":5,""ArrowDown,ArrowRight"":17}","true","ArrowUp,ArrowLeft","false","","","original","1","18","","",""
"html-keyboard-response","137","814921","0.0-4.0-2.0-1.9","spark_pilot_2","7792","1","22","Female","","","","","","","null","<div style=""font-size:60px;"">+</div>","null","fixation","","","","","","","","","","","19","","",""
"revaluation","138","820943","0.0-4.0-2.0-0.10","spark_pilot_2","7792","1","22","Female","","false","","","","","[566.4000000059605,383.09999999403954]","./assets/img/ocean/memory/25.jpg","[""ArrowUp"",""ArrowLeft""]","value training","ocean","26","{""ArrowUp,ArrowLeft"":26,""ArrowUp,ArrowRight"":10,""ArrowDown,ArrowLeft"":5,""ArrowDown,ArrowRight"":17}","true","ArrowUp,ArrowLeft","false","","","original","1","20","","",""
"html-keyboard-response","139","821449","0.0-4.0-2.0-1.10","spark_pilot_2","7792","1","22","Female","","","","","","","null","<div style=""font-size:60px;"">+</div>","null","fixation","","","","","","","","","","","21","","",""
"revaluation","140","825466","0.0-4.0-2.0-0.11","spark_pilot_2","7792","1","22","Female","","false","","","","","[745.9000000059605]","./assets/img/ocean/catch/0.jpg","[""spaceBar""]","value training","ocean","0","{""ArrowUp,ArrowLeft"":26,""ArrowUp,ArrowRight"":10,""ArrowDown,ArrowLeft"":5,""ArrowDown,ArrowRight"":17}","true","spaceBar","true","","","original","1","22","","",""
"html-keyboard-response","141","825977","0.0-4.0-2.0-1.11","spark_pilot_2","7792","1","22","Female","","","","","","","null","<div style=""font-size:60px;"">+</div>","null","fixation","","","","","","","","","","","23","","",""
"revaluation","142","832001","0.0-4.0-2.0-0.12","spark_pilot_2","7792","1","22","Female","","false","","","","","[592.4000000059605,277.09999999403954]","./assets/img/ocean/memory/26.jpg","[""ArrowUp"",""ArrowLeft""]","value training","ocean","26","{""ArrowUp,ArrowLeft"":26,""ArrowUp,ArrowRight"":10,""ArrowDown,ArrowLeft"":5,""ArrowDown,ArrowRight"":17}","true","ArrowUp,ArrowLeft","false","","","original","1","24","","",""
"html-keyboard-response","143","832510","0.0-4.0-2.0-1.12","spark_pilot_2","7792","1","22","Female","","","","","","","null","<div style=""font-size:60px;"">+</div>","null","fixation","","","","","","","","","","","25","","",""
"revaluation","144","838537","0.0-4.0-2.0-0.13","spark_pilot_2","7792","1","22","Female","","false","","","","","[527.6999999880791,498.7999999821186]","./assets/img/ocean/memory/16.jpg","[""ArrowUp"",""ArrowLeft""]","value training","ocean","26","{""ArrowUp,ArrowLeft"":26,""ArrowUp,ArrowRight"":10,""ArrowDown,ArrowLeft"":5,""ArrowDown,ArrowRight"":17}","true","ArrowUp,ArrowLeft","false","","","original","1","26","","",""
"html-keyboard-response","145","839049","0.0-4.0-2.0-1.13","spark_pilot_2","7792","1","22","Female","","","","","","","null","<div style=""font-size:60px;"">+</div>","null","fixation","","","","","","","","","","","27","","",""
"revaluation","146","843057","0.0-4.0-2.0-0.14","spark_pilot_2","7792","1","22","Female","","false","","","","","[938.8999999761581]","./assets/img/ocean/catch/7.jpg","[""spaceBar""]","value training","ocean","0","{""ArrowUp,ArrowLeft"":26,""ArrowUp,ArrowRight"":10,""ArrowDown,ArrowLeft"":5,""ArrowDown,ArrowRight"":17}","true","spaceBar","true","","","original","1","28","","",""
"html-keyboard-response","147","843566","0.0-4.0-2.0-1.14","spark_pilot_2","7792","1","22","Female","","","","","","","null","<div style=""font-size:60px;"">+</div>","null","fixation","","","","","","","","","","","29","","",""
"revaluation","148","849593","0.0-4.0-2.0-0.15","spark_pilot_2","7792","1","22","Female","","false","","","","","[673.5,325.2000000178814]","./assets/img/ocean/memory/36.jpg","[""ArrowUp"",""ArrowLeft""]","value training","ocean","26","{""ArrowUp,ArrowLeft"":26,""ArrowUp,ArrowRight"":10,""ArrowDown,ArrowLeft"":5,""ArrowDown,ArrowRight"":17}","true","ArrowUp,ArrowLeft","false","","","original","1","30","","",""
"html-keyboard-response","149","850105","0.0-4.0-2.0-1.15","spark_pilot_2","7792","1","22","Female","","","","","","","null","<div style=""font-size:60px;"">+</div>","null","fixation","","","","","","","","","","","31","","",""
"revaluation","150","856126","0.0-4.0-2.0-0.16","spark_pilot_2","7792","1","22","Female","","false","","","","","[645.5,533.5]","./assets/img/ocean/memory/1.jpg","[""ArrowUp"",""ArrowLeft""]","value training","ocean","26","{""ArrowUp,ArrowLeft"":26,""ArrowUp,ArrowRight"":10,""ArrowDown,ArrowLeft"":5,""ArrowDown,ArrowRight"":17}","true","ArrowUp,ArrowLeft","false","","","original","1","32","","",""
"html-keyboard-response","151","856633","0.0-4.0-2.0-1.16","spark_pilot_2","7792","1","22","Female","","","","","","","null","<div style=""font-size:60px;"">+</div>","null","fixation","","","","","","","","","","","33","","",""
"revaluation","152","862655","0.0-4.0-2.0-0.17","spark_pilot_2","7792","1","22","Female","","false","","","","","[648.5999999940395,302.7000000178814]","./assets/img/ocean/memory/4.jpg","[""ArrowUp"",""ArrowLeft""]","value training","ocean","26","{""ArrowUp,ArrowLeft"":26,""ArrowUp,ArrowRight"":10,""ArrowDown,ArrowLeft"":5,""ArrowDown,ArrowRight"":17}","true","ArrowUp,ArrowLeft","false","","","original","1","34","","",""
"html-keyboard-response","153","863161","0.0-4.0-2.0-1.17","spark_pilot_2","7792","1","22","Female","","","","","","","null","<div style=""font-size:60px;"">+</div>","null","fixation","","","","","","","","","","","35","","",""
"revaluation","154","869182","0.0-4.0-2.0-0.18","spark_pilot_2","7792","1","22","Female","","false","","","","","[773.2000000178814,364.60000002384186]","./assets/img/ocean/memory/40.jpg","[""ArrowUp"",""ArrowLeft""]","value training","ocean","26","{""ArrowUp,ArrowLeft"":26,""ArrowUp,ArrowRight"":10,""ArrowDown,ArrowLeft"":5,""ArrowDown,ArrowRight"":17}","true","ArrowUp,ArrowLeft","false","","","original","1","36","","",""
"html-keyboard-response","155","869690","0.0-4.0-2.0-1.18","spark_pilot_2","7792","1","22","Female","","","","","","","null","<div style=""font-size:60px;"">+</div>","null","fixation","","","","","","","","","","","37","","",""
"revaluation","156","875721","0.0-4.0-2.0-0.19","spark_pilot_2","7792","1","22","Female","","false","","","","","[698,367.39999997615814]","./assets/img/ocean/memory/36.jpg","[""ArrowUp"",""ArrowLeft""]","value training","ocean","26","{""ArrowUp,ArrowLeft"":26,""ArrowUp,ArrowRight"":10,""ArrowDown,ArrowLeft"":5,""ArrowDown,ArrowRight"":17}","true","ArrowUp,ArrowLeft","false","","","original","1","38","","",""
"html-keyboard-response","157","876232","0.0-4.0-2.0-1.19","spark_pilot_2","7792","1","22","Female","","","","","","","null","<div style=""font-size:60px;"">+</div>","null","fixation","","","","","","","","","","","39","","",""
"revaluation","158","882254","0.0-4.0-2.0-0.20","spark_pilot_2","7792","1","22","Female","","false","","","","","[579.2999999821186,340.60000002384186]","./assets/img/ocean/memory/16.jpg","[""ArrowUp"",""ArrowLeft""]","value training","ocean","26","{""ArrowUp,ArrowLeft"":26,""ArrowUp,ArrowRight"":10,""ArrowDown,ArrowLeft"":5,""ArrowDown,ArrowRight"":17}","true","ArrowUp,ArrowLeft","false","","","original","1","40","","",""
"html-keyboard-response","159","882760","0.0-4.0-2.0-1.20","spark_pilot_2","7792","1","22","Female","","","","","","","null","<div style=""font-size:60px;"">+</div>","null","fixation","","","","","","","","","","","41","","",""
"revaluation","160","888777","0.0-4.0-2.0-0.21","spark_pilot_2","7792","1","22","Female","","false","","","","","[1193.9000000059605,423.60000002384186]","./assets/img/ocean/memory/30.jpg","[""ArrowUp"",""ArrowLeft""]","value training","ocean","26","{""ArrowUp,ArrowLeft"":26,""ArrowUp,ArrowRight"":10,""ArrowDown,ArrowLeft"":5,""ArrowDown,ArrowRight"":17}","true","ArrowUp,ArrowLeft","false","","","original","1","42","","",""
"html-keyboard-response","161","889288","0.0-4.0-2.0-1.21","spark_pilot_2","7792","1","22","Female","","","","","","","null","<div style=""font-size:60px;"">+</div>","null","fixation","","","","","","","","","","","43","","",""
"revaluation","162","895313","0.0-4.0-2.0-0.22","spark_pilot_2","7792","1","22","Female","","false","","","","","[571.4000000059605,388.5]","./assets/img/ocean/memory/37.jpg","[""ArrowUp"",""ArrowLeft""]","value training","ocean","26","{""ArrowUp,ArrowLeft"":26,""ArrowUp,ArrowRight"":10,""ArrowDown,ArrowLeft"":5,""ArrowDown,ArrowRight"":17}","true","ArrowUp,ArrowLeft","false","","","original","1","44","","",""
"html-keyboard-response","163","895821","0.0-4.0-2.0-1.22","spark_pilot_2","7792","1","22","Female","","","","","","","null","<div style=""font-size:60px;"">+</div>","null","fixation","","","","","","","","","","","45","","",""
"revaluation","164","899838","0.0-4.0-2.0-0.23","spark_pilot_2","7792","1","22","Female","","false","","","","","[745.3000000119209]","./assets/img/ocean/catch/2.jpg","[""spaceBar""]","value training","ocean","0","{""ArrowUp,ArrowLeft"":26,""ArrowUp,ArrowRight"":10,""ArrowDown,ArrowLeft"":5,""ArrowDown,ArrowRight"":17}","true","spaceBar","true","","","original","1","46","","",""
"html-keyboard-response","165","900344","0.0-4.0-2.0-1.23","spark_pilot_2","7792","1","22","Female","","","","","","","null","<div style=""font-size:60px;"">+</div>","null","fixation","","","","","","","","","","","47","","",""
"revaluation","166","906366","0.0-4.0-2.0-0.24","spark_pilot_2","7792","1","22","Female","","false","","","","","[780.9000000059605,287]","./assets/img/ocean/memory/38.jpg","[""ArrowUp"",""ArrowLeft""]","value training","ocean","26","{""ArrowUp,ArrowLeft"":26,""ArrowUp,ArrowRight"":10,""ArrowDown,ArrowLeft"":5,""ArrowDown,ArrowRight"":17}","true","ArrowUp,ArrowLeft","false","","","original","1","48","","",""
"html-keyboard-response","167","906872","0.0-4.0-2.0-1.24","spark_pilot_2","7792","1","22","Female","","","","","","","null","<div style=""font-size:60px;"">+</div>","null","fixation","","","","","","","","","","","49","","",""
"revaluation","168","912893","0.0-4.0-2.0-0.25","spark_pilot_2","7792","1","22","Female","","false","","","","","[663,438.7000000178814]","./assets/img/ocean/memory/37.jpg","[""ArrowUp"",""ArrowLeft""]","value training","ocean","26","{""ArrowUp,ArrowLeft"":26,""ArrowUp,ArrowRight"":10,""ArrowDown,ArrowLeft"":5,""ArrowDown,ArrowRight"":17}","true","ArrowUp,ArrowLeft","false","","","original","1","50","","",""
"html-keyboard-response","169","913400","0.0-4.0-2.0-1.25","spark_pilot_2","7792","1","22","Female","","","","","","","null","<div style=""font-size:60px;"">+</div>","null","fixation","","","","","","","","","","","51","","",""
"revaluation","170","919421","0.0-4.0-2.0-0.26","spark_pilot_2","7792","1","22","Female","","false","","","","","[1047.199999988079,323.2000000178814]","./assets/img/ocean/memory/30.jpg","[""ArrowUp"",""ArrowLeft""]","value training","ocean","26","{""ArrowUp,ArrowLeft"":26,""ArrowUp,ArrowRight"":10,""ArrowDown,ArrowLeft"":5,""ArrowDown,ArrowRight"":17}","true","ArrowUp,ArrowLeft","false","","","original","1","52","","",""
"html-keyboard-response","171","919928","0.0-4.0-2.0-1.26","spark_pilot_2","7792","1","22","Female","","","","","","","null","<div style=""font-size:60px;"">+</div>","null","fixation","","","","","","","","","","","53","","",""
"revaluation","172","925949","0.0-4.0-2.0-0.27","spark_pilot_2","7792","1","22","Female","","false","","","","","[712.3000000119209,357.80000001192093]","./assets/img/ocean/memory/3.jpg","[""ArrowUp"",""ArrowLeft""]","value training","ocean","26","{""ArrowUp,ArrowLeft"":26,""ArrowUp,ArrowRight"":10,""ArrowDown,ArrowLeft"":5,""ArrowDown,ArrowRight"":17}","true","ArrowUp,ArrowLeft","false","","","original","1","54","","",""
"html-keyboard-response","173","926456","0.0-4.0-2.0-1.27","spark_pilot_2","7792","1","22","Female","","","","","","","null","<div style=""font-size:60px;"">+</div>","null","fixation","","","","","","","","","","","55","","",""
"revaluation","174","932488","0.0-4.0-2.0-0.28","spark_pilot_2","7792","1","22","Female","","false","","","","","[737,377.90000000596046]","./assets/img/ocean/memory/25.jpg","[""ArrowUp"",""ArrowLeft""]","value training","ocean","26","{""ArrowUp,ArrowLeft"":26,""ArrowUp,ArrowRight"":10,""ArrowDown,ArrowLeft"":5,""ArrowDown,ArrowRight"":17}","true","ArrowUp,ArrowLeft","false","","","original","1","56","","",""
"html-keyboard-response","175","932998","0.0-4.0-2.0-1.28","spark_pilot_2","7792","1","22","Female","","","","","","","null","<div style=""font-size:60px;"">+</div>","null","fixation","","","","","","","","","","","57","","",""
"revaluation","176","939021","0.0-4.0-2.0-0.29","spark_pilot_2","7792","1","22","Female","","false","","","","","[706.0999999940395,268.10000002384186]","./assets/img/ocean/memory/41.jpg","[""ArrowUp"",""ArrowLeft""]","value training","ocean","26","{""ArrowUp,ArrowLeft"":26,""ArrowUp,ArrowRight"":10,""ArrowDown,ArrowLeft"":5,""ArrowDown,ArrowRight"":17}","true","ArrowUp,ArrowLeft","false","","","original","1","58","","",""
"html-keyboard-response","177","939527","0.0-4.0-2.0-1.29","spark_pilot_2","7792","1","22","Female","","","","","","","null","<div style=""font-size:60px;"">+</div>","null","fixation","","","","","","","","","","","59","","",""
"revaluation","178","945553","0.0-4.0-2.0-0.30","spark_pilot_2","7792","1","22","Female","","false","","","","","[870.5999999940395,396.7000000178814]","./assets/img/ocean/memory/7.jpg","[""ArrowUp"",""ArrowLeft""]","value training","ocean","26","{""ArrowUp,ArrowLeft"":26,""ArrowUp,ArrowRight"":10,""ArrowDown,ArrowLeft"":5,""ArrowDown,ArrowRight"":17}","true","ArrowUp,ArrowLeft","false","","","original","1","60","","",""
"html-keyboard-response","179","946061","0.0-4.0-2.0-1.30","spark_pilot_2","7792","1","22","Female","","","","","","","null","<div style=""font-size:60px;"">+</div>","null","fixation","","","","","","","","","","","61","","",""
"revaluation","180","950077","0.0-4.0-2.0-0.31","spark_pilot_2","7792","1","22","Female","","false","","","","","[976.6999999880791]","./assets/img/ocean/catch/6.jpg","[""spaceBar""]","value training","ocean","0","{""ArrowUp,ArrowLeft"":26,""ArrowUp,ArrowRight"":10,""ArrowDown,ArrowLeft"":5,""ArrowDown,ArrowRight"":17}","true","spaceBar","true","","","original","1","62","","",""
"html-keyboard-response","181","950583","0.0-4.0-2.0-1.31","spark_pilot_2","7792","1","22","Female","","","","","","","null","<div style=""font-size:60px;"">+</div>","null","fixation","","","","","","","","","","","63","","",""
"revaluation","182","956605","0.0-4.0-2.0-0.32","spark_pilot_2","7792","1","22","Female","","false","","","","","[792.5,328.80000001192093]","./assets/img/ocean/memory/39.jpg","[""ArrowUp"",""ArrowLeft""]","value training","ocean","26","{""ArrowUp,ArrowLeft"":26,""ArrowUp,ArrowRight"":10,""ArrowDown,ArrowLeft"":5,""ArrowDown,ArrowRight"":17}","true","ArrowUp,ArrowLeft","false","","","original","1","64","","",""
"html-keyboard-response","183","957111","0.0-4.0-2.0-1.32","spark_pilot_2","7792","1","22","Female","","","","","","","null","<div style=""font-size:60px;"">+</div>","null","fixation","","","","","","","","","","","65","","",""
"revaluation","184","963133","0.0-4.0-2.0-0.33","spark_pilot_2","7792","1","22","Female","","false","","","","","[713.5,369.40000000596046]","./assets/img/ocean/memory/40.jpg","[""ArrowUp"",""ArrowLeft""]","value training","ocean","26","{""ArrowUp,ArrowLeft"":26,""ArrowUp,ArrowRight"":10,""ArrowDown,ArrowLeft"":5,""ArrowDown,ArrowRight"":17}","true","ArrowUp,ArrowLeft","false","","","original","1","66","","",""
"html-keyboard-response","185","963640","0.0-4.0-2.0-1.33","spark_pilot_2","7792","1","22","Female","","","","","","","null","<div style=""font-size:60px;"">+</div>","null","fixation","","","","","","","","","","","67","","",""
"revaluation","186","967655","0.0-4.0-2.0-0.34","spark_pilot_2","7792","1","22","Female","","false","","","","","[997.4000000059605]","./assets/img/ocean/catch/5.jpg","[""spaceBar""]","value training","ocean","0","{""ArrowUp,ArrowLeft"":26,""ArrowUp,ArrowRight"":10,""ArrowDown,ArrowLeft"":5,""ArrowDown,ArrowRight"":17}","true","spaceBar","true","","","original","1","68","","",""
"html-keyboard-response","187","968167","0.0-4.0-2.0-1.34","spark_pilot_2","7792","1","22","Female","","","","","","","null","<div style=""font-size:60px;"">+</div>","null","fixation","","","","","","","","","","","69","","",""
"revaluation","188","972183","0.0-4.0-2.0-0.35","spark_pilot_2","7792","1","22","Female","","false","","","","","[910.7999999821186]","./assets/img/ocean/catch/4.jpg","[""spaceBar""]","value training","ocean","0","{""ArrowUp,ArrowLeft"":26,""ArrowUp,ArrowRight"":10,""ArrowDown,ArrowLeft"":5,""ArrowDown,ArrowRight"":17}","true","spaceBar","true","","","original","1","70","","",""
"html-keyboard-response","189","972695","0.0-4.0-2.0-1.35","spark_pilot_2","7792","1","22","Female","","","","","","","null","<div style=""font-size:60px;"">+</div>","null","fixation","","","","","","","","","","","71","","",""
"revaluation","190","978717","0.0-4.0-2.0-0.36","spark_pilot_2","7792","1","22","Female","","false","","","","","[1230.7000000178814,419.19999998807907]","./assets/img/ocean/memory/15.jpg","[""ArrowUp"",""ArrowLeft""]","value training","ocean","26","{""ArrowUp,ArrowLeft"":26,""ArrowUp,ArrowRight"":10,""ArrowDown,ArrowLeft"":5,""ArrowDown,ArrowRight"":17}","true","ArrowUp,ArrowLeft","false","","","original","1","72","","",""
"html-keyboard-response","191","979221","0.0-4.0-2.0-1.36","spark_pilot_2","7792","1","22","Female","","","","","","","null","<div style=""font-size:60px;"">+</div>","null","fixation","","","","","","","","","","","73","","",""
"revaluation","192","985244","0.0-4.0-2.0-0.37","spark_pilot_2","7792","1","22","Female","","false","","","","","[709.1999999880791,452.90000000596046]","./assets/img/ocean/memory/26.jpg","[""ArrowUp"",""ArrowLeft""]","value training","ocean","26","{""ArrowUp,ArrowLeft"":26,""ArrowUp,ArrowRight"":10,""ArrowDown,ArrowLeft"":5,""ArrowDown,ArrowRight"":17}","true","ArrowUp,ArrowLeft","false","","","original","1","74","","",""
"html-keyboard-response","193","985751","0.0-4.0-2.0-1.37","spark_pilot_2","7792","1","22","Female","","","","","","","null","<div style=""font-size:60px;"">+</div>","null","fixation","","","","","","","","","","","75","","",""
"revaluation","194","991772","0.0-4.0-2.0-0.38","spark_pilot_2","7792","1","22","Female","","false","","","","","[1004.5999999940395,298.7999999821186]","./assets/img/ocean/memory/0.jpg","[""ArrowUp"",""ArrowLeft""]","value training","ocean","26","{""ArrowUp,ArrowLeft"":26,""ArrowUp,ArrowRight"":10,""ArrowDown,ArrowLeft"":5,""ArrowDown,ArrowRight"":17}","true","ArrowUp,ArrowLeft","false","","","original","1","76","","",""
"html-keyboard-response","195","992279","0.0-4.0-2.0-1.38","spark_pilot_2","7792","1","22","Female","","","","","","","null","<div style=""font-size:60px;"">+</div>","null","fixation","","","","","","","","","","","77","","",""
"revaluation","196","998295","0.0-4.0-2.0-0.39","spark_pilot_2","7792","1","22","Female","","false","","","","","[722.3000000119209,288.7000000178814]","./assets/img/ocean/memory/7.jpg","[""ArrowUp"",""ArrowLeft""]","value training","ocean","26","{""ArrowUp,ArrowLeft"":26,""ArrowUp,ArrowRight"":10,""ArrowDown,ArrowLeft"":5,""ArrowDown,ArrowRight"":17}","true","ArrowUp,ArrowLeft","false","","","original","1","78","","",""
"html-keyboard-response","197","998806","0.0-4.0-2.0-1.39","spark_pilot_2","7792","1","22","Female","","","","","","","null","<div style=""font-size:60px;"">+</div>","null","fixation","","","","","","","","","","","79","","",""
"revaluation","198","1004828","0.0-4.0-2.0-0.40","spark_pilot_2","7792","1","22","Female","","false","","","","","[757.0999999940395,358.7999999821186]","./assets/img/ocean/memory/23.jpg","[""ArrowUp"",""ArrowLeft""]","value training","ocean","26","{""ArrowUp,ArrowLeft"":26,""ArrowUp,ArrowRight"":10,""ArrowDown,ArrowLeft"":5,""ArrowDown,ArrowRight"":17}","true","ArrowUp,ArrowLeft","false","","","original","1","80","","",""
"html-keyboard-response","199","1005334","0.0-4.0-2.0-1.40","spark_pilot_2","7792","1","22","Female","","","","","","","null","<div style=""font-size:60px;"">+</div>","null","fixation","","","","","","","","","","","81","","",""
"revaluation","200","1011351","0.0-4.0-2.0-0.41","spark_pilot_2","7792","1","22","Female","","false","","","","","[645,353.59999999403954]","./assets/img/ocean/memory/5.jpg","[""ArrowUp"",""ArrowLeft""]","value training","ocean","26","{""ArrowUp,ArrowLeft"":26,""ArrowUp,ArrowRight"":10,""ArrowDown,ArrowLeft"":5,""ArrowDown,ArrowRight"":17}","true","ArrowUp,ArrowLeft","false","","","original","1","82","","",""
"html-keyboard-response","201","1011862","0.0-4.0-2.0-1.41","spark_pilot_2","7792","1","22","Female","","","","","","","null","<div style=""font-size:60px;"">+</div>","null","fixation","","","","","","","","","","","83","","",""
"revaluation","202","1017884","0.0-4.0-2.0-0.42","spark_pilot_2","7792","1","22","Female","","false","","","","","[643,396]","./assets/img/ocean/memory/29.jpg","[""ArrowUp"",""ArrowLeft""]","value training","ocean","26","{""ArrowUp,ArrowLeft"":26,""ArrowUp,ArrowRight"":10,""ArrowDown,ArrowLeft"":5,""ArrowDown,ArrowRight"":17}","true","ArrowUp,ArrowLeft","false","","","original","1","84","","",""
"html-keyboard-response","203","1018390","0.0-4.0-2.0-1.42","spark_pilot_2","7792","1","22","Female","","","","","","","null","<div style=""font-size:60px;"">+</div>","null","fixation","","","","","","","","","","","85","","",""
"revaluation","204","1024412","0.0-4.0-2.0-0.43","spark_pilot_2","7792","1","22","Female","","false","","","","","[819.7000000178814,433.30000001192093]","./assets/img/ocean/memory/15.jpg","[""ArrowUp"",""ArrowLeft""]","value training","ocean","26","{""ArrowUp,ArrowLeft"":26,""ArrowUp,ArrowRight"":10,""ArrowDown,ArrowLeft"":5,""ArrowDown,ArrowRight"":17}","true","ArrowUp,ArrowLeft","false","","","original","1","86","","",""
"html-keyboard-response","205","1024918","0.0-4.0-2.0-1.43","spark_pilot_2","7792","1","22","Female","","","","","","","null","<div style=""font-size:60px;"">+</div>","null","fixation","","","","","","","","","","","87","","",""
"revaluation","206","1030950","0.0-4.0-2.0-0.44","spark_pilot_2","7792","1","22","Female","","false","","","","","[875.9000000059605,488.40000000596046]","./assets/img/ocean/memory/12.jpg","[""ArrowUp"",""ArrowLeft""]","value training","ocean","26","{""ArrowUp,ArrowLeft"":26,""ArrowUp,ArrowRight"":10,""ArrowDown,ArrowLeft"":5,""ArrowDown,ArrowRight"":17}","true","ArrowUp,ArrowLeft","false","","","original","1","88","","",""
"html-keyboard-response","207","1031461","0.0-4.0-2.0-1.44","spark_pilot_2","7792","1","22","Female","","","","","","","null","<div style=""font-size:60px;"">+</div>","null","fixation","","","","","","","","","","","89","","",""
"revaluation","208","1037483","0.0-4.0-2.0-0.45","spark_pilot_2","7792","1","22","Female","","false","","","","","[805.1000000238419,354.09999999403954]","./assets/img/ocean/memory/29.jpg","[""ArrowUp"",""ArrowLeft""]","value training","ocean","26","{""ArrowUp,ArrowLeft"":26,""ArrowUp,ArrowRight"":10,""ArrowDown,ArrowLeft"":5,""ArrowDown,ArrowRight"":17}","true","ArrowUp,ArrowLeft","false","","","original","1","90","","",""
"html-keyboard-response","209","1037990","0.0-4.0-2.0-1.45","spark_pilot_2","7792","1","22","Female","","","","","","","null","<div style=""font-size:60px;"">+</div>","null","fixation","","","","","","","","","","","91","","",""
"revaluation","210","1042006","0.0-4.0-2.0-0.46","spark_pilot_2","7792","1","22","Female","","false","","","","","[858.4000000059605]","./assets/img/ocean/catch/1.jpg","[""spaceBar""]","value training","ocean","0","{""ArrowUp,ArrowLeft"":26,""ArrowUp,ArrowRight"":10,""ArrowDown,ArrowLeft"":5,""ArrowDown,ArrowRight"":17}","true","spaceBar","true","","","original","1","92","","",""
"html-keyboard-response","211","1042518","0.0-4.0-2.0-1.46","spark_pilot_2","7792","1","22","Female","","","","","","","null","<div style=""font-size:60px;"">+</div>","null","fixation","","","","","","","","","","","93","","",""
"revaluation","212","1048539","0.0-4.0-2.0-0.47","spark_pilot_2","7792","1","22","Female","","false","","","","","[732.4000000059605,259.40000000596046]","./assets/img/ocean/memory/38.jpg","[""ArrowUp"",""ArrowLeft""]","value training","ocean","26","{""ArrowUp,ArrowLeft"":26,""ArrowUp,ArrowRight"":10,""ArrowDown,ArrowLeft"":5,""ArrowDown,ArrowRight"":17}","true","ArrowUp,ArrowLeft","false","","","original","1","94","","",""
"html-keyboard-response","213","1049046","0.0-4.0-2.0-1.47","spark_pilot_2","7792","1","22","Female","","","","","","","null","<div style=""font-size:60px;"">+</div>","null","fixation","","","","","","","","","","","95","","",""
"revaluation","214","1055067","0.0-4.0-2.0-0.48","spark_pilot_2","7792","1","22","Female","","false","","","","","[726.2000000178814,421.2000000178814]","./assets/img/ocean/memory/4.jpg","[""ArrowUp"",""ArrowLeft""]","value training","ocean","26","{""ArrowUp,ArrowLeft"":26,""ArrowUp,ArrowRight"":10,""ArrowDown,ArrowLeft"":5,""ArrowDown,ArrowRight"":17}","true","ArrowUp,ArrowLeft","false","","","original","1","96","","",""
"html-keyboard-response","215","1055574","0.0-4.0-2.0-1.48","spark_pilot_2","7792","1","22","Female","","","","","","","null","<div style=""font-size:60px;"">+</div>","null","fixation","","","","","","","","","","","97","","",""
"revaluation","216","1061598","0.0-4.0-2.0-0.49","spark_pilot_2","7792","1","22","Female","","false","","","","","[932.7000000178814,563.8000000119209]","./assets/img/ocean/memory/31.jpg","[""ArrowUp"",""ArrowLeft""]","value training","ocean","26","{""ArrowUp,ArrowLeft"":26,""ArrowUp,ArrowRight"":10,""ArrowDown,ArrowLeft"":5,""ArrowDown,ArrowRight"":17}","true","ArrowUp,ArrowLeft","false","","","original","1","98","","",""
"html-keyboard-response","217","1062106","0.0-4.0-2.0-1.49","spark_pilot_2","7792","1","22","Female","","","","","","","null","<div style=""font-size:60px;"">+</div>","null","fixation","","","","","","","","","","","99","","",""
"learning-instructions","218","1076618","0.0-4.0-3.0-0.0","spark_pilot_2","7792","1","22","Female","","","","","","","1595.5","<p> Now, you will travel with a friend who will choose whether you go up or down first. </p>
            <p> On these turns, you will just see the animal that they found. You will still get to choose which chest to search for treasure.</p>","","instructions","","","","","","","","","","","","","",""
"revaluation","219","1080638","0.0-4.0-4.0-0.0","spark_pilot_2","7792","1","22","Female","","false","","","","","[838.8000000119209]","./assets/img/ocean/animals/octopus.jpg","[""ArrowLeft""]","revaluation","ocean","26","{""ArrowUp,ArrowLeft"":26,""ArrowUp,ArrowRight"":10,""ArrowDown,ArrowLeft"":5,""ArrowDown,ArrowRight"":17}","true","ArrowUp,ArrowLeft","","","","original","1","0","","",""
"html-keyboard-response","220","1081150","0.0-4.0-4.0-1.0","spark_pilot_2","7792","1","22","Female","","","","","","","null","<div style=""font-size:60px;"">+</div>","null","fixation","","","","","","","","","","","1","","",""
"revaluation","221","1085163","0.0-4.0-4.0-0.1","spark_pilot_2","7792","1","22","Female","","false","","","","","[647.8000000119209]","./assets/img/ocean/animals/octopus.jpg","[""ArrowLeft""]","revaluation","ocean","26","{""ArrowUp,ArrowLeft"":26,""ArrowUp,ArrowRight"":10,""ArrowDown,ArrowLeft"":5,""ArrowDown,ArrowRight"":17}","true","ArrowUp,ArrowLeft","","","","original","1","2","","",""
"html-keyboard-response","222","1085667","0.0-4.0-4.0-1.1","spark_pilot_2","7792","1","22","Female","","","","","","","null","<div style=""font-size:60px;"">+</div>","null","fixation","","","","","","","","","","","3","","",""
"revaluation","223","1089683","0.0-4.0-4.0-0.2","spark_pilot_2","7792","1","22","Female","","false","","","","","[573.1999999880791]","./assets/img/ocean/animals/octopus.jpg","[""ArrowLeft""]","revaluation","ocean","26","{""ArrowUp,ArrowLeft"":26,""ArrowUp,ArrowRight"":10,""ArrowDown,ArrowLeft"":5,""ArrowDown,ArrowRight"":17}","true","ArrowUp,ArrowLeft","","","","original","1","4","","",""
"html-keyboard-response","224","1090189","0.0-4.0-4.0-1.2","spark_pilot_2","7792","1","22","Female","","","","","","","null","<div style=""font-size:60px;"">+</div>","null","fixation","","","","","","","","","","","5","","",""
"revaluation","225","1094205","0.0-4.0-4.0-0.3","spark_pilot_2","7792","1","22","Female","","false","","","","","[776.5]","./assets/img/ocean/animals/seahorse.jpg","[""ArrowRight""]","revaluation","ocean","17","{""ArrowUp,ArrowLeft"":26,""ArrowUp,ArrowRight"":10,""ArrowDown,ArrowLeft"":5,""ArrowDown,ArrowRight"":17}","true","ArrowDown,ArrowRight","","","","original","1","6","","",""
"html-keyboard-response","226","1094717","0.0-4.0-4.0-1.3","spark_pilot_2","7792","1","22","Female","","","","","","","null","<div style=""font-size:60px;"">+</div>","null","fixation","","","","","","","","","","","7","","",""
"revaluation","227","1098733","0.0-4.0-4.0-0.4","spark_pilot_2","7792","1","22","Female","","false","","","","","[676.5]","./assets/img/ocean/animals/octopus.jpg","[""ArrowLeft""]","revaluation","ocean","26","{""ArrowUp,ArrowLeft"":26,""ArrowUp,ArrowRight"":10,""ArrowDown,ArrowLeft"":5,""ArrowDown,ArrowRight"":17}","true","ArrowUp,ArrowLeft","","","","original","1","8","","",""
"html-keyboard-response","228","1099245","0.0-4.0-4.0-1.4","spark_pilot_2","7792","1","22","Female","","","","","","","null","<div style=""font-size:60px;"">+</div>","null","fixation","","","","","","","","","","","9","","",""
"revaluation","229","1103260","0.0-4.0-4.0-0.5","spark_pilot_2","7792","1","22","Female","","false","","","","","[1343.9000000059605]","./assets/img/ocean/animals/seahorse.jpg","[""ArrowRight""]","revaluation","ocean","17","{""ArrowUp,ArrowLeft"":26,""ArrowUp,ArrowRight"":10,""ArrowDown,ArrowLeft"":5,""ArrowDown,ArrowRight"":17}","true","ArrowDown,ArrowRight","","","","original","1","10","","",""
"html-keyboard-response","230","1103762","0.0-4.0-4.0-1.5","spark_pilot_2","7792","1","22","Female","","","","","","","null","<div style=""font-size:60px;"">+</div>","null","fixation","","","","","","","","","","","11","","",""
"revaluation","231","1107779","0.0-4.0-4.0-0.6","spark_pilot_2","7792","1","22","Female","","false","","","","","[569.5]","./assets/img/ocean/animals/octopus.jpg","[""ArrowLeft""]","revaluation","ocean","26","{""ArrowUp,ArrowLeft"":26,""ArrowUp,ArrowRight"":10,""ArrowDown,ArrowLeft"":5,""ArrowDown,ArrowRight"":17}","true","ArrowUp,ArrowLeft","","","","original","1","12","","",""
"html-keyboard-response","232","1108286","0.0-4.0-4.0-1.6","spark_pilot_2","7792","1","22","Female","","","","","","","null","<div style=""font-size:60px;"">+</div>","null","fixation","","","","","","","","","","","13","","",""
"revaluation","233","1112302","0.0-4.0-4.0-0.7","spark_pilot_2","7792","1","22","Female","","false","","","","","[384.90000000596046]","./assets/img/ocean/animals/seahorse.jpg","[""ArrowRight""]","revaluation","ocean","17","{""ArrowUp,ArrowLeft"":26,""ArrowUp,ArrowRight"":10,""ArrowDown,ArrowLeft"":5,""ArrowDown,ArrowRight"":17}","true","ArrowDown,ArrowRight","","","","original","1","14","","",""
"html-keyboard-response","234","1112812","0.0-4.0-4.0-1.7","spark_pilot_2","7792","1","22","Female","","","","","","","null","<div style=""font-size:60px;"">+</div>","null","fixation","","","","","","","","","","","15","","",""
"revaluation","235","1116830","0.0-4.0-4.0-0.8","spark_pilot_2","7792","1","22","Female","","false","","","","","[730]","./assets/img/ocean/animals/seahorse.jpg","[""ArrowRight""]","revaluation","ocean","17","{""ArrowUp,ArrowLeft"":26,""ArrowUp,ArrowRight"":10,""ArrowDown,ArrowLeft"":5,""ArrowDown,ArrowRight"":17}","true","ArrowDown,ArrowRight","","","","original","1","16","","",""
"html-keyboard-response","236","1117342","0.0-4.0-4.0-1.8","spark_pilot_2","7792","1","22","Female","","","","","","","null","<div style=""font-size:60px;"">+</div>","null","fixation","","","","","","","","","","","17","","",""
"revaluation","237","1121358","0.0-4.0-4.0-0.9","spark_pilot_2","7792","1","22","Female","","false","","","","","[429.59999999403954]","./assets/img/ocean/animals/octopus.jpg","[""ArrowLeft""]","revaluation","ocean","26","{""ArrowUp,ArrowLeft"":26,""ArrowUp,ArrowRight"":10,""ArrowDown,ArrowLeft"":5,""ArrowDown,ArrowRight"":17}","true","ArrowUp,ArrowLeft","","","","original","1","18","","",""
"html-keyboard-response","238","1121870","0.0-4.0-4.0-1.9","spark_pilot_2","7792","1","22","Female","","","","","","","null","<div style=""font-size:60px;"">+</div>","null","fixation","","","","","","","","","","","19","","",""
"revaluation","239","1125886","0.0-4.0-4.0-0.10","spark_pilot_2","7792","1","22","Female","","false","","","","","[318.60000002384186]","./assets/img/ocean/animals/seahorse.jpg","[""ArrowRight""]","revaluation","ocean","17","{""ArrowUp,ArrowLeft"":26,""ArrowUp,ArrowRight"":10,""ArrowDown,ArrowLeft"":5,""ArrowDown,ArrowRight"":17}","true","ArrowDown,ArrowRight","","","","original","1","20","","",""
"html-keyboard-response","240","1126395","0.0-4.0-4.0-1.10","spark_pilot_2","7792","1","22","Female","","","","","","","null","<div style=""font-size:60px;"">+</div>","null","fixation","","","","","","","","","","","21","","",""
"revaluation","241","1130414","0.0-4.0-4.0-0.11","spark_pilot_2","7792","1","22","Female","","false","","","","","[598.0999999940395]","./assets/img/ocean/animals/seahorse.jpg","[""ArrowRight""]","revaluation","ocean","17","{""ArrowUp,ArrowLeft"":26,""ArrowUp,ArrowRight"":10,""ArrowDown,ArrowLeft"":5,""ArrowDown,ArrowRight"":17}","true","ArrowDown,ArrowRight","","","","original","1","22","","",""
"html-keyboard-response","242","1130925","0.0-4.0-4.0-1.11","spark_pilot_2","7792","1","22","Female","","","","","","","null","<div style=""font-size:60px;"">+</div>","null","fixation","","","","","","","","","","","23","","",""
"revaluation","243","1134942","0.0-4.0-4.0-0.12","spark_pilot_2","7792","1","22","Female","","false","","","","","[642.0999999940395]","./assets/img/ocean/animals/octopus.jpg","[""ArrowRight""]","revaluation","ocean","10","{""ArrowUp,ArrowLeft"":26,""ArrowUp,ArrowRight"":10,""ArrowDown,ArrowLeft"":5,""ArrowDown,ArrowRight"":17}","false","ArrowUp,ArrowRight","","","","original","1","24","","",""
"html-keyboard-response","244","1135453","0.0-4.0-4.0-1.12","spark_pilot_2","7792","1","22","Female","","","","","","","null","<div style=""font-size:60px;"">+</div>","null","fixation","","","","","","","","","","","25","","",""
"revaluation","245","1139470","0.0-4.0-4.0-0.13","spark_pilot_2","7792","1","22","Female","","false","","","","","[655.7000000178814]","./assets/img/ocean/animals/seahorse.jpg","[""ArrowRight""]","revaluation","ocean","17","{""ArrowUp,ArrowLeft"":26,""ArrowUp,ArrowRight"":10,""ArrowDown,ArrowLeft"":5,""ArrowDown,ArrowRight"":17}","true","ArrowDown,ArrowRight","","","","original","1","26","","",""
"html-keyboard-response","246","1139981","0.0-4.0-4.0-1.13","spark_pilot_2","7792","1","22","Female","","","","","","","null","<div style=""font-size:60px;"">+</div>","null","fixation","","","","","","","","","","","27","","",""
"revaluation","247","1143997","0.0-4.0-4.0-0.14","spark_pilot_2","7792","1","22","Female","","false","","","","","[487.30000001192093]","./assets/img/ocean/animals/octopus.jpg","[""ArrowLeft""]","revaluation","ocean","26","{""ArrowUp,ArrowLeft"":26,""ArrowUp,ArrowRight"":10,""ArrowDown,ArrowLeft"":5,""ArrowDown,ArrowRight"":17}","true","ArrowUp,ArrowLeft","","","","original","1","28","","",""
"html-keyboard-response","248","1144509","0.0-4.0-4.0-1.14","spark_pilot_2","7792","1","22","Female","","","","","","","null","<div style=""font-size:60px;"">+</div>","null","fixation","","","","","","","","","","","29","","",""
"revaluation","249","1148525","0.0-4.0-4.0-0.15","spark_pilot_2","7792","1","22","Female","","false","","","","","[641.2999999821186]","./assets/img/ocean/animals/seahorse.jpg","[""ArrowRight""]","revaluation","ocean","17","{""ArrowUp,ArrowLeft"":26,""ArrowUp,ArrowRight"":10,""ArrowDown,ArrowLeft"":5,""ArrowDown,ArrowRight"":17}","true","ArrowDown,ArrowRight","","","","original","1","30","","",""
"html-keyboard-response","250","1149037","0.0-4.0-4.0-1.15","spark_pilot_2","7792","1","22","Female","","","","","","","null","<div style=""font-size:60px;"">+</div>","null","fixation","","","","","","","","","","","31","","",""
"revaluation","251","1153053","0.0-4.0-4.0-0.16","spark_pilot_2","7792","1","22","Female","","false","","","","","[470.30000001192093]","./assets/img/ocean/animals/octopus.jpg","[""ArrowLeft""]","revaluation","ocean","26","{""ArrowUp,ArrowLeft"":26,""ArrowUp,ArrowRight"":10,""ArrowDown,ArrowLeft"":5,""ArrowDown,ArrowRight"":17}","true","ArrowUp,ArrowLeft","","","","original","1","32","","",""
"html-keyboard-response","252","1153565","0.0-4.0-4.0-1.16","spark_pilot_2","7792","1","22","Female","","","","","","","null","<div style=""font-size:60px;"">+</div>","null","fixation","","","","","","","","","","","33","","",""
"revaluation","253","1157578","0.0-4.0-4.0-0.17","spark_pilot_2","7792","1","22","Female","","false","","","","","[725.5999999940395]","./assets/img/ocean/animals/seahorse.jpg","[""ArrowRight""]","revaluation","ocean","17","{""ArrowUp,ArrowLeft"":26,""ArrowUp,ArrowRight"":10,""ArrowDown,ArrowLeft"":5,""ArrowDown,ArrowRight"":17}","true","ArrowDown,ArrowRight","","","","original","1","34","","",""
"html-keyboard-response","254","1158082","0.0-4.0-4.0-1.17","spark_pilot_2","7792","1","22","Female","","","","","","","null","<div style=""font-size:60px;"">+</div>","null","fixation","","","","","","","","","","","35","","",""
"learning-instructions","255","1170936","0.0-4.0-5.0-0.0","spark_pilot_2","7792","1","22","Female","","","","","","","1438.199999988079","<p> Time to play the dot game! </p>
            <p> For one minute, click the red dots on the following screen as they appear. </p>
            <p><b> Don't look away, as you will earn bonus for clicking dots</b>. </p>","","instructions","","","","","","","","","","","","","",""
"revaluation","256","1230938","0.0-4.0-6.0-0.0","spark_pilot_2","7792","1","22","Female","","","","","","","[85,57,59,53,65,55,93]","","","rest","","70","","","","","0","60000","","","","","",""
"learning-instructions","257","1237866","0.0-4.0-7.0-0.0","spark_pilot_2","7792","1","22","Female","","","","","","","790.1000000238419","<p> You have almost finished this part of the game! </p>
            <p> We are going to ask you to make a few more choices. </p>","","instructions","","","","","","","","","","","","","",""
"learning-instructions","258","1259528","0.0-4.0-7.0-0.1","spark_pilot_2","7792","1","22","Female","","","","","","","7690.0999999940395","<p> First, you need to decide whether to go up or down. When you see each picture, use the arrow keys to make your choice. </p>
            <p><b>You will not see which animal you found, but try to get to the one that will give you the most treasure.</b></p>","","instructions","","","","","","","","","","","","","",""
"revaluation","259","1260424","0.0-4.0-8.0-0.0","spark_pilot_2","7792","1","22","Female","","false","","","","","[892.9000000059605]","./assets/img/ocean/test/3.jpg","[""ArrowUp""]","first stage test","ocean","0","{""ArrowUp,ArrowLeft"":26,""ArrowUp,ArrowRight"":10,""ArrowDown,ArrowLeft"":5,""ArrowDown,ArrowRight"":17}","true","ArrowUp","false","","","original","1","","","",""
"html-keyboard-response","260","1260930","0.0-4.0-8.0-1.0","spark_pilot_2","7792","1","22","Female","","","","","","","null","<div style=""font-size:60px;"">+</div>","null","fixation","","","","","","","","","","","","","",""
"revaluation","261","1261356","0.0-4.0-8.0-0.1","spark_pilot_2","7792","1","22","Female","","false","","","","","[422.30000001192093]","./assets/img/ocean/test/0.jpg","[""ArrowUp""]","first stage test","ocean","0","{""ArrowUp,ArrowLeft"":26,""ArrowUp,ArrowRight"":10,""ArrowDown,ArrowLeft"":5,""ArrowDown,ArrowRight"":17}","true","ArrowUp","false","","","original","1","","","",""
"html-keyboard-response","262","1261864","0.0-4.0-8.0-1.1","spark_pilot_2","7792","1","22","Female","","","","","","","null","<div style=""font-size:60px;"">+</div>","null","fixation","","","","","","","","","","","","","",""
"revaluation","263","1262202","0.0-4.0-8.0-0.2","spark_pilot_2","7792","1","22","Female","","false","","","","","[335.09999999403954]","./assets/img/ocean/test/1.jpg","[""ArrowUp""]","first stage test","ocean","0","{""ArrowUp,ArrowLeft"":26,""ArrowUp,ArrowRight"":10,""ArrowDown,ArrowLeft"":5,""ArrowDown,ArrowRight"":17}","true","ArrowUp","false","","","original","1","","","",""
"html-keyboard-response","264","1262703","0.0-4.0-8.0-1.2","spark_pilot_2","7792","1","22","Female","","","","","","","null","<div style=""font-size:60px;"">+</div>","null","fixation","","","","","","","","","","","","","",""
"revaluation","265","1263000","0.0-4.0-8.0-0.3","spark_pilot_2","7792","1","22","Female","","false","","","","","[292.5]","./assets/img/ocean/test/2.jpg","[""ArrowUp""]","first stage test","ocean","0","{""ArrowUp,ArrowLeft"":26,""ArrowUp,ArrowRight"":10,""ArrowDown,ArrowLeft"":5,""ArrowDown,ArrowRight"":17}","true","ArrowUp","false","","","original","1","","","",""
"html-keyboard-response","266","1263503","0.0-4.0-8.0-1.3","spark_pilot_2","7792","1","22","Female","","","","","","","null","<div style=""font-size:60px;"">+</div>","null","fixation","","","","","","","","","","","","","",""
"learning-instructions","267","1277530","0.0-4.0-9.0-0.0","spark_pilot_2","7792","1","22","Female","","","","","","","2685","<p> Now you will see the animals again and can search their chests for treasure. </p>
            <p> This time, you will not see how much treasure you earned, but you will earn more bonus money for making better choices. </p>","","instructions","","","","","","","","","","","","","",""
"revaluation","268","1278492","0.0-4.0-10.0-0.0","spark_pilot_2","7792","1","22","Female","","false","","","","","[959.3999999761581]","./assets/img/ocean/animals/octopus.jpg","[""ArrowLeft""]","second stage test","ocean","0","{""ArrowUp,ArrowLeft"":26,""ArrowUp,ArrowRight"":10,""ArrowDown,ArrowLeft"":5,""ArrowDown,ArrowRight"":17}","true","ArrowUp,ArrowLeft","","","","original","1","","","",""
"html-keyboard-response","269","1279000","0.0-4.0-10.0-1.0","spark_pilot_2","7792","1","22","Female","","","","","","","null","<div style=""font-size:60px;"">+</div>","null","fixation","","","","","","","","","","","","","",""
"revaluation","270","1279625","0.0-4.0-10.0-0.1","spark_pilot_2","7792","1","22","Female","","false","","","","","[621.9000000059605]","./assets/img/ocean/animals/octopus.jpg","[""ArrowLeft""]","second stage test","ocean","0","{""ArrowUp,ArrowLeft"":26,""ArrowUp,ArrowRight"":10,""ArrowDown,ArrowLeft"":5,""ArrowDown,ArrowRight"":17}","true","ArrowUp,ArrowLeft","","","","original","1","","","",""
"html-keyboard-response","271","1280128","0.0-4.0-10.0-1.1","spark_pilot_2","7792","1","22","Female","","","","","","","null","<div style=""font-size:60px;"">+</div>","null","fixation","","","","","","","","","","","","","",""
"revaluation","272","1280676","0.0-4.0-10.0-0.2","spark_pilot_2","7792","1","22","Female","","false","","","","","[543.9000000059605]","./assets/img/ocean/animals/octopus.jpg","[""ArrowLeft""]","second stage test","ocean","0","{""ArrowUp,ArrowLeft"":26,""ArrowUp,ArrowRight"":10,""ArrowDown,ArrowLeft"":5,""ArrowDown,ArrowRight"":17}","true","ArrowUp,ArrowLeft","","","","original","1","","","",""
"html-keyboard-response","273","1281185","0.0-4.0-10.0-1.2","spark_pilot_2","7792","1","22","Female","","","","","","","null","<div style=""font-size:60px;"">+</div>","null","fixation","","","","","","","","","","","","","",""
"revaluation","274","1281702","0.0-4.0-10.0-0.3","spark_pilot_2","7792","1","22","Female","","false","","","","","[514.5999999940395]","./assets/img/ocean/animals/octopus.jpg","[""ArrowLeft""]","second stage test","ocean","0","{""ArrowUp,ArrowLeft"":26,""ArrowUp,ArrowRight"":10,""ArrowDown,ArrowLeft"":5,""ArrowDown,ArrowRight"":17}","true","ArrowUp,ArrowLeft","","","","original","1","","","",""
"html-keyboard-response","275","1282209","0.0-4.0-10.0-1.3","spark_pilot_2","7792","1","22","Female","","","","","","","null","<div style=""font-size:60px;"">+</div>","null","fixation","","","","","","","","","","","","","",""
"revaluation","276","1282840","0.0-4.0-10.0-0.4","spark_pilot_2","7792","1","22","Female","","false","","","","","[627.5]","./assets/img/ocean/animals/seahorse.jpg","[""ArrowRight""]","second stage test","ocean","0","{""ArrowUp,ArrowLeft"":26,""ArrowUp,ArrowRight"":10,""ArrowDown,ArrowLeft"":5,""ArrowDown,ArrowRight"":17}","true","ArrowDown,ArrowRight","","","","original","1","","","",""
"html-keyboard-response","277","1283346","0.0-4.0-10.0-1.4","spark_pilot_2","7792","1","22","Female","","","","","","","null","<div style=""font-size:60px;"">+</div>","null","fixation","","","","","","","","","","","","","",""
"revaluation","278","1283874","0.0-4.0-10.0-0.5","spark_pilot_2","7792","1","22","Female","","false","","","","","[525.0999999940395]","./assets/img/ocean/animals/seahorse.jpg","[""ArrowRight""]","second stage test","ocean","0","{""ArrowUp,ArrowLeft"":26,""ArrowUp,ArrowRight"":10,""ArrowDown,ArrowLeft"":5,""ArrowDown,ArrowRight"":17}","true","ArrowDown,ArrowRight","","","","original","1","","","",""
"html-keyboard-response","279","1284385","0.0-4.0-10.0-1.5","spark_pilot_2","7792","1","22","Female","","","","","","","null","<div style=""font-size:60px;"">+</div>","null","fixation","","","","","","","","","","","","","",""
"revaluation","280","1284863","0.0-4.0-10.0-0.6","spark_pilot_2","7792","1","22","Female","","false","","","","","[474.7999999821186]","./assets/img/ocean/animals/seahorse.jpg","[""ArrowRight""]","second stage test","ocean","0","{""ArrowUp,ArrowLeft"":26,""ArrowUp,ArrowRight"":10,""ArrowDown,ArrowLeft"":5,""ArrowDown,ArrowRight"":17}","true","ArrowDown,ArrowRight","","","","original","1","","","",""
"html-keyboard-response","281","1285367","0.0-4.0-10.0-1.6","spark_pilot_2","7792","1","22","Female","","","","","","","null","<div style=""font-size:60px;"">+</div>","null","fixation","","","","","","","","","","","","","",""
"revaluation","282","1285891","0.0-4.0-10.0-0.7","spark_pilot_2","7792","1","22","Female","","false","","","","","[520.5999999940395]","./assets/img/ocean/animals/seahorse.jpg","[""ArrowRight""]","second stage test","ocean","0","{""ArrowUp,ArrowLeft"":26,""ArrowUp,ArrowRight"":10,""ArrowDown,ArrowLeft"":5,""ArrowDown,ArrowRight"":17}","true","ArrowDown,ArrowRight","","","","original","1","","","",""
"html-keyboard-response","283","1286400","0.0-4.0-10.0-1.7","spark_pilot_2","7792","1","22","Female","","","","","","","null","<div style=""font-size:60px;"">+</div>","null","fixation","","","","","","","","","","","","","",""
"learning-instructions","284","1290244","0.0-4.0-0.1-0.2","spark_pilot_2","7792","1","22","Female","","","","","","","1074","<p> This time you are searching for treasure in the <b>canyon</b>.</p>","","instructions","","","","","","","","","","","","","",""
"learning-instructions","285","1308303","0.0-4.0-0.1-0.3","spark_pilot_2","7792","1","22","Female","","","","","","","808.3000000119209","<p><b>New</b> animals with <b>new</b> treasure chests live here. You need to explore to discover where the animal with the best treasure chest is.</p>
                    <p> Like before, once you figure out which animal has the chest with the most treasure, you should try to get to that animal and select that chest! </p>","","instructions","","","","","","","","","","","","","",""
"learning-instructions","286","1327664","0.0-4.0-1.1-0.1","spark_pilot_2","7792","1","22","Female","","","","","","","4634.0999999940395","<p> Remember, when you see a picture of the place, use the up and down keys to <b>find an animal</b>.</p>
            <p> When you encounter an animal, you should use the left and right keys to <b>select a treasure chest</b>.</p>
            <p> Don't forget to look out for the robber! </p>","","instructions","","","","","","","","","","","","","",""
"revaluation","287","1333703","0.0-4.0-2.1-0.50","spark_pilot_2","7792","1","22","Female","","false","","","","","[1106.2000000178814,578.9000000059605]","./assets/img/canyon/memory/31.jpg","[""ArrowUp"",""ArrowLeft""]","value training","canyon","23","{""ArrowUp,ArrowLeft"":23,""ArrowUp,ArrowRight"":10,""ArrowDown,ArrowLeft"":8,""ArrowDown,ArrowRight"":30}","false","ArrowUp,ArrowLeft","false","","","revaluation","2","0","","",""
"html-keyboard-response","288","1334213","0.0-4.0-2.1-1.50","spark_pilot_2","7792","1","22","Female","","","","","","","null","<div style=""font-size:60px;"">+</div>","null","fixation","","","","","","","","","","","1","","",""
"revaluation","289","1338240","0.0-4.0-2.1-0.51","spark_pilot_2","7792","1","22","Female","","false","","","","","[641.9000000059605]","./assets/img/canyon/catch/4.jpg","[""ArrowUp""]","value training","canyon","-10","{""ArrowUp,ArrowLeft"":23,""ArrowUp,ArrowRight"":10,""ArrowDown,ArrowLeft"":8,""ArrowDown,ArrowRight"":30}","false","ArrowUp","true","","","revaluation","2","2","","",""
"html-keyboard-response","290","1338749","0.0-4.0-2.1-1.51","spark_pilot_2","7792","1","22","Female","","","","","","","null","<div style=""font-size:60px;"">+</div>","null","fixation","","","","","","","","","","","3","","",""
"revaluation","291","1342774","0.0-4.0-2.1-0.52","spark_pilot_2","7792","1","22","Female","","false","","","","","[790.2999999821186]","./assets/img/canyon/catch/2.jpg","[""ArrowUp""]","value training","canyon","-10","{""ArrowUp,ArrowLeft"":23,""ArrowUp,ArrowRight"":10,""ArrowDown,ArrowLeft"":8,""ArrowDown,ArrowRight"":30}","false","ArrowUp","true","","","revaluation","2","4","","",""
"html-keyboard-response","292","1343284","0.0-4.0-2.1-1.52","spark_pilot_2","7792","1","22","Female","","","","","","","null","<div style=""font-size:60px;"">+</div>","null","fixation","","","","","","","","","","","5","","",""
"revaluation","293","1349315","0.0-4.0-2.1-0.53","spark_pilot_2","7792","1","22","Female","","false","","","","","[837.5,499.90000000596046]","./assets/img/canyon/memory/39.jpg","[""ArrowUp"",""ArrowRight""]","value training","canyon","10","{""ArrowUp,ArrowLeft"":23,""ArrowUp,ArrowRight"":10,""ArrowDown,ArrowLeft"":8,""ArrowDown,ArrowRight"":30}","false","ArrowUp,ArrowRight","false","","","revaluation","2","6","","",""
"html-keyboard-response","294","1349822","0.0-4.0-2.1-1.53","spark_pilot_2","7792","1","22","Female","","","","","","","null","<div style=""font-size:60px;"">+</div>","null","fixation","","","","","","","","","","","7","","",""
"revaluation","295","1355849","0.0-4.0-2.1-0.54","spark_pilot_2","7792","1","22","Female","","false","","","","","[834.6000000238419,608.7000000178814]","./assets/img/canyon/memory/16.jpg","[""ArrowDown"",""ArrowLeft""]","value training","canyon","8","{""ArrowUp,ArrowLeft"":23,""ArrowUp,ArrowRight"":10,""ArrowDown,ArrowLeft"":8,""ArrowDown,ArrowRight"":30}","false","ArrowDown,ArrowLeft","false","","","revaluation","2","8","","",""
"html-keyboard-response","296","1356350","0.0-4.0-2.1-1.54","spark_pilot_2","7792","1","22","Female","","","","","","","null","<div style=""font-size:60px;"">+</div>","null","fixation","","","","","","","","","","","9","","",""
"revaluation","297","1362380","0.0-4.0-2.1-0.55","spark_pilot_2","7792","1","22","Female","","false","","","","","[902.2999999821186,574.0999999940395]","./assets/img/canyon/memory/7.jpg","[""ArrowDown"",""ArrowRight""]","value training","canyon","30","{""ArrowUp,ArrowLeft"":23,""ArrowUp,ArrowRight"":10,""ArrowDown,ArrowLeft"":8,""ArrowDown,ArrowRight"":30}","true","ArrowDown,ArrowRight","false","","","revaluation","2","10","","",""
"html-keyboard-response","298","1362892","0.0-4.0-2.1-1.55","spark_pilot_2","7792","1","22","Female","","","","","","","null","<div style=""font-size:60px;"">+</div>","null","fixation","","","","","","","","","","","11","","",""
"revaluation","299","1368915","0.0-4.0-2.1-0.56","spark_pilot_2","7792","1","22","Female","","false","","","","","[1034.9000000059605,476.90000000596046]","./assets/img/canyon/memory/31.jpg","[""ArrowDown"",""ArrowRight""]","value training","canyon","30","{""ArrowUp,ArrowLeft"":23,""ArrowUp,ArrowRight"":10,""ArrowDown,ArrowLeft"":8,""ArrowDown,ArrowRight"":30}","true","ArrowDown,ArrowRight","false","","","revaluation","2","12","","",""
"html-keyboard-response","300","1369422","0.0-4.0-2.1-1.56","spark_pilot_2","7792","1","22","Female","","","","","","","null","<div style=""font-size:60px;"">+</div>","null","fixation","","","","","","","","","","","13","","",""
"revaluation","301","1375445","0.0-4.0-2.1-0.57","spark_pilot_2","7792","1","22","Female","","false","","","","","[736.5999999940395,555.1999999880791]","./assets/img/canyon/memory/15.jpg","[""ArrowDown"",""ArrowRight""]","value training","canyon","30","{""ArrowUp,ArrowLeft"":23,""ArrowUp,ArrowRight"":10,""ArrowDown,ArrowLeft"":8,""ArrowDown,ArrowRight"":30}","true","ArrowDown,ArrowRight","false","","","revaluation","2","14","","",""
"html-keyboard-response","302","1375951","0.0-4.0-2.1-1.57","spark_pilot_2","7792","1","22","Female","","","","","","","null","<div style=""font-size:60px;"">+</div>","null","fixation","","","","","","","","","","","15","","",""
"revaluation","303","1381973","0.0-4.0-2.1-0.58","spark_pilot_2","7792","1","22","Female","","false","","","","","[741,416.40000000596046]","./assets/img/canyon/memory/37.jpg","[""ArrowDown"",""ArrowRight""]","value training","canyon","30","{""ArrowUp,ArrowLeft"":23,""ArrowUp,ArrowRight"":10,""ArrowDown,ArrowLeft"":8,""ArrowDown,ArrowRight"":30}","true","ArrowDown,ArrowRight","false","","","revaluation","2","16","","",""
"html-keyboard-response","304","1382480","0.0-4.0-2.1-1.58","spark_pilot_2","7792","1","22","Female","","","","","","","null","<div style=""font-size:60px;"">+</div>","null","fixation","","","","","","","","","","","17","","",""
"revaluation","305","1388502","0.0-4.0-2.1-0.59","spark_pilot_2","7792","1","22","Female","","false","","","","","[867.4000000059605,391.7999999821186]","./assets/img/canyon/memory/25.jpg","[""ArrowDown"",""ArrowRight""]","value training","canyon","30","{""ArrowUp,ArrowLeft"":23,""ArrowUp,ArrowRight"":10,""ArrowDown,ArrowLeft"":8,""ArrowDown,ArrowRight"":30}","true","ArrowDown,ArrowRight","false","","","revaluation","2","18","","",""
"html-keyboard-response","306","1389008","0.0-4.0-2.1-1.59","spark_pilot_2","7792","1","22","Female","","","","","","","null","<div style=""font-size:60px;"">+</div>","null","fixation","","","","","","","","","","","19","","",""
