"trial_type","trial_index","time_elapsed","internal_node_id","task_version","subject_id","assigned_condition","age","gender","success","timeout","failed_images","failed_audio","failed_video","browser_interaction","rt","stimulus","response","task_part","environment","score","rewardMap","correct","fullState","isCatch","numberMissed","duration","condition","order","trial_num","key_press","ground_truth","bonus"
"pavlovia","0","1724","0.0-0.0","spark_pilot_2","7331","5","12","Female","","","","","","","","","","","","","","","","","","","","","","","",""
"preload","1","43709","0.0-1.0","spark_pilot_2","7331","5","12","Female","true","false","[]","[]","[]","[{""event"":""fullscreenenter"",""trial"":2,""time"":54374}]","","","","","","","","","","","","","","","","","",""
"fullscreen","2","55297","0.0-2.0","spark_pilot_2","7331","5","12","Female","true","","","","","","","","","","","","","","","","","","","","","","",""
"audio-button-response","3","58805","0.0-3.0-0.0-0.0","spark_pilot_2","7331","5","12","Female","","","","","","","2981","./assets/audio/audiotest/turtle.mp3","2","audio_test","","","","","","","","","","","","","",""
"learning-instructions","4","69121","0.0-3.0-1.0-0.0","spark_pilot_2","7331","5","12","Female","","","","","","","2889.600000023842","<p> Welcome! Please remember to stay in fullscreen mode and don't click away from the experiment. </p>","","instructions","","","","","","","","","","","","","",""
"learning-instructions","5","79599","0.0-3.0-1.0-0.1","spark_pilot_2","7331","5","12","Female","","","","","","","2049","<p> Today you will be playing a game to earn treasure. </p>
            <p> At the end of the experiment, you will earn a bonus based on how much treasure you find. </p>
            <img src='./assets/img/instructions/treasure.jpg' class='instructions-image'>","","instructions","","","","","","","","","","","","","",""
"learning-instructions","6","90302","0.0-3.0-1.0-0.2","spark_pilot_2","7331","5","12","Female","","","","","","","2432","<p> Animals have hidden treasure in treasure chests. </p>
            <p> You need to first find an animal and then choose which of their treasure chests to search. </p>
            <img src='./assets/img/space/animals/cat.jpg' class='instructions-image'>","","instructions","","","","","","","","","","","","","",""
"learning-instructions","7","105060","0.0-3.0-1.0-0.3","spark_pilot_2","7331","5","12","Female","","","","","","","1599.800000011921","<p> In each round, you will search for treasure in a different place. In the real game, there will be two rounds. </p>
            <p> You will begin with a separate, practice round where you will search for treasure in outer space. </p>
            <img src='./assets/img/space/0.jpg' class='instructions-image'>","","instructions","","","","","","","","","","","","","",""
"learning-instructions","8","119420","0.0-3.0-1.0-0.4","spark_pilot_2","7331","5","12","Female","","","","","","","2910","<p> On every turn, you will see a picture of the place that you are in, but the specific image may be different each time. </p>
            <p> For example, both of these images mean you are in outer space. </p>
            <img src='./assets/img/instructions/outerspace.jpg' class='instructions-image'>","","instructions","","","","","","","","","","","","","",""
"learning-instructions","9","131382","0.0-3.0-1.0-0.5","spark_pilot_2","7331","5","12","Female","","","","","","","4128.5","<p> You need to decide which direction to travel in. </p>
            <p> You can choose between going <b>up or down</b> by using the arrow keys. </p>
            <img src='./assets/img/instructions/updown.jpg' class='instructions-image'>","","instructions","","","","","","","","","","","","","",""
"learning-instructions","10","149707","0.0-3.0-1.0-0.6","spark_pilot_2","7331","5","12","Female","","","","","","","9505.100000023842","<p> You will have <b>2 seconds</b> to make your choice. </p>
            <p> If you do not make a choice within 2 seconds, you will not find an animal or earn treasure. </p>
            <img src='./assets/img/instructions/2seconds.jpg' class='instructions-image'>","","instructions","","","","","","","","","","","","","",""
"learning-instructions","11","159532","0.0-3.0-1.0-0.7","spark_pilot_2","7331","5","12","Female","","","","","","","2790.699999988079","<p> Let’s try practicing that now! </p>
            <p> When you see a picture of the place you are in, press the <b>up</b> key to travel up. </p>
            <img src='./assets/img/instructions/pressUp.jpg' class='instructions-image'>","","instructions","","","","","","","","","","","","","",""
"revaluation","12","163602","0.0-3.0-2.0-0.0","spark_pilot_2","7331","5","12","Female","","false","","","","","[686.0999999642372]","./assets/img/space/0.jpg","[""ArrowUp""]","first stage practice","space","0","null","null","ArrowUp","false","","","","","","","",""
"html-keyboard-response","13","164108","0.0-3.0-2.0-1.0","spark_pilot_2","7331","5","12","Female","","","","","","","null","<div style=""font-size:60px;"">+</div>","null","fixation","","","","","","","","","","","","","",""
"revaluation","14","168130","0.0-3.0-2.0-0.1","spark_pilot_2","7331","5","12","Female","","false","","","","","[86.29999995231628]","./assets/img/space/1.jpg","[""ArrowUp""]","first stage practice","space","0","null","null","ArrowUp","false","","","","","","","",""
"html-keyboard-response","15","168642","0.0-3.0-2.0-1.1","spark_pilot_2","7331","5","12","Female","","","","","","","null","<div style=""font-size:60px;"">+</div>","null","fixation","","","","","","","","","","","","","",""
"revaluation","16","172657","0.0-3.0-2.0-0.2","spark_pilot_2","7331","5","12","Female","","false","","","","","[667.2999999523163]","./assets/img/space/2.jpg","[""ArrowUp""]","first stage practice","space","0","null","null","ArrowUp","false","","","","","","","",""
"html-keyboard-response","17","173169","0.0-3.0-2.0-1.2","spark_pilot_2","7331","5","12","Female","","","","","","","null","<div style=""font-size:60px;"">+</div>","null","fixation","","","","","","","","","","","","","",""
"learning-instructions","18","179297","0.0-3.0-3.0-0.0","spark_pilot_2","7331","5","12","Female","","","","","","","1418","<p> Great job! Now try pressing the <b>down</b> key to travel down. </p>
            <img src='./assets/img/instructions/pressDown.jpg' class='instructions-image'>","","instructions","","","","","","","","","","","","","",""
"revaluation","19","183306","0.0-3.0-4.0-0.0","spark_pilot_2","7331","5","12","Female","","false","","","","","[496.9000000357628]","./assets/img/space/3.jpg","[""ArrowDown""]","first stage practice","space","0","null","null","ArrowDown","false","","","","","","","",""
"html-keyboard-response","20","183814","0.0-3.0-4.0-1.0","spark_pilot_2","7331","5","12","Female","","","","","","","null","<div style=""font-size:60px;"">+</div>","null","fixation","","","","","","","","","","","","","",""
"revaluation","21","187823","0.0-3.0-4.0-0.1","spark_pilot_2","7331","5","12","Female","","false","","","","","[158.70000004768372]","./assets/img/space/4.jpg","[""ArrowDown""]","first stage practice","space","0","null","null","ArrowDown","false","","","","","","","",""
"html-keyboard-response","22","188339","0.0-3.0-4.0-1.1","spark_pilot_2","7331","5","12","Female","","","","","","","null","<div style=""font-size:60px;"">+</div>","null","fixation","","","","","","","","","","","","","",""
"revaluation","23","192361","0.0-3.0-4.0-0.2","spark_pilot_2","7331","5","12","Female","","false","","","","","[252.30000001192093]","./assets/img/space/5.jpg","[""ArrowDown""]","first stage practice","space","0","null","null","ArrowDown","false","","","","","","","",""
"html-keyboard-response","24","192877","0.0-3.0-4.0-1.2","spark_pilot_2","7331","5","12","Female","","","","","","","null","<div style=""font-size:60px;"">+</div>","null","fixation","","","","","","","","","","","","","",""
"learning-instructions","25","204345","0.0-3.0-5.0-0.0","spark_pilot_2","7331","5","12","Female","","","","","","","1605.300000011921","<p> The animals don’t move, so the animal in the upper part of a place will stay in the upper part of a place, and the animal in the lower part of a place will stay in the lower part of a place. </p>","","instructions","","","","","","","","","","","","","",""
"learning-instructions","26","214747","0.0-3.0-5.0-0.1","spark_pilot_2","7331","5","12","Female","","","","","","","1267.699999988079","<p> Each animal has two treasure chests for you to choose from. </p>
            <p> The amount of treasure in each chest can range from <b> 0 to 40 pieces.</b></p>","","instructions","","","","","","","","","","","","","",""
"learning-instructions","27","227511","0.0-3.0-5.0-0.2","spark_pilot_2","7331","5","12","Female","","","","","","","1561.199999988079","<p> You should decide which chest to search for treasure by using the <b>left</b> and <b>right</b> arrow keys. </p>
            <p><b> Pay attention to which animal is on the screen, as the animals have different treasure chests. </b></p>
            <img src='./assets/img/instructions/leftright.jpg' class='instructions-image'>","","instructions","","","","","","","","","","","","","",""
"learning-instructions","28","236390","0.0-3.0-5.0-0.3","spark_pilot_2","7331","5","12","Female","","","","","","","2520.099999964237","<p> Let’s try practicing that now. </p>
            <p> When you see an animal, choose which chest to search for treasure. </p>
            <img src='./assets/img/instructions/chooseChest.jpg' class='instructions-image'>","","instructions","","","","","","","","","","","","","",""
"revaluation","29","240439","0.0-3.0-6.0-0.0","spark_pilot_2","7331","5","12","Female","","false","","","","","[1017.1000000238419]","./assets/img/space/animals/rabbit.jpg","[""ArrowLeft""]","second stage practice","space","15","{""ArrowUp,ArrowLeft"":3,""ArrowUp,ArrowRight"":36,""ArrowDown,ArrowLeft"":15,""ArrowDown,ArrowRight"":23}","false","ArrowDown,ArrowLeft","","","","","","","","",""
"html-keyboard-response","30","240957","0.0-3.0-6.0-1.0","spark_pilot_2","7331","5","12","Female","","","","","","","null","<div style=""font-size:60px;"">+</div>","null","fixation","","","","","","","","","","","","","",""
"revaluation","31","244984","0.0-3.0-6.0-0.1","spark_pilot_2","7331","5","12","Female","","false","","","","","[293.9000000357628]","./assets/img/space/animals/cat.jpg","[""ArrowRight""]","second stage practice","space","36","{""ArrowUp,ArrowLeft"":3,""ArrowUp,ArrowRight"":36,""ArrowDown,ArrowLeft"":15,""ArrowDown,ArrowRight"":23}","true","ArrowUp,ArrowRight","","","","","","","","",""
"html-keyboard-response","32","245488","0.0-3.0-6.0-1.1","spark_pilot_2","7331","5","12","Female","","","","","","","null","<div style=""font-size:60px;"">+</div>","null","fixation","","","","","","","","","","","","","",""
"revaluation","33","249512","0.0-3.0-6.0-0.2","spark_pilot_2","7331","5","12","Female","","false","","","","","[106.90000003576279]","./assets/img/space/animals/rabbit.jpg","[""ArrowRight""]","second stage practice","space","23","{""ArrowUp,ArrowLeft"":3,""ArrowUp,ArrowRight"":36,""ArrowDown,ArrowLeft"":15,""ArrowDown,ArrowRight"":23}","true","ArrowDown,ArrowRight","","","","","","","","",""
"html-keyboard-response","34","250017","0.0-3.0-6.0-1.2","spark_pilot_2","7331","5","12","Female","","","","","","","null","<div style=""font-size:60px;"">+</div>","null","fixation","","","","","","","","","","","","","",""
"revaluation","35","254028","0.0-3.0-6.0-0.3","spark_pilot_2","7331","5","12","Female","","false","","","","","[140.89999997615814]","./assets/img/space/animals/cat.jpg","[""ArrowRight""]","second stage practice","space","36","{""ArrowUp,ArrowLeft"":3,""ArrowUp,ArrowRight"":36,""ArrowDown,ArrowLeft"":15,""ArrowDown,ArrowRight"":23}","true","ArrowUp,ArrowRight","","","","","","","","",""
"html-keyboard-response","36","254543","0.0-3.0-6.0-1.3","spark_pilot_2","7331","5","12","Female","","","","","","","null","<div style=""font-size:60px;"">+</div>","null","fixation","","","","","","","","","","","","","",""
"learning-instructions","37","272140","0.0-3.0-7.0-0.0","spark_pilot_2","7331","5","12","Female","","","","","","","760.3999999761581","<p> Great job. Now let’s try putting it together. </p>
            <p> On each turn, you will first see a picture to remind you of the place you are in, and you need to choose whether to go up or down. </p>
            <p> Then you will see an animal and choose which of its chests to search for treasure. </p>","","instructions","","","","","","","","","","","","","",""
"learning-instructions","38","282432","0.0-3.0-7.0-0.1","spark_pilot_2","7331","5","12","Female","","","","","","","2012.800000011921","<p> When you choose whether to go up or down, try to go to the animal with the chest with the most treasure. </p>
            <p> Try practicing that now! </p>","","instructions","","","","","","","","","","","","","",""
"revaluation","39","288443","0.0-3.0-8.0-0.0","spark_pilot_2","7331","5","12","Female","","false","","","","","[786.8000000119209,515.5]","./assets/img/space/6.jpg","[""ArrowUp"",""ArrowLeft""]","full practice","space","3","{""ArrowUp,ArrowLeft"":3,""ArrowUp,ArrowRight"":36,""ArrowDown,ArrowLeft"":15,""ArrowDown,ArrowRight"":23}","false","ArrowUp,ArrowLeft","false","","","","","","","",""
"html-keyboard-response","40","288958","0.0-3.0-8.0-1.0","spark_pilot_2","7331","5","12","Female","","","","","","","null","<div style=""font-size:60px;"">+</div>","null","fixation","","","","","","","","","","","","","",""
"revaluation","41","294979","0.0-3.0-8.0-0.1","spark_pilot_2","7331","5","12","Female","","false","","","","","[142.89999997615814,133.9000000357628]","./assets/img/space/7.jpg","[""ArrowDown"",""ArrowLeft""]","full practice","space","15","{""ArrowUp,ArrowLeft"":3,""ArrowUp,ArrowRight"":36,""ArrowDown,ArrowLeft"":15,""ArrowDown,ArrowRight"":23}","false","ArrowDown,ArrowLeft","false","","","","","","","",""
"html-keyboard-response","42","295483","0.0-3.0-8.0-1.1","spark_pilot_2","7331","5","12","Female","","","","","","","null","<div style=""font-size:60px;"">+</div>","null","fixation","","","","","","","","","","","","","",""
"revaluation","43","301525","0.0-3.0-8.0-0.2","spark_pilot_2","7331","5","12","Female","","false","","","","","[17.19999998807907,122]","./assets/img/space/8.jpg","[""ArrowUp"",""ArrowLeft""]","full practice","space","3","{""ArrowUp,ArrowLeft"":3,""ArrowUp,ArrowRight"":36,""ArrowDown,ArrowLeft"":15,""ArrowDown,ArrowRight"":23}","false","ArrowUp,ArrowLeft","false","","","","","","","",""
"html-keyboard-response","44","302035","0.0-3.0-8.0-1.2","spark_pilot_2","7331","5","12","Female","","","","","","","null","<div style=""font-size:60px;"">+</div>","null","fixation","","","","","","","","","","","","","",""
"revaluation","45","308053","0.0-3.0-8.0-0.3","spark_pilot_2","7331","5","12","Female","","false","","","","","[168.10000002384186,631.6999999880791]","./assets/img/space/9.jpg","[""ArrowDown"",""ArrowRight""]","full practice","space","23","{""ArrowUp,ArrowLeft"":3,""ArrowUp,ArrowRight"":36,""ArrowDown,ArrowLeft"":15,""ArrowDown,ArrowRight"":23}","false","ArrowDown,ArrowRight","false","","","","","","","",""
"html-keyboard-response","46","308567","0.0-3.0-8.0-1.3","spark_pilot_2","7331","5","12","Female","","","","","","","null","<div style=""font-size:60px;"">+</div>","null","fixation","","","","","","","","","","","","","",""
"revaluation","47","314584","0.0-3.0-8.0-0.4","spark_pilot_2","7331","5","12","Female","","false","","","","","[147.80000001192093,1076.7999999523163]","./assets/img/space/10.jpg","[""ArrowUp"",""ArrowRight""]","full practice","space","36","{""ArrowUp,ArrowLeft"":3,""ArrowUp,ArrowRight"":36,""ArrowDown,ArrowLeft"":15,""ArrowDown,ArrowRight"":23}","true","ArrowUp,ArrowRight","false","","","","","","","",""
"html-keyboard-response","48","315131","0.0-3.0-8.0-1.4","spark_pilot_2","7331","5","12","Female","","","","","","","null","<div style=""font-size:60px;"">+</div>","null","fixation","","","","","","","","","","","","","",""
"learning-instructions","49","327734","0.0-3.0-9.0-0.0","spark_pilot_2","7331","5","12","Female","","","","","","","1084.300000011921","<p> One last thing: sometimes, you will see a robber. The robber can be anywhere in the picture. </p>
            <p> If you do not stop them, you will lose treasure. </p>
            <img src='./assets/img/instructions/robber.jpg' class='instructions-image'>","","instructions","","","","","","","","","","","","","",""
"learning-instructions","50","335457","0.0-3.0-9.0-0.1","spark_pilot_2","7331","5","12","Female","","","","","","","548.8000000119209","<p> If you see the robber, you should <b>press the space bar</b> rather than using the arrow keys. </p>
            <p> Try practicing that now! </p>","","instructions","","","","","","","","","","","","","",""
"revaluation","51","339477","0.0-3.0-10.0-0.0","spark_pilot_2","7331","5","12","Female","","false","","","","","[935.5]","./assets/img/space/catch/0.jpg","[""spaceBar""]","catch practice","space","0","{""ArrowUp,ArrowLeft"":3,""ArrowUp,ArrowRight"":36,""ArrowDown,ArrowLeft"":15,""ArrowDown,ArrowRight"":23}","true","spaceBar","true","","","","","","","",""
"html-keyboard-response","52","339997","0.0-3.0-10.0-1.0","spark_pilot_2","7331","5","12","Female","","","","","","","null","<div style=""font-size:60px;"">+</div>","null","fixation","","","","","","","","","","","","","",""
"revaluation","53","344014","0.0-3.0-10.0-0.1","spark_pilot_2","7331","5","12","Female","","false","","","","","[618.9000000357628]","./assets/img/space/catch/1.jpg","[""spaceBar""]","catch practice","space","0","{""ArrowUp,ArrowLeft"":3,""ArrowUp,ArrowRight"":36,""ArrowDown,ArrowLeft"":15,""ArrowDown,ArrowRight"":23}","true","spaceBar","true","","","","","","","",""
"html-keyboard-response","54","344517","0.0-3.0-10.0-1.1","spark_pilot_2","7331","5","12","Female","","","","","","","null","<div style=""font-size:60px;"">+</div>","null","fixation","","","","","","","","","","","","","",""
"revaluation","55","348543","0.0-3.0-10.0-0.2","spark_pilot_2","7331","5","12","Female","","false","","","","","[611.9000000357628]","./assets/img/space/catch/2.jpg","[""spaceBar""]","catch practice","space","0","{""ArrowUp,ArrowLeft"":3,""ArrowUp,ArrowRight"":36,""ArrowDown,ArrowLeft"":15,""ArrowDown,ArrowRight"":23}","true","spaceBar","true","","","","","","","",""
"html-keyboard-response","56","349060","0.0-3.0-10.0-1.2","spark_pilot_2","7331","5","12","Female","","","","","","","null","<div style=""font-size:60px;"">+</div>","null","fixation","","","","","","","","","","","","","",""
"learning-instructions","57","363634","0.0-3.0-11.0-0.0","spark_pilot_2","7331","5","12","Female","","","","","","","966.0999999642372","<p> After you explore a place to find treasure, it will be time to play a different game. </p>
            <p> During this game, red dots will appear on the screen and fall down slowly. </p>
            <p><b> You must click on them before they reach the bottom. </b></p>
            <img src='./assets/img/instructions/dotGame.jpg' class='instructions-image'>","","instructions","","","","","","","","","","","","","",""
"learning-instructions","58","370042","0.0-3.0-11.0-0.1","spark_pilot_2","7331","5","12","Female","","","","","","","734.6999999880791","<p> For every dot you click, you will earn additional treasure. </p>
            <p> Let’s try practicing that now. </p>","","instructions","","","","","","","","","","","","","",""
"revaluation","59","385063","0.0-3.0-12.0-0.0","spark_pilot_2","7331","5","12","Female","","","","","","","[163]","","","rest practice","","10","","","","","0","15000","","","","","",""
"learning-instructions","60","391717","0.0-3.0-13.0-0.0-0.0","spark_pilot_2","7331","5","12","Female","","","","","","","1399","<p> Now, you will practice a shortened version of the game to get a sense of how it all fits together. </p>","","instructions","","","","","","","","","","","","","",""
"learning-instructions","61","395846","0.0-3.0-13.0-0.0-0.1","spark_pilot_2","7331","5","12","Female","","","","","","","938.2999999523163","<p>This time you are searching for treasure in outer space.</p>","","instructions","","","","","","","","","","","","","",""
"learning-instructions","62","413551","0.0-3.0-13.0-1.0-0.0","spark_pilot_2","7331","5","12","Female","","","","","","","2923.5","<p> Remember, when you see a picture of the place, use the up and down keys to <b>find an animal</b>.</p>
            <p> When you encounter an animal, you should use the left and right keys to <b>select a treasure chest</b>.</p>
            <p> Don't forget to look out for the robber! </p>","","instructions","","","","","","","","","","","","","",""
"revaluation","63","419587","0.0-3.0-13.0-2.0-0.0","spark_pilot_2","7331","5","12","Female","","false","","","","","[1081.699999988079,1639.699999988079]","./assets/img/space/11.jpg","[""ArrowDown"",""ArrowLeft""]","practice block","space","15","{""ArrowUp,ArrowLeft"":3,""ArrowUp,ArrowRight"":36,""ArrowDown,ArrowLeft"":15,""ArrowDown,ArrowRight"":23}","false","ArrowDown,ArrowLeft","false","","","","","","","",""
"html-keyboard-response","64","420096","0.0-3.0-13.0-2.0-1.0","spark_pilot_2","7331","5","12","Female","","","","","","","null","<div style=""font-size:60px;"">+</div>","null","fixation","","","","","","","","","","","","","",""
"revaluation","65","426137","0.0-3.0-13.0-2.0-0.1","spark_pilot_2","7331","5","12","Female","","false","","","","","[539.6999999880791,689.1999999880791]","./assets/img/space/12.jpg","[""ArrowUp"",""ArrowLeft""]","practice block","space","3","{""ArrowUp,ArrowLeft"":3,""ArrowUp,ArrowRight"":36,""ArrowDown,ArrowLeft"":15,""ArrowDown,ArrowRight"":23}","false","ArrowUp,ArrowLeft","false","","","","","","","",""
"html-keyboard-response","66","426644","0.0-3.0-13.0-2.0-1.1","spark_pilot_2","7331","5","12","Female","","","","","","","null","<div style=""font-size:60px;"">+</div>","null","fixation","","","","","","","","","","","","","",""
"revaluation","67","432677","0.0-3.0-13.0-2.0-0.2","spark_pilot_2","7331","5","12","Female","","false","","","","","[1095.0999999642372,1174.3999999761581]","./assets/img/space/13.jpg","[""ArrowDown"",""ArrowRight""]","practice block","space","23","{""ArrowUp,ArrowLeft"":3,""ArrowUp,ArrowRight"":36,""ArrowDown,ArrowLeft"":15,""ArrowDown,ArrowRight"":23}","false","ArrowDown,ArrowRight","false","","","","","","","",""
"html-keyboard-response","68","433183","0.0-3.0-13.0-2.0-1.2","spark_pilot_2","7331","5","12","Female","","","","","","","null","<div style=""font-size:60px;"">+</div>","null","fixation","","","","","","","","","","","","","",""
"revaluation","69","439212","0.0-3.0-13.0-2.0-0.3","spark_pilot_2","7331","5","12","Female","","false","","","","","[1019.6999999880791,835.1999999880791]","./assets/img/space/14.jpg","[""ArrowUp"",""ArrowRight""]","practice block","space","36","{""ArrowUp,ArrowLeft"":3,""ArrowUp,ArrowRight"":36,""ArrowDown,ArrowLeft"":15,""ArrowDown,ArrowRight"":23}","true","ArrowUp,ArrowRight","false","","","","","","","",""
"html-keyboard-response","70","439723","0.0-3.0-13.0-2.0-1.3","spark_pilot_2","7331","5","12","Female","","","","","","","null","<div style=""font-size:60px;"">+</div>","null","fixation","","","","","","","","","","","","","",""
"revaluation","71","445727","0.0-3.0-13.0-2.0-0.4","spark_pilot_2","7331","5","12","Female","","false","","","","","[1062.5,955.6000000238419]","./assets/img/space/11.jpg","[""ArrowDown"",""ArrowRight""]","practice block","space","23","{""ArrowUp,ArrowLeft"":3,""ArrowUp,ArrowRight"":36,""ArrowDown,ArrowLeft"":15,""ArrowDown,ArrowRight"":23}","false","ArrowDown,ArrowRight","false","","","","","","","",""
"html-keyboard-response","72","446228","0.0-3.0-13.0-2.0-1.4","spark_pilot_2","7331","5","12","Female","","","","","","","null","<div style=""font-size:60px;"">+</div>","null","fixation","","","","","","","","","","","","","",""
"revaluation","73","452233","0.0-3.0-13.0-2.0-0.5","spark_pilot_2","7331","5","12","Female","","false","","","","","[1039.800000011921,581.5]","./assets/img/space/12.jpg","[""ArrowUp"",""ArrowRight""]","practice block","space","36","{""ArrowUp,ArrowLeft"":3,""ArrowUp,ArrowRight"":36,""ArrowDown,ArrowLeft"":15,""ArrowDown,ArrowRight"":23}","true","ArrowUp,ArrowRight","false","","","","","","","",""
"html-keyboard-response","74","452735","0.0-3.0-13.0-2.0-1.5","spark_pilot_2","7331","5","12","Female","","","","","","","null","<div style=""font-size:60px;"">+</div>","null","fixation","","","","","","","","","","","","","",""
"revaluation","75","458740","0.0-3.0-13.0-2.0-0.6","spark_pilot_2","7331","5","12","Female","","false","","","","","[1055.5999999642372,1674.1000000238419]","./assets/img/space/13.jpg","[""ArrowDown"",""ArrowRight""]","practice block","space","23","{""ArrowUp,ArrowLeft"":3,""ArrowUp,ArrowRight"":36,""ArrowDown,ArrowLeft"":15,""ArrowDown,ArrowRight"":23}","false","ArrowDown,ArrowRight","false","","","","","","","",""
"html-keyboard-response","76","459241","0.0-3.0-13.0-2.0-1.6","spark_pilot_2","7331","5","12","Female","","","","","","","null","<div style=""font-size:60px;"">+</div>","null","fixation","","","","","","","","","","","","","",""
"revaluation","77","465247","0.0-3.0-13.0-2.0-0.7","spark_pilot_2","7331","5","12","Female","","false","","","","","[1483,748.5]","./assets/img/space/14.jpg","[""ArrowUp"",""ArrowRight""]","practice block","space","36","{""ArrowUp,ArrowLeft"":3,""ArrowUp,ArrowRight"":36,""ArrowDown,ArrowLeft"":15,""ArrowDown,ArrowRight"":23}","true","ArrowUp,ArrowRight","false","","","","","","","",""
"html-keyboard-response","78","465749","0.0-3.0-13.0-2.0-1.7","spark_pilot_2","7331","5","12","Female","","","","","","","null","<div style=""font-size:60px;"">+</div>","null","fixation","","","","","","","","","","","","","",""
"revaluation","79","469753","0.0-3.0-13.0-2.0-0.8","spark_pilot_2","7331","5","12","Female","","false","","","","","[737.1999999880791]","./assets/img/space/catch/3.jpg","[""spaceBar""]","practice block","space","0","{""ArrowUp,ArrowLeft"":3,""ArrowUp,ArrowRight"":36,""ArrowDown,ArrowLeft"":15,""ArrowDown,ArrowRight"":23}","true","spaceBar","true","","","","","","","",""
"html-keyboard-response","80","470255","0.0-3.0-13.0-2.0-1.8","spark_pilot_2","7331","5","12","Female","","","","","","","null","<div style=""font-size:60px;"">+</div>","null","fixation","","","","","","","","","","","","","",""
"learning-instructions","81","484914","0.0-3.0-13.0-3.0-0.0","spark_pilot_2","7331","5","12","Female","","","","","","","1117.699999988079","<p> Now, you will travel with a friend who will choose whether you go up or down first. </p>
            <p> On these turns, you will just see the animal that they found. You will still get to choose which chest to search for treasure.</p>","","instructions","","","","","","","","","","","","","",""
"revaluation","82","488933","0.0-3.0-13.0-4.0-0.0","spark_pilot_2","7331","5","12","Female","","false","","","","","[852.6000000238419]","./assets/img/space/animals/rabbit.jpg","[""ArrowRight""]","practice block","space","23","{""ArrowUp,ArrowLeft"":3,""ArrowUp,ArrowRight"":36,""ArrowDown,ArrowLeft"":15,""ArrowDown,ArrowRight"":23}","true","ArrowDown,ArrowRight","","","","","","","","",""
"html-keyboard-response","83","489444","0.0-3.0-13.0-4.0-1.0","spark_pilot_2","7331","5","12","Female","","","","","","","null","<div style=""font-size:60px;"">+</div>","null","fixation","","","","","","","","","","","","","",""
"revaluation","84","493452","0.0-3.0-13.0-4.0-0.1","spark_pilot_2","7331","5","12","Female","","false","","","","","[642]","./assets/img/space/animals/cat.jpg","[""ArrowRight""]","practice block","space","36","{""ArrowUp,ArrowLeft"":3,""ArrowUp,ArrowRight"":36,""ArrowDown,ArrowLeft"":15,""ArrowDown,ArrowRight"":23}","true","ArrowUp,ArrowRight","","","","","","","","",""
"html-keyboard-response","85","493962","0.0-3.0-13.0-4.0-1.1","spark_pilot_2","7331","5","12","Female","","","","","","","null","<div style=""font-size:60px;"">+</div>","null","fixation","","","","","","","","","","","","","",""
"revaluation","86","497983","0.0-3.0-13.0-4.0-0.2","spark_pilot_2","7331","5","12","Female","","false","","","","","[11.600000023841858]","./assets/img/space/animals/cat.jpg","[""ArrowRight""]","practice block","space","36","{""ArrowUp,ArrowLeft"":3,""ArrowUp,ArrowRight"":36,""ArrowDown,ArrowLeft"":15,""ArrowDown,ArrowRight"":23}","true","ArrowUp,ArrowRight","","","","","","","","",""
"html-keyboard-response","87","498494","0.0-3.0-13.0-4.0-1.2","spark_pilot_2","7331","5","12","Female","","","","","","","null","<div style=""font-size:60px;"">+</div>","null","fixation","","","","","","","","","","","","","",""
"revaluation","88","502516","0.0-3.0-13.0-4.0-0.3","spark_pilot_2","7331","5","12","Female","","false","","","","","[504.60000002384186]","./assets/img/space/animals/rabbit.jpg","[""ArrowRight""]","practice block","space","23","{""ArrowUp,ArrowLeft"":3,""ArrowUp,ArrowRight"":36,""ArrowDown,ArrowLeft"":15,""ArrowDown,ArrowRight"":23}","true","ArrowDown,ArrowRight","","","","","","","","",""
"html-keyboard-response","89","503022","0.0-3.0-13.0-4.0-1.3","spark_pilot_2","7331","5","12","Female","","","","","","","null","<div style=""font-size:60px;"">+</div>","null","fixation","","","","","","","","","","","","","",""
"learning-instructions","90","511719","0.0-3.0-13.0-5.0-0.0","spark_pilot_2","7331","5","12","Female","","","","","","","1325.699999988079","<p> Time to play the dot game! </p>
            <p> For 15 seconds, click the red dots on the following screen as they appear. </p>","","instructions","","","","","","","","","","","","","",""
"revaluation","91","526731","0.0-3.0-13.0-6.0-0.0","spark_pilot_2","7331","5","12","Female","","","","","","","[161]","","","rest practice","","10","","","","","0","15000","","","","","",""
"learning-instructions","92","534848","0.0-3.0-13.0-7.0-0.0","spark_pilot_2","7331","5","12","Female","","","","","","","1984.6000000238419","<p> You have almost finished this part of the game! </p>
            <p> We are going to ask you to make a few more choices. </p>","","instructions","","","","","","","","","","","","","",""
"learning-instructions","93","549565","0.0-3.0-13.0-7.0-0.1","spark_pilot_2","7331","5","12","Female","","","","","","","711.1000000238419","<p> First, you need to decide whether to go up or down. When you see each picture, use the arrow keys to make your choice. </p>
            <p><b>You will not see which animal you found, but try to get to the one that will give you the most treasure.</b></p>","","instructions","","","","","","","","","","","","","",""
"revaluation","94","550474","0.0-3.0-13.0-8.0","spark_pilot_2","7331","5","12","Female","","false","","","","","[907.6000000238419]","./assets/img/space/15.jpg","[""ArrowDown""]","practice block","space","0","{""ArrowUp,ArrowLeft"":3,""ArrowUp,ArrowRight"":36,""ArrowDown,ArrowLeft"":15,""ArrowDown,ArrowRight"":23}","false","ArrowDown","false","","","","","","","",""
"html-keyboard-response","95","550976","0.0-3.0-13.0-9.0","spark_pilot_2","7331","5","12","Female","","","","","","","null","<div style=""font-size:60px;"">+</div>","null","fixation","","","","","","","","","","","","","",""
"learning-instructions","96","563888","0.0-3.0-13.0-10.0-0.0","spark_pilot_2","7331","5","12","Female","","","","","","","1534.199999988079","<p> Now you will see the animals again and can search their chests for treasure. </p>
            <p> This time, you will not see how much treasure you earned, but you will earn more bonus money for making better choices. </p>","","instructions","","","","","","","","","","","","","",""
"revaluation","97","564713","0.0-3.0-13.0-11.0-0.0","spark_pilot_2","7331","5","12","Female","","false","","","","","[822.8999999761581]","./assets/img/space/animals/cat.jpg","[""ArrowRight""]","practice block","space","0","{""ArrowUp,ArrowLeft"":3,""ArrowUp,ArrowRight"":36,""ArrowDown,ArrowLeft"":15,""ArrowDown,ArrowRight"":23}","true","ArrowUp,ArrowRight","","","","","","","","",""
"html-keyboard-response","98","565227","0.0-3.0-13.0-11.0-1.0","spark_pilot_2","7331","5","12","Female","","","","","","","null","<div style=""font-size:60px;"">+</div>","null","fixation","","","","","","","","","","","","","",""
"revaluation","99","565359","0.0-3.0-13.0-11.0-0.1","spark_pilot_2","7331","5","12","Female","","false","","","","","[128]","./assets/img/space/animals/rabbit.jpg","[""ArrowRight""]","practice block","space","0","{""ArrowUp,ArrowLeft"":3,""ArrowUp,ArrowRight"":36,""ArrowDown,ArrowLeft"":15,""ArrowDown,ArrowRight"":23}","true","ArrowDown,ArrowRight","","","","","","","","",""
"html-keyboard-response","100","565862","0.0-3.0-13.0-11.0-1.1","spark_pilot_2","7331","5","12","Female","","","","","","","null","<div style=""font-size:60px;"">+</div>","null","fixation","","","","","","","","","","","","","",""
"learning-instructions","101","572513","0.0-3.0-14.0-0.0","spark_pilot_2","7331","5","12","Female","","","","","","","1989.199999988079","<p> Before you start, we're going to ask you a few questions about how the game works. </p>","","instructions","","","","","","","","","","","","","",""
"comp-q","102","579572","0.0-3.0-15.0-0.0-0.0","spark_pilot_2","7331","5","12","Female","","","","","","","1462.300000011921","<p> <b> True or False? </b> </p>
            <p> There can be 50 pieces of treasure in a given animal's chest. </p>","1","comp_question","","","","true","","","","","","","","","",""
"comp-q","103","587589","0.0-3.0-15.0-0.0-1.0","spark_pilot_2","7331","5","12","Female","","","","","","","1355.5","<p> <b> That's right! </b> The amount of treasure in each chest can range from 0 to 40 pieces. </p>","0","comp_answer","","","","","","","","","","","","","",""
"comp-q","104","595967","0.0-3.0-15.0-0.1-0.1","spark_pilot_2","7331","5","12","Female","","","","","","","1263.300000011921","<p> <b> True or False? </b> </p><p> In this game, all animals have the same amount of treasure in their left and right chests. </p>","1","comp_question","","","","true","","","","","","","","","",""
"comp-q","105","604083","0.0-3.0-15.0-0.1-1.1","spark_pilot_2","7331","5","12","Female","","","","","","","1829.300000011921","<p> <b> That's right! </b> Animals have different amounts of treasure in their treasure chests. </p>","0","comp_answer","","","","","","","","","","","","","",""
"comp-q","106","611634","0.0-3.0-15.0-0.2-0.2","spark_pilot_2","7331","5","12","Female","","","","","","","1700.300000011921","<p> <b> True or False? </b> </p><p> The same animal will always be there if you go up in the same place. </p>","1","comp_question","","","","false","","","","","","","","","",""
"comp-q","107","619061","0.0-3.0-15.0-0.2-1.2","spark_pilot_2","7331","5","12","Female","","","","","","","1127.7999999523163","<p> <b>Incorrect.</b> One animal lives in the upper part and one lives in the lower part of every place. </p>","0","comp_answer","","","","","","","","","","","","","",""
"comp-q","108","625924","0.0-3.0-15.0-0.3-0.3","spark_pilot_2","7331","5","12","Female","","","","","","","1050.1000000238419","<p> <b> True or False? </b> </p><p> The same animal will always be there if you go up in the same place. </p>","0","comp_question","","","","true","","","","","","","","","",""
"comp-q","109","635652","0.0-3.0-15.0-0.3-1.3","spark_pilot_2","7331","5","12","Female","","","","","","","3057.899999976158","<p> <b> That's right! </b> One animal lives in the upper part and one lives in the lower part of every place. </p>","0","comp_answer","","","","","","","","","","","","","",""
"comp-q","110","646484","0.0-3.0-15.0-0.4-0.4","spark_pilot_2","7331","5","12","Female","","","","","","","5210.800000011921","<p> <b> True or False? </b> </p><p> If you see a different picture, it means you are in a new place. </p>","1","comp_question","","","","true","","","","","","","","","",""
"comp-q","111","662039","0.0-3.0-15.0-0.4-1.4","spark_pilot_2","7331","5","12","Female","","","","","","","4165.300000011921","<p> <b> That's right! </b> Lots of different images may show the same place. For example,  you may see three different images that all remind you that you are in outer space. </p>","0","comp_answer","","","","","","","","","","","","","",""
"learning-instructions","112","677158","0.0-3.0-16.0-0.0","spark_pilot_2","7331","5","12","Female","","","","","","","5254.699999988079","<p> Good job. Remember to do your best because the amount of treasure you earn will be converted into bonus money. </p>
            <p> It’s time to start the real game! </p>","","instructions","","","","","","","","","","","","","",""
"learning-instructions","113","682963","0.0-4.0-0.0-0.0","spark_pilot_2","7331","5","12","Female","","","","","","","3029.7000000476837","<p> This time you are searching for treasure in the <b>canyon</b>.</p>","","instructions","","","","","","","","","","","","","",""
"learning-instructions","114","703103","0.0-4.0-0.0-0.1","spark_pilot_2","7331","5","12","Female","","","","","","","2839.2000000476837","<p><b>New</b> animals with <b>new</b> treasure chests live here. You need to explore to discover where the animal with the best treasure chest is.</p>
                    <p> Like before, once you figure out which animal has the chest with the most treasure, you should try to get to that animal and select that chest! </p>","","instructions","","","","","","","","","","","","","",""
"learning-instructions","115","778032","0.0-4.0-1.0-0.0","spark_pilot_2","7331","5","12","Female","","","","","","","60038.80000001192","<p> Remember, when you see a picture of the place, use the up and down keys to <b>find an animal</b>.</p>
            <p> When you encounter an animal, you should use the left and right keys to <b>select a treasure chest</b>.</p>
            <p> Don't forget to look out for the robber! </p>","","instructions","","","","","","","","","","","","","",""
"revaluation","116","784066","0.0-4.0-2.0-0.0","spark_pilot_2","7331","5","12","Female","","false","","","","","[633.2999999523163,1006.9000000357628]","./assets/img/canyon/memory/8.jpg","[""ArrowUp"",""ArrowLeft""]","value training","canyon","26","{""ArrowUp,ArrowLeft"":26,""ArrowUp,ArrowRight"":10,""ArrowDown,ArrowLeft"":5,""ArrowDown,ArrowRight"":17}","true","ArrowUp,ArrowLeft","false","","","original","1","0","","",""
"html-keyboard-response","117","784572","0.0-4.0-2.0-1.0","spark_pilot_2","7331","5","12","Female","","","","","","","null","<div style=""font-size:60px;"">+</div>","null","fixation","","","","","","","","","","","1","","",""
"revaluation","118","790579","0.0-4.0-2.0-0.1","spark_pilot_2","7331","5","12","Female","","false","","","","","[924.6999999880791,896.1999999880791]","./assets/img/canyon/memory/38.jpg","[""ArrowDown"",""ArrowLeft""]","value training","canyon","5","{""ArrowUp,ArrowLeft"":26,""ArrowUp,ArrowRight"":10,""ArrowDown,ArrowLeft"":5,""ArrowDown,ArrowRight"":17}","false","ArrowDown,ArrowLeft","false","","","original","1","2","","",""
"html-keyboard-response","119","791081","0.0-4.0-2.0-1.1","spark_pilot_2","7331","5","12","Female","","","","","","","null","<div style=""font-size:60px;"">+</div>","null","fixation","","","","","","","","","","","3","","",""
"revaluation","120","797089","0.0-4.0-2.0-0.2","spark_pilot_2","7331","5","12","Female","","false","","","","","[381.30000001192093,514.1999999880791]","./assets/img/canyon/memory/13.jpg","[""ArrowUp"",""ArrowRight""]","value training","canyon","10","{""ArrowUp,ArrowLeft"":26,""ArrowUp,ArrowRight"":10,""ArrowDown,ArrowLeft"":5,""ArrowDown,ArrowRight"":17}","false","ArrowUp,ArrowRight","false","","","original","1","4","","",""
"html-keyboard-response","121","797590","0.0-4.0-2.0-1.2","spark_pilot_2","7331","5","12","Female","","","","","","","null","<div style=""font-size:60px;"">+</div>","null","fixation","","","","","","","","","","","5","","",""
"revaluation","122","803597","0.0-4.0-2.0-0.3","spark_pilot_2","7331","5","12","Female","","false","","","","","[946,663.7999999523163]","./assets/img/canyon/memory/36.jpg","[""ArrowDown"",""ArrowRight""]","value training","canyon","17","{""ArrowUp,ArrowLeft"":26,""ArrowUp,ArrowRight"":10,""ArrowDown,ArrowLeft"":5,""ArrowDown,ArrowRight"":17}","false","ArrowDown,ArrowRight","false","","","original","1","6","","",""
"html-keyboard-response","123","804098","0.0-4.0-2.0-1.3","spark_pilot_2","7331","5","12","Female","","","","","","","null","<div style=""font-size:60px;"">+</div>","null","fixation","","","","","","","","","","","7","","",""
"revaluation","124","810115","0.0-4.0-2.0-0.4","spark_pilot_2","7331","5","12","Female","","false","","","","","[965.3999999761581,536.8999999761581]","./assets/img/canyon/memory/12.jpg","[""ArrowUp"",""ArrowLeft""]","value training","canyon","26","{""ArrowUp,ArrowLeft"":26,""ArrowUp,ArrowRight"":10,""ArrowDown,ArrowLeft"":5,""ArrowDown,ArrowRight"":17}","true","ArrowUp,ArrowLeft","false","","","original","1","8","","",""
"html-keyboard-response","125","810617","0.0-4.0-2.0-1.4","spark_pilot_2","7331","5","12","Female","","","","","","","null","<div style=""font-size:60px;"">+</div>","null","fixation","","","","","","","","","","","9","","",""
"revaluation","126","816623","0.0-4.0-2.0-0.5","spark_pilot_2","7331","5","12","Female","","false","","","","","[643.8000000119209,618.3000000119209]","./assets/img/canyon/memory/15.jpg","[""ArrowUp"",""ArrowLeft""]","value training","canyon","26","{""ArrowUp,ArrowLeft"":26,""ArrowUp,ArrowRight"":10,""ArrowDown,ArrowLeft"":5,""ArrowDown,ArrowRight"":17}","true","ArrowUp,ArrowLeft","false","","","original","1","10","","",""
"html-keyboard-response","127","817126","0.0-4.0-2.0-1.5","spark_pilot_2","7331","5","12","Female","","","","","","","null","<div style=""font-size:60px;"">+</div>","null","fixation","","","","","","","","","","","11","","",""
"revaluation","128","823130","0.0-4.0-2.0-0.6","spark_pilot_2","7331","5","12","Female","","false","","","","","[379.30000001192093,517.5]","./assets/img/canyon/memory/12.jpg","[""ArrowUp"",""ArrowLeft""]","value training","canyon","26","{""ArrowUp,ArrowLeft"":26,""ArrowUp,ArrowRight"":10,""ArrowDown,ArrowLeft"":5,""ArrowDown,ArrowRight"":17}","true","ArrowUp,ArrowLeft","false","","","original","1","12","","",""
"html-keyboard-response","129","823633","0.0-4.0-2.0-1.6","spark_pilot_2","7331","5","12","Female","","","","","","","null","<div style=""font-size:60px;"">+</div>","null","fixation","","","","","","","","","","","13","","",""
"revaluation","130","829638","0.0-4.0-2.0-0.7","spark_pilot_2","7331","5","12","Female","","false","","","","","[760.1999999880791,604.1000000238419]","./assets/img/canyon/memory/1.jpg","[""ArrowUp"",""ArrowLeft""]","value training","canyon","26","{""ArrowUp,ArrowLeft"":26,""ArrowUp,ArrowRight"":10,""ArrowDown,ArrowLeft"":5,""ArrowDown,ArrowRight"":17}","true","ArrowUp,ArrowLeft","false","","","original","1","14","","",""
"html-keyboard-response","131","830140","0.0-4.0-2.0-1.7","spark_pilot_2","7331","5","12","Female","","","","","","","null","<div style=""font-size:60px;"">+</div>","null","fixation","","","","","","","","","","","15","","",""
"revaluation","132","836159","0.0-4.0-2.0-0.8","spark_pilot_2","7331","5","12","Female","","false","","","","","[1131.5999999642372,716.1000000238419]","./assets/img/canyon/memory/30.jpg","[""ArrowUp"",""ArrowLeft""]","value training","canyon","26","{""ArrowUp,ArrowLeft"":26,""ArrowUp,ArrowRight"":10,""ArrowDown,ArrowLeft"":5,""ArrowDown,ArrowRight"":17}","true","ArrowUp,ArrowLeft","false","","","original","1","16","","",""
"html-keyboard-response","133","836661","0.0-4.0-2.0-1.8","spark_pilot_2","7331","5","12","Female","","","","","","","null","<div style=""font-size:60px;"">+</div>","null","fixation","","","","","","","","","","","17","","",""
"revaluation","134","840665","0.0-4.0-2.0-0.9","spark_pilot_2","7331","5","12","Female","","false","","","","","[437.2999999523163]","./assets/img/canyon/catch/5.jpg","[""ArrowUp""]","value training","canyon","-10","{""ArrowUp,ArrowLeft"":26,""ArrowUp,ArrowRight"":10,""ArrowDown,ArrowLeft"":5,""ArrowDown,ArrowRight"":17}","false","ArrowUp","true","","","original","1","18","","",""
"html-keyboard-response","135","841167","0.0-4.0-2.0-1.9","spark_pilot_2","7331","5","12","Female","","","","","","","null","<div style=""font-size:60px;"">+</div>","null","fixation","","","","","","","","","","","19","","",""
"revaluation","136","847174","0.0-4.0-2.0-0.10","spark_pilot_2","7331","5","12","Female","","false","","","","","[1291.3999999761581,1329]","./assets/img/canyon/memory/22.jpg","[""ArrowUp"",""ArrowLeft""]","value training","canyon","26","{""ArrowUp,ArrowLeft"":26,""ArrowUp,ArrowRight"":10,""ArrowDown,ArrowLeft"":5,""ArrowDown,ArrowRight"":17}","true","ArrowUp,ArrowLeft","false","","","original","1","20","","",""
"html-keyboard-response","137","847676","0.0-4.0-2.0-1.10","spark_pilot_2","7331","5","12","Female","","","","","","","null","<div style=""font-size:60px;"">+</div>","null","fixation","","","","","","","","","","","21","","",""
"revaluation","138","853684","0.0-4.0-2.0-0.11","spark_pilot_2","7331","5","12","Female","","false","","","","","[1159.300000011921,1446.699999988079]","./assets/img/canyon/memory/1.jpg","[""ArrowUp"",""ArrowLeft""]","value training","canyon","26","{""ArrowUp,ArrowLeft"":26,""ArrowUp,ArrowRight"":10,""ArrowDown,ArrowLeft"":5,""ArrowDown,ArrowRight"":17}","true","ArrowUp,ArrowLeft","false","","","original","1","22","","",""
"html-keyboard-response","139","854186","0.0-4.0-2.0-1.11","spark_pilot_2","7331","5","12","Female","","","","","","","null","<div style=""font-size:60px;"">+</div>","null","fixation","","","","","","","","","","","23","","",""
"revaluation","140","860190","0.0-4.0-2.0-0.12","spark_pilot_2","7331","5","12","Female","","false","","","","","[543,364.80000001192093]","./assets/img/canyon/memory/39.jpg","[""ArrowUp"",""ArrowLeft""]","value training","canyon","26","{""ArrowUp,ArrowLeft"":26,""ArrowUp,ArrowRight"":10,""ArrowDown,ArrowLeft"":5,""ArrowDown,ArrowRight"":17}","true","ArrowUp,ArrowLeft","false","","","original","1","24","","",""
"html-keyboard-response","141","860692","0.0-4.0-2.0-1.12","spark_pilot_2","7331","5","12","Female","","","","","","","null","<div style=""font-size:60px;"">+</div>","null","fixation","","","","","","","","","","","25","","",""
"revaluation","142","866912","0.0-4.0-2.0-0.13","spark_pilot_2","7331","5","12","Female","","false","","","","","[689.3999999761581,501.69999998807907]","./assets/img/canyon/memory/16.jpg","[""ArrowDown"",""ArrowRight""]","value training","canyon","17","{""ArrowUp,ArrowLeft"":26,""ArrowUp,ArrowRight"":10,""ArrowDown,ArrowLeft"":5,""ArrowDown,ArrowRight"":17}","false","ArrowDown,ArrowRight","false","","","original","1","26","","",""
"html-keyboard-response","143","867413","0.0-4.0-2.0-1.13","spark_pilot_2","7331","5","12","Female","","","","","","","null","<div style=""font-size:60px;"">+</div>","null","fixation","","","","","","","","","","","27","","",""
"revaluation","144","871478","0.0-4.0-2.0-0.14","spark_pilot_2","7331","5","12","Female","","false","","","","","[659.8999999761581]","./assets/img/canyon/catch/3.jpg","[""spaceBar""]","value training","canyon","0","{""ArrowUp,ArrowLeft"":26,""ArrowUp,ArrowRight"":10,""ArrowDown,ArrowLeft"":5,""ArrowDown,ArrowRight"":17}","true","spaceBar","true","","","original","1","28","","",""
"html-keyboard-response","145","871993","0.0-4.0-2.0-1.14","spark_pilot_2","7331","5","12","Female","","","","","","","null","<div style=""font-size:60px;"">+</div>","null","fixation","","","","","","","","","","","29","","",""
"revaluation","146","878010","0.0-4.0-2.0-0.15","spark_pilot_2","7331","5","12","Female","","false","","","","","[635.8000000119209,1351]","./assets/img/canyon/memory/8.jpg","[""ArrowDown"",""ArrowLeft""]","value training","canyon","5","{""ArrowUp,ArrowLeft"":26,""ArrowUp,ArrowRight"":10,""ArrowDown,ArrowLeft"":5,""ArrowDown,ArrowRight"":17}","false","ArrowDown,ArrowLeft","false","","","original","1","30","","",""
"html-keyboard-response","147","878523","0.0-4.0-2.0-1.15","spark_pilot_2","7331","5","12","Female","","","","","","","null","<div style=""font-size:60px;"">+</div>","null","fixation","","","","","","","","","","","31","","",""
"revaluation","148","882545","0.0-4.0-2.0-0.16","spark_pilot_2","7331","5","12","Female","","false","","","","","[952.8999999761581]","./assets/img/canyon/catch/0.jpg","[""spaceBar""]","value training","canyon","0","{""ArrowUp,ArrowLeft"":26,""ArrowUp,ArrowRight"":10,""ArrowDown,ArrowLeft"":5,""ArrowDown,ArrowRight"":17}","true","spaceBar","true","","","original","1","32","","",""
"html-keyboard-response","149","883064","0.0-4.0-2.0-1.16","spark_pilot_2","7331","5","12","Female","","","","","","","null","<div style=""font-size:60px;"">+</div>","null","fixation","","","","","","","","","","","33","","",""
"revaluation","150","889101","0.0-4.0-2.0-0.17","spark_pilot_2","7331","5","12","Female","","false","","","","","[1770.699999988079,784.1000000238419]","./assets/img/canyon/memory/27.jpg","[""ArrowUp"",""ArrowRight""]","value training","canyon","10","{""ArrowUp,ArrowLeft"":26,""ArrowUp,ArrowRight"":10,""ArrowDown,ArrowLeft"":5,""ArrowDown,ArrowRight"":17}","false","ArrowUp,ArrowRight","false","","","original","1","34","","",""
"html-keyboard-response","151","889607","0.0-4.0-2.0-1.17","spark_pilot_2","7331","5","12","Female","","","","","","","null","<div style=""font-size:60px;"">+</div>","null","fixation","","","","","","","","","","","35","","",""
"revaluation","152","895616","0.0-4.0-2.0-0.18","spark_pilot_2","7331","5","12","Female","","false","","","","","[1144.199999988079,410.2000000476837]","./assets/img/canyon/memory/38.jpg","[""ArrowDown"",""ArrowRight""]","value training","canyon","17","{""ArrowUp,ArrowLeft"":26,""ArrowUp,ArrowRight"":10,""ArrowDown,ArrowLeft"":5,""ArrowDown,ArrowRight"":17}","false","ArrowDown,ArrowRight","false","","","original","1","36","","",""
"html-keyboard-response","153","896119","0.0-4.0-2.0-1.18","spark_pilot_2","7331","5","12","Female","","","","","","","null","<div style=""font-size:60px;"">+</div>","null","fixation","","","","","","","","","","","37","","",""
"revaluation","154","902125","0.0-4.0-2.0-0.19","spark_pilot_2","7331","5","12","Female","","false","","","","","[1512.300000011921,583.3000000119209]","./assets/img/canyon/memory/7.jpg","[""ArrowUp"",""ArrowLeft""]","value training","canyon","26","{""ArrowUp,ArrowLeft"":26,""ArrowUp,ArrowRight"":10,""ArrowDown,ArrowLeft"":5,""ArrowDown,ArrowRight"":17}","true","ArrowUp,ArrowLeft","false","","","original","1","38","","",""
"html-keyboard-response","155","902626","0.0-4.0-2.0-1.19","spark_pilot_2","7331","5","12","Female","","","","","","","null","<div style=""font-size:60px;"">+</div>","null","fixation","","","","","","","","","","","39","","",""
"revaluation","156","908631","0.0-4.0-2.0-0.20","spark_pilot_2","7331","5","12","Female","","false","","","","","[607.6999999880791,777]","./assets/img/canyon/memory/15.jpg","[""ArrowUp"",""ArrowRight""]","value training","canyon","10","{""ArrowUp,ArrowLeft"":26,""ArrowUp,ArrowRight"":10,""ArrowDown,ArrowLeft"":5,""ArrowDown,ArrowRight"":17}","false","ArrowUp,ArrowRight","false","","","original","1","40","","",""
"html-keyboard-response","157","909132","0.0-4.0-2.0-1.20","spark_pilot_2","7331","5","12","Female","","","","","","","null","<div style=""font-size:60px;"">+</div>","null","fixation","","","","","","","","","","","41","","",""
"revaluation","158","915138","0.0-4.0-2.0-0.21","spark_pilot_2","7331","5","12","Female","","false","","","","","[1512.5999999642372,714.1999999880791]","./assets/img/canyon/memory/23.jpg","[""ArrowUp"",""ArrowLeft""]","value training","canyon","26","{""ArrowUp,ArrowLeft"":26,""ArrowUp,ArrowRight"":10,""ArrowDown,ArrowLeft"":5,""ArrowDown,ArrowRight"":17}","true","ArrowUp,ArrowLeft","false","","","original","1","42","","",""
"html-keyboard-response","159","915640","0.0-4.0-2.0-1.21","spark_pilot_2","7331","5","12","Female","","","","","","","null","<div style=""font-size:60px;"">+</div>","null","fixation","","","","","","","","","","","43","","",""
"revaluation","160","921645","0.0-4.0-2.0-0.22","spark_pilot_2","7331","5","12","Female","","false","","","","","[889.1999999880791,961.5999999642372]","./assets/img/canyon/memory/0.jpg","[""ArrowUp"",""ArrowLeft""]","value training","canyon","26","{""ArrowUp,ArrowLeft"":26,""ArrowUp,ArrowRight"":10,""ArrowDown,ArrowLeft"":5,""ArrowDown,ArrowRight"":17}","true","ArrowUp,ArrowLeft","false","","","original","1","44","","",""
"html-keyboard-response","161","922147","0.0-4.0-2.0-1.22","spark_pilot_2","7331","5","12","Female","","","","","","","null","<div style=""font-size:60px;"">+</div>","null","fixation","","","","","","","","","","","45","","",""
"revaluation","162","928530","0.0-4.0-2.0-0.23","spark_pilot_2","7331","5","12","Female","","false","","","","","[928.8000000119209,876.1999999880791]","./assets/img/canyon/memory/37.jpg","[""ArrowUp"",""ArrowLeft""]","value training","canyon","26","{""ArrowUp,ArrowLeft"":26,""ArrowUp,ArrowRight"":10,""ArrowDown,ArrowLeft"":5,""ArrowDown,ArrowRight"":17}","true","ArrowUp,ArrowLeft","false","","","original","1","46","","",""
"html-keyboard-response","163","929032","0.0-4.0-2.0-1.23","spark_pilot_2","7331","5","12","Female","","","","","","","null","<div style=""font-size:60px;"">+</div>","null","fixation","","","","","","","","","","","47","","",""
"revaluation","164","935037","0.0-4.0-2.0-0.24","spark_pilot_2","7331","5","12","Female","","false","","","","","[1219,590.6999999880791]","./assets/img/canyon/memory/4.jpg","[""ArrowUp"",""ArrowLeft""]","value training","canyon","26","{""ArrowUp,ArrowLeft"":26,""ArrowUp,ArrowRight"":10,""ArrowDown,ArrowLeft"":5,""ArrowDown,ArrowRight"":17}","true","ArrowUp,ArrowLeft","false","","","original","1","48","","",""
"html-keyboard-response","165","935539","0.0-4.0-2.0-1.24","spark_pilot_2","7331","5","12","Female","","","","","","","null","<div style=""font-size:60px;"">+</div>","null","fixation","","","","","","","","","","","49","","",""
"revaluation","166","941607","0.0-4.0-2.0-0.25","spark_pilot_2","7331","5","12","Female","","false","","","","","[1140.800000011921,612.5]","./assets/img/canyon/memory/18.jpg","[""ArrowUp"",""ArrowLeft""]","value training","canyon","26","{""ArrowUp,ArrowLeft"":26,""ArrowUp,ArrowRight"":10,""ArrowDown,ArrowLeft"":5,""ArrowDown,ArrowRight"":17}","true","ArrowUp,ArrowLeft","false","","","original","1","50","","",""
"html-keyboard-response","167","942110","0.0-4.0-2.0-1.25","spark_pilot_2","7331","5","12","Female","","","","","","","null","<div style=""font-size:60px;"">+</div>","null","fixation","","","","","","","","","","","51","","",""
"revaluation","168","948115","0.0-4.0-2.0-0.26","spark_pilot_2","7331","5","12","Female","","false","","","","","[907.1999999880791,629]","./assets/img/canyon/memory/39.jpg","[""ArrowUp"",""ArrowLeft""]","value training","canyon","26","{""ArrowUp,ArrowLeft"":26,""ArrowUp,ArrowRight"":10,""ArrowDown,ArrowLeft"":5,""ArrowDown,ArrowRight"":17}","true","ArrowUp,ArrowLeft","false","","","original","1","52","","",""
"html-keyboard-response","169","948617","0.0-4.0-2.0-1.26","spark_pilot_2","7331","5","12","Female","","","","","","","null","<div style=""font-size:60px;"">+</div>","null","fixation","","","","","","","","","","","53","","",""
"revaluation","170","952621","0.0-4.0-2.0-0.27","spark_pilot_2","7331","5","12","Female","","false","","","","","[677.8000000119209]","./assets/img/canyon/catch/1.jpg","[""spaceBar""]","value training","canyon","0","{""ArrowUp,ArrowLeft"":26,""ArrowUp,ArrowRight"":10,""ArrowDown,ArrowLeft"":5,""ArrowDown,ArrowRight"":17}","true","spaceBar","true","","","original","1","54","","",""
"html-keyboard-response","171","953122","0.0-4.0-2.0-1.27","spark_pilot_2","7331","5","12","Female","","","","","","","null","<div style=""font-size:60px;"">+</div>","null","fixation","","","","","","","","","","","55","","",""
"revaluation","172","959149","0.0-4.0-2.0-0.28","spark_pilot_2","7331","5","12","Female","","false","","","","","[581.3000000119209,842.8000000119209]","./assets/img/canyon/memory/36.jpg","[""ArrowUp"",""ArrowLeft""]","value training","canyon","26","{""ArrowUp,ArrowLeft"":26,""ArrowUp,ArrowRight"":10,""ArrowDown,ArrowLeft"":5,""ArrowDown,ArrowRight"":17}","true","ArrowUp,ArrowLeft","false","","","original","1","56","","",""
"html-keyboard-response","173","959651","0.0-4.0-2.0-1.28","spark_pilot_2","7331","5","12","Female","","","","","","","null","<div style=""font-size:60px;"">+</div>","null","fixation","","","","","","","","","","","57","","",""
"revaluation","174","965656","0.0-4.0-2.0-0.29","spark_pilot_2","7331","5","12","Female","","false","","","","","[535.3999999761581,1905.2999999523163]","./assets/img/canyon/memory/22.jpg","[""ArrowUp"",""ArrowLeft""]","value training","canyon","26","{""ArrowUp,ArrowLeft"":26,""ArrowUp,ArrowRight"":10,""ArrowDown,ArrowLeft"":5,""ArrowDown,ArrowRight"":17}","true","ArrowUp,ArrowLeft","false","","","original","1","58","","",""
"html-keyboard-response","175","966158","0.0-4.0-2.0-1.29","spark_pilot_2","7331","5","12","Female","","","","","","","null","<div style=""font-size:60px;"">+</div>","null","fixation","","","","","","","","","","","59","","",""
"revaluation","176","972162","0.0-4.0-2.0-0.30","spark_pilot_2","7331","5","12","Female","","false","","","","","[1948.800000011921,1100.4000000357628]","./assets/img/canyon/memory/4.jpg","[""ArrowDown"",""ArrowRight""]","value training","canyon","17","{""ArrowUp,ArrowLeft"":26,""ArrowUp,ArrowRight"":10,""ArrowDown,ArrowLeft"":5,""ArrowDown,ArrowRight"":17}","false","ArrowDown,ArrowRight","false","","","original","1","60","","",""
"html-keyboard-response","177","972663","0.0-4.0-2.0-1.30","spark_pilot_2","7331","5","12","Female","","","","","","","null","<div style=""font-size:60px;"">+</div>","null","fixation","","","","","","","","","","","61","","",""
"revaluation","178","978671","0.0-4.0-2.0-0.31","spark_pilot_2","7331","5","12","Female","","false","","","","","[953.3000000119209,471.10000002384186]","./assets/img/canyon/memory/26.jpg","[""ArrowDown"",""ArrowLeft""]","value training","canyon","5","{""ArrowUp,ArrowLeft"":26,""ArrowUp,ArrowRight"":10,""ArrowDown,ArrowLeft"":5,""ArrowDown,ArrowRight"":17}","false","ArrowDown,ArrowLeft","false","","","original","1","62","","",""
"html-keyboard-response","179","979172","0.0-4.0-2.0-1.31","spark_pilot_2","7331","5","12","Female","","","","","","","null","<div style=""font-size:60px;"">+</div>","null","fixation","","","","","","","","","","","63","","",""
"revaluation","180","985176","0.0-4.0-2.0-0.32","spark_pilot_2","7331","5","12","Female","","false","","","","","[1289.5,947.3999999761581]","./assets/img/canyon/memory/16.jpg","[""ArrowUp"",""ArrowLeft""]","value training","canyon","26","{""ArrowUp,ArrowLeft"":26,""ArrowUp,ArrowRight"":10,""ArrowDown,ArrowLeft"":5,""ArrowDown,ArrowRight"":17}","true","ArrowUp,ArrowLeft","false","","","original","1","64","","",""
"html-keyboard-response","181","985679","0.0-4.0-2.0-1.32","spark_pilot_2","7331","5","12","Female","","","","","","","null","<div style=""font-size:60px;"">+</div>","null","fixation","","","","","","","","","","","65","","",""
"revaluation","182","991684","0.0-4.0-2.0-0.33","spark_pilot_2","7331","5","12","Female","","false","","","","","[609.2999999523163,787.8999999761581]","./assets/img/canyon/memory/26.jpg","[""ArrowUp"",""ArrowLeft""]","value training","canyon","26","{""ArrowUp,ArrowLeft"":26,""ArrowUp,ArrowRight"":10,""ArrowDown,ArrowLeft"":5,""ArrowDown,ArrowRight"":17}","true","ArrowUp,ArrowLeft","false","","","original","1","66","","",""
"html-keyboard-response","183","992186","0.0-4.0-2.0-1.33","spark_pilot_2","7331","5","12","Female","","","","","","","null","<div style=""font-size:60px;"">+</div>","null","fixation","","","","","","","","","","","67","","",""
"revaluation","184","998190","0.0-4.0-2.0-0.34","spark_pilot_2","7331","5","12","Female","","false","","","","","[759.2000000476837,923.1999999880791]","./assets/img/canyon/memory/30.jpg","[""ArrowUp"",""ArrowLeft""]","value training","canyon","26","{""ArrowUp,ArrowLeft"":26,""ArrowUp,ArrowRight"":10,""ArrowDown,ArrowLeft"":5,""ArrowDown,ArrowRight"":17}","true","ArrowUp,ArrowLeft","false","","","original","1","68","","",""
"html-keyboard-response","185","998691","0.0-4.0-2.0-1.34","spark_pilot_2","7331","5","12","Female","","","","","","","null","<div style=""font-size:60px;"">+</div>","null","fixation","","","","","","","","","","","69","","",""
"revaluation","186","1004696","0.0-4.0-2.0-0.35","spark_pilot_2","7331","5","12","Female","","false","","","","","[571.8000000119209,795.3000000119209]","./assets/img/canyon/memory/13.jpg","[""ArrowUp"",""ArrowLeft""]","value training","canyon","26","{""ArrowUp,ArrowLeft"":26,""ArrowUp,ArrowRight"":10,""ArrowDown,ArrowLeft"":5,""ArrowDown,ArrowRight"":17}","true","ArrowUp,ArrowLeft","false","","","original","1","70","","",""
"html-keyboard-response","187","1005198","0.0-4.0-2.0-1.35","spark_pilot_2","7331","5","12","Female","","","","","","","null","<div style=""font-size:60px;"">+</div>","null","fixation","","","","","","","","","","","71","","",""
"revaluation","188","1011204","0.0-4.0-2.0-0.36","spark_pilot_2","7331","5","12","Female","","false","","","","","[1419.699999988079,700.7000000476837]","./assets/img/canyon/memory/21.jpg","[""ArrowUp"",""ArrowLeft""]","value training","canyon","26","{""ArrowUp,ArrowLeft"":26,""ArrowUp,ArrowRight"":10,""ArrowDown,ArrowLeft"":5,""ArrowDown,ArrowRight"":17}","true","ArrowUp,ArrowLeft","false","","","original","1","72","","",""
"html-keyboard-response","189","1011716","0.0-4.0-2.0-1.36","spark_pilot_2","7331","5","12","Female","","","","","","","null","<div style=""font-size:60px;"">+</div>","null","fixation","","","","","","","","","","","73","","",""
"revaluation","190","1017742","0.0-4.0-2.0-0.37","spark_pilot_2","7331","5","12","Female","","false","","","","","[542.3000000119209,508.30000001192093]","./assets/img/canyon/memory/0.jpg","[""ArrowUp"",""ArrowLeft""]","value training","canyon","26","{""ArrowUp,ArrowLeft"":26,""ArrowUp,ArrowRight"":10,""ArrowDown,ArrowLeft"":5,""ArrowDown,ArrowRight"":17}","true","ArrowUp,ArrowLeft","false","","","original","1","74","","",""
"html-keyboard-response","191","1018259","0.0-4.0-2.0-1.37","spark_pilot_2","7331","5","12","Female","","","","","","","null","<div style=""font-size:60px;"">+</div>","null","fixation","","","","","","","","","","","75","","",""
"revaluation","192","1024309","0.0-4.0-2.0-0.38","spark_pilot_2","7331","5","12","Female","","false","","","","","[944.5999999642372,369.5]","./assets/img/canyon/memory/37.jpg","[""ArrowUp"",""ArrowLeft""]","value training","canyon","26","{""ArrowUp,ArrowLeft"":26,""ArrowUp,ArrowRight"":10,""ArrowDown,ArrowLeft"":5,""ArrowDown,ArrowRight"":17}","true","ArrowUp,ArrowLeft","false","","","original","1","76","","",""
"html-keyboard-response","193","1024811","0.0-4.0-2.0-1.38","spark_pilot_2","7331","5","12","Female","","","","","","","null","<div style=""font-size:60px;"">+</div>","null","fixation","","","","","","","","","","","77","","",""
"revaluation","194","1028815","0.0-4.0-2.0-0.39","spark_pilot_2","7331","5","12","Female","","false","","","","","[789.5]","./assets/img/canyon/catch/6.jpg","[""spaceBar""]","value training","canyon","0","{""ArrowUp,ArrowLeft"":26,""ArrowUp,ArrowRight"":10,""ArrowDown,ArrowLeft"":5,""ArrowDown,ArrowRight"":17}","true","spaceBar","true","","","original","1","78","","",""
"html-keyboard-response","195","1029317","0.0-4.0-2.0-1.39","spark_pilot_2","7331","5","12","Female","","","","","","","null","<div style=""font-size:60px;"">+</div>","null","fixation","","","","","","","","","","","79","","",""
"revaluation","196","1033322","0.0-4.0-2.0-0.40","spark_pilot_2","7331","5","12","Female","","false","","","","","[685.6000000238419]","./assets/img/canyon/catch/4.jpg","[""spaceBar""]","value training","canyon","0","{""ArrowUp,ArrowLeft"":26,""ArrowUp,ArrowRight"":10,""ArrowDown,ArrowLeft"":5,""ArrowDown,ArrowRight"":17}","true","spaceBar","true","","","original","1","80","","",""
"html-keyboard-response","197","1033823","0.0-4.0-2.0-1.40","spark_pilot_2","7331","5","12","Female","","","","","","","null","<div style=""font-size:60px;"">+</div>","null","fixation","","","","","","","","","","","81","","",""
"revaluation","198","1039828","0.0-4.0-2.0-0.41","spark_pilot_2","7331","5","12","Female","","false","","","","","[894.4000000357628,551.5999999642372]","./assets/img/canyon/memory/27.jpg","[""ArrowUp"",""ArrowLeft""]","value training","canyon","26","{""ArrowUp,ArrowLeft"":26,""ArrowUp,ArrowRight"":10,""ArrowDown,ArrowLeft"":5,""ArrowDown,ArrowRight"":17}","true","ArrowUp,ArrowLeft","false","","","original","1","82","","",""
"html-keyboard-response","199","1040330","0.0-4.0-2.0-1.41","spark_pilot_2","7331","5","12","Female","","","","","","","null","<div style=""font-size:60px;"">+</div>","null","fixation","","","","","","","","","","","83","","",""
"revaluation","200","1046335","0.0-4.0-2.0-0.42","spark_pilot_2","7331","5","12","Female","","false","","","","","[513.8000000119209,547]","./assets/img/canyon/memory/9.jpg","[""ArrowUp"",""ArrowLeft""]","value training","canyon","26","{""ArrowUp,ArrowLeft"":26,""ArrowUp,ArrowRight"":10,""ArrowDown,ArrowLeft"":5,""ArrowDown,ArrowRight"":17}","true","ArrowUp,ArrowLeft","false","","","original","1","84","","",""
"html-keyboard-response","201","1046836","0.0-4.0-2.0-1.42","spark_pilot_2","7331","5","12","Female","","","","","","","null","<div style=""font-size:60px;"">+</div>","null","fixation","","","","","","","","","","","85","","",""
"revaluation","202","1050840","0.0-4.0-2.0-0.43","spark_pilot_2","7331","5","12","Female","","false","","","","","[576.1000000238419]","./assets/img/canyon/catch/7.jpg","[""spaceBar""]","value training","canyon","0","{""ArrowUp,ArrowLeft"":26,""ArrowUp,ArrowRight"":10,""ArrowDown,ArrowLeft"":5,""ArrowDown,ArrowRight"":17}","true","spaceBar","true","","","original","1","86","","",""
"html-keyboard-response","203","1051343","0.0-4.0-2.0-1.43","spark_pilot_2","7331","5","12","Female","","","","","","","null","<div style=""font-size:60px;"">+</div>","null","fixation","","","","","","","","","","","87","","",""
"revaluation","204","1057347","0.0-4.0-2.0-0.44","spark_pilot_2","7331","5","12","Female","","false","","","","","[528.9000000357628,637.3999999761581]","./assets/img/canyon/memory/7.jpg","[""ArrowUp"",""ArrowLeft""]","value training","canyon","26","{""ArrowUp,ArrowLeft"":26,""ArrowUp,ArrowRight"":10,""ArrowDown,ArrowLeft"":5,""ArrowDown,ArrowRight"":17}","true","ArrowUp,ArrowLeft","false","","","original","1","88","","",""
"html-keyboard-response","205","1057848","0.0-4.0-2.0-1.44","spark_pilot_2","7331","5","12","Female","","","","","","","null","<div style=""font-size:60px;"">+</div>","null","fixation","","","","","","","","","","","89","","",""
"revaluation","206","1063853","0.0-4.0-2.0-0.45","spark_pilot_2","7331","5","12","Female","","false","","","","","[1078.0999999642372,909.5]","./assets/img/canyon/memory/23.jpg","[""ArrowUp"",""ArrowLeft""]","value training","canyon","26","{""ArrowUp,ArrowLeft"":26,""ArrowUp,ArrowRight"":10,""ArrowDown,ArrowLeft"":5,""ArrowDown,ArrowRight"":17}","true","ArrowUp,ArrowLeft","false","","","original","1","90","","",""
"html-keyboard-response","207","1064354","0.0-4.0-2.0-1.45","spark_pilot_2","7331","5","12","Female","","","","","","","null","<div style=""font-size:60px;"">+</div>","null","fixation","","","","","","","","","","","91","","",""
"revaluation","208","1068358","0.0-4.0-2.0-0.46","spark_pilot_2","7331","5","12","Female","","false","","","","","[768.6000000238419]","./assets/img/canyon/catch/2.jpg","[""spaceBar""]","value training","canyon","0","{""ArrowUp,ArrowLeft"":26,""ArrowUp,ArrowRight"":10,""ArrowDown,ArrowLeft"":5,""ArrowDown,ArrowRight"":17}","true","spaceBar","true","","","original","1","92","","",""
"html-keyboard-response","209","1068860","0.0-4.0-2.0-1.46","spark_pilot_2","7331","5","12","Female","","","","","","","null","<div style=""font-size:60px;"">+</div>","null","fixation","","","","","","","","","","","93","","",""
"revaluation","210","1074866","0.0-4.0-2.0-0.47","spark_pilot_2","7331","5","12","Female","","false","","","","","[1383.199999988079,1098.5]","./assets/img/canyon/memory/18.jpg","[""ArrowUp"",""ArrowLeft""]","value training","canyon","26","{""ArrowUp,ArrowLeft"":26,""ArrowUp,ArrowRight"":10,""ArrowDown,ArrowLeft"":5,""ArrowDown,ArrowRight"":17}","true","ArrowUp,ArrowLeft","false","","","original","1","94","","",""
"html-keyboard-response","211","1075368","0.0-4.0-2.0-1.47","spark_pilot_2","7331","5","12","Female","","","","","","","null","<div style=""font-size:60px;"">+</div>","null","fixation","","","","","","","","","","","95","","",""
"revaluation","212","1081371","0.0-4.0-2.0-0.48","spark_pilot_2","7331","5","12","Female","","false","","","","","[731.8000000119209,659.5999999642372]","./assets/img/canyon/memory/9.jpg","[""ArrowUp"",""ArrowLeft""]","value training","canyon","26","{""ArrowUp,ArrowLeft"":26,""ArrowUp,ArrowRight"":10,""ArrowDown,ArrowLeft"":5,""ArrowDown,ArrowRight"":17}","true","ArrowUp,ArrowLeft","false","","","original","1","96","","",""
"html-keyboard-response","213","1081872","0.0-4.0-2.0-1.48","spark_pilot_2","7331","5","12","Female","","","","","","","null","<div style=""font-size:60px;"">+</div>","null","fixation","","","","","","","","","","","97","","",""
"revaluation","214","1087877","0.0-4.0-2.0-0.49","spark_pilot_2","7331","5","12","Female","","false","","","","","[775,677.5999999642372]","./assets/img/canyon/memory/21.jpg","[""ArrowUp"",""ArrowLeft""]","value training","canyon","26","{""ArrowUp,ArrowLeft"":26,""ArrowUp,ArrowRight"":10,""ArrowDown,ArrowLeft"":5,""ArrowDown,ArrowRight"":17}","true","ArrowUp,ArrowLeft","false","","","original","1","98","","",""
"html-keyboard-response","215","1088378","0.0-4.0-2.0-1.49","spark_pilot_2","7331","5","12","Female","","","","","","","null","<div style=""font-size:60px;"">+</div>","null","fixation","","","","","","","","","","","99","","",""
"learning-instructions","216","1103384","0.0-4.0-3.0-0.0","spark_pilot_2","7331","5","12","Female","","","","","","","1457.199999988079","<p> Now, you will travel with a friend who will choose whether you go up or down first. </p>
            <p> On these turns, you will just see the animal that they found. You will still get to choose which chest to search for treasure.</p>","","instructions","","","","","","","","","","","","","",""
"revaluation","217","1107399","0.0-4.0-4.0-0.0","spark_pilot_2","7331","5","12","Female","","false","","","","","[650.9000000357628]","./assets/img/canyon/animals/lion.jpg","[""ArrowLeft""]","revaluation","canyon","5","{""ArrowUp,ArrowLeft"":26,""ArrowUp,ArrowRight"":10,""ArrowDown,ArrowLeft"":5,""ArrowDown,ArrowRight"":17}","false","ArrowDown,ArrowLeft","","","","original","1","0","","",""
"html-keyboard-response","218","1107904","0.0-4.0-4.0-1.0","spark_pilot_2","7331","5","12","Female","","","","","","","null","<div style=""font-size:60px;"">+</div>","null","fixation","","","","","","","","","","","1","","",""
"revaluation","219","1111920","0.0-4.0-4.0-0.1","spark_pilot_2","7331","5","12","Female","","false","","","","","[599.2000000476837]","./assets/img/canyon/animals/lion.jpg","[""ArrowRight""]","revaluation","canyon","17","{""ArrowUp,ArrowLeft"":26,""ArrowUp,ArrowRight"":10,""ArrowDown,ArrowLeft"":5,""ArrowDown,ArrowRight"":17}","true","ArrowDown,ArrowRight","","","","original","1","2","","",""
"html-keyboard-response","220","1112423","0.0-4.0-4.0-1.1","spark_pilot_2","7331","5","12","Female","","","","","","","null","<div style=""font-size:60px;"">+</div>","null","fixation","","","","","","","","","","","3","","",""
"revaluation","221","1116441","0.0-4.0-4.0-0.2","spark_pilot_2","7331","5","12","Female","","false","","","","","[769.8000000119209]","./assets/img/canyon/animals/giraffe.jpg","[""ArrowLeft""]","revaluation","canyon","26","{""ArrowUp,ArrowLeft"":26,""ArrowUp,ArrowRight"":10,""ArrowDown,ArrowLeft"":5,""ArrowDown,ArrowRight"":17}","true","ArrowUp,ArrowLeft","","","","original","1","4","","",""
"html-keyboard-response","222","1116958","0.0-4.0-4.0-1.2","spark_pilot_2","7331","5","12","Female","","","","","","","null","<div style=""font-size:60px;"">+</div>","null","fixation","","","","","","","","","","","5","","",""
"revaluation","223","1120972","0.0-4.0-4.0-0.3","spark_pilot_2","7331","5","12","Female","","false","","","","","[463.60000002384186]","./assets/img/canyon/animals/giraffe.jpg","[""ArrowLeft""]","revaluation","canyon","26","{""ArrowUp,ArrowLeft"":26,""ArrowUp,ArrowRight"":10,""ArrowDown,ArrowLeft"":5,""ArrowDown,ArrowRight"":17}","true","ArrowUp,ArrowLeft","","","","original","1","6","","",""
"html-keyboard-response","224","1121473","0.0-4.0-4.0-1.3","spark_pilot_2","7331","5","12","Female","","","","","","","null","<div style=""font-size:60px;"">+</div>","null","fixation","","","","","","","","","","","7","","",""
"revaluation","225","1125491","0.0-4.0-4.0-0.4","spark_pilot_2","7331","5","12","Female","","false","","","","","[993.6000000238419]","./assets/img/canyon/animals/lion.jpg","[""ArrowRight""]","revaluation","canyon","17","{""ArrowUp,ArrowLeft"":26,""ArrowUp,ArrowRight"":10,""ArrowDown,ArrowLeft"":5,""ArrowDown,ArrowRight"":17}","true","ArrowDown,ArrowRight","","","","original","1","8","","",""
"html-keyboard-response","226","1126001","0.0-4.0-4.0-1.4","spark_pilot_2","7331","5","12","Female","","","","","","","null","<div style=""font-size:60px;"">+</div>","null","fixation","","","","","","","","","","","9","","",""
"revaluation","227","1130024","0.0-4.0-4.0-0.5","spark_pilot_2","7331","5","12","Female","","false","","","","","[464.60000002384186]","./assets/img/canyon/animals/lion.jpg","[""ArrowLeft""]","revaluation","canyon","5","{""ArrowUp,ArrowLeft"":26,""ArrowUp,ArrowRight"":10,""ArrowDown,ArrowLeft"":5,""ArrowDown,ArrowRight"":17}","false","ArrowDown,ArrowLeft","","","","original","1","10","","",""
"html-keyboard-response","228","1130532","0.0-4.0-4.0-1.5","spark_pilot_2","7331","5","12","Female","","","","","","","null","<div style=""font-size:60px;"">+</div>","null","fixation","","","","","","","","","","","11","","",""
"revaluation","229","1134536","0.0-4.0-4.0-0.6","spark_pilot_2","7331","5","12","Female","","false","","","","","[823.1999999880791]","./assets/img/canyon/animals/giraffe.jpg","[""ArrowLeft""]","revaluation","canyon","26","{""ArrowUp,ArrowLeft"":26,""ArrowUp,ArrowRight"":10,""ArrowDown,ArrowLeft"":5,""ArrowDown,ArrowRight"":17}","true","ArrowUp,ArrowLeft","","","","original","1","12","","",""
"html-keyboard-response","230","1135038","0.0-4.0-4.0-1.6","spark_pilot_2","7331","5","12","Female","","","","","","","null","<div style=""font-size:60px;"">+</div>","null","fixation","","","","","","","","","","","13","","",""
"revaluation","231","1139041","0.0-4.0-4.0-0.7","spark_pilot_2","7331","5","12","Female","","false","","","","","[565.5]","./assets/img/canyon/animals/lion.jpg","[""ArrowRight""]","revaluation","canyon","17","{""ArrowUp,ArrowLeft"":26,""ArrowUp,ArrowRight"":10,""ArrowDown,ArrowLeft"":5,""ArrowDown,ArrowRight"":17}","true","ArrowDown,ArrowRight","","","","original","1","14","","",""
"html-keyboard-response","232","1139542","0.0-4.0-4.0-1.7","spark_pilot_2","7331","5","12","Female","","","","","","","null","<div style=""font-size:60px;"">+</div>","null","fixation","","","","","","","","","","","15","","",""
"revaluation","233","1143546","0.0-4.0-4.0-0.8","spark_pilot_2","7331","5","12","Female","","false","","","","","[1181.7999999523163]","./assets/img/canyon/animals/lion.jpg","[""ArrowRight""]","revaluation","canyon","17","{""ArrowUp,ArrowLeft"":26,""ArrowUp,ArrowRight"":10,""ArrowDown,ArrowLeft"":5,""ArrowDown,ArrowRight"":17}","true","ArrowDown,ArrowRight","","","","original","1","16","","",""
"html-keyboard-response","234","1144048","0.0-4.0-4.0-1.8","spark_pilot_2","7331","5","12","Female","","","","","","","null","<div style=""font-size:60px;"">+</div>","null","fixation","","","","","","","","","","","17","","",""
"revaluation","235","1148052","0.0-4.0-4.0-0.9","spark_pilot_2","7331","5","12","Female","","false","","","","","[686.0999999642372]","./assets/img/canyon/animals/lion.jpg","[""ArrowLeft""]","revaluation","canyon","5","{""ArrowUp,ArrowLeft"":26,""ArrowUp,ArrowRight"":10,""ArrowDown,ArrowLeft"":5,""ArrowDown,ArrowRight"":17}","false","ArrowDown,ArrowLeft","","","","original","1","18","","",""
"html-keyboard-response","236","1148554","0.0-4.0-4.0-1.9","spark_pilot_2","7331","5","12","Female","","","","","","","null","<div style=""font-size:60px;"">+</div>","null","fixation","","","","","","","","","","","19","","",""
"revaluation","237","1152559","0.0-4.0-4.0-0.10","spark_pilot_2","7331","5","12","Female","","false","","","","","[576.5999999642372]","./assets/img/canyon/animals/giraffe.jpg","[""ArrowLeft""]","revaluation","canyon","26","{""ArrowUp,ArrowLeft"":26,""ArrowUp,ArrowRight"":10,""ArrowDown,ArrowLeft"":5,""ArrowDown,ArrowRight"":17}","true","ArrowUp,ArrowLeft","","","","original","1","20","","",""
"html-keyboard-response","238","1153061","0.0-4.0-4.0-1.10","spark_pilot_2","7331","5","12","Female","","","","","","","null","<div style=""font-size:60px;"">+</div>","null","fixation","","","","","","","","","","","21","","",""
"revaluation","239","1157066","0.0-4.0-4.0-0.11","spark_pilot_2","7331","5","12","Female","","false","","","","","[579.3999999761581]","./assets/img/canyon/animals/giraffe.jpg","[""ArrowLeft""]","revaluation","canyon","26","{""ArrowUp,ArrowLeft"":26,""ArrowUp,ArrowRight"":10,""ArrowDown,ArrowLeft"":5,""ArrowDown,ArrowRight"":17}","true","ArrowUp,ArrowLeft","","","","original","1","22","","",""
"html-keyboard-response","240","1157568","0.0-4.0-4.0-1.11","spark_pilot_2","7331","5","12","Female","","","","","","","null","<div style=""font-size:60px;"">+</div>","null","fixation","","","","","","","","","","","23","","",""
"revaluation","241","1161573","0.0-4.0-4.0-0.12","spark_pilot_2","7331","5","12","Female","","false","","","","","[992.6000000238419]","./assets/img/canyon/animals/giraffe.jpg","[""ArrowRight""]","revaluation","canyon","10","{""ArrowUp,ArrowLeft"":26,""ArrowUp,ArrowRight"":10,""ArrowDown,ArrowLeft"":5,""ArrowDown,ArrowRight"":17}","false","ArrowUp,ArrowRight","","","","original","1","24","","",""
"html-keyboard-response","242","1162074","0.0-4.0-4.0-1.12","spark_pilot_2","7331","5","12","Female","","","","","","","null","<div style=""font-size:60px;"">+</div>","null","fixation","","","","","","","","","","","25","","",""
"revaluation","243","1166079","0.0-4.0-4.0-0.13","spark_pilot_2","7331","5","12","Female","","false","","","","","[780.1000000238419]","./assets/img/canyon/animals/lion.jpg","[""ArrowRight""]","revaluation","canyon","17","{""ArrowUp,ArrowLeft"":26,""ArrowUp,ArrowRight"":10,""ArrowDown,ArrowLeft"":5,""ArrowDown,ArrowRight"":17}","true","ArrowDown,ArrowRight","","","","original","1","26","","",""
"html-keyboard-response","244","1166592","0.0-4.0-4.0-1.13","spark_pilot_2","7331","5","12","Female","","","","","","","null","<div style=""font-size:60px;"">+</div>","null","fixation","","","","","","","","","","","27","","",""
"revaluation","245","1170597","0.0-4.0-4.0-0.14","spark_pilot_2","7331","5","12","Female","","false","","","","","[1104.9000000357628]","./assets/img/canyon/animals/giraffe.jpg","[""ArrowLeft""]","revaluation","canyon","26","{""ArrowUp,ArrowLeft"":26,""ArrowUp,ArrowRight"":10,""ArrowDown,ArrowLeft"":5,""ArrowDown,ArrowRight"":17}","true","ArrowUp,ArrowLeft","","","","original","1","28","","",""
"html-keyboard-response","246","1171099","0.0-4.0-4.0-1.14","spark_pilot_2","7331","5","12","Female","","","","","","","null","<div style=""font-size:60px;"">+</div>","null","fixation","","","","","","","","","","","29","","",""
"revaluation","247","1175104","0.0-4.0-4.0-0.15","spark_pilot_2","7331","5","12","Female","","false","","","","","[1223.5999999642372]","./assets/img/canyon/animals/giraffe.jpg","[""ArrowLeft""]","revaluation","canyon","26","{""ArrowUp,ArrowLeft"":26,""ArrowUp,ArrowRight"":10,""ArrowDown,ArrowLeft"":5,""ArrowDown,ArrowRight"":17}","true","ArrowUp,ArrowLeft","","","","original","1","30","","",""
"html-keyboard-response","248","1175606","0.0-4.0-4.0-1.15","spark_pilot_2","7331","5","12","Female","","","","","","","null","<div style=""font-size:60px;"">+</div>","null","fixation","","","","","","","","","","","31","","",""
"revaluation","249","1179613","0.0-4.0-4.0-0.16","spark_pilot_2","7331","5","12","Female","","false","","","","","[1374]","./assets/img/canyon/animals/giraffe.jpg","[""ArrowLeft""]","revaluation","canyon","26","{""ArrowUp,ArrowLeft"":26,""ArrowUp,ArrowRight"":10,""ArrowDown,ArrowLeft"":5,""ArrowDown,ArrowRight"":17}","true","ArrowUp,ArrowLeft","","","","original","1","32","","",""
"html-keyboard-response","250","1180114","0.0-4.0-4.0-1.16","spark_pilot_2","7331","5","12","Female","","","","","","","null","<div style=""font-size:60px;"">+</div>","null","fixation","","","","","","","","","","","33","","",""
"revaluation","251","1184129","0.0-4.0-4.0-0.17","spark_pilot_2","7331","5","12","Female","","false","","","","","[976.8000000119209]","./assets/img/canyon/animals/lion.jpg","[""ArrowRight""]","revaluation","canyon","17","{""ArrowUp,ArrowLeft"":26,""ArrowUp,ArrowRight"":10,""ArrowDown,ArrowLeft"":5,""ArrowDown,ArrowRight"":17}","true","ArrowDown,ArrowRight","","","","original","1","34","","",""
"html-keyboard-response","252","1184630","0.0-4.0-4.0-1.17","spark_pilot_2","7331","5","12","Female","","","","","","","null","<div style=""font-size:60px;"">+</div>","null","fixation","","","","","","","","","","","35","","",""
"learning-instructions","253","1197896","0.0-4.0-5.0-0.0","spark_pilot_2","7331","5","12","Female","","","","","","","1259","<p> Time to play the dot game! </p>
            <p> For one minute, click the red dots on the following screen as they appear. </p>
            <p><b> Don't look away, as you will earn bonus for clicking dots</b>. </p>","","instructions","","","","","","","","","","","","","",""
"revaluation","254","1257901","0.0-4.0-6.0-0.0","spark_pilot_2","7331","5","12","Female","","","","","","","[116,168,240,136,101]","","","rest","","50","","","","","0","60000","","","","","",""
"learning-instructions","255","1267078","0.0-4.0-7.0-0.0","spark_pilot_2","7331","5","12","Female","","","","","","","2747.600000023842","<p> You have almost finished this part of the game! </p>
            <p> We are going to ask you to make a few more choices. </p>","","instructions","","","","","","","","","","","","","",""
"learning-instructions","256","1292269","0.0-4.0-7.0-0.1","spark_pilot_2","7331","5","12","Female","","","","","","","11228.400000035763","<p> First, you need to decide whether to go up or down. When you see each picture, use the arrow keys to make your choice. </p>
            <p><b>You will not see which animal you found, but try to get to the one that will give you the most treasure.</b></p>","","instructions","","","","","","","","","","","","","",""
"revaluation","257","1293371","0.0-4.0-8.0-0.0","spark_pilot_2","7331","5","12","Female","","false","","","","","[1099.300000011921]","./assets/img/canyon/test/2.jpg","[""ArrowUp""]","first stage test","canyon","0","{""ArrowUp,ArrowLeft"":26,""ArrowUp,ArrowRight"":10,""ArrowDown,ArrowLeft"":5,""ArrowDown,ArrowRight"":17}","true","ArrowUp","false","","","original","1","","","",""
"html-keyboard-response","258","1293889","0.0-4.0-8.0-1.0","spark_pilot_2","7331","5","12","Female","","","","","","","null","<div style=""font-size:60px;"">+</div>","null","fixation","","","","","","","","","","","","","",""
"revaluation","259","1296031","0.0-4.0-8.0-0.1","spark_pilot_2","7331","5","12","Female","","false","","","","","[2138.899999976158]","./assets/img/canyon/test/0.jpg","[""ArrowDown""]","first stage test","canyon","0","{""ArrowUp,ArrowLeft"":26,""ArrowUp,ArrowRight"":10,""ArrowDown,ArrowLeft"":5,""ArrowDown,ArrowRight"":17}","false","ArrowDown","false","","","original","1","","","",""
"html-keyboard-response","260","1296549","0.0-4.0-8.0-1.1","spark_pilot_2","7331","5","12","Female","","","","","","","null","<div style=""font-size:60px;"">+</div>","null","fixation","","","","","","","","","","","","","",""
"revaluation","261","1297620","0.0-4.0-8.0-0.2","spark_pilot_2","7331","5","12","Female","","false","","","","","[1065.0999999642372]","./assets/img/canyon/test/3.jpg","[""ArrowUp""]","first stage test","canyon","0","{""ArrowUp,ArrowLeft"":26,""ArrowUp,ArrowRight"":10,""ArrowDown,ArrowLeft"":5,""ArrowDown,ArrowRight"":17}","true","ArrowUp","false","","","original","1","","","",""
"html-keyboard-response","262","1298139","0.0-4.0-8.0-1.2","spark_pilot_2","7331","5","12","Female","","","","","","","null","<div style=""font-size:60px;"">+</div>","null","fixation","","","","","","","","","","","","","",""
"revaluation","263","1299199","0.0-4.0-8.0-0.3","spark_pilot_2","7331","5","12","Female","","false","","","","","[1056.5]","./assets/img/canyon/test/1.jpg","[""ArrowDown""]","first stage test","canyon","0","{""ArrowUp,ArrowLeft"":26,""ArrowUp,ArrowRight"":10,""ArrowDown,ArrowLeft"":5,""ArrowDown,ArrowRight"":17}","false","ArrowDown","false","","","original","1","","","",""
"html-keyboard-response","264","1299709","0.0-4.0-8.0-1.3","spark_pilot_2","7331","5","12","Female","","","","","","","null","<div style=""font-size:60px;"">+</div>","null","fixation","","","","","","","","","","","","","",""
"learning-instructions","265","1312107","0.0-4.0-9.0-0.0","spark_pilot_2","7331","5","12","Female","","","","","","","1056.3999999761581","<p> Now you will see the animals again and can search their chests for treasure. </p>
            <p> This time, you will not see how much treasure you earned, but you will earn more bonus money for making better choices. </p>","","instructions","","","","","","","","","","","","","",""
"revaluation","266","1313192","0.0-4.0-10.0-0.0","spark_pilot_2","7331","5","12","Female","","false","","","","","[1083.1000000238419]","./assets/img/canyon/animals/giraffe.jpg","[""ArrowLeft""]","second stage test","canyon","0","{""ArrowUp,ArrowLeft"":26,""ArrowUp,ArrowRight"":10,""ArrowDown,ArrowLeft"":5,""ArrowDown,ArrowRight"":17}","true","ArrowUp,ArrowLeft","","","","original","1","","","",""
"html-keyboard-response","267","1313699","0.0-4.0-10.0-1.0","spark_pilot_2","7331","5","12","Female","","","","","","","null","<div style=""font-size:60px;"">+</div>","null","fixation","","","","","","","","","","","","","",""
"revaluation","268","1314334","0.0-4.0-10.0-0.1","spark_pilot_2","7331","5","12","Female","","false","","","","","[631.5999999642372]","./assets/img/canyon/animals/giraffe.jpg","[""ArrowLeft""]","second stage test","canyon","0","{""ArrowUp,ArrowLeft"":26,""ArrowUp,ArrowRight"":10,""ArrowDown,ArrowLeft"":5,""ArrowDown,ArrowRight"":17}","true","ArrowUp,ArrowLeft","","","","original","1","","","",""
"html-keyboard-response","269","1314839","0.0-4.0-10.0-1.1","spark_pilot_2","7331","5","12","Female","","","","","","","null","<div style=""font-size:60px;"">+</div>","null","fixation","","","","","","","","","","","","","",""
"revaluation","270","1315320","0.0-4.0-10.0-0.2","spark_pilot_2","7331","5","12","Female","","false","","","","","[478]","./assets/img/canyon/animals/giraffe.jpg","[""ArrowLeft""]","second stage test","canyon","0","{""ArrowUp,ArrowLeft"":26,""ArrowUp,ArrowRight"":10,""ArrowDown,ArrowLeft"":5,""ArrowDown,ArrowRight"":17}","true","ArrowUp,ArrowLeft","","","","original","1","","","",""
"html-keyboard-response","271","1315839","0.0-4.0-10.0-1.2","spark_pilot_2","7331","5","12","Female","","","","","","","null","<div style=""font-size:60px;"">+</div>","null","fixation","","","","","","","","","","","","","",""
"revaluation","272","1316288","0.0-4.0-10.0-0.3","spark_pilot_2","7331","5","12","Female","","false","","","","","[445.5]","./assets/img/canyon/animals/giraffe.jpg","[""ArrowLeft""]","second stage test","canyon","0","{""ArrowUp,ArrowLeft"":26,""ArrowUp,ArrowRight"":10,""ArrowDown,ArrowLeft"":5,""ArrowDown,ArrowRight"":17}","true","ArrowUp,ArrowLeft","","","","original","1","","","",""
"html-keyboard-response","273","1316799","0.0-4.0-10.0-1.3","spark_pilot_2","7331","5","12","Female","","","","","","","null","<div style=""font-size:60px;"">+</div>","null","fixation","","","","","","","","","","","","","",""
"revaluation","274","1317275","0.0-4.0-10.0-0.4","spark_pilot_2","7331","5","12","Female","","false","","","","","[472.5]","./assets/img/canyon/animals/lion.jpg","[""ArrowRight""]","second stage test","canyon","0","{""ArrowUp,ArrowLeft"":26,""ArrowUp,ArrowRight"":10,""ArrowDown,ArrowLeft"":5,""ArrowDown,ArrowRight"":17}","true","ArrowDown,ArrowRight","","","","original","1","","","",""
"html-keyboard-response","275","1317778","0.0-4.0-10.0-1.4","spark_pilot_2","7331","5","12","Female","","","","","","","null","<div style=""font-size:60px;"">+</div>","null","fixation","","","","","","","","","","","","","",""
"revaluation","276","1318227","0.0-4.0-10.0-0.5","spark_pilot_2","7331","5","12","Female","","false","","","","","[444.89999997615814]","./assets/img/canyon/animals/lion.jpg","[""ArrowRight""]","second stage test","canyon","0","{""ArrowUp,ArrowLeft"":26,""ArrowUp,ArrowRight"":10,""ArrowDown,ArrowLeft"":5,""ArrowDown,ArrowRight"":17}","true","ArrowDown,ArrowRight","","","","original","1","","","",""
"html-keyboard-response","277","1318729","0.0-4.0-10.0-1.5","spark_pilot_2","7331","5","12","Female","","","","","","","null","<div style=""font-size:60px;"">+</div>","null","fixation","","","","","","","","","","","","","",""
"revaluation","278","1319053","0.0-4.0-10.0-0.6","spark_pilot_2","7331","5","12","Female","","false","","","","","[320.9000000357628]","./assets/img/canyon/animals/lion.jpg","[""ArrowRight""]","second stage test","canyon","0","{""ArrowUp,ArrowLeft"":26,""ArrowUp,ArrowRight"":10,""ArrowDown,ArrowLeft"":5,""ArrowDown,ArrowRight"":17}","true","ArrowDown,ArrowRight","","","","original","1","","","",""
"html-keyboard-response","279","1319555","0.0-4.0-10.0-1.6","spark_pilot_2","7331","5","12","Female","","","","","","","null","<div style=""font-size:60px;"">+</div>","null","fixation","","","","","","","","","","","","","",""
"revaluation","280","1319981","0.0-4.0-10.0-0.7","spark_pilot_2","7331","5","12","Female","","false","","","","","[422.39999997615814]","./assets/img/canyon/animals/lion.jpg","[""ArrowRight""]","second stage test","canyon","0","{""ArrowUp,ArrowLeft"":26,""ArrowUp,ArrowRight"":10,""ArrowDown,ArrowLeft"":5,""ArrowDown,ArrowRight"":17}","true","ArrowDown,ArrowRight","","","","original","1","","","",""
"html-keyboard-response","281","1320489","0.0-4.0-10.0-1.7","spark_pilot_2","7331","5","12","Female","","","","","","","null","<div style=""font-size:60px;"">+</div>","null","fixation","","","","","","","","","","","","","",""
"learning-instructions","282","1325343","0.0-4.0-0.1-0.2","spark_pilot_2","7331","5","12","Female","","","","","","","2141.100000023842","<p> This time you are searching for treasure in the <b>ocean</b>.</p>","","instructions","","","","","","","","","","","","","",""
"learning-instructions","283","1344117","0.0-4.0-0.1-0.3","spark_pilot_2","7331","5","12","Female","","","","","","","1514.199999988079","<p><b>New</b> animals with <b>new</b> treasure chests live here. You need to explore to discover where the animal with the best treasure chest is.</p>
                    <p> Like before, once you figure out which animal has the chest with the most treasure, you should try to get to that animal and select that chest! </p>","","instructions","","","","","","","","","","","","","",""
"learning-instructions","284","1360271","0.0-4.0-1.1-0.1","spark_pilot_2","7331","5","12","Female","","","","","","","1430.800000011921","<p> Remember, when you see a picture of the place, use the up and down keys to <b>find an animal</b>.</p>
            <p> When you encounter an animal, you should use the left and right keys to <b>select a treasure chest</b>.</p>
            <p> Don't forget to look out for the robber! </p>","","instructions","","","","","","","","","","","","","",""
"revaluation","285","1366314","0.0-4.0-2.1-0.50","spark_pilot_2","7331","5","12","Female","","false","","","","","[893.3000000119209,1094.9000000357628]","./assets/img/ocean/memory/8.jpg","[""ArrowUp"",""ArrowLeft""]","value training","ocean","23","{""ArrowUp,ArrowLeft"":23,""ArrowUp,ArrowRight"":10,""ArrowDown,ArrowLeft"":8,""ArrowDown,ArrowRight"":30}","false","ArrowUp,ArrowLeft","false","","","revaluation","2","0","","",""
"html-keyboard-response","286","1366819","0.0-4.0-2.1-1.50","spark_pilot_2","7331","5","12","Female","","","","","","","null","<div style=""font-size:60px;"">+</div>","null","fixation","","","","","","","","","","","1","","",""
"revaluation","287","1370850","0.0-4.0-2.1-0.51","spark_pilot_2","7331","5","12","Female","","false","","","","","[703]","./assets/img/ocean/catch/6.jpg","[""ArrowUp""]","value training","ocean","-10","{""ArrowUp,ArrowLeft"":23,""ArrowUp,ArrowRight"":10,""ArrowDown,ArrowLeft"":8,""ArrowDown,ArrowRight"":30}","false","ArrowUp","true","","","revaluation","2","2","","",""
"html-keyboard-response","288","1371369","0.0-4.0-2.1-1.51","spark_pilot_2","7331","5","12","Female","","","","","","","null","<div style=""font-size:60px;"">+</div>","null","fixation","","","","","","","","","","","3","","",""
"revaluation","289","1377420","0.0-4.0-2.1-0.52","spark_pilot_2","7331","5","12","Female","","false","","","","","[1425.6000000238419,571]","./assets/img/ocean/memory/21.jpg","[""ArrowUp"",""ArrowRight""]","value training","ocean","10","{""ArrowUp,ArrowLeft"":23,""ArrowUp,ArrowRight"":10,""ArrowDown,ArrowLeft"":8,""ArrowDown,ArrowRight"":30}","false","ArrowUp,ArrowRight","false","","","revaluation","2","4","","",""
"html-keyboard-response","290","1377939","0.0-4.0-2.1-1.52","spark_pilot_2","7331","5","12","Female","","","","","","","null","<div style=""font-size:60px;"">+</div>","null","fixation","","","","","","","","","","","5","","",""
"revaluation","291","1381960","0.0-4.0-2.1-0.53","spark_pilot_2","7331","5","12","Female","","false","","","","","[671.1000000238419]","./assets/img/ocean/catch/2.jpg","[""spaceBar""]","value training","ocean","0","{""ArrowUp,ArrowLeft"":23,""ArrowUp,ArrowRight"":10,""ArrowDown,ArrowLeft"":8,""ArrowDown,ArrowRight"":30}","true","spaceBar","true","","","revaluation","2","6","","",""
"html-keyboard-response","292","1382463","0.0-4.0-2.1-1.53","spark_pilot_2","7331","5","12","Female","","","","","","","null","<div style=""font-size:60px;"">+</div>","null","fixation","","","","","","","","","","","7","","",""
"revaluation","293","1388500","0.0-4.0-2.1-0.54","spark_pilot_2","7331","5","12","Female","","false","","","","","[503,502.39999997615814]","./assets/img/ocean/memory/12.jpg","[""ArrowDown"",""ArrowRight""]","value training","ocean","30","{""ArrowUp,ArrowLeft"":23,""ArrowUp,ArrowRight"":10,""ArrowDown,ArrowLeft"":8,""ArrowDown,ArrowRight"":30}","true","ArrowDown,ArrowRight","false","","","revaluation","2","8","","",""
"html-keyboard-response","294","1389002","0.0-4.0-2.1-1.54","spark_pilot_2","7331","5","12","Female","","","","","","","null","<div style=""font-size:60px;"">+</div>","null","fixation","","","","","","","","","","","9","","",""
"revaluation","295","1395005","0.0-4.0-2.1-0.55","spark_pilot_2","7331","5","12","Female","","false","","","","","[732.6000000238419,467.19999998807907]","./assets/img/ocean/memory/13.jpg","[""ArrowDown"",""ArrowLeft""]","value training","ocean","8","{""ArrowUp,ArrowLeft"":23,""ArrowUp,ArrowRight"":10,""ArrowDown,ArrowLeft"":8,""ArrowDown,ArrowRight"":30}","false","ArrowDown,ArrowLeft","false","","","revaluation","2","10","","",""
"html-keyboard-response","296","1395506","0.0-4.0-2.1-1.55","spark_pilot_2","7331","5","12","Female","","","","","","","null","<div style=""font-size:60px;"">+</div>","null","fixation","","","","","","","","","","","11","","",""
"revaluation","297","1401513","0.0-4.0-2.1-0.56","spark_pilot_2","7331","5","12","Female","","false","","","","","[573.6000000238419,438.30000001192093]","./assets/img/ocean/memory/7.jpg","[""ArrowDown"",""ArrowRight""]","value training","ocean","30","{""ArrowUp,ArrowLeft"":23,""ArrowUp,ArrowRight"":10,""ArrowDown,ArrowLeft"":8,""ArrowDown,ArrowRight"":30}","true","ArrowDown,ArrowRight","false","","","revaluation","2","12","","",""
"html-keyboard-response","298","1402015","0.0-4.0-2.1-1.56","spark_pilot_2","7331","5","12","Female","","","","","","","null","<div style=""font-size:60px;"">+</div>","null","fixation","","","","","","","","","","","13","","",""
"revaluation","299","1408020","0.0-4.0-2.1-0.57","spark_pilot_2","7331","5","12","Female","","false","","","","","[976.6000000238419,394.10000002384186]","./assets/img/ocean/memory/22.jpg","[""ArrowDown"",""ArrowRight""]","value training","ocean","30","{""ArrowUp,ArrowLeft"":23,""ArrowUp,ArrowRight"":10,""ArrowDown,ArrowLeft"":8,""ArrowDown,ArrowRight"":30}","true","ArrowDown,ArrowRight","false","","","revaluation","2","14","","",""
"html-keyboard-response","300","1408522","0.0-4.0-2.1-1.57","spark_pilot_2","7331","5","12","Female","","","","","","","null","<div style=""font-size:60px;"">+</div>","null","fixation","","","","","","","","","","","15","","",""
"revaluation","301","1414528","0.0-4.0-2.1-0.58","spark_pilot_2","7331","5","12","Female","","false","","","","","[797.9000000357628,469]","./assets/img/ocean/memory/16.jpg","[""ArrowDown"",""ArrowRight""]","value training","ocean","30","{""ArrowUp,ArrowLeft"":23,""ArrowUp,ArrowRight"":10,""ArrowDown,ArrowLeft"":8,""ArrowDown,ArrowRight"":30}","true","ArrowDown,ArrowRight","false","","","revaluation","2","16","","",""
"html-keyboard-response","302","1415030","0.0-4.0-2.1-1.58","spark_pilot_2","7331","5","12","Female","","","","","","","null","<div style=""font-size:60px;"">+</div>","null","fixation","","","","","","","","","","","17","","",""
"revaluation","303","1419036","0.0-4.0-2.1-0.59","spark_pilot_2","7331","5","12","Female","","false","","","","","[747.3999999761581]","./assets/img/ocean/catch/1.jpg","[""spaceBar""]","value training","ocean","0","{""ArrowUp,ArrowLeft"":23,""ArrowUp,ArrowRight"":10,""ArrowDown,ArrowLeft"":8,""ArrowDown,ArrowRight"":30}","true","spaceBar","true","","","revaluation","2","18","","",""
"html-keyboard-response","304","1419537","0.0-4.0-2.1-1.59","spark_pilot_2","7331","5","12","Female","","","","","","","null","<div style=""font-size:60px;"">+</div>","null","fixation","","","","","","","","","","","19","","",""
"revaluation","305","1425546","0.0-4.0-2.1-0.60","spark_pilot_2","7331","5","12","Female","","false","","","","","[1307.800000011921,718.0999999642372]","./assets/img/ocean/memory/9.jpg","[""ArrowDown"",""ArrowRight""]","value training","ocean","30","{""ArrowUp,ArrowLeft"":23,""ArrowUp,ArrowRight"":10,""ArrowDown,ArrowLeft"":8,""ArrowDown,ArrowRight"":30}","true","ArrowDown,ArrowRight","false","","","revaluation","2","20","","",""
"html-keyboard-response","306","1426048","0.0-4.0-2.1-1.60","spark_pilot_2","7331","5","12","Female","","","","","","","null","<div style=""font-size:60px;"">+</div>","null","fixation","","","","","","","","","","","21","","",""
