"trial_type","trial_index","time_elapsed","internal_node_id","task_version","subject_id","assigned_condition","age","gender","success","timeout","failed_images","failed_audio","failed_video","browser_interaction","rt","stimulus","response","task_part","environment","score","rewardMap","correct","fullState","isCatch","numberMissed","duration","condition","order","trial_num","key_press","ground_truth","bonus"
"pavlovia","0","1096","0.0-0.0","spark_pilot_2","7973","3","16","Male","","","","","","","","","","","","","","","","","","","","","","","",""
"preload","1","7848","0.0-1.0","spark_pilot_2","7973","3","16","Male","true","false","[]","[]","[]","[{""event"":""fullscreenenter"",""trial"":2,""time"":9555},{""event"":""blur"",""trial"":3,""time"":16012},{""event"":""fullscreenexit"",""trial"":3,""time"":20269},{""event"":""focus"",""trial"":3,""time"":24934},{""event"":""blur"",""trial"":4,""time"":26837},{""event"":""focus"",""trial"":4,""time"":35285},{""event"":""blur"",""trial"":6,""time"":43067},{""event"":""focus"",""trial"":6,""time"":45012},{""event"":""blur"",""trial"":7,""time"":52166},{""event"":""focus"",""trial"":7,""time"":56993}]","","","","","","","","","","","","","","","","","",""
"fullscreen","2","10514","0.0-2.0","spark_pilot_2","7973","3","16","Male","true","","","","","[{""event"":""fullscreenenter"",""trial"":2,""time"":9555},{""event"":""blur"",""trial"":3,""time"":16012},{""event"":""fullscreenexit"",""trial"":3,""time"":20269},{""event"":""focus"",""trial"":3,""time"":24934},{""event"":""blur"",""trial"":4,""time"":26837},{""event"":""focus"",""trial"":4,""time"":35285},{""event"":""blur"",""trial"":6,""time"":43067},{""event"":""focus"",""trial"":6,""time"":45012},{""event"":""blur"",""trial"":7,""time"":52166},{""event"":""focus"",""trial"":7,""time"":56993}]","","","","","","","","","","","","","","","","","",""
"audio-button-response","3","25104","0.0-3.0-0.0-0.0","spark_pilot_2","7973","3","16","Male","","","","","","[{""event"":""fullscreenenter"",""trial"":2,""time"":9555},{""event"":""blur"",""trial"":3,""time"":16012},{""event"":""fullscreenexit"",""trial"":3,""time"":20269},{""event"":""focus"",""trial"":3,""time"":24934},{""event"":""blur"",""trial"":4,""time"":26837},{""event"":""focus"",""trial"":4,""time"":35285},{""event"":""blur"",""trial"":6,""time"":43067},{""event"":""focus"",""trial"":6,""time"":45012},{""event"":""blur"",""trial"":7,""time"":52166},{""event"":""focus"",""trial"":7,""time"":56993}]","14411","./assets/audio/audiotest/turtle.mp3","4","audio_test","","","","","","","","","","","","","",""
"audio-button-response","4","35402","0.0-3.0-0.1-0.1","spark_pilot_2","7973","3","16","Male","","","","","","","9291","./assets/audio/audiotest/turtle.mp3","4","audio_test","","","","","","","","","","","","","",""
"audio-button-response","5","37705","0.0-3.0-0.2-0.2","spark_pilot_2","7973","3","16","Male","","","","","","[{""event"":""fullscreenenter"",""trial"":2,""time"":9555},{""event"":""blur"",""trial"":3,""time"":16012},{""event"":""fullscreenexit"",""trial"":3,""time"":20269},{""event"":""focus"",""trial"":3,""time"":24934},{""event"":""blur"",""trial"":4,""time"":26837},{""event"":""focus"",""trial"":4,""time"":35285},{""event"":""blur"",""trial"":6,""time"":43067},{""event"":""focus"",""trial"":6,""time"":45012},{""event"":""blur"",""trial"":7,""time"":52166},{""event"":""focus"",""trial"":7,""time"":56993}]","1291","./assets/audio/audiotest/turtle.mp3","2","audio_test","","","","","","","","","","","","","",""
"learning-instructions","6","50808","0.0-3.0-1.0-0.0","spark_pilot_2","7973","3","16","Male","","","","","","[{""event"":""fullscreenenter"",""trial"":2,""time"":9555},{""event"":""blur"",""trial"":3,""time"":16012},{""event"":""fullscreenexit"",""trial"":3,""time"":20269},{""event"":""focus"",""trial"":3,""time"":24934},{""event"":""blur"",""trial"":4,""time"":26837},{""event"":""focus"",""trial"":4,""time"":35285},{""event"":""blur"",""trial"":6,""time"":43067},{""event"":""focus"",""trial"":6,""time"":45012},{""event"":""blur"",""trial"":7,""time"":52166},{""event"":""focus"",""trial"":7,""time"":56993}]","6095.300001144409","<p> Welcome! Please remember to stay in fullscreen mode and don't click away from the experiment. </p>","","instructions","","","","","","","","","","","","","",""
"learning-instructions","7","60948","0.0-3.0-1.0-0.1","spark_pilot_2","7973","3","16","Male","","","","","","","1681.099998474121","<p> Today you will be playing a game to earn treasure. </p>
            <p> At the end of the experiment, you will earn a bonus based on how much treasure you find. </p>
            <img src='./assets/img/instructions/treasure.jpg' class='instructions-image'>","","instructions","","","","","","","","","","","","","",""
"learning-instructions","8","70405","0.0-3.0-1.0-0.2","spark_pilot_2","7973","3","16","Male","","","","","","","1153","<p> Animals have hidden treasure in treasure chests. </p>
            <p> You need to first find an animal and then choose which of their treasure chests to search. </p>
            <img src='./assets/img/space/animals/cat.jpg' class='instructions-image'>","","instructions","","","","","","","","","","","","","",""
"learning-instructions","9","84525","0.0-3.0-1.0-0.3","spark_pilot_2","7973","3","16","Male","","","","","","","938.3999996185303","<p> In each round, you will search for treasure in a different place. In the real game, there will be two rounds. </p>
            <p> You will begin with a separate, practice round where you will search for treasure in outer space. </p>
            <img src='./assets/img/space/0.jpg' class='instructions-image'>","","instructions","","","","","","","","","","","","","",""
"learning-instructions","10","97540","0.0-3.0-1.0-0.4","spark_pilot_2","7973","3","16","Male","","","","","","","1559","<p> On every turn, you will see a picture of the place that you are in, but the specific image may be different each time. </p>
            <p> For example, both of these images mean you are in outer space. </p>
            <img src='./assets/img/instructions/outerspace.jpg' class='instructions-image'>","","instructions","","","","","","","","","","","","","",""
"learning-instructions","11","106023","0.0-3.0-1.0-0.5","spark_pilot_2","7973","3","16","Male","","","","","","","621.2000007629395","<p> You need to decide which direction to travel in. </p>
            <p> You can choose between going <b>up or down</b> by using the arrow keys. </p>
            <img src='./assets/img/instructions/updown.jpg' class='instructions-image'>","","instructions","","","","","","","","","","","","","",""
"learning-instructions","12","115928","0.0-3.0-1.0-0.6","spark_pilot_2","7973","3","16","Male","","","","","","","1055.2999992370605","<p> You will have <b>2 seconds</b> to make your choice. </p>
            <p> If you do not make a choice within 2 seconds, you will not find an animal or earn treasure. </p>
            <img src='./assets/img/instructions/2seconds.jpg' class='instructions-image'>","","instructions","","","","","","","","","","","","","",""
"learning-instructions","13","135021","0.0-3.0-1.0-0.7","spark_pilot_2","7973","3","16","Male","","","","","","","12020.5","<p> Let’s try practicing that now! </p>
            <p> When you see a picture of the place you are in, press the <b>up</b> key to travel up. </p>
            <img src='./assets/img/instructions/pressUp.jpg' class='instructions-image'>","","instructions","","","","","","","","","","","","","",""
"revaluation","14","139058","0.0-3.0-2.0-0.0","spark_pilot_2","7973","3","16","Male","","false","","","","","[1662]","./assets/img/space/0.jpg","[""ArrowUp""]","first stage practice","space","0","null","null","ArrowUp","false","","","","","","","",""
"html-keyboard-response","15","139564","0.0-3.0-2.0-1.0","spark_pilot_2","7973","3","16","Male","","","","","","","null","<div style=""font-size:60px;"">+</div>","null","fixation","","","","","","","","","","","","","",""
"revaluation","16","143580","0.0-3.0-2.0-0.1","spark_pilot_2","7973","3","16","Male","","true","","","","","[]","./assets/img/space/1.jpg","[]","first stage practice","space","-5","null","null","","false","","","","","","","",""
"html-keyboard-response","17","144098","0.0-3.0-2.0-1.1","spark_pilot_2","7973","3","16","Male","","","","","","","null","<div style=""font-size:60px;"">+</div>","null","fixation","","","","","","","","","","","","","",""
"revaluation","18","148125","0.0-3.0-2.0-0.2","spark_pilot_2","7973","3","16","Male","","false","","","","","[1279.6000003814697]","./assets/img/space/2.jpg","[""ArrowUp""]","first stage practice","space","0","null","null","ArrowUp","false","","","","","","","",""
"html-keyboard-response","19","148630","0.0-3.0-2.0-1.2","spark_pilot_2","7973","3","16","Male","","","","","","","null","<div style=""font-size:60px;"">+</div>","null","fixation","","","","","","","","","","","","","",""
"learning-instructions","20","153982","0.0-3.0-3.0-0.0","spark_pilot_2","7973","3","16","Male","","","","","","","635.1999988555908","<p> Great job! Now try pressing the <b>down</b> key to travel down. </p>
            <img src='./assets/img/instructions/pressDown.jpg' class='instructions-image'>","","instructions","","","","","","","","","","","","","",""
"revaluation","21","158007","0.0-3.0-4.0-0.0","spark_pilot_2","7973","3","16","Male","","false","","","","","[843.3000011444092]","./assets/img/space/3.jpg","[""ArrowDown""]","first stage practice","space","0","null","null","ArrowDown","false","","","","","","","",""
"html-keyboard-response","22","158513","0.0-3.0-4.0-1.0","spark_pilot_2","7973","3","16","Male","","","","","","","null","<div style=""font-size:60px;"">+</div>","null","fixation","","","","","","","","","","","","","",""
"revaluation","23","162534","0.0-3.0-4.0-0.1","spark_pilot_2","7973","3","16","Male","","false","","","","","[942.2999992370605]","./assets/img/space/4.jpg","[""ArrowDown""]","first stage practice","space","0","null","null","ArrowDown","false","","","","","","","",""
"html-keyboard-response","24","163041","0.0-3.0-4.0-1.1","spark_pilot_2","7973","3","16","Male","","","","","","","null","<div style=""font-size:60px;"">+</div>","null","fixation","","","","","","","","","","","","","",""
"revaluation","25","167064","0.0-3.0-4.0-0.2","spark_pilot_2","7973","3","16","Male","","false","","","","","[1118.1000003814697]","./assets/img/space/5.jpg","[""ArrowDown""]","first stage practice","space","0","null","null","ArrowDown","false","","","","","","","",""
"html-keyboard-response","26","167580","0.0-3.0-4.0-1.2","spark_pilot_2","7973","3","16","Male","","","","","","","null","<div style=""font-size:60px;"">+</div>","null","fixation","","","","","","","","","","","","","",""
"learning-instructions","27","179843","0.0-3.0-5.0-0.0","spark_pilot_2","7973","3","16","Male","","","","","","","2369.099998474121","<p> The animals don’t move, so the animal in the upper part of a place will stay in the upper part of a place, and the animal in the lower part of a place will stay in the lower part of a place. </p>","","instructions","","","","","","","","","","","","","",""
"learning-instructions","28","192154","0.0-3.0-5.0-0.1","spark_pilot_2","7973","3","16","Male","","","","","","","3140.699998855591","<p> Each animal has two treasure chests for you to choose from. </p>
            <p> The amount of treasure in each chest can range from <b> 0 to 40 pieces.</b></p>","","instructions","","","","","","","","","","","","","",""
"learning-instructions","29","206540","0.0-3.0-5.0-0.2","spark_pilot_2","7973","3","16","Male","","","","","","","3167.800001144409","<p> You should decide which chest to search for treasure by using the <b>left</b> and <b>right</b> arrow keys. </p>
            <p><b> Pay attention to which animal is on the screen, as the animals have different treasure chests. </b></p>
            <img src='./assets/img/instructions/leftright.jpg' class='instructions-image'>","","instructions","","","","","","","","","","","","","",""
"learning-instructions","30","214220","0.0-3.0-5.0-0.3","spark_pilot_2","7973","3","16","Male","","","","","","","1287","<p> Let’s try practicing that now. </p>
            <p> When you see an animal, choose which chest to search for treasure. </p>
            <img src='./assets/img/instructions/chooseChest.jpg' class='instructions-image'>","","instructions","","","","","","","","","","","","","",""
"revaluation","31","218245","0.0-3.0-6.0-0.0","spark_pilot_2","7973","3","16","Male","","false","","","","","[1562.5]","./assets/img/space/animals/rabbit.jpg","[""ArrowRight""]","second stage practice","space","23","{""ArrowUp,ArrowLeft"":3,""ArrowUp,ArrowRight"":36,""ArrowDown,ArrowLeft"":15,""ArrowDown,ArrowRight"":23}","true","ArrowDown,ArrowRight","","","","","","","","",""
"html-keyboard-response","32","218757","0.0-3.0-6.0-1.0","spark_pilot_2","7973","3","16","Male","","","","","","","null","<div style=""font-size:60px;"">+</div>","null","fixation","","","","","","","","","","","","","",""
"revaluation","33","222775","0.0-3.0-6.0-0.1","spark_pilot_2","7973","3","16","Male","","false","","","","","[730.1000003814697]","./assets/img/space/animals/cat.jpg","[""ArrowLeft""]","second stage practice","space","3","{""ArrowUp,ArrowLeft"":3,""ArrowUp,ArrowRight"":36,""ArrowDown,ArrowLeft"":15,""ArrowDown,ArrowRight"":23}","false","ArrowUp,ArrowLeft","","","","","","","","",""
"html-keyboard-response","34","223285","0.0-3.0-6.0-1.1","spark_pilot_2","7973","3","16","Male","","","","","","","null","<div style=""font-size:60px;"">+</div>","null","fixation","","","","","","","","","","","","","",""
"revaluation","35","227308","0.0-3.0-6.0-0.2","spark_pilot_2","7973","3","16","Male","","false","","","","","[565]","./assets/img/space/animals/cat.jpg","[""ArrowRight""]","second stage practice","space","36","{""ArrowUp,ArrowLeft"":3,""ArrowUp,ArrowRight"":36,""ArrowDown,ArrowLeft"":15,""ArrowDown,ArrowRight"":23}","true","ArrowUp,ArrowRight","","","","","","","","",""
"html-keyboard-response","36","227814","0.0-3.0-6.0-1.2","spark_pilot_2","7973","3","16","Male","","","","","","","null","<div style=""font-size:60px;"">+</div>","null","fixation","","","","","","","","","","","","","",""
"revaluation","37","231836","0.0-3.0-6.0-0.3","spark_pilot_2","7973","3","16","Male","","false","","","","","[404.6000003814697]","./assets/img/space/animals/rabbit.jpg","[""ArrowRight""]","second stage practice","space","23","{""ArrowUp,ArrowLeft"":3,""ArrowUp,ArrowRight"":36,""ArrowDown,ArrowLeft"":15,""ArrowDown,ArrowRight"":23}","true","ArrowDown,ArrowRight","","","","","","","","",""
"html-keyboard-response","38","232340","0.0-3.0-6.0-1.3","spark_pilot_2","7973","3","16","Male","","","","","","","null","<div style=""font-size:60px;"">+</div>","null","fixation","","","","","","","","","","","","","",""
"learning-instructions","39","251979","0.0-3.0-7.0-0.0","spark_pilot_2","7973","3","16","Male","","","","","","","2760.1000003814697","<p> Great job. Now let’s try putting it together. </p>
            <p> On each turn, you will first see a picture to remind you of the place you are in, and you need to choose whether to go up or down. </p>
            <p> Then you will see an animal and choose which of its chests to search for treasure. </p>","","instructions","","","","","","","","","","","","","",""
"learning-instructions","40","263293","0.0-3.0-7.0-0.1","spark_pilot_2","7973","3","16","Male","","","","","","","3023.699998855591","<p> When you choose whether to go up or down, try to go to the animal with the chest with the most treasure. </p>
            <p> Try practicing that now! </p>","","instructions","","","","","","","","","","","","","",""
"revaluation","41","269325","0.0-3.0-8.0-0.0","spark_pilot_2","7973","3","16","Male","","false","","","","","[1587.7999992370605,1052.8000011444092]","./assets/img/space/6.jpg","[""ArrowUp"",""ArrowLeft""]","full practice","space","3","{""ArrowUp,ArrowLeft"":3,""ArrowUp,ArrowRight"":36,""ArrowDown,ArrowLeft"":15,""ArrowDown,ArrowRight"":23}","false","ArrowUp,ArrowLeft","false","","","","","","","",""
"html-keyboard-response","42","269831","0.0-3.0-8.0-1.0","spark_pilot_2","7973","3","16","Male","","","","","","","null","<div style=""font-size:60px;"">+</div>","null","fixation","","","","","","","","","","","","","",""
"revaluation","43","275874","0.0-3.0-8.0-0.1","spark_pilot_2","7973","3","16","Male","","false","","","","","[1264.7999992370605,604.3999996185303]","./assets/img/space/7.jpg","[""ArrowDown"",""ArrowRight""]","full practice","space","23","{""ArrowUp,ArrowLeft"":3,""ArrowUp,ArrowRight"":36,""ArrowDown,ArrowLeft"":15,""ArrowDown,ArrowRight"":23}","false","ArrowDown,ArrowRight","false","","","","","","","",""
"html-keyboard-response","44","276386","0.0-3.0-8.0-1.1","spark_pilot_2","7973","3","16","Male","","","","","","","null","<div style=""font-size:60px;"">+</div>","null","fixation","","","","","","","","","","","","","",""
"revaluation","45","282405","0.0-3.0-8.0-0.2","spark_pilot_2","7973","3","16","Male","","false","","","","","[1051.8999996185303,312.3000011444092]","./assets/img/space/8.jpg","[""ArrowDown"",""ArrowLeft""]","full practice","space","15","{""ArrowUp,ArrowLeft"":3,""ArrowUp,ArrowRight"":36,""ArrowDown,ArrowLeft"":15,""ArrowDown,ArrowRight"":23}","false","ArrowDown,ArrowLeft","false","","","","","","","",""
"html-keyboard-response","46","282920","0.0-3.0-8.0-1.2","spark_pilot_2","7973","3","16","Male","","","","","","","null","<div style=""font-size:60px;"">+</div>","null","fixation","","","","","","","","","","","","","",""
"revaluation","47","288940","0.0-3.0-8.0-0.3","spark_pilot_2","7973","3","16","Male","","false","","","","","[838.1000003814697,269.5]","./assets/img/space/9.jpg","[""ArrowUp"",""ArrowRight""]","full practice","space","36","{""ArrowUp,ArrowLeft"":3,""ArrowUp,ArrowRight"":36,""ArrowDown,ArrowLeft"":15,""ArrowDown,ArrowRight"":23}","true","ArrowUp,ArrowRight","false","","","","","","","",""
"html-keyboard-response","48","289457","0.0-3.0-8.0-1.3","spark_pilot_2","7973","3","16","Male","","","","","","","null","<div style=""font-size:60px;"">+</div>","null","fixation","","","","","","","","","","","","","",""
"revaluation","49","295483","0.0-3.0-8.0-0.4","spark_pilot_2","7973","3","16","Male","","false","","","","","[569.3999996185303,387.29999923706055]","./assets/img/space/10.jpg","[""ArrowUp"",""ArrowRight""]","full practice","space","36","{""ArrowUp,ArrowLeft"":3,""ArrowUp,ArrowRight"":36,""ArrowDown,ArrowLeft"":15,""ArrowDown,ArrowRight"":23}","true","ArrowUp,ArrowRight","false","","","","","","","",""
"html-keyboard-response","50","295986","0.0-3.0-8.0-1.4","spark_pilot_2","7973","3","16","Male","","","","","","","null","<div style=""font-size:60px;"">+</div>","null","fixation","","","","","","","","","","","","","",""
"learning-instructions","51","307152","0.0-3.0-9.0-0.0","spark_pilot_2","7973","3","16","Male","","","","","","","759.1000003814697","<p> One last thing: sometimes, you will see a robber. The robber can be anywhere in the picture. </p>
            <p> If you do not stop them, you will lose treasure. </p>
            <img src='./assets/img/instructions/robber.jpg' class='instructions-image'>","","instructions","","","","","","","","","","","","","",""
"learning-instructions","52","316551","0.0-3.0-9.0-0.1","spark_pilot_2","7973","3","16","Male","","","","","","","2095.7000007629395","<p> If you see the robber, you should <b>press the space bar</b> rather than using the arrow keys. </p>
            <p> Try practicing that now! </p>","","instructions","","","","","","","","","","","","","",""
"revaluation","53","320561","0.0-3.0-10.0-0.0","spark_pilot_2","7973","3","16","Male","","false","","","","","[986.3999996185303]","./assets/img/space/catch/0.jpg","[""spaceBar""]","catch practice","space","0","{""ArrowUp,ArrowLeft"":3,""ArrowUp,ArrowRight"":36,""ArrowDown,ArrowLeft"":15,""ArrowDown,ArrowRight"":23}","true","spaceBar","true","","","","","","","",""
"html-keyboard-response","54","321067","0.0-3.0-10.0-1.0","spark_pilot_2","7973","3","16","Male","","","","","","","null","<div style=""font-size:60px;"">+</div>","null","fixation","","","","","","","","","","","","","",""
"revaluation","55","325090","0.0-3.0-10.0-0.1","spark_pilot_2","7973","3","16","Male","","false","","","","","[669.3999996185303]","./assets/img/space/catch/1.jpg","[""spaceBar""]","catch practice","space","0","{""ArrowUp,ArrowLeft"":3,""ArrowUp,ArrowRight"":36,""ArrowDown,ArrowLeft"":15,""ArrowDown,ArrowRight"":23}","true","spaceBar","true","","","","","","","",""
"html-keyboard-response","56","325596","0.0-3.0-10.0-1.1","spark_pilot_2","7973","3","16","Male","","","","","","","null","<div style=""font-size:60px;"">+</div>","null","fixation","","","","","","","","","","","","","",""
"revaluation","57","329634","0.0-3.0-10.0-0.2","spark_pilot_2","7973","3","16","Male","","false","","","","","[656.7000007629395]","./assets/img/space/catch/2.jpg","[""spaceBar""]","catch practice","space","0","{""ArrowUp,ArrowLeft"":3,""ArrowUp,ArrowRight"":36,""ArrowDown,ArrowLeft"":15,""ArrowDown,ArrowRight"":23}","true","spaceBar","true","","","","","","","",""
"html-keyboard-response","58","330140","0.0-3.0-10.0-1.2","spark_pilot_2","7973","3","16","Male","","","","","","","null","<div style=""font-size:60px;"">+</div>","null","fixation","","","","","","","","","","","","","",""
"learning-instructions","59","344781","0.0-3.0-11.0-0.0","spark_pilot_2","7973","3","16","Male","","","","","","","1001.8000011444092","<p> After you explore a place to find treasure, it will be time to play a different game. </p>
            <p> During this game, red dots will appear on the screen and fall down slowly. </p>
            <p><b> You must click on them before they reach the bottom. </b></p>
            <img src='./assets/img/instructions/dotGame.jpg' class='instructions-image'>","","instructions","","","","","","","","","","","","","",""
"learning-instructions","60","351343","0.0-3.0-11.0-0.1","spark_pilot_2","7973","3","16","Male","","","","","","","864.2999992370605","<p> For every dot you click, you will earn additional treasure. </p>
            <p> Let’s try practicing that now. </p>","","instructions","","","","","","","","","","","","","",""
"revaluation","61","366357","0.0-3.0-12.0-0.0","spark_pilot_2","7973","3","16","Male","","","","","","","[132]","","","rest practice","","10","","","","","0","15000","","","","","",""
"learning-instructions","62","374846","0.0-3.0-13.0-0.0-0.0","spark_pilot_2","7973","3","16","Male","","","","","","","3187.7999992370605","<p> Now, you will practice a shortened version of the game to get a sense of how it all fits together. </p>","","instructions","","","","","","","","","","","","","",""
"learning-instructions","63","381674","0.0-3.0-13.0-0.0-0.1","spark_pilot_2","7973","3","16","Male","","","","","","","3614.3999996185303","<p>This time you are searching for treasure in outer space.</p>","","instructions","","","","","","","","","","","","","",""
"learning-instructions","64","397818","0.0-3.0-13.0-1.0-0.0","spark_pilot_2","7973","3","16","Male","","","","","","","1325.1000003814697","<p> Remember, when you see a picture of the place, use the up and down keys to <b>find an animal</b>.</p>
            <p> When you encounter an animal, you should use the left and right keys to <b>select a treasure chest</b>.</p>
            <p> Don't forget to look out for the robber! </p>","","instructions","","","","","","","","","","","","","",""
"revaluation","65","403840","0.0-3.0-13.0-2.0-0.0","spark_pilot_2","7973","3","16","Male","","false","","","","","[1270.3000011444092,697.2000007629395]","./assets/img/space/11.jpg","[""ArrowUp"",""ArrowRight""]","practice block","space","36","{""ArrowUp,ArrowLeft"":3,""ArrowUp,ArrowRight"":36,""ArrowDown,ArrowLeft"":15,""ArrowDown,ArrowRight"":23}","true","ArrowUp,ArrowRight","false","","","","","","","",""
"html-keyboard-response","66","404346","0.0-3.0-13.0-2.0-1.0","spark_pilot_2","7973","3","16","Male","","","","","","","null","<div style=""font-size:60px;"">+</div>","null","fixation","","","","","","","","","","","","","",""
"revaluation","67","410376","0.0-3.0-13.0-2.0-0.1","spark_pilot_2","7973","3","16","Male","","false","","","","","[1997.8999996185303,683.6999988555908]","./assets/img/space/12.jpg","[""ArrowUp"",""ArrowRight""]","practice block","space","36","{""ArrowUp,ArrowLeft"":3,""ArrowUp,ArrowRight"":36,""ArrowDown,ArrowLeft"":15,""ArrowDown,ArrowRight"":23}","true","ArrowUp,ArrowRight","false","","","","","","","",""
"html-keyboard-response","68","410882","0.0-3.0-13.0-2.0-1.1","spark_pilot_2","7973","3","16","Male","","","","","","","null","<div style=""font-size:60px;"">+</div>","null","fixation","","","","","","","","","","","","","",""
"revaluation","69","416939","0.0-3.0-13.0-2.0-0.2","spark_pilot_2","7973","3","16","Male","","false","","","","","[1487,515.8000011444092]","./assets/img/space/13.jpg","[""ArrowUp"",""ArrowRight""]","practice block","space","36","{""ArrowUp,ArrowLeft"":3,""ArrowUp,ArrowRight"":36,""ArrowDown,ArrowLeft"":15,""ArrowDown,ArrowRight"":23}","true","ArrowUp,ArrowRight","false","","","","","","","",""
"html-keyboard-response","70","417449","0.0-3.0-13.0-2.0-1.2","spark_pilot_2","7973","3","16","Male","","","","","","","null","<div style=""font-size:60px;"">+</div>","null","fixation","","","","","","","","","","","","","",""
"revaluation","71","423474","0.0-3.0-13.0-2.0-0.3","spark_pilot_2","7973","3","16","Male","","false","","","","","[1075.8999996185303,262.3999996185303]","./assets/img/space/14.jpg","[""ArrowUp"",""ArrowRight""]","practice block","space","36","{""ArrowUp,ArrowLeft"":3,""ArrowUp,ArrowRight"":36,""ArrowDown,ArrowLeft"":15,""ArrowDown,ArrowRight"":23}","true","ArrowUp,ArrowRight","false","","","","","","","",""
"html-keyboard-response","72","423978","0.0-3.0-13.0-2.0-1.3","spark_pilot_2","7973","3","16","Male","","","","","","","null","<div style=""font-size:60px;"">+</div>","null","fixation","","","","","","","","","","","","","",""
"revaluation","73","430002","0.0-3.0-13.0-2.0-0.4","spark_pilot_2","7973","3","16","Male","","false","","","","","[1039.8999996185303,280.20000076293945]","./assets/img/space/11.jpg","[""ArrowUp"",""ArrowRight""]","practice block","space","36","{""ArrowUp,ArrowLeft"":3,""ArrowUp,ArrowRight"":36,""ArrowDown,ArrowLeft"":15,""ArrowDown,ArrowRight"":23}","true","ArrowUp,ArrowRight","false","","","","","","","",""
"html-keyboard-response","74","430508","0.0-3.0-13.0-2.0-1.4","spark_pilot_2","7973","3","16","Male","","","","","","","null","<div style=""font-size:60px;"">+</div>","null","fixation","","","","","","","","","","","","","",""
"revaluation","75","436525","0.0-3.0-13.0-2.0-0.5","spark_pilot_2","7973","3","16","Male","","false","","","","","[986,345.1999988555908]","./assets/img/space/12.jpg","[""ArrowUp"",""ArrowRight""]","practice block","space","36","{""ArrowUp,ArrowLeft"":3,""ArrowUp,ArrowRight"":36,""ArrowDown,ArrowLeft"":15,""ArrowDown,ArrowRight"":23}","true","ArrowUp,ArrowRight","false","","","","","","","",""
"html-keyboard-response","76","437028","0.0-3.0-13.0-2.0-1.5","spark_pilot_2","7973","3","16","Male","","","","","","","null","<div style=""font-size:60px;"">+</div>","null","fixation","","","","","","","","","","","","","",""
"revaluation","77","443061","0.0-3.0-13.0-2.0-0.6","spark_pilot_2","7973","3","16","Male","","false","","","","","[873.7999992370605,420.5]","./assets/img/space/13.jpg","[""ArrowUp"",""ArrowRight""]","practice block","space","36","{""ArrowUp,ArrowLeft"":3,""ArrowUp,ArrowRight"":36,""ArrowDown,ArrowLeft"":15,""ArrowDown,ArrowRight"":23}","true","ArrowUp,ArrowRight","false","","","","","","","",""
"html-keyboard-response","78","443569","0.0-3.0-13.0-2.0-1.6","spark_pilot_2","7973","3","16","Male","","","","","","","null","<div style=""font-size:60px;"">+</div>","null","fixation","","","","","","","","","","","","","",""
"revaluation","79","449584","0.0-3.0-13.0-2.0-0.7","spark_pilot_2","7973","3","16","Male","","false","","","","","[969.7999992370605,623.0999984741211]","./assets/img/space/14.jpg","[""ArrowUp"",""ArrowRight""]","practice block","space","36","{""ArrowUp,ArrowLeft"":3,""ArrowUp,ArrowRight"":36,""ArrowDown,ArrowLeft"":15,""ArrowDown,ArrowRight"":23}","true","ArrowUp,ArrowRight","false","","","","","","","",""
"html-keyboard-response","80","450087","0.0-3.0-13.0-2.0-1.7","spark_pilot_2","7973","3","16","Male","","","","","","","null","<div style=""font-size:60px;"">+</div>","null","fixation","","","","","","","","","","","","","",""
"revaluation","81","454105","0.0-3.0-13.0-2.0-0.8","spark_pilot_2","7973","3","16","Male","","false","","","","","[674.1000003814697]","./assets/img/space/catch/3.jpg","[""spaceBar""]","practice block","space","0","{""ArrowUp,ArrowLeft"":3,""ArrowUp,ArrowRight"":36,""ArrowDown,ArrowLeft"":15,""ArrowDown,ArrowRight"":23}","true","spaceBar","true","","","","","","","",""
"html-keyboard-response","82","454613","0.0-3.0-13.0-2.0-1.8","spark_pilot_2","7973","3","16","Male","","","","","","","null","<div style=""font-size:60px;"">+</div>","null","fixation","","","","","","","","","","","","","",""
"learning-instructions","83","470357","0.0-3.0-13.0-3.0-0.0","spark_pilot_2","7973","3","16","Male","","","","","","","2574.6000003814697","<p> Now, you will travel with a friend who will choose whether you go up or down first. </p>
            <p> On these turns, you will just see the animal that they found. You will still get to choose which chest to search for treasure.</p>","","instructions","","","","","","","","","","","","","",""
"revaluation","84","474374","0.0-3.0-13.0-4.0-0.0","spark_pilot_2","7973","3","16","Male","","false","","","","","[1842.5]","./assets/img/space/animals/cat.jpg","[""ArrowRight""]","practice block","space","36","{""ArrowUp,ArrowLeft"":3,""ArrowUp,ArrowRight"":36,""ArrowDown,ArrowLeft"":15,""ArrowDown,ArrowRight"":23}","true","ArrowUp,ArrowRight","","","","","","","","",""
"html-keyboard-response","85","474880","0.0-3.0-13.0-4.0-1.0","spark_pilot_2","7973","3","16","Male","","","","","","","null","<div style=""font-size:60px;"">+</div>","null","fixation","","","","","","","","","","","","","",""
"revaluation","86","478907","0.0-3.0-13.0-4.0-0.1","spark_pilot_2","7973","3","16","Male","","false","","","","","[747.6000003814697]","./assets/img/space/animals/rabbit.jpg","[""ArrowRight""]","practice block","space","23","{""ArrowUp,ArrowLeft"":3,""ArrowUp,ArrowRight"":36,""ArrowDown,ArrowLeft"":15,""ArrowDown,ArrowRight"":23}","true","ArrowDown,ArrowRight","","","","","","","","",""
"html-keyboard-response","87","479418","0.0-3.0-13.0-4.0-1.1","spark_pilot_2","7973","3","16","Male","","","","","","","null","<div style=""font-size:60px;"">+</div>","null","fixation","","","","","","","","","","","","","",""
"revaluation","88","483451","0.0-3.0-13.0-4.0-0.2","spark_pilot_2","7973","3","16","Male","","false","","","","","[331.1000003814697]","./assets/img/space/animals/rabbit.jpg","[""ArrowLeft""]","practice block","space","15","{""ArrowUp,ArrowLeft"":3,""ArrowUp,ArrowRight"":36,""ArrowDown,ArrowLeft"":15,""ArrowDown,ArrowRight"":23}","false","ArrowDown,ArrowLeft","","","","","","","","",""
"html-keyboard-response","89","483967","0.0-3.0-13.0-4.0-1.2","spark_pilot_2","7973","3","16","Male","","","","","","","null","<div style=""font-size:60px;"">+</div>","null","fixation","","","","","","","","","","","","","",""
"revaluation","90","487995","0.0-3.0-13.0-4.0-0.3","spark_pilot_2","7973","3","16","Male","","false","","","","","[322.8000011444092]","./assets/img/space/animals/cat.jpg","[""ArrowRight""]","practice block","space","36","{""ArrowUp,ArrowLeft"":3,""ArrowUp,ArrowRight"":36,""ArrowDown,ArrowLeft"":15,""ArrowDown,ArrowRight"":23}","true","ArrowUp,ArrowRight","","","","","","","","",""
"html-keyboard-response","91","488502","0.0-3.0-13.0-4.0-1.3","spark_pilot_2","7973","3","16","Male","","","","","","","null","<div style=""font-size:60px;"">+</div>","null","fixation","","","","","","","","","","","","","",""
"learning-instructions","92","496652","0.0-3.0-13.0-5.0-0.0","spark_pilot_2","7973","3","16","Male","","","","","","","750.5","<p> Time to play the dot game! </p>
            <p> For 15 seconds, click the red dots on the following screen as they appear. </p>","","instructions","","","","","","","","","","","","","",""
"revaluation","93","511663","0.0-3.0-13.0-6.0-0.0","spark_pilot_2","7973","3","16","Male","","","","","","","[105,100]","","","rest practice","","20","","","","","0","15000","","","","","",""
"learning-instructions","94","520256","0.0-3.0-13.0-7.0-0.0","spark_pilot_2","7973","3","16","Male","","","","","","","2446.2999992370605","<p> You have almost finished this part of the game! </p>
            <p> We are going to ask you to make a few more choices. </p>","","instructions","","","","","","","","","","","","","",""
"learning-instructions","95","535309","0.0-3.0-13.0-7.0-0.1","spark_pilot_2","7973","3","16","Male","","","","","","","998.8000011444092","<p> First, you need to decide whether to go up or down. When you see each picture, use the arrow keys to make your choice. </p>
            <p><b>You will not see which animal you found, but try to get to the one that will give you the most treasure.</b></p>","","instructions","","","","","","","","","","","","","",""
"revaluation","96","536211","0.0-3.0-13.0-8.0","spark_pilot_2","7973","3","16","Male","","false","","","","","[896.2999992370605]","./assets/img/space/15.jpg","[""ArrowUp""]","practice block","space","0","{""ArrowUp,ArrowLeft"":3,""ArrowUp,ArrowRight"":36,""ArrowDown,ArrowLeft"":15,""ArrowDown,ArrowRight"":23}","true","ArrowUp","false","","","","","","","",""
"html-keyboard-response","97","536717","0.0-3.0-13.0-9.0","spark_pilot_2","7973","3","16","Male","","","","","","","null","<div style=""font-size:60px;"">+</div>","null","fixation","","","","","","","","","","","","","",""
"learning-instructions","98","551356","0.0-3.0-13.0-10.0-0.0","spark_pilot_2","7973","3","16","Male","","","","","","","3220.3999996185303","<p> Now you will see the animals again and can search their chests for treasure. </p>
            <p> This time, you will not see how much treasure you earned, but you will earn more bonus money for making better choices. </p>","","instructions","","","","","","","","","","","","","",""
"revaluation","99","552298","0.0-3.0-13.0-11.0-0.0","spark_pilot_2","7973","3","16","Male","","false","","","","","[937.8999996185303]","./assets/img/space/animals/cat.jpg","[""ArrowRight""]","practice block","space","0","{""ArrowUp,ArrowLeft"":3,""ArrowUp,ArrowRight"":36,""ArrowDown,ArrowLeft"":15,""ArrowDown,ArrowRight"":23}","true","ArrowUp,ArrowRight","","","","","","","","",""
"html-keyboard-response","100","552800","0.0-3.0-13.0-11.0-1.0","spark_pilot_2","7973","3","16","Male","","","","","","","null","<div style=""font-size:60px;"">+</div>","null","fixation","","","","","","","","","","","","","",""
"revaluation","101","553590","0.0-3.0-13.0-11.0-0.1","spark_pilot_2","7973","3","16","Male","","false","","","","","[782.8999996185303]","./assets/img/space/animals/rabbit.jpg","[""ArrowRight""]","practice block","space","0","{""ArrowUp,ArrowLeft"":3,""ArrowUp,ArrowRight"":36,""ArrowDown,ArrowLeft"":15,""ArrowDown,ArrowRight"":23}","true","ArrowDown,ArrowRight","","","","","","","","",""
"html-keyboard-response","102","554096","0.0-3.0-13.0-11.0-1.1","spark_pilot_2","7973","3","16","Male","","","","","","","null","<div style=""font-size:60px;"">+</div>","null","fixation","","","","","","","","","","","","","",""
"learning-instructions","103","560862","0.0-3.0-14.0-0.0","spark_pilot_2","7973","3","16","Male","","","","","","","2168.3999996185303","<p> Before you start, we're going to ask you a few questions about how the game works. </p>","","instructions","","","","","","","","","","","","","",""
"comp-q","104","567762","0.0-3.0-15.0-0.0-0.0","spark_pilot_2","7973","3","16","Male","","","","","","","1277.3999996185303","<p> <b> True or False? </b> </p>
            <p> There can be 50 pieces of treasure in a given animal's chest. </p>","1","comp_question","","","","true","","","","","","","","","",""
"comp-q","105","576304","0.0-3.0-15.0-0.0-1.0","spark_pilot_2","7973","3","16","Male","","","","","","","1864.6000003814697","<p> <b> That's right! </b> The amount of treasure in each chest can range from 0 to 40 pieces. </p>","0","comp_answer","","","","","","","","","","","","","",""
"comp-q","106","584755","0.0-3.0-15.0-0.1-0.1","spark_pilot_2","7973","3","16","Male","","","","","","","1292.7000007629395","<p> <b> True or False? </b> </p><p> In this game, all animals have the same amount of treasure in their left and right chests. </p>","1","comp_question","","","","true","","","","","","","","","",""
"comp-q","107","591929","0.0-3.0-15.0-0.1-1.1","spark_pilot_2","7973","3","16","Male","","","","","","","1916.7999992370605","<p> <b> That's right! </b> Animals have different amounts of treasure in their treasure chests. </p>","0","comp_answer","","","","","","","","","","","","","",""
"comp-q","108","598893","0.0-3.0-15.0-0.2-0.2","spark_pilot_2","7973","3","16","Male","","","","","","","1082.8999996185303","<p> <b> True or False? </b> </p><p> The same animal will always be there if you go up in the same place. </p>","1","comp_question","","","","false","","","","","","","","","",""
"comp-q","109","606328","0.0-3.0-15.0-0.2-1.2","spark_pilot_2","7973","3","16","Male","","","","","","","1114.599998474121","<p> <b>Incorrect.</b> One animal lives in the upper part and one lives in the lower part of every place. </p>","0","comp_answer","","","","","","","","","","","","","",""
"comp-q","110","613182","0.0-3.0-15.0-0.3-0.3","spark_pilot_2","7973","3","16","Male","","","","","","","1036.8999996185303","<p> <b> True or False? </b> </p><p> The same animal will always be there if you go up in the same place. </p>","0","comp_question","","","","true","","","","","","","","","",""
"comp-q","111","620797","0.0-3.0-15.0-0.3-1.3","spark_pilot_2","7973","3","16","Male","","","","","","","1057.6000003814697","<p> <b> That's right! </b> One animal lives in the upper part and one lives in the lower part of every place. </p>","0","comp_answer","","","","","","","","","","","","","",""
"comp-q","112","627489","0.0-3.0-15.0-0.4-0.4","spark_pilot_2","7973","3","16","Male","","","","","","","1145.7000007629395","<p> <b> True or False? </b> </p><p> If you see a different picture, it means you are in a new place. </p>","0","comp_question","","","","false","","","","","","","","","",""
"comp-q","113","640775","0.0-3.0-15.0-0.4-1.4","spark_pilot_2","7973","3","16","Male","","","","","","","2153","<p> <b>Incorrect.</b> Lots of different images may show the same place. For example,  you may see three different images that all remind you that you are in outer space. </p>","0","comp_answer","","","","","","","","","","","","","",""
"comp-q","114","649077","0.0-3.0-15.0-0.5-0.5","spark_pilot_2","7973","3","16","Male","","","","","","","2798.8999996185303","<p> <b> True or False? </b> </p><p> If you see a different picture, it means you are in a new place. </p>","1","comp_question","","","","true","","","","","","","","","",""
"comp-q","115","661787","0.0-3.0-15.0-0.5-1.5","spark_pilot_2","7973","3","16","Male","","","","","","","1439.900001525879","<p> <b> That's right! </b> Lots of different images may show the same place. For example,  you may see three different images that all remind you that you are in outer space. </p>","0","comp_answer","","","","","","","","","","","","","",""
"learning-instructions","116","674224","0.0-3.0-16.0-0.0","spark_pilot_2","7973","3","16","Male","","","","","","","2558.2999992370605","<p> Good job. Remember to do your best because the amount of treasure you earn will be converted into bonus money. </p>
            <p> It’s time to start the real game! </p>","","instructions","","","","","","","","","","","","","",""
"learning-instructions","117","678580","0.0-4.0-0.0-0.0","spark_pilot_2","7973","3","16","Male","","","","","","","1625.099998474121","<p> This time you are searching for treasure in the <b>ocean</b>.</p>","","instructions","","","","","","","","","","","","","",""
"learning-instructions","118","706107","0.0-4.0-0.0-0.1","spark_pilot_2","7973","3","16","Male","","","","","","","10175.39999961853","<p><b>New</b> animals with <b>new</b> treasure chests live here. You need to explore to discover where the animal with the best treasure chest is.</p>
                    <p> Like before, once you figure out which animal has the chest with the most treasure, you should try to get to that animal and select that chest! </p>","","instructions","","","","","","","","","","","","","",""
"learning-instructions","119","722289","0.0-4.0-1.0-0.0","spark_pilot_2","7973","3","16","Male","","","","","","","1451.3999996185303","<p> Remember, when you see a picture of the place, use the up and down keys to <b>find an animal</b>.</p>
            <p> When you encounter an animal, you should use the left and right keys to <b>select a treasure chest</b>.</p>
            <p> Don't forget to look out for the robber! </p>","","instructions","","","","","","","","","","","","","",""
"revaluation","120","726320","0.0-4.0-2.0-0.0","spark_pilot_2","7973","3","16","Male","","false","","","","","[1478.5]","./assets/img/ocean/catch/5.jpg","[""ArrowUp""]","value training","ocean","-10","{""ArrowUp,ArrowLeft"":23,""ArrowUp,ArrowRight"":10,""ArrowDown,ArrowLeft"":8,""ArrowDown,ArrowRight"":30}","false","ArrowUp","true","","","original","1","0","","",""
"html-keyboard-response","121","726830","0.0-4.0-2.0-1.0","spark_pilot_2","7973","3","16","Male","","","","","","","null","<div style=""font-size:60px;"">+</div>","null","fixation","","","","","","","","","","","1","","",""
"revaluation","122","732858","0.0-4.0-2.0-0.1","spark_pilot_2","7973","3","16","Male","","false","","","","","[808.1000003814697,368.79999923706055]","./assets/img/ocean/memory/8.jpg","[""ArrowUp"",""ArrowRight""]","value training","ocean","10","{""ArrowUp,ArrowLeft"":23,""ArrowUp,ArrowRight"":10,""ArrowDown,ArrowLeft"":8,""ArrowDown,ArrowRight"":30}","false","ArrowUp,ArrowRight","false","","","original","1","2","","",""
"html-keyboard-response","123","733360","0.0-4.0-2.0-1.1","spark_pilot_2","7973","3","16","Male","","","","","","","null","<div style=""font-size:60px;"">+</div>","null","fixation","","","","","","","","","","","3","","",""
"revaluation","124","739394","0.0-4.0-2.0-0.2","spark_pilot_2","7973","3","16","Male","","false","","","","","[1152.2000007629395,471.5]","./assets/img/ocean/memory/17.jpg","[""ArrowUp"",""ArrowRight""]","value training","ocean","10","{""ArrowUp,ArrowLeft"":23,""ArrowUp,ArrowRight"":10,""ArrowDown,ArrowLeft"":8,""ArrowDown,ArrowRight"":30}","false","ArrowUp,ArrowRight","false","","","original","1","4","","",""
"html-keyboard-response","125","739898","0.0-4.0-2.0-1.2","spark_pilot_2","7973","3","16","Male","","","","","","","null","<div style=""font-size:60px;"">+</div>","null","fixation","","","","","","","","","","","5","","",""
"revaluation","126","743925","0.0-4.0-2.0-0.3","spark_pilot_2","7973","3","16","Male","","false","","","","","[632.5]","./assets/img/ocean/catch/0.jpg","[""spaceBar""]","value training","ocean","0","{""ArrowUp,ArrowLeft"":23,""ArrowUp,ArrowRight"":10,""ArrowDown,ArrowLeft"":8,""ArrowDown,ArrowRight"":30}","true","spaceBar","true","","","original","1","6","","",""
"html-keyboard-response","127","744433","0.0-4.0-2.0-1.3","spark_pilot_2","7973","3","16","Male","","","","","","","null","<div style=""font-size:60px;"">+</div>","null","fixation","","","","","","","","","","","7","","",""
"revaluation","128","750459","0.0-4.0-2.0-0.4","spark_pilot_2","7973","3","16","Male","","false","","","","","[1124.7999992370605,420.3999996185303]","./assets/img/ocean/memory/9.jpg","[""ArrowUp"",""ArrowRight""]","value training","ocean","10","{""ArrowUp,ArrowLeft"":23,""ArrowUp,ArrowRight"":10,""ArrowDown,ArrowLeft"":8,""ArrowDown,ArrowRight"":30}","false","ArrowUp,ArrowRight","false","","","original","1","8","","",""
"html-keyboard-response","129","750975","0.0-4.0-2.0-1.4","spark_pilot_2","7973","3","16","Male","","","","","","","null","<div style=""font-size:60px;"">+</div>","null","fixation","","","","","","","","","","","9","","",""
"revaluation","130","756995","0.0-4.0-2.0-0.5","spark_pilot_2","7973","3","16","Male","","false","","","","","[755.6999988555908,270.6999988555908]","./assets/img/ocean/memory/36.jpg","[""ArrowUp"",""ArrowRight""]","value training","ocean","10","{""ArrowUp,ArrowLeft"":23,""ArrowUp,ArrowRight"":10,""ArrowDown,ArrowLeft"":8,""ArrowDown,ArrowRight"":30}","false","ArrowUp,ArrowRight","false","","","original","1","10","","",""
"html-keyboard-response","131","757498","0.0-4.0-2.0-1.5","spark_pilot_2","7973","3","16","Male","","","","","","","null","<div style=""font-size:60px;"">+</div>","null","fixation","","","","","","","","","","","11","","",""
"revaluation","132","763513","0.0-4.0-2.0-0.6","spark_pilot_2","7973","3","16","Male","","false","","","","","[910.7999992370605,462.20000076293945]","./assets/img/ocean/memory/3.jpg","[""ArrowDown"",""ArrowLeft""]","value training","ocean","8","{""ArrowUp,ArrowLeft"":23,""ArrowUp,ArrowRight"":10,""ArrowDown,ArrowLeft"":8,""ArrowDown,ArrowRight"":30}","false","ArrowDown,ArrowLeft","false","","","original","1","12","","",""
"html-keyboard-response","133","764021","0.0-4.0-2.0-1.6","spark_pilot_2","7973","3","16","Male","","","","","","","null","<div style=""font-size:60px;"">+</div>","null","fixation","","","","","","","","","","","13","","",""
"revaluation","134","770041","0.0-4.0-2.0-0.7","spark_pilot_2","7973","3","16","Male","","false","","","","","[1020.7000007629395,373]","./assets/img/ocean/memory/13.jpg","[""ArrowUp"",""ArrowLeft""]","value training","ocean","23","{""ArrowUp,ArrowLeft"":23,""ArrowUp,ArrowRight"":10,""ArrowDown,ArrowLeft"":8,""ArrowDown,ArrowRight"":30}","false","ArrowUp,ArrowLeft","false","","","original","1","14","","",""
"html-keyboard-response","135","770544","0.0-4.0-2.0-1.7","spark_pilot_2","7973","3","16","Male","","","","","","","null","<div style=""font-size:60px;"">+</div>","null","fixation","","","","","","","","","","","15","","",""
"revaluation","136","776561","0.0-4.0-2.0-0.8","spark_pilot_2","7973","3","16","Male","","false","","","","","[652.8999996185303,298.6000003814697]","./assets/img/ocean/memory/22.jpg","[""ArrowUp"",""ArrowLeft""]","value training","ocean","23","{""ArrowUp,ArrowLeft"":23,""ArrowUp,ArrowRight"":10,""ArrowDown,ArrowLeft"":8,""ArrowDown,ArrowRight"":30}","false","ArrowUp,ArrowLeft","false","","","original","1","16","","",""
"html-keyboard-response","137","777070","0.0-4.0-2.0-1.8","spark_pilot_2","7973","3","16","Male","","","","","","","null","<div style=""font-size:60px;"">+</div>","null","fixation","","","","","","","","","","","17","","",""
"revaluation","138","783109","0.0-4.0-2.0-0.9","spark_pilot_2","7973","3","16","Male","","false","","","","","[801.6999988555908,486.70000076293945]","./assets/img/ocean/memory/0.jpg","[""ArrowUp"",""ArrowLeft""]","value training","ocean","23","{""ArrowUp,ArrowLeft"":23,""ArrowUp,ArrowRight"":10,""ArrowDown,ArrowLeft"":8,""ArrowDown,ArrowRight"":30}","false","ArrowUp,ArrowLeft","false","","","original","1","18","","",""
"html-keyboard-response","139","783613","0.0-4.0-2.0-1.9","spark_pilot_2","7973","3","16","Male","","","","","","","null","<div style=""font-size:60px;"">+</div>","null","fixation","","","","","","","","","","","19","","",""
"revaluation","140","789636","0.0-4.0-2.0-0.10","spark_pilot_2","7973","3","16","Male","","false","","","","","[751.3999996185303,380.29999923706055]","./assets/img/ocean/memory/29.jpg","[""ArrowUp"",""ArrowLeft""]","value training","ocean","23","{""ArrowUp,ArrowLeft"":23,""ArrowUp,ArrowRight"":10,""ArrowDown,ArrowLeft"":8,""ArrowDown,ArrowRight"":30}","false","ArrowUp,ArrowLeft","false","","","original","1","20","","",""
"html-keyboard-response","141","790144","0.0-4.0-2.0-1.10","spark_pilot_2","7973","3","16","Male","","","","","","","null","<div style=""font-size:60px;"">+</div>","null","fixation","","","","","","","","","","","21","","",""
"revaluation","142","796162","0.0-4.0-2.0-0.11","spark_pilot_2","7973","3","16","Male","","false","","","","","[687.5999984741211,526.7000007629395]","./assets/img/ocean/memory/33.jpg","[""ArrowUp"",""ArrowLeft""]","value training","ocean","23","{""ArrowUp,ArrowLeft"":23,""ArrowUp,ArrowRight"":10,""ArrowDown,ArrowLeft"":8,""ArrowDown,ArrowRight"":30}","false","ArrowUp,ArrowLeft","false","","","original","1","22","","",""
"html-keyboard-response","143","796679","0.0-4.0-2.0-1.11","spark_pilot_2","7973","3","16","Male","","","","","","","null","<div style=""font-size:60px;"">+</div>","null","fixation","","","","","","","","","","","23","","",""
"revaluation","144","802698","0.0-4.0-2.0-0.12","spark_pilot_2","7973","3","16","Male","","false","","","","","[582.5,566.5]","./assets/img/ocean/memory/8.jpg","[""ArrowUp"",""ArrowLeft""]","value training","ocean","23","{""ArrowUp,ArrowLeft"":23,""ArrowUp,ArrowRight"":10,""ArrowDown,ArrowLeft"":8,""ArrowDown,ArrowRight"":30}","false","ArrowUp,ArrowLeft","false","","","original","1","24","","",""
"html-keyboard-response","145","803203","0.0-4.0-2.0-1.12","spark_pilot_2","7973","3","16","Male","","","","","","","null","<div style=""font-size:60px;"">+</div>","null","fixation","","","","","","","","","","","25","","",""
"revaluation","146","809237","0.0-4.0-2.0-0.13","spark_pilot_2","7973","3","16","Male","","false","","","","","[1238.7000007629395,367.3999996185303]","./assets/img/ocean/memory/18.jpg","[""ArrowDown"",""ArrowLeft""]","value training","ocean","8","{""ArrowUp,ArrowLeft"":23,""ArrowUp,ArrowRight"":10,""ArrowDown,ArrowLeft"":8,""ArrowDown,ArrowRight"":30}","false","ArrowDown,ArrowLeft","false","","","original","1","26","","",""
"html-keyboard-response","147","809739","0.0-4.0-2.0-1.13","spark_pilot_2","7973","3","16","Male","","","","","","","null","<div style=""font-size:60px;"">+</div>","null","fixation","","","","","","","","","","","27","","",""
"revaluation","148","815763","0.0-4.0-2.0-0.14","spark_pilot_2","7973","3","16","Male","","false","","","","","[527.9000015258789,421.5]","./assets/img/ocean/memory/36.jpg","[""ArrowUp"",""ArrowLeft""]","value training","ocean","23","{""ArrowUp,ArrowLeft"":23,""ArrowUp,ArrowRight"":10,""ArrowDown,ArrowLeft"":8,""ArrowDown,ArrowRight"":30}","false","ArrowUp,ArrowLeft","false","","","original","1","28","","",""
"html-keyboard-response","149","816277","0.0-4.0-2.0-1.14","spark_pilot_2","7973","3","16","Male","","","","","","","null","<div style=""font-size:60px;"">+</div>","null","fixation","","","","","","","","","","","29","","",""
"revaluation","150","820289","0.0-4.0-2.0-0.15","spark_pilot_2","7973","3","16","Male","","false","","","","","[639.8000011444092]","./assets/img/ocean/catch/3.jpg","[""spaceBar""]","value training","ocean","0","{""ArrowUp,ArrowLeft"":23,""ArrowUp,ArrowRight"":10,""ArrowDown,ArrowLeft"":8,""ArrowDown,ArrowRight"":30}","true","spaceBar","true","","","original","1","30","","",""
"html-keyboard-response","151","820795","0.0-4.0-2.0-1.15","spark_pilot_2","7973","3","16","Male","","","","","","","null","<div style=""font-size:60px;"">+</div>","null","fixation","","","","","","","","","","","31","","",""
"revaluation","152","826811","0.0-4.0-2.0-0.16","spark_pilot_2","7973","3","16","Male","","false","","","","","[647.8000011444092,319.70000076293945]","./assets/img/ocean/memory/21.jpg","[""ArrowDown"",""ArrowRight""]","value training","ocean","30","{""ArrowUp,ArrowLeft"":23,""ArrowUp,ArrowRight"":10,""ArrowDown,ArrowLeft"":8,""ArrowDown,ArrowRight"":30}","true","ArrowDown,ArrowRight","false","","","original","1","32","","",""
"html-keyboard-response","153","827315","0.0-4.0-2.0-1.16","spark_pilot_2","7973","3","16","Male","","","","","","","null","<div style=""font-size:60px;"">+</div>","null","fixation","","","","","","","","","","","33","","",""
"revaluation","154","833346","0.0-4.0-2.0-0.17","spark_pilot_2","7973","3","16","Male","","false","","","","","[545.8999996185303,471.8000011444092]","./assets/img/ocean/memory/5.jpg","[""ArrowDown"",""ArrowRight""]","value training","ocean","30","{""ArrowUp,ArrowLeft"":23,""ArrowUp,ArrowRight"":10,""ArrowDown,ArrowLeft"":8,""ArrowDown,ArrowRight"":30}","true","ArrowDown,ArrowRight","false","","","original","1","34","","",""
"html-keyboard-response","155","833849","0.0-4.0-2.0-1.17","spark_pilot_2","7973","3","16","Male","","","","","","","null","<div style=""font-size:60px;"">+</div>","null","fixation","","","","","","","","","","","35","","",""
"revaluation","156","839871","0.0-4.0-2.0-0.18","spark_pilot_2","7973","3","16","Male","","false","","","","","[558.8999996185303,888.5]","./assets/img/ocean/memory/24.jpg","[""ArrowDown"",""ArrowRight""]","value training","ocean","30","{""ArrowUp,ArrowLeft"":23,""ArrowUp,ArrowRight"":10,""ArrowDown,ArrowLeft"":8,""ArrowDown,ArrowRight"":30}","true","ArrowDown,ArrowRight","false","","","original","1","36","","",""
"html-keyboard-response","157","840381","0.0-4.0-2.0-1.18","spark_pilot_2","7973","3","16","Male","","","","","","","null","<div style=""font-size:60px;"">+</div>","null","fixation","","","","","","","","","","","37","","",""
"revaluation","158","846396","0.0-4.0-2.0-0.19","spark_pilot_2","7973","3","16","Male","","false","","","","","[550.1999988555908,620.5]","./assets/img/ocean/memory/5.jpg","[""ArrowDown"",""ArrowRight""]","value training","ocean","30","{""ArrowUp,ArrowLeft"":23,""ArrowUp,ArrowRight"":10,""ArrowDown,ArrowLeft"":8,""ArrowDown,ArrowRight"":30}","true","ArrowDown,ArrowRight","false","","","original","1","38","","",""
"html-keyboard-response","159","846904","0.0-4.0-2.0-1.19","spark_pilot_2","7973","3","16","Male","","","","","","","null","<div style=""font-size:60px;"">+</div>","null","fixation","","","","","","","","","","","39","","",""
"revaluation","160","852922","0.0-4.0-2.0-0.20","spark_pilot_2","7973","3","16","Male","","false","","","","","[501.79999923706055,344.79999923706055]","./assets/img/ocean/memory/6.jpg","[""ArrowDown"",""ArrowRight""]","value training","ocean","30","{""ArrowUp,ArrowLeft"":23,""ArrowUp,ArrowRight"":10,""ArrowDown,ArrowLeft"":8,""ArrowDown,ArrowRight"":30}","true","ArrowDown,ArrowRight","false","","","original","1","40","","",""
"html-keyboard-response","161","853429","0.0-4.0-2.0-1.20","spark_pilot_2","7973","3","16","Male","","","","","","","null","<div style=""font-size:60px;"">+</div>","null","fixation","","","","","","","","","","","41","","",""
"revaluation","162","859453","0.0-4.0-2.0-0.21","spark_pilot_2","7973","3","16","Male","","false","","","","","[564,423.1000003814697]","./assets/img/ocean/memory/1.jpg","[""ArrowDown"",""ArrowRight""]","value training","ocean","30","{""ArrowUp,ArrowLeft"":23,""ArrowUp,ArrowRight"":10,""ArrowDown,ArrowLeft"":8,""ArrowDown,ArrowRight"":30}","true","ArrowDown,ArrowRight","false","","","original","1","42","","",""
"html-keyboard-response","163","859960","0.0-4.0-2.0-1.21","spark_pilot_2","7973","3","16","Male","","","","","","","null","<div style=""font-size:60px;"">+</div>","null","fixation","","","","","","","","","","","43","","",""
"revaluation","164","863974","0.0-4.0-2.0-0.22","spark_pilot_2","7973","3","16","Male","","false","","","","","[614.3999996185303]","./assets/img/ocean/catch/2.jpg","[""spaceBar""]","value training","ocean","0","{""ArrowUp,ArrowLeft"":23,""ArrowUp,ArrowRight"":10,""ArrowDown,ArrowLeft"":8,""ArrowDown,ArrowRight"":30}","true","spaceBar","true","","","original","1","44","","",""
"html-keyboard-response","165","864482","0.0-4.0-2.0-1.22","spark_pilot_2","7973","3","16","Male","","","","","","","null","<div style=""font-size:60px;"">+</div>","null","fixation","","","","","","","","","","","45","","",""
"revaluation","166","870503","0.0-4.0-2.0-0.23","spark_pilot_2","7973","3","16","Male","","false","","","","","[533.6999988555908,354.4000015258789]","./assets/img/ocean/memory/0.jpg","[""ArrowDown"",""ArrowRight""]","value training","ocean","30","{""ArrowUp,ArrowLeft"":23,""ArrowUp,ArrowRight"":10,""ArrowDown,ArrowLeft"":8,""ArrowDown,ArrowRight"":30}","true","ArrowDown,ArrowRight","false","","","original","1","46","","",""
"html-keyboard-response","167","871012","0.0-4.0-2.0-1.23","spark_pilot_2","7973","3","16","Male","","","","","","","null","<div style=""font-size:60px;"">+</div>","null","fixation","","","","","","","","","","","47","","",""
"revaluation","168","877033","0.0-4.0-2.0-0.24","spark_pilot_2","7973","3","16","Male","","false","","","","","[603.5999984741211,442.5999984741211]","./assets/img/ocean/memory/28.jpg","[""ArrowDown"",""ArrowRight""]","value training","ocean","30","{""ArrowUp,ArrowLeft"":23,""ArrowUp,ArrowRight"":10,""ArrowDown,ArrowLeft"":8,""ArrowDown,ArrowRight"":30}","true","ArrowDown,ArrowRight","false","","","original","1","48","","",""
"html-keyboard-response","169","877536","0.0-4.0-2.0-1.24","spark_pilot_2","7973","3","16","Male","","","","","","","null","<div style=""font-size:60px;"">+</div>","null","fixation","","","","","","","","","","","49","","",""
"revaluation","170","883558","0.0-4.0-2.0-0.25","spark_pilot_2","7973","3","16","Male","","false","","","","","[839.7000007629395,726.8999996185303]","./assets/img/ocean/memory/21.jpg","[""ArrowDown"",""ArrowRight""]","value training","ocean","30","{""ArrowUp,ArrowLeft"":23,""ArrowUp,ArrowRight"":10,""ArrowDown,ArrowLeft"":8,""ArrowDown,ArrowRight"":30}","true","ArrowDown,ArrowRight","false","","","original","1","50","","",""
"html-keyboard-response","171","884068","0.0-4.0-2.0-1.25","spark_pilot_2","7973","3","16","Male","","","","","","","null","<div style=""font-size:60px;"">+</div>","null","fixation","","","","","","","","","","","51","","",""
"revaluation","172","890087","0.0-4.0-2.0-0.26","spark_pilot_2","7973","3","16","Male","","false","","","","","[600.6999988555908,296.8000011444092]","./assets/img/ocean/memory/17.jpg","[""ArrowDown"",""ArrowRight""]","value training","ocean","30","{""ArrowUp,ArrowLeft"":23,""ArrowUp,ArrowRight"":10,""ArrowDown,ArrowLeft"":8,""ArrowDown,ArrowRight"":30}","true","ArrowDown,ArrowRight","false","","","original","1","52","","",""
"html-keyboard-response","173","890590","0.0-4.0-2.0-1.26","spark_pilot_2","7973","3","16","Male","","","","","","","null","<div style=""font-size:60px;"">+</div>","null","fixation","","","","","","","","","","","53","","",""
"revaluation","174","896619","0.0-4.0-2.0-0.27","spark_pilot_2","7973","3","16","Male","","false","","","","","[646.6000003814697,265.8999996185303]","./assets/img/ocean/memory/41.jpg","[""ArrowDown"",""ArrowRight""]","value training","ocean","30","{""ArrowUp,ArrowLeft"":23,""ArrowUp,ArrowRight"":10,""ArrowDown,ArrowLeft"":8,""ArrowDown,ArrowRight"":30}","true","ArrowDown,ArrowRight","false","","","original","1","54","","",""
"html-keyboard-response","175","897121","0.0-4.0-2.0-1.27","spark_pilot_2","7973","3","16","Male","","","","","","","null","<div style=""font-size:60px;"">+</div>","null","fixation","","","","","","","","","","","55","","",""
"revaluation","176","903138","0.0-4.0-2.0-0.28","spark_pilot_2","7973","3","16","Male","","false","","","","","[631.7999992370605,438.79999923706055]","./assets/img/ocean/memory/35.jpg","[""ArrowDown"",""ArrowRight""]","value training","ocean","30","{""ArrowUp,ArrowLeft"":23,""ArrowUp,ArrowRight"":10,""ArrowDown,ArrowLeft"":8,""ArrowDown,ArrowRight"":30}","true","ArrowDown,ArrowRight","false","","","original","1","56","","",""
"html-keyboard-response","177","903648","0.0-4.0-2.0-1.28","spark_pilot_2","7973","3","16","Male","","","","","","","null","<div style=""font-size:60px;"">+</div>","null","fixation","","","","","","","","","","","57","","",""
"revaluation","178","909664","0.0-4.0-2.0-0.29","spark_pilot_2","7973","3","16","Male","","false","","","","","[571.1999988555908,714]","./assets/img/ocean/memory/33.jpg","[""ArrowDown"",""ArrowRight""]","value training","ocean","30","{""ArrowUp,ArrowLeft"":23,""ArrowUp,ArrowRight"":10,""ArrowDown,ArrowLeft"":8,""ArrowDown,ArrowRight"":30}","true","ArrowDown,ArrowRight","false","","","original","1","58","","",""
"html-keyboard-response","179","910174","0.0-4.0-2.0-1.29","spark_pilot_2","7973","3","16","Male","","","","","","","null","<div style=""font-size:60px;"">+</div>","null","fixation","","","","","","","","","","","59","","",""
"revaluation","180","916194","0.0-4.0-2.0-0.30","spark_pilot_2","7973","3","16","Male","","false","","","","","[574.5,407.3999996185303]","./assets/img/ocean/memory/22.jpg","[""ArrowDown"",""ArrowRight""]","value training","ocean","30","{""ArrowUp,ArrowLeft"":23,""ArrowUp,ArrowRight"":10,""ArrowDown,ArrowLeft"":8,""ArrowDown,ArrowRight"":30}","true","ArrowDown,ArrowRight","false","","","original","1","60","","",""
"html-keyboard-response","181","916697","0.0-4.0-2.0-1.30","spark_pilot_2","7973","3","16","Male","","","","","","","null","<div style=""font-size:60px;"">+</div>","null","fixation","","","","","","","","","","","61","","",""
"revaluation","182","920714","0.0-4.0-2.0-0.31","spark_pilot_2","7973","3","16","Male","","false","","","","","[946.7000007629395]","./assets/img/ocean/catch/6.jpg","[""spaceBar""]","value training","ocean","0","{""ArrowUp,ArrowLeft"":23,""ArrowUp,ArrowRight"":10,""ArrowDown,ArrowLeft"":8,""ArrowDown,ArrowRight"":30}","true","spaceBar","true","","","original","1","62","","",""
"html-keyboard-response","183","921219","0.0-4.0-2.0-1.31","spark_pilot_2","7973","3","16","Male","","","","","","","null","<div style=""font-size:60px;"">+</div>","null","fixation","","","","","","","","","","","63","","",""
"revaluation","184","927234","0.0-4.0-2.0-0.32","spark_pilot_2","7973","3","16","Male","","false","","","","","[549,610.1999988555908]","./assets/img/ocean/memory/35.jpg","[""ArrowDown"",""ArrowRight""]","value training","ocean","30","{""ArrowUp,ArrowLeft"":23,""ArrowUp,ArrowRight"":10,""ArrowDown,ArrowLeft"":8,""ArrowDown,ArrowRight"":30}","true","ArrowDown,ArrowRight","false","","","original","1","64","","",""
"html-keyboard-response","185","927740","0.0-4.0-2.0-1.32","spark_pilot_2","7973","3","16","Male","","","","","","","null","<div style=""font-size:60px;"">+</div>","null","fixation","","","","","","","","","","","65","","",""
"revaluation","186","933760","0.0-4.0-2.0-0.33","spark_pilot_2","7973","3","16","Male","","false","","","","","[531.1999988555908,495.20000076293945]","./assets/img/ocean/memory/3.jpg","[""ArrowDown"",""ArrowRight""]","value training","ocean","30","{""ArrowUp,ArrowLeft"":23,""ArrowUp,ArrowRight"":10,""ArrowDown,ArrowLeft"":8,""ArrowDown,ArrowRight"":30}","true","ArrowDown,ArrowRight","false","","","original","1","66","","",""
"html-keyboard-response","187","934264","0.0-4.0-2.0-1.33","spark_pilot_2","7973","3","16","Male","","","","","","","null","<div style=""font-size:60px;"">+</div>","null","fixation","","","","","","","","","","","67","","",""
"revaluation","188","940281","0.0-4.0-2.0-0.34","spark_pilot_2","7973","3","16","Male","","false","","","","","[667.8999996185303,351.29999923706055]","./assets/img/ocean/memory/4.jpg","[""ArrowDown"",""ArrowRight""]","value training","ocean","30","{""ArrowUp,ArrowLeft"":23,""ArrowUp,ArrowRight"":10,""ArrowDown,ArrowLeft"":8,""ArrowDown,ArrowRight"":30}","true","ArrowDown,ArrowRight","false","","","original","1","68","","",""
"html-keyboard-response","189","940788","0.0-4.0-2.0-1.34","spark_pilot_2","7973","3","16","Male","","","","","","","null","<div style=""font-size:60px;"">+</div>","null","fixation","","","","","","","","","","","69","","",""
"revaluation","190","944799","0.0-4.0-2.0-0.35","spark_pilot_2","7973","3","16","Male","","false","","","","","[680.8999996185303]","./assets/img/ocean/catch/1.jpg","[""spaceBar""]","value training","ocean","0","{""ArrowUp,ArrowLeft"":23,""ArrowUp,ArrowRight"":10,""ArrowDown,ArrowLeft"":8,""ArrowDown,ArrowRight"":30}","true","spaceBar","true","","","original","1","70","","",""
"html-keyboard-response","191","945306","0.0-4.0-2.0-1.35","spark_pilot_2","7973","3","16","Male","","","","","","","null","<div style=""font-size:60px;"">+</div>","null","fixation","","","","","","","","","","","71","","",""
"revaluation","192","951326","0.0-4.0-2.0-0.36","spark_pilot_2","7973","3","16","Male","","false","","","","","[561.1999988555908,1017.7999992370605]","./assets/img/ocean/memory/28.jpg","[""ArrowDown"",""ArrowRight""]","value training","ocean","30","{""ArrowUp,ArrowLeft"":23,""ArrowUp,ArrowRight"":10,""ArrowDown,ArrowLeft"":8,""ArrowDown,ArrowRight"":30}","true","ArrowDown,ArrowRight","false","","","original","1","72","","",""
"html-keyboard-response","193","951828","0.0-4.0-2.0-1.36","spark_pilot_2","7973","3","16","Male","","","","","","","null","<div style=""font-size:60px;"">+</div>","null","fixation","","","","","","","","","","","73","","",""
"revaluation","194","957852","0.0-4.0-2.0-0.37","spark_pilot_2","7973","3","16","Male","","false","","","","","[903.2999992370605,846]","./assets/img/ocean/memory/4.jpg","[""ArrowDown"",""ArrowRight""]","value training","ocean","30","{""ArrowUp,ArrowLeft"":23,""ArrowUp,ArrowRight"":10,""ArrowDown,ArrowLeft"":8,""ArrowDown,ArrowRight"":30}","true","ArrowDown,ArrowRight","false","","","original","1","74","","",""
"html-keyboard-response","195","958356","0.0-4.0-2.0-1.37","spark_pilot_2","7973","3","16","Male","","","","","","","null","<div style=""font-size:60px;"">+</div>","null","fixation","","","","","","","","","","","75","","",""
"revaluation","196","964381","0.0-4.0-2.0-0.38","spark_pilot_2","7973","3","16","Male","","false","","","","","[688.2000007629395,350]","./assets/img/ocean/memory/41.jpg","[""ArrowDown"",""ArrowRight""]","value training","ocean","30","{""ArrowUp,ArrowLeft"":23,""ArrowUp,ArrowRight"":10,""ArrowDown,ArrowLeft"":8,""ArrowDown,ArrowRight"":30}","true","ArrowDown,ArrowRight","false","","","original","1","76","","",""
"html-keyboard-response","197","964887","0.0-4.0-2.0-1.38","spark_pilot_2","7973","3","16","Male","","","","","","","null","<div style=""font-size:60px;"">+</div>","null","fixation","","","","","","","","","","","77","","",""
"revaluation","198","970910","0.0-4.0-2.0-0.39","spark_pilot_2","7973","3","16","Male","","false","","","","","[515.7999992370605,424.9000015258789]","./assets/img/ocean/memory/1.jpg","[""ArrowDown"",""ArrowRight""]","value training","ocean","30","{""ArrowUp,ArrowLeft"":23,""ArrowUp,ArrowRight"":10,""ArrowDown,ArrowLeft"":8,""ArrowDown,ArrowRight"":30}","true","ArrowDown,ArrowRight","false","","","original","1","78","","",""
"html-keyboard-response","199","971418","0.0-4.0-2.0-1.39","spark_pilot_2","7973","3","16","Male","","","","","","","null","<div style=""font-size:60px;"">+</div>","null","fixation","","","","","","","","","","","79","","",""
"revaluation","200","977442","0.0-4.0-2.0-0.40","spark_pilot_2","7973","3","16","Male","","false","","","","","[600.3000011444092,501.6000003814697]","./assets/img/ocean/memory/13.jpg","[""ArrowDown"",""ArrowRight""]","value training","ocean","30","{""ArrowUp,ArrowLeft"":23,""ArrowUp,ArrowRight"":10,""ArrowDown,ArrowLeft"":8,""ArrowDown,ArrowRight"":30}","true","ArrowDown,ArrowRight","false","","","original","1","80","","",""
"html-keyboard-response","201","977943","0.0-4.0-2.0-1.40","spark_pilot_2","7973","3","16","Male","","","","","","","null","<div style=""font-size:60px;"">+</div>","null","fixation","","","","","","","","","","","81","","",""
"revaluation","202","983965","0.0-4.0-2.0-0.41","spark_pilot_2","7973","3","16","Male","","false","","","","","[617.3999996185303,670.3999996185303]","./assets/img/ocean/memory/29.jpg","[""ArrowDown"",""ArrowRight""]","value training","ocean","30","{""ArrowUp,ArrowLeft"":23,""ArrowUp,ArrowRight"":10,""ArrowDown,ArrowLeft"":8,""ArrowDown,ArrowRight"":30}","true","ArrowDown,ArrowRight","false","","","original","1","82","","",""
"html-keyboard-response","203","984473","0.0-4.0-2.0-1.41","spark_pilot_2","7973","3","16","Male","","","","","","","null","<div style=""font-size:60px;"">+</div>","null","fixation","","","","","","","","","","","83","","",""
"revaluation","204","990499","0.0-4.0-2.0-0.42","spark_pilot_2","7973","3","16","Male","","false","","","","","[588,1131.3999996185303]","./assets/img/ocean/memory/9.jpg","[""ArrowDown"",""ArrowRight""]","value training","ocean","30","{""ArrowUp,ArrowLeft"":23,""ArrowUp,ArrowRight"":10,""ArrowDown,ArrowLeft"":8,""ArrowDown,ArrowRight"":30}","true","ArrowDown,ArrowRight","false","","","original","1","84","","",""
"html-keyboard-response","205","991004","0.0-4.0-2.0-1.42","spark_pilot_2","7973","3","16","Male","","","","","","","null","<div style=""font-size:60px;"">+</div>","null","fixation","","","","","","","","","","","85","","",""
"revaluation","206","997020","0.0-4.0-2.0-0.43","spark_pilot_2","7973","3","16","Male","","false","","","","","[517.3999996185303,411.1999988555908]","./assets/img/ocean/memory/18.jpg","[""ArrowDown"",""ArrowRight""]","value training","ocean","30","{""ArrowUp,ArrowLeft"":23,""ArrowUp,ArrowRight"":10,""ArrowDown,ArrowLeft"":8,""ArrowDown,ArrowRight"":30}","true","ArrowDown,ArrowRight","false","","","original","1","86","","",""
"html-keyboard-response","207","997525","0.0-4.0-2.0-1.43","spark_pilot_2","7973","3","16","Male","","","","","","","null","<div style=""font-size:60px;"">+</div>","null","fixation","","","","","","","","","","","87","","",""
"revaluation","208","1003540","0.0-4.0-2.0-0.44","spark_pilot_2","7973","3","16","Male","","false","","","","","[840.5,950.8999996185303]","./assets/img/ocean/memory/24.jpg","[""ArrowDown"",""ArrowRight""]","value training","ocean","30","{""ArrowUp,ArrowLeft"":23,""ArrowUp,ArrowRight"":10,""ArrowDown,ArrowLeft"":8,""ArrowDown,ArrowRight"":30}","true","ArrowDown,ArrowRight","false","","","original","1","88","","",""
"html-keyboard-response","209","1004046","0.0-4.0-2.0-1.44","spark_pilot_2","7973","3","16","Male","","","","","","","null","<div style=""font-size:60px;"">+</div>","null","fixation","","","","","","","","","","","89","","",""
"revaluation","210","1008057","0.0-4.0-2.0-0.45","spark_pilot_2","7973","3","16","Male","","false","","","","","[719.5]","./assets/img/ocean/catch/7.jpg","[""spaceBar""]","value training","ocean","0","{""ArrowUp,ArrowLeft"":23,""ArrowUp,ArrowRight"":10,""ArrowDown,ArrowLeft"":8,""ArrowDown,ArrowRight"":30}","true","spaceBar","true","","","original","1","90","","",""
"html-keyboard-response","211","1008562","0.0-4.0-2.0-1.45","spark_pilot_2","7973","3","16","Male","","","","","","","null","<div style=""font-size:60px;"">+</div>","null","fixation","","","","","","","","","","","91","","",""
"revaluation","212","1012579","0.0-4.0-2.0-0.46","spark_pilot_2","7973","3","16","Male","","false","","","","","[669]","./assets/img/ocean/catch/4.jpg","[""spaceBar""]","value training","ocean","0","{""ArrowUp,ArrowLeft"":23,""ArrowUp,ArrowRight"":10,""ArrowDown,ArrowLeft"":8,""ArrowDown,ArrowRight"":30}","true","spaceBar","true","","","original","1","92","","",""
"html-keyboard-response","213","1013082","0.0-4.0-2.0-1.46","spark_pilot_2","7973","3","16","Male","","","","","","","null","<div style=""font-size:60px;"">+</div>","null","fixation","","","","","","","","","","","93","","",""
"revaluation","214","1019099","0.0-4.0-2.0-0.47","spark_pilot_2","7973","3","16","Male","","false","","","","","[618.5,619.8000011444092]","./assets/img/ocean/memory/31.jpg","[""ArrowDown"",""ArrowRight""]","value training","ocean","30","{""ArrowUp,ArrowLeft"":23,""ArrowUp,ArrowRight"":10,""ArrowDown,ArrowLeft"":8,""ArrowDown,ArrowRight"":30}","true","ArrowDown,ArrowRight","false","","","original","1","94","","",""
"html-keyboard-response","215","1019606","0.0-4.0-2.0-1.47","spark_pilot_2","7973","3","16","Male","","","","","","","null","<div style=""font-size:60px;"">+</div>","null","fixation","","","","","","","","","","","95","","",""
"revaluation","216","1025626","0.0-4.0-2.0-0.48","spark_pilot_2","7973","3","16","Male","","false","","","","","[1152.1000003814697,454.5]","./assets/img/ocean/memory/31.jpg","[""ArrowDown"",""ArrowRight""]","value training","ocean","30","{""ArrowUp,ArrowLeft"":23,""ArrowUp,ArrowRight"":10,""ArrowDown,ArrowLeft"":8,""ArrowDown,ArrowRight"":30}","true","ArrowDown,ArrowRight","false","","","original","1","96","","",""
"html-keyboard-response","217","1026129","0.0-4.0-2.0-1.48","spark_pilot_2","7973","3","16","Male","","","","","","","null","<div style=""font-size:60px;"">+</div>","null","fixation","","","","","","","","","","","97","","",""
"revaluation","218","1032146","0.0-4.0-2.0-0.49","spark_pilot_2","7973","3","16","Male","","false","","","","","[641.7000007629395,1076.5]","./assets/img/ocean/memory/6.jpg","[""ArrowDown"",""ArrowRight""]","value training","ocean","30","{""ArrowUp,ArrowLeft"":23,""ArrowUp,ArrowRight"":10,""ArrowDown,ArrowLeft"":8,""ArrowDown,ArrowRight"":30}","true","ArrowDown,ArrowRight","false","","","original","1","98","","",""
"html-keyboard-response","219","1032650","0.0-4.0-2.0-1.49","spark_pilot_2","7973","3","16","Male","","","","","","","null","<div style=""font-size:60px;"">+</div>","null","fixation","","","","","","","","","","","99","","",""
"learning-instructions","220","1046841","0.0-4.0-3.0-0.0","spark_pilot_2","7973","3","16","Male","","","","","","","1070.1000003814697","<p> Now, you will travel with a friend who will choose whether you go up or down first. </p>
            <p> On these turns, you will just see the animal that they found. You will still get to choose which chest to search for treasure.</p>","","instructions","","","","","","","","","","","","","",""
"revaluation","221","1050877","0.0-4.0-4.0-0.0","spark_pilot_2","7973","3","16","Male","","false","","","","","[1387.2999992370605]","./assets/img/ocean/animals/seahorse.jpg","[""ArrowRight""]","revaluation","ocean","10","{""ArrowUp,ArrowLeft"":23,""ArrowUp,ArrowRight"":10,""ArrowDown,ArrowLeft"":8,""ArrowDown,ArrowRight"":30}","false","ArrowUp,ArrowRight","","","","original","1","0","","",""
"html-keyboard-response","222","1051386","0.0-4.0-4.0-1.0","spark_pilot_2","7973","3","16","Male","","","","","","","null","<div style=""font-size:60px;"">+</div>","null","fixation","","","","","","","","","","","1","","",""
"revaluation","223","1055425","0.0-4.0-4.0-0.1","spark_pilot_2","7973","3","16","Male","","false","","","","","[894.1000003814697]","./assets/img/ocean/animals/octopus.jpg","[""ArrowRight""]","revaluation","ocean","30","{""ArrowUp,ArrowLeft"":23,""ArrowUp,ArrowRight"":10,""ArrowDown,ArrowLeft"":8,""ArrowDown,ArrowRight"":30}","true","ArrowDown,ArrowRight","","","","original","1","2","","",""
"html-keyboard-response","224","1055931","0.0-4.0-4.0-1.1","spark_pilot_2","7973","3","16","Male","","","","","","","null","<div style=""font-size:60px;"">+</div>","null","fixation","","","","","","","","","","","3","","",""
"revaluation","225","1059951","0.0-4.0-4.0-0.2","spark_pilot_2","7973","3","16","Male","","false","","","","","[502]","./assets/img/ocean/animals/seahorse.jpg","[""ArrowLeft""]","revaluation","ocean","23","{""ArrowUp,ArrowLeft"":23,""ArrowUp,ArrowRight"":10,""ArrowDown,ArrowLeft"":8,""ArrowDown,ArrowRight"":30}","true","ArrowUp,ArrowLeft","","","","original","1","4","","",""
"html-keyboard-response","226","1060463","0.0-4.0-4.0-1.2","spark_pilot_2","7973","3","16","Male","","","","","","","null","<div style=""font-size:60px;"">+</div>","null","fixation","","","","","","","","","","","5","","",""
"revaluation","227","1064486","0.0-4.0-4.0-0.3","spark_pilot_2","7973","3","16","Male","","false","","","","","[495.3999996185303]","./assets/img/ocean/animals/octopus.jpg","[""ArrowRight""]","revaluation","ocean","30","{""ArrowUp,ArrowLeft"":23,""ArrowUp,ArrowRight"":10,""ArrowDown,ArrowLeft"":8,""ArrowDown,ArrowRight"":30}","true","ArrowDown,ArrowRight","","","","original","1","6","","",""
"html-keyboard-response","228","1064997","0.0-4.0-4.0-1.3","spark_pilot_2","7973","3","16","Male","","","","","","","null","<div style=""font-size:60px;"">+</div>","null","fixation","","","","","","","","","","","7","","",""
"revaluation","229","1069035","0.0-4.0-4.0-0.4","spark_pilot_2","7973","3","16","Male","","false","","","","","[487.1999988555908]","./assets/img/ocean/animals/octopus.jpg","[""ArrowLeft""]","revaluation","ocean","8","{""ArrowUp,ArrowLeft"":23,""ArrowUp,ArrowRight"":10,""ArrowDown,ArrowLeft"":8,""ArrowDown,ArrowRight"":30}","false","ArrowDown,ArrowLeft","","","","original","1","8","","",""
"html-keyboard-response","230","1069552","0.0-4.0-4.0-1.4","spark_pilot_2","7973","3","16","Male","","","","","","","null","<div style=""font-size:60px;"">+</div>","null","fixation","","","","","","","","","","","9","","",""
"revaluation","231","1073564","0.0-4.0-4.0-0.5","spark_pilot_2","7973","3","16","Male","","false","","","","","[671.3999996185303]","./assets/img/ocean/animals/seahorse.jpg","[""ArrowLeft""]","revaluation","ocean","23","{""ArrowUp,ArrowLeft"":23,""ArrowUp,ArrowRight"":10,""ArrowDown,ArrowLeft"":8,""ArrowDown,ArrowRight"":30}","true","ArrowUp,ArrowLeft","","","","original","1","10","","",""
"html-keyboard-response","232","1074070","0.0-4.0-4.0-1.5","spark_pilot_2","7973","3","16","Male","","","","","","","null","<div style=""font-size:60px;"">+</div>","null","fixation","","","","","","","","","","","11","","",""
"revaluation","233","1078091","0.0-4.0-4.0-0.6","spark_pilot_2","7973","3","16","Male","","false","","","","","[655.4000015258789]","./assets/img/ocean/animals/seahorse.jpg","[""ArrowLeft""]","revaluation","ocean","23","{""ArrowUp,ArrowLeft"":23,""ArrowUp,ArrowRight"":10,""ArrowDown,ArrowLeft"":8,""ArrowDown,ArrowRight"":30}","true","ArrowUp,ArrowLeft","","","","original","1","12","","",""
"html-keyboard-response","234","1078595","0.0-4.0-4.0-1.6","spark_pilot_2","7973","3","16","Male","","","","","","","null","<div style=""font-size:60px;"">+</div>","null","fixation","","","","","","","","","","","13","","",""
"revaluation","235","1082609","0.0-4.0-4.0-0.7","spark_pilot_2","7973","3","16","Male","","false","","","","","[554.6000003814697]","./assets/img/ocean/animals/seahorse.jpg","[""ArrowLeft""]","revaluation","ocean","23","{""ArrowUp,ArrowLeft"":23,""ArrowUp,ArrowRight"":10,""ArrowDown,ArrowLeft"":8,""ArrowDown,ArrowRight"":30}","true","ArrowUp,ArrowLeft","","","","original","1","14","","",""
"html-keyboard-response","236","1083114","0.0-4.0-4.0-1.7","spark_pilot_2","7973","3","16","Male","","","","","","","null","<div style=""font-size:60px;"">+</div>","null","fixation","","","","","","","","","","","15","","",""
"revaluation","237","1087128","0.0-4.0-4.0-0.8","spark_pilot_2","7973","3","16","Male","","false","","","","","[574.2000007629395]","./assets/img/ocean/animals/seahorse.jpg","[""ArrowLeft""]","revaluation","ocean","23","{""ArrowUp,ArrowLeft"":23,""ArrowUp,ArrowRight"":10,""ArrowDown,ArrowLeft"":8,""ArrowDown,ArrowRight"":30}","true","ArrowUp,ArrowLeft","","","","original","1","16","","",""
"html-keyboard-response","238","1087634","0.0-4.0-4.0-1.8","spark_pilot_2","7973","3","16","Male","","","","","","","null","<div style=""font-size:60px;"">+</div>","null","fixation","","","","","","","","","","","17","","",""
"revaluation","239","1091647","0.0-4.0-4.0-0.9","spark_pilot_2","7973","3","16","Male","","false","","","","","[524.3999996185303]","./assets/img/ocean/animals/seahorse.jpg","[""ArrowLeft""]","revaluation","ocean","23","{""ArrowUp,ArrowLeft"":23,""ArrowUp,ArrowRight"":10,""ArrowDown,ArrowLeft"":8,""ArrowDown,ArrowRight"":30}","true","ArrowUp,ArrowLeft","","","","original","1","18","","",""
"html-keyboard-response","240","1092151","0.0-4.0-4.0-1.9","spark_pilot_2","7973","3","16","Male","","","","","","","null","<div style=""font-size:60px;"">+</div>","null","fixation","","","","","","","","","","","19","","",""
"revaluation","241","1096163","0.0-4.0-4.0-0.10","spark_pilot_2","7973","3","16","Male","","false","","","","","[480.4000015258789]","./assets/img/ocean/animals/octopus.jpg","[""ArrowRight""]","revaluation","ocean","30","{""ArrowUp,ArrowLeft"":23,""ArrowUp,ArrowRight"":10,""ArrowDown,ArrowLeft"":8,""ArrowDown,ArrowRight"":30}","true","ArrowDown,ArrowRight","","","","original","1","20","","",""
"html-keyboard-response","242","1096673","0.0-4.0-4.0-1.10","spark_pilot_2","7973","3","16","Male","","","","","","","null","<div style=""font-size:60px;"">+</div>","null","fixation","","","","","","","","","","","21","","",""
"revaluation","243","1100690","0.0-4.0-4.0-0.11","spark_pilot_2","7973","3","16","Male","","false","","","","","[436.1999988555908]","./assets/img/ocean/animals/octopus.jpg","[""ArrowRight""]","revaluation","ocean","30","{""ArrowUp,ArrowLeft"":23,""ArrowUp,ArrowRight"":10,""ArrowDown,ArrowLeft"":8,""ArrowDown,ArrowRight"":30}","true","ArrowDown,ArrowRight","","","","original","1","22","","",""
"html-keyboard-response","244","1101192","0.0-4.0-4.0-1.11","spark_pilot_2","7973","3","16","Male","","","","","","","null","<div style=""font-size:60px;"">+</div>","null","fixation","","","","","","","","","","","23","","",""
"revaluation","245","1105208","0.0-4.0-4.0-0.12","spark_pilot_2","7973","3","16","Male","","false","","","","","[563.2000007629395]","./assets/img/ocean/animals/octopus.jpg","[""ArrowRight""]","revaluation","ocean","30","{""ArrowUp,ArrowLeft"":23,""ArrowUp,ArrowRight"":10,""ArrowDown,ArrowLeft"":8,""ArrowDown,ArrowRight"":30}","true","ArrowDown,ArrowRight","","","","original","1","24","","",""
"html-keyboard-response","246","1105711","0.0-4.0-4.0-1.12","spark_pilot_2","7973","3","16","Male","","","","","","","null","<div style=""font-size:60px;"">+</div>","null","fixation","","","","","","","","","","","25","","",""
"revaluation","247","1109720","0.0-4.0-4.0-0.13","spark_pilot_2","7973","3","16","Male","","false","","","","","[567.8999996185303]","./assets/img/ocean/animals/seahorse.jpg","[""ArrowLeft""]","revaluation","ocean","23","{""ArrowUp,ArrowLeft"":23,""ArrowUp,ArrowRight"":10,""ArrowDown,ArrowLeft"":8,""ArrowDown,ArrowRight"":30}","true","ArrowUp,ArrowLeft","","","","original","1","26","","",""
"html-keyboard-response","248","1110222","0.0-4.0-4.0-1.13","spark_pilot_2","7973","3","16","Male","","","","","","","null","<div style=""font-size:60px;"">+</div>","null","fixation","","","","","","","","","","","27","","",""
"revaluation","249","1114239","0.0-4.0-4.0-0.14","spark_pilot_2","7973","3","16","Male","","false","","","","","[540.6000003814697]","./assets/img/ocean/animals/octopus.jpg","[""ArrowRight""]","revaluation","ocean","30","{""ArrowUp,ArrowLeft"":23,""ArrowUp,ArrowRight"":10,""ArrowDown,ArrowLeft"":8,""ArrowDown,ArrowRight"":30}","true","ArrowDown,ArrowRight","","","","original","1","28","","",""
"html-keyboard-response","250","1114744","0.0-4.0-4.0-1.14","spark_pilot_2","7973","3","16","Male","","","","","","","null","<div style=""font-size:60px;"">+</div>","null","fixation","","","","","","","","","","","29","","",""
"revaluation","251","1118761","0.0-4.0-4.0-0.15","spark_pilot_2","7973","3","16","Male","","false","","","","","[571.6000003814697]","./assets/img/ocean/animals/seahorse.jpg","[""ArrowLeft""]","revaluation","ocean","23","{""ArrowUp,ArrowLeft"":23,""ArrowUp,ArrowRight"":10,""ArrowDown,ArrowLeft"":8,""ArrowDown,ArrowRight"":30}","true","ArrowUp,ArrowLeft","","","","original","1","30","","",""
"html-keyboard-response","252","1119270","0.0-4.0-4.0-1.15","spark_pilot_2","7973","3","16","Male","","","","","","","null","<div style=""font-size:60px;"">+</div>","null","fixation","","","","","","","","","","","31","","",""
"revaluation","253","1123285","0.0-4.0-4.0-0.16","spark_pilot_2","7973","3","16","Male","","false","","","","","[491.1999988555908]","./assets/img/ocean/animals/octopus.jpg","[""ArrowRight""]","revaluation","ocean","30","{""ArrowUp,ArrowLeft"":23,""ArrowUp,ArrowRight"":10,""ArrowDown,ArrowLeft"":8,""ArrowDown,ArrowRight"":30}","true","ArrowDown,ArrowRight","","","","original","1","32","","",""
"html-keyboard-response","254","1123803","0.0-4.0-4.0-1.16","spark_pilot_2","7973","3","16","Male","","","","","","","null","<div style=""font-size:60px;"">+</div>","null","fixation","","","","","","","","","","","33","","",""
"revaluation","255","1127811","0.0-4.0-4.0-0.17","spark_pilot_2","7973","3","16","Male","","false","","","","","[528.5]","./assets/img/ocean/animals/octopus.jpg","[""ArrowRight""]","revaluation","ocean","30","{""ArrowUp,ArrowLeft"":23,""ArrowUp,ArrowRight"":10,""ArrowDown,ArrowLeft"":8,""ArrowDown,ArrowRight"":30}","true","ArrowDown,ArrowRight","","","","original","1","34","","",""
"html-keyboard-response","256","1128318","0.0-4.0-4.0-1.17","spark_pilot_2","7973","3","16","Male","","","","","","","null","<div style=""font-size:60px;"">+</div>","null","fixation","","","","","","","","","","","35","","",""
"learning-instructions","257","1140927","0.0-4.0-5.0-0.0","spark_pilot_2","7973","3","16","Male","","","","","","","1038.099998474121","<p> Time to play the dot game! </p>
            <p> For one minute, click the red dots on the following screen as they appear. </p>
            <p><b> Don't look away, as you will earn bonus for clicking dots</b>. </p>","","instructions","","","","","","","","","","","","","",""
"revaluation","258","1200935","0.0-4.0-6.0-0.0","spark_pilot_2","7973","3","16","Male","","","","","","","[103,79,56,223,107,95,80]","","","rest","","70","","","","","0","60000","","","","","",""
"learning-instructions","259","1211834","0.0-4.0-7.0-0.0","spark_pilot_2","7973","3","16","Male","","","","","","","4571.60000038147","<p> You have almost finished this part of the game! </p>
            <p> We are going to ask you to make a few more choices. </p>","","instructions","","","","","","","","","","","","","",""
"learning-instructions","260","1232561","0.0-4.0-7.0-0.1","spark_pilot_2","7973","3","16","Male","","","","","","","6759.199998855591","<p> First, you need to decide whether to go up or down. When you see each picture, use the arrow keys to make your choice. </p>
            <p><b>You will not see which animal you found, but try to get to the one that will give you the most treasure.</b></p>","","instructions","","","","","","","","","","","","","",""
"revaluation","261","1234749","0.0-4.0-8.0-0.0","spark_pilot_2","7973","3","16","Male","","false","","","","","[2186.1000003814697]","./assets/img/ocean/test/2.jpg","[""ArrowUp""]","first stage test","ocean","0","{""ArrowUp,ArrowLeft"":23,""ArrowUp,ArrowRight"":10,""ArrowDown,ArrowLeft"":8,""ArrowDown,ArrowRight"":30}","false","ArrowUp","false","","","original","1","","","",""
"html-keyboard-response","262","1235263","0.0-4.0-8.0-1.0","spark_pilot_2","7973","3","16","Male","","","","","","","null","<div style=""font-size:60px;"">+</div>","null","fixation","","","","","","","","","","","","","",""
"revaluation","263","1237024","0.0-4.0-8.0-0.1","spark_pilot_2","7973","3","16","Male","","false","","","","","[1754.6000003814697]","./assets/img/ocean/test/1.jpg","[""ArrowUp""]","first stage test","ocean","0","{""ArrowUp,ArrowLeft"":23,""ArrowUp,ArrowRight"":10,""ArrowDown,ArrowLeft"":8,""ArrowDown,ArrowRight"":30}","false","ArrowUp","false","","","original","1","","","",""
"html-keyboard-response","264","1237536","0.0-4.0-8.0-1.1","spark_pilot_2","7973","3","16","Male","","","","","","","null","<div style=""font-size:60px;"">+</div>","null","fixation","","","","","","","","","","","","","",""
"revaluation","265","1238081","0.0-4.0-8.0-0.2","spark_pilot_2","7973","3","16","Male","","false","","","","","[539.1999988555908]","./assets/img/ocean/test/3.jpg","[""ArrowDown""]","first stage test","ocean","0","{""ArrowUp,ArrowLeft"":23,""ArrowUp,ArrowRight"":10,""ArrowDown,ArrowLeft"":8,""ArrowDown,ArrowRight"":30}","true","ArrowDown","false","","","original","1","","","",""
"html-keyboard-response","266","1238585","0.0-4.0-8.0-1.2","spark_pilot_2","7973","3","16","Male","","","","","","","null","<div style=""font-size:60px;"">+</div>","null","fixation","","","","","","","","","","","","","",""
"revaluation","267","1239353","0.0-4.0-8.0-0.3","spark_pilot_2","7973","3","16","Male","","false","","","","","[761.7000007629395]","./assets/img/ocean/test/0.jpg","[""ArrowDown""]","first stage test","ocean","0","{""ArrowUp,ArrowLeft"":23,""ArrowUp,ArrowRight"":10,""ArrowDown,ArrowLeft"":8,""ArrowDown,ArrowRight"":30}","true","ArrowDown","false","","","original","1","","","",""
"html-keyboard-response","268","1239855","0.0-4.0-8.0-1.3","spark_pilot_2","7973","3","16","Male","","","","","","","null","<div style=""font-size:60px;"">+</div>","null","fixation","","","","","","","","","","","","","",""
"learning-instructions","269","1252480","0.0-4.0-9.0-0.0","spark_pilot_2","7973","3","16","Male","","","","","","","1280.7000007629395","<p> Now you will see the animals again and can search their chests for treasure. </p>
            <p> This time, you will not see how much treasure you earned, but you will earn more bonus money for making better choices. </p>","","instructions","","","","","","","","","","","","","",""
"revaluation","270","1253938","0.0-4.0-10.0-0.0","spark_pilot_2","7973","3","16","Male","","false","","","","","[1455.2000007629395]","./assets/img/ocean/animals/seahorse.jpg","[""ArrowLeft""]","second stage test","ocean","0","{""ArrowUp,ArrowLeft"":23,""ArrowUp,ArrowRight"":10,""ArrowDown,ArrowLeft"":8,""ArrowDown,ArrowRight"":30}","true","ArrowUp,ArrowLeft","","","","original","1","","","",""
"html-keyboard-response","271","1254452","0.0-4.0-10.0-1.0","spark_pilot_2","7973","3","16","Male","","","","","","","null","<div style=""font-size:60px;"">+</div>","null","fixation","","","","","","","","","","","","","",""
"revaluation","272","1254910","0.0-4.0-10.0-0.1","spark_pilot_2","7973","3","16","Male","","false","","","","","[452]","./assets/img/ocean/animals/seahorse.jpg","[""ArrowLeft""]","second stage test","ocean","0","{""ArrowUp,ArrowLeft"":23,""ArrowUp,ArrowRight"":10,""ArrowDown,ArrowLeft"":8,""ArrowDown,ArrowRight"":30}","true","ArrowUp,ArrowLeft","","","","original","1","","","",""
"html-keyboard-response","273","1255424","0.0-4.0-10.0-1.1","spark_pilot_2","7973","3","16","Male","","","","","","","null","<div style=""font-size:60px;"">+</div>","null","fixation","","","","","","","","","","","","","",""
"revaluation","274","1255942","0.0-4.0-10.0-0.2","spark_pilot_2","7973","3","16","Male","","false","","","","","[512.1999988555908]","./assets/img/ocean/animals/seahorse.jpg","[""ArrowLeft""]","second stage test","ocean","0","{""ArrowUp,ArrowLeft"":23,""ArrowUp,ArrowRight"":10,""ArrowDown,ArrowLeft"":8,""ArrowDown,ArrowRight"":30}","true","ArrowUp,ArrowLeft","","","","original","1","","","",""
"html-keyboard-response","275","1256453","0.0-4.0-10.0-1.2","spark_pilot_2","7973","3","16","Male","","","","","","","null","<div style=""font-size:60px;"">+</div>","null","fixation","","","","","","","","","","","","","",""
"revaluation","276","1256880","0.0-4.0-10.0-0.3","spark_pilot_2","7973","3","16","Male","","false","","","","","[420.5]","./assets/img/ocean/animals/seahorse.jpg","[""ArrowLeft""]","second stage test","ocean","0","{""ArrowUp,ArrowLeft"":23,""ArrowUp,ArrowRight"":10,""ArrowDown,ArrowLeft"":8,""ArrowDown,ArrowRight"":30}","true","ArrowUp,ArrowLeft","","","","original","1","","","",""
"html-keyboard-response","277","1257385","0.0-4.0-10.0-1.3","spark_pilot_2","7973","3","16","Male","","","","","","","null","<div style=""font-size:60px;"">+</div>","null","fixation","","","","","","","","","","","","","",""
"revaluation","278","1258041","0.0-4.0-10.0-0.4","spark_pilot_2","7973","3","16","Male","","false","","","","","[650.3999996185303]","./assets/img/ocean/animals/octopus.jpg","[""ArrowRight""]","second stage test","ocean","0","{""ArrowUp,ArrowLeft"":23,""ArrowUp,ArrowRight"":10,""ArrowDown,ArrowLeft"":8,""ArrowDown,ArrowRight"":30}","true","ArrowDown,ArrowRight","","","","original","1","","","",""
"html-keyboard-response","279","1258547","0.0-4.0-10.0-1.4","spark_pilot_2","7973","3","16","Male","","","","","","","null","<div style=""font-size:60px;"">+</div>","null","fixation","","","","","","","","","","","","","",""
"revaluation","280","1258965","0.0-4.0-10.0-0.5","spark_pilot_2","7973","3","16","Male","","false","","","","","[413.29999923706055]","./assets/img/ocean/animals/octopus.jpg","[""ArrowRight""]","second stage test","ocean","0","{""ArrowUp,ArrowLeft"":23,""ArrowUp,ArrowRight"":10,""ArrowDown,ArrowLeft"":8,""ArrowDown,ArrowRight"":30}","true","ArrowDown,ArrowRight","","","","original","1","","","",""
"html-keyboard-response","281","1259470","0.0-4.0-10.0-1.5","spark_pilot_2","7973","3","16","Male","","","","","","","null","<div style=""font-size:60px;"">+</div>","null","fixation","","","","","","","","","","","","","",""
"revaluation","282","1259888","0.0-4.0-10.0-0.6","spark_pilot_2","7973","3","16","Male","","false","","","","","[413]","./assets/img/ocean/animals/octopus.jpg","[""ArrowRight""]","second stage test","ocean","0","{""ArrowUp,ArrowLeft"":23,""ArrowUp,ArrowRight"":10,""ArrowDown,ArrowLeft"":8,""ArrowDown,ArrowRight"":30}","true","ArrowDown,ArrowRight","","","","original","1","","","",""
"html-keyboard-response","283","1260404","0.0-4.0-10.0-1.6","spark_pilot_2","7973","3","16","Male","","","","","","","null","<div style=""font-size:60px;"">+</div>","null","fixation","","","","","","","","","","","","","",""
"revaluation","284","1260805","0.0-4.0-10.0-0.7","spark_pilot_2","7973","3","16","Male","","false","","","","","[395.8999996185303]","./assets/img/ocean/animals/octopus.jpg","[""ArrowRight""]","second stage test","ocean","0","{""ArrowUp,ArrowLeft"":23,""ArrowUp,ArrowRight"":10,""ArrowDown,ArrowLeft"":8,""ArrowDown,ArrowRight"":30}","true","ArrowDown,ArrowRight","","","","original","1","","","",""
"html-keyboard-response","285","1261321","0.0-4.0-10.0-1.7","spark_pilot_2","7973","3","16","Male","","","","","","","null","<div style=""font-size:60px;"">+</div>","null","fixation","","","","","","","","","","","","","",""
"learning-instructions","286","1265762","0.0-4.0-0.1-0.2","spark_pilot_2","7973","3","16","Male","","","","","","","1666.7000007629395","<p> This time you are searching for treasure in the <b>canyon</b>.</p>","","instructions","","","","","","","","","","","","","",""
"learning-instructions","287","1284170","0.0-4.0-0.1-0.3","spark_pilot_2","7973","3","16","Male","","","","","","","1152.8999996185303","<p><b>New</b> animals with <b>new</b> treasure chests live here. You need to explore to discover where the animal with the best treasure chest is.</p>
                    <p> Like before, once you figure out which animal has the chest with the most treasure, you should try to get to that animal and select that chest! </p>","","instructions","","","","","","","","","","","","","",""
"learning-instructions","288","1300415","0.0-4.0-1.1-0.1","spark_pilot_2","7973","3","16","Male","","","","","","","1514.7000007629395","<p> Remember, when you see a picture of the place, use the up and down keys to <b>find an animal</b>.</p>
            <p> When you encounter an animal, you should use the left and right keys to <b>select a treasure chest</b>.</p>
            <p> Don't forget to look out for the robber! </p>","","instructions","","","","","","","","","","","","","",""
"revaluation","289","1306457","0.0-4.0-2.1-0.50","spark_pilot_2","7973","3","16","Male","","false","","","","","[1661.1000003814697,1232.3999996185303]","./assets/img/canyon/memory/6.jpg","[""ArrowUp"",""ArrowRight""]","value training","canyon","10","{""ArrowUp,ArrowLeft"":26,""ArrowUp,ArrowRight"":10,""ArrowDown,ArrowLeft"":5,""ArrowDown,ArrowRight"":17}","false","ArrowUp,ArrowRight","false","","","revaluation","2","0","","",""
"html-keyboard-response","290","1306969","0.0-4.0-2.1-1.50","spark_pilot_2","7973","3","16","Male","","","","","","","null","<div style=""font-size:60px;"">+</div>","null","fixation","","","","","","","","","","","1","","",""
"revaluation","291","1313001","0.0-4.0-2.1-0.51","spark_pilot_2","7973","3","16","Male","","false","","","","","[900.8999996185303,1434.8000011444092]","./assets/img/canyon/memory/9.jpg","[""ArrowUp"",""ArrowRight""]","value training","canyon","10","{""ArrowUp,ArrowLeft"":26,""ArrowUp,ArrowRight"":10,""ArrowDown,ArrowLeft"":5,""ArrowDown,ArrowRight"":17}","false","ArrowUp,ArrowRight","false","","","revaluation","2","2","","",""
"html-keyboard-response","292","1313514","0.0-4.0-2.1-1.51","spark_pilot_2","7973","3","16","Male","","","","","","","null","<div style=""font-size:60px;"">+</div>","null","fixation","","","","","","","","","","","3","","",""
"revaluation","293","1319533","0.0-4.0-2.1-0.52","spark_pilot_2","7973","3","16","Male","","false","","","","","[745.2000007629395,481.6999988555908]","./assets/img/canyon/memory/31.jpg","[""ArrowUp"",""ArrowLeft""]","value training","canyon","26","{""ArrowUp,ArrowLeft"":26,""ArrowUp,ArrowRight"":10,""ArrowDown,ArrowLeft"":5,""ArrowDown,ArrowRight"":17}","true","ArrowUp,ArrowLeft","false","","","revaluation","2","4","","",""
"html-keyboard-response","294","1320038","0.0-4.0-2.1-1.52","spark_pilot_2","7973","3","16","Male","","","","","","","null","<div style=""font-size:60px;"">+</div>","null","fixation","","","","","","","","","","","5","","",""
"revaluation","295","1326073","0.0-4.0-2.1-0.53","spark_pilot_2","7973","3","16","Male","","false","","","","","[693.7999992370605,1126.1000003814697]","./assets/img/canyon/memory/29.jpg","[""ArrowDown"",""ArrowLeft""]","value training","canyon","5","{""ArrowUp,ArrowLeft"":26,""ArrowUp,ArrowRight"":10,""ArrowDown,ArrowLeft"":5,""ArrowDown,ArrowRight"":17}","false","ArrowDown,ArrowLeft","false","","","revaluation","2","6","","",""
"html-keyboard-response","296","1326579","0.0-4.0-2.1-1.53","spark_pilot_2","7973","3","16","Male","","","","","","","null","<div style=""font-size:60px;"">+</div>","null","fixation","","","","","","","","","","","7","","",""
"revaluation","297","1330607","0.0-4.0-2.1-0.54","spark_pilot_2","7973","3","16","Male","","false","","","","","[1675.3000011444092]","./assets/img/canyon/catch/0.jpg","[""spaceBar""]","value training","canyon","0","{""ArrowUp,ArrowLeft"":26,""ArrowUp,ArrowRight"":10,""ArrowDown,ArrowLeft"":5,""ArrowDown,ArrowRight"":17}","true","spaceBar","true","","","revaluation","2","8","","",""
"html-keyboard-response","298","1331117","0.0-4.0-2.1-1.54","spark_pilot_2","7973","3","16","Male","","","","","","","null","<div style=""font-size:60px;"">+</div>","null","fixation","","","","","","","","","","","9","","",""
"revaluation","299","1337143","0.0-4.0-2.1-0.55","spark_pilot_2","7973","3","16","Male","","false","","","","","[908.6999988555908,460.29999923706055]","./assets/img/canyon/memory/3.jpg","[""ArrowUp"",""ArrowLeft""]","value training","canyon","26","{""ArrowUp,ArrowLeft"":26,""ArrowUp,ArrowRight"":10,""ArrowDown,ArrowLeft"":5,""ArrowDown,ArrowRight"":17}","true","ArrowUp,ArrowLeft","false","","","revaluation","2","10","","",""
"html-keyboard-response","300","1337649","0.0-4.0-2.1-1.55","spark_pilot_2","7973","3","16","Male","","","","","","","null","<div style=""font-size:60px;"">+</div>","null","fixation","","","","","","","","","","","11","","",""
