"trial_type","trial_index","time_elapsed","internal_node_id","task_version","subject_id","assigned_condition","age","gender","success","timeout","failed_images","failed_audio","failed_video","browser_interaction","rt","stimulus","response","task_part","environment","score","rewardMap","correct","fullState","isCatch","numberMissed","duration","condition","order","trial_num","key_press","ground_truth","bonus"
"pavlovia","0","1379","0.0-0.0","spark_pilot_2","9133","2","7","Female","","","","","","","","","","","","","","","","","","","","","","","",""
"preload","1","15995","0.0-1.0","spark_pilot_2","9133","2","7","Female","true","false","[]","[]","[]","[{""event"":""fullscreenenter"",""trial"":2,""time"":22338}]","","","","","","","","","","","","","","","","","",""
"fullscreen","2","23323","0.0-2.0","spark_pilot_2","9133","2","7","Female","true","","","","","","","","","","","","","","","","","","","","","","",""
"audio-button-response","3","26902","0.0-3.0-0.0-0.0","spark_pilot_2","9133","2","7","Female","","","","","","","3531","./assets/audio/audiotest/turtle.mp3","2","audio_test","","","","","","","","","","","","","",""
"learning-instructions","4","35474","0.0-3.0-1.0-0.0","spark_pilot_2","9133","2","7","Female","","","","","","","1608.6000000014901","<p> Welcome! Please remember to stay in fullscreen mode and don't click away from the experiment. </p>","","instructions","","","","","","","","","","","","","",""
"learning-instructions","5","45038","0.0-3.0-1.0-0.1","spark_pilot_2","9133","2","7","Female","","","","","","","1151.800000000745","<p> Today you will be playing a game to earn treasure. </p>
            <p> At the end of the experiment, you will earn a bonus based on how much treasure you find. </p>
            <img src='./assets/img/instructions/treasure.jpg' class='instructions-image'>","","instructions","","","","","","","","","","","","","",""
"learning-instructions","6","54285","0.0-3.0-1.0-0.2","spark_pilot_2","9133","2","7","Female","","","","","","","989.6000000014901","<p> Animals have hidden treasure in treasure chests. </p>
            <p> You need to first find an animal and then choose which of their treasure chests to search. </p>
            <img src='./assets/img/space/animals/cat.jpg' class='instructions-image'>","","instructions","","","","","","","","","","","","","",""
"learning-instructions","7","88264","0.0-3.0-1.0-0.3","spark_pilot_2","9133","2","7","Female","","","","","","","20837.599999997765","<p> In each round, you will search for treasure in a different place. In the real game, there will be two rounds. </p>
            <p> You will begin with a separate, practice round where you will search for treasure in outer space. </p>
            <img src='./assets/img/space/0.jpg' class='instructions-image'>","","instructions","","","","","","","","","","","","","",""
"learning-instructions","8","107515","0.0-3.0-1.0-0.4","spark_pilot_2","9133","2","7","Female","","","","","","","7850.300000000745","<p> On every turn, you will see a picture of the place that you are in, but the specific image may be different each time. </p>
            <p> For example, both of these images mean you are in outer space. </p>
            <img src='./assets/img/instructions/outerspace.jpg' class='instructions-image'>","","instructions","","","","","","","","","","","","","",""
"learning-instructions","9","120513","0.0-3.0-1.0-0.5","spark_pilot_2","9133","2","7","Female","","","","","","","5178.300000000745","<p> You need to decide which direction to travel in. </p>
            <p> You can choose between going <b>up or down</b> by using the arrow keys. </p>
            <img src='./assets/img/instructions/updown.jpg' class='instructions-image'>","","instructions","","","","","","","","","","","","","",""
"learning-instructions","10","133295","0.0-3.0-1.0-0.6","spark_pilot_2","9133","2","7","Female","","","","","","","3971","<p> You will have <b>2 seconds</b> to make your choice. </p>
            <p> If you do not make a choice within 2 seconds, you will not find an animal or earn treasure. </p>
            <img src='./assets/img/instructions/2seconds.jpg' class='instructions-image'>","","instructions","","","","","","","","","","","","","",""
"learning-instructions","11","145133","0.0-3.0-1.0-0.7","spark_pilot_2","9133","2","7","Female","","","","","","","4807.699999999255","<p> Let’s try practicing that now! </p>
            <p> When you see a picture of the place you are in, press the <b>up</b> key to travel up. </p>
            <img src='./assets/img/instructions/pressUp.jpg' class='instructions-image'>","","instructions","","","","","","","","","","","","","",""
"revaluation","12","149163","0.0-3.0-2.0-0.0","spark_pilot_2","9133","2","7","Female","","false","","","","","[888.8999999985099]","./assets/img/space/0.jpg","[""ArrowUp""]","first stage practice","space","0","null","null","ArrowUp","false","","","","","","","",""
"html-keyboard-response","13","149666","0.0-3.0-2.0-1.0","spark_pilot_2","9133","2","7","Female","","","","","","","null","<div style=""font-size:60px;"">+</div>","null","fixation","","","","","","","","","","","","","",""
"revaluation","14","153686","0.0-3.0-2.0-0.1","spark_pilot_2","9133","2","7","Female","","false","","","","","[900.2999999970198]","./assets/img/space/1.jpg","[""ArrowUp""]","first stage practice","space","0","null","null","ArrowUp","false","","","","","","","",""
"html-keyboard-response","15","154188","0.0-3.0-2.0-1.1","spark_pilot_2","9133","2","7","Female","","","","","","","null","<div style=""font-size:60px;"">+</div>","null","fixation","","","","","","","","","","","","","",""
"revaluation","16","158203","0.0-3.0-2.0-0.2","spark_pilot_2","9133","2","7","Female","","false","","","","","[642.8000000007451]","./assets/img/space/2.jpg","[""ArrowUp""]","first stage practice","space","0","null","null","ArrowUp","false","","","","","","","",""
"html-keyboard-response","17","158705","0.0-3.0-2.0-1.2","spark_pilot_2","9133","2","7","Female","","","","","","","null","<div style=""font-size:60px;"">+</div>","null","fixation","","","","","","","","","","","","","",""
"learning-instructions","18","164217","0.0-3.0-3.0-0.0","spark_pilot_2","9133","2","7","Female","","","","","","","801.8999999985099","<p> Great job! Now try pressing the <b>down</b> key to travel down. </p>
            <img src='./assets/img/instructions/pressDown.jpg' class='instructions-image'>","","instructions","","","","","","","","","","","","","",""
"revaluation","19","168228","0.0-3.0-4.0-0.0","spark_pilot_2","9133","2","7","Female","","false","","","","","[545.2000000029802]","./assets/img/space/3.jpg","[""ArrowDown""]","first stage practice","space","0","null","null","ArrowDown","false","","","","","","","",""
"html-keyboard-response","20","168730","0.0-3.0-4.0-1.0","spark_pilot_2","9133","2","7","Female","","","","","","","null","<div style=""font-size:60px;"">+</div>","null","fixation","","","","","","","","","","","","","",""
"revaluation","21","172736","0.0-3.0-4.0-0.1","spark_pilot_2","9133","2","7","Female","","false","","","","","[135.69999999925494]","./assets/img/space/4.jpg","[""ArrowDown""]","first stage practice","space","0","null","null","ArrowDown","false","","","","","","","",""
"html-keyboard-response","22","173250","0.0-3.0-4.0-1.1","spark_pilot_2","9133","2","7","Female","","","","","","","null","<div style=""font-size:60px;"">+</div>","null","fixation","","","","","","","","","","","","","",""
"revaluation","23","177257","0.0-3.0-4.0-0.2","spark_pilot_2","9133","2","7","Female","","false","","","","","[59.30000000074506]","./assets/img/space/5.jpg","[""ArrowDown""]","first stage practice","space","0","null","null","ArrowDown","false","","","","","","","",""
"html-keyboard-response","24","177771","0.0-3.0-4.0-1.2","spark_pilot_2","9133","2","7","Female","","","","","","","null","<div style=""font-size:60px;"">+</div>","null","fixation","","","","","","","","","","","","","",""
"learning-instructions","25","192544","0.0-3.0-5.0-0.0","spark_pilot_2","9133","2","7","Female","","","","","","","4898.89999999851","<p> The animals don’t move, so the animal in the upper part of a place will stay in the upper part of a place, and the animal in the lower part of a place will stay in the lower part of a place. </p>","","instructions","","","","","","","","","","","","","",""
"learning-instructions","26","204972","0.0-3.0-5.0-0.1","spark_pilot_2","9133","2","7","Female","","","","","","","3307.10000000149","<p> Each animal has two treasure chests for you to choose from. </p>
            <p> The amount of treasure in each chest can range from <b> 0 to 40 pieces.</b></p>","","instructions","","","","","","","","","","","","","",""
"learning-instructions","27","217292","0.0-3.0-5.0-0.2","spark_pilot_2","9133","2","7","Female","","","","","","","1146.6000000014901","<p> You should decide which chest to search for treasure by using the <b>left</b> and <b>right</b> arrow keys. </p>
            <p><b> Pay attention to which animal is on the screen, as the animals have different treasure chests. </b></p>
            <img src='./assets/img/instructions/leftright.jpg' class='instructions-image'>","","instructions","","","","","","","","","","","","","",""
"learning-instructions","28","230637","0.0-3.0-5.0-0.3","spark_pilot_2","9133","2","7","Female","","","","","","","6981.599999997765","<p> Let’s try practicing that now. </p>
            <p> When you see an animal, choose which chest to search for treasure. </p>
            <img src='./assets/img/instructions/chooseChest.jpg' class='instructions-image'>","","instructions","","","","","","","","","","","","","",""
"revaluation","29","234644","0.0-3.0-6.0-0.0","spark_pilot_2","9133","2","7","Female","","false","","","","","[1629.5]","./assets/img/space/animals/cat.jpg","[""ArrowLeft""]","second stage practice","space","3","{""ArrowUp,ArrowLeft"":3,""ArrowUp,ArrowRight"":36,""ArrowDown,ArrowLeft"":15,""ArrowDown,ArrowRight"":23}","false","ArrowUp,ArrowLeft","","","","","","","","",""
"html-keyboard-response","30","235146","0.0-3.0-6.0-1.0","spark_pilot_2","9133","2","7","Female","","","","","","","null","<div style=""font-size:60px;"">+</div>","null","fixation","","","","","","","","","","","","","",""
"revaluation","31","239154","0.0-3.0-6.0-0.1","spark_pilot_2","9133","2","7","Female","","false","","","","","[739.5999999977648]","./assets/img/space/animals/rabbit.jpg","[""ArrowLeft""]","second stage practice","space","15","{""ArrowUp,ArrowLeft"":3,""ArrowUp,ArrowRight"":36,""ArrowDown,ArrowLeft"":15,""ArrowDown,ArrowRight"":23}","false","ArrowDown,ArrowLeft","","","","","","","","",""
"html-keyboard-response","32","239656","0.0-3.0-6.0-1.1","spark_pilot_2","9133","2","7","Female","","","","","","","null","<div style=""font-size:60px;"">+</div>","null","fixation","","","","","","","","","","","","","",""
"revaluation","33","243680","0.0-3.0-6.0-0.2","spark_pilot_2","9133","2","7","Female","","false","","","","","[493.79999999701977]","./assets/img/space/animals/rabbit.jpg","[""ArrowRight""]","second stage practice","space","23","{""ArrowUp,ArrowLeft"":3,""ArrowUp,ArrowRight"":36,""ArrowDown,ArrowLeft"":15,""ArrowDown,ArrowRight"":23}","true","ArrowDown,ArrowRight","","","","","","","","",""
"html-keyboard-response","34","244183","0.0-3.0-6.0-1.2","spark_pilot_2","9133","2","7","Female","","","","","","","null","<div style=""font-size:60px;"">+</div>","null","fixation","","","","","","","","","","","","","",""
"revaluation","35","248200","0.0-3.0-6.0-0.3","spark_pilot_2","9133","2","7","Female","","false","","","","","[1225.300000000745]","./assets/img/space/animals/cat.jpg","[""ArrowLeft""]","second stage practice","space","3","{""ArrowUp,ArrowLeft"":3,""ArrowUp,ArrowRight"":36,""ArrowDown,ArrowLeft"":15,""ArrowDown,ArrowRight"":23}","false","ArrowUp,ArrowLeft","","","","","","","","",""
"html-keyboard-response","36","248714","0.0-3.0-6.0-1.3","spark_pilot_2","9133","2","7","Female","","","","","","","null","<div style=""font-size:60px;"">+</div>","null","fixation","","","","","","","","","","","","","",""
"learning-instructions","37","269953","0.0-3.0-7.0-0.0","spark_pilot_2","9133","2","7","Female","","","","","","","4404.39999999851","<p> Great job. Now let’s try putting it together. </p>
            <p> On each turn, you will first see a picture to remind you of the place you are in, and you need to choose whether to go up or down. </p>
            <p> Then you will see an animal and choose which of its chests to search for treasure. </p>","","instructions","","","","","","","","","","","","","",""
"learning-instructions","38","280117","0.0-3.0-7.0-0.1","spark_pilot_2","9133","2","7","Female","","","","","","","1903","<p> When you choose whether to go up or down, try to go to the animal with the chest with the most treasure. </p>
            <p> Try practicing that now! </p>","","instructions","","","","","","","","","","","","","",""
"revaluation","39","286141","0.0-3.0-8.0-0.0","spark_pilot_2","9133","2","7","Female","","false","","","","","[1701,1953.6000000014901]","./assets/img/space/6.jpg","[""ArrowUp"",""ArrowRight""]","full practice","space","36","{""ArrowUp,ArrowLeft"":3,""ArrowUp,ArrowRight"":36,""ArrowDown,ArrowLeft"":15,""ArrowDown,ArrowRight"":23}","true","ArrowUp,ArrowRight","false","","","","","","","",""
"html-keyboard-response","40","286644","0.0-3.0-8.0-1.0","spark_pilot_2","9133","2","7","Female","","","","","","","null","<div style=""font-size:60px;"">+</div>","null","fixation","","","","","","","","","","","","","",""
"revaluation","41","292660","0.0-3.0-8.0-0.1","spark_pilot_2","9133","2","7","Female","","true","","","","","[1169.6000000014901]","./assets/img/space/7.jpg","[""ArrowUp""]","full practice","space","-5","{""ArrowUp,ArrowLeft"":3,""ArrowUp,ArrowRight"":36,""ArrowDown,ArrowLeft"":15,""ArrowDown,ArrowRight"":23}","false","ArrowUp","false","","","","","","","",""
"html-keyboard-response","42","293162","0.0-3.0-8.0-1.1","spark_pilot_2","9133","2","7","Female","","","","","","","null","<div style=""font-size:60px;"">+</div>","null","fixation","","","","","","","","","","","","","",""
"revaluation","43","299182","0.0-3.0-8.0-0.2","spark_pilot_2","9133","2","7","Female","","false","","","","","[1104.5999999977648,1791.6000000014901]","./assets/img/space/8.jpg","[""ArrowUp"",""ArrowRight""]","full practice","space","36","{""ArrowUp,ArrowLeft"":3,""ArrowUp,ArrowRight"":36,""ArrowDown,ArrowLeft"":15,""ArrowDown,ArrowRight"":23}","true","ArrowUp,ArrowRight","false","","","","","","","",""
"html-keyboard-response","44","299685","0.0-3.0-8.0-1.2","spark_pilot_2","9133","2","7","Female","","","","","","","null","<div style=""font-size:60px;"">+</div>","null","fixation","","","","","","","","","","","","","",""
"revaluation","45","305710","0.0-3.0-8.0-0.3","spark_pilot_2","9133","2","7","Female","","false","","","","","[1178.3999999985099,528.8000000007451]","./assets/img/space/9.jpg","[""ArrowUp"",""ArrowRight""]","full practice","space","36","{""ArrowUp,ArrowLeft"":3,""ArrowUp,ArrowRight"":36,""ArrowDown,ArrowLeft"":15,""ArrowDown,ArrowRight"":23}","true","ArrowUp,ArrowRight","false","","","","","","","",""
"html-keyboard-response","46","306215","0.0-3.0-8.0-1.3","spark_pilot_2","9133","2","7","Female","","","","","","","null","<div style=""font-size:60px;"">+</div>","null","fixation","","","","","","","","","","","","","",""
"revaluation","47","312225","0.0-3.0-8.0-0.4","spark_pilot_2","9133","2","7","Female","","true","","","","","[855.5]","./assets/img/space/10.jpg","[""ArrowUp""]","full practice","space","-5","{""ArrowUp,ArrowLeft"":3,""ArrowUp,ArrowRight"":36,""ArrowDown,ArrowLeft"":15,""ArrowDown,ArrowRight"":23}","false","ArrowUp","false","","","","","","","",""
"html-keyboard-response","48","312727","0.0-3.0-8.0-1.4","spark_pilot_2","9133","2","7","Female","","","","","","","null","<div style=""font-size:60px;"">+</div>","null","fixation","","","","","","","","","","","","","",""
"learning-instructions","49","327039","0.0-3.0-9.0-0.0","spark_pilot_2","9133","2","7","Female","","","","","","","3937.39999999851","<p> One last thing: sometimes, you will see a robber. The robber can be anywhere in the picture. </p>
            <p> If you do not stop them, you will lose treasure. </p>
            <img src='./assets/img/instructions/robber.jpg' class='instructions-image'>","","instructions","","","","","","","","","","","","","",""
"learning-instructions","50","335339","0.0-3.0-9.0-0.1","spark_pilot_2","9133","2","7","Female","","","","","","","1139.6000000014901","<p> If you see the robber, you should <b>press the space bar</b> rather than using the arrow keys. </p>
            <p> Try practicing that now! </p>","","instructions","","","","","","","","","","","","","",""
"revaluation","51","339359","0.0-3.0-10.0-0.0","spark_pilot_2","9133","2","7","Female","","false","","","","","[1079.300000000745]","./assets/img/space/catch/0.jpg","[""spaceBar""]","catch practice","space","0","{""ArrowUp,ArrowLeft"":3,""ArrowUp,ArrowRight"":36,""ArrowDown,ArrowLeft"":15,""ArrowDown,ArrowRight"":23}","true","spaceBar","true","","","","","","","",""
"html-keyboard-response","52","339861","0.0-3.0-10.0-1.0","spark_pilot_2","9133","2","7","Female","","","","","","","null","<div style=""font-size:60px;"">+</div>","null","fixation","","","","","","","","","","","","","",""
"revaluation","53","343875","0.0-3.0-10.0-0.1","spark_pilot_2","9133","2","7","Female","","false","","","","","[529.6999999992549]","./assets/img/space/catch/1.jpg","[""spaceBar""]","catch practice","space","0","{""ArrowUp,ArrowLeft"":3,""ArrowUp,ArrowRight"":36,""ArrowDown,ArrowLeft"":15,""ArrowDown,ArrowRight"":23}","true","spaceBar","true","","","","","","","",""
"html-keyboard-response","54","344391","0.0-3.0-10.0-1.1","spark_pilot_2","9133","2","7","Female","","","","","","","null","<div style=""font-size:60px;"">+</div>","null","fixation","","","","","","","","","","","","","",""
"revaluation","55","348406","0.0-3.0-10.0-0.2","spark_pilot_2","9133","2","7","Female","","false","","","","","[416.80000000074506]","./assets/img/space/catch/2.jpg","[""spaceBar""]","catch practice","space","0","{""ArrowUp,ArrowLeft"":3,""ArrowUp,ArrowRight"":36,""ArrowDown,ArrowLeft"":15,""ArrowDown,ArrowRight"":23}","true","spaceBar","true","","","","","","","",""
"html-keyboard-response","56","348909","0.0-3.0-10.0-1.2","spark_pilot_2","9133","2","7","Female","","","","","","","null","<div style=""font-size:60px;"">+</div>","null","fixation","","","","","","","","","","","","","",""
"learning-instructions","57","366215","0.0-3.0-11.0-0.0","spark_pilot_2","9133","2","7","Female","","","","","","","3694.300000000745","<p> After you explore a place to find treasure, it will be time to play a different game. </p>
            <p> During this game, red dots will appear on the screen and fall down slowly. </p>
            <p><b> You must click on them before they reach the bottom. </b></p>
            <img src='./assets/img/instructions/dotGame.jpg' class='instructions-image'>","","instructions","","","","","","","","","","","","","",""
"learning-instructions","58","379706","0.0-3.0-11.0-0.1","spark_pilot_2","9133","2","7","Female","","","","","","","7824.800000000745","<p> For every dot you click, you will earn additional treasure. </p>
            <p> Let’s try practicing that now. </p>","","instructions","","","","","","","","","","","","","",""
"revaluation","59","394719","0.0-3.0-12.0-0.0","spark_pilot_2","9133","2","7","Female","","","","","","","[-1]","","","rest practice","","10","","","","","1","15000","","","","","",""
"learning-instructions","60","405481","0.0-3.0-13.0-0.0-0.0","spark_pilot_2","9133","2","7","Female","","","","","","","5510.900000002235","<p> Now, you will practice a shortened version of the game to get a sense of how it all fits together. </p>","","instructions","","","","","","","","","","","","","",""
"learning-instructions","61","412177","0.0-3.0-13.0-0.0-0.1","spark_pilot_2","9133","2","7","Female","","","","","","","3507.60000000149","<p>This time you are searching for treasure in outer space.</p>","","instructions","","","","","","","","","","","","","",""
"learning-instructions","62","428777","0.0-3.0-13.0-1.0-0.0","spark_pilot_2","9133","2","7","Female","","","","","","","1827.199999999255","<p> Remember, when you see a picture of the place, use the up and down keys to <b>find an animal</b>.</p>
            <p> When you encounter an animal, you should use the left and right keys to <b>select a treasure chest</b>.</p>
            <p> Don't forget to look out for the robber! </p>","","instructions","","","","","","","","","","","","","",""
"revaluation","63","434817","0.0-3.0-13.0-2.0-0.0","spark_pilot_2","9133","2","7","Female","","false","","","","","[1904.1000000014901,1462.300000000745]","./assets/img/space/11.jpg","[""ArrowUp"",""ArrowRight""]","practice block","space","36","{""ArrowUp,ArrowLeft"":3,""ArrowUp,ArrowRight"":36,""ArrowDown,ArrowLeft"":15,""ArrowDown,ArrowRight"":23}","true","ArrowUp,ArrowRight","false","","","","","","","",""
"html-keyboard-response","64","435319","0.0-3.0-13.0-2.0-1.0","spark_pilot_2","9133","2","7","Female","","","","","","","null","<div style=""font-size:60px;"">+</div>","null","fixation","","","","","","","","","","","","","",""
"revaluation","65","441347","0.0-3.0-13.0-2.0-0.1","spark_pilot_2","9133","2","7","Female","","false","","","","","[1175.699999999255,1004.3000000007451]","./assets/img/space/12.jpg","[""ArrowUp"",""ArrowRight""]","practice block","space","36","{""ArrowUp,ArrowLeft"":3,""ArrowUp,ArrowRight"":36,""ArrowDown,ArrowLeft"":15,""ArrowDown,ArrowRight"":23}","true","ArrowUp,ArrowRight","false","","","","","","","",""
"html-keyboard-response","66","441861","0.0-3.0-13.0-2.0-1.1","spark_pilot_2","9133","2","7","Female","","","","","","","null","<div style=""font-size:60px;"">+</div>","null","fixation","","","","","","","","","","","","","",""
"revaluation","67","447883","0.0-3.0-13.0-2.0-0.2","spark_pilot_2","9133","2","7","Female","","false","","","","","[1689.7000000029802,683.8999999985099]","./assets/img/space/13.jpg","[""ArrowUp"",""ArrowRight""]","practice block","space","36","{""ArrowUp,ArrowLeft"":3,""ArrowUp,ArrowRight"":36,""ArrowDown,ArrowLeft"":15,""ArrowDown,ArrowRight"":23}","true","ArrowUp,ArrowRight","false","","","","","","","",""
"html-keyboard-response","68","448384","0.0-3.0-13.0-2.0-1.2","spark_pilot_2","9133","2","7","Female","","","","","","","null","<div style=""font-size:60px;"">+</div>","null","fixation","","","","","","","","","","","","","",""
"revaluation","69","454395","0.0-3.0-13.0-2.0-0.3","spark_pilot_2","9133","2","7","Female","","false","","","","","[772.5999999977648,564.7000000029802]","./assets/img/space/14.jpg","[""ArrowUp"",""ArrowRight""]","practice block","space","36","{""ArrowUp,ArrowLeft"":3,""ArrowUp,ArrowRight"":36,""ArrowDown,ArrowLeft"":15,""ArrowDown,ArrowRight"":23}","true","ArrowUp,ArrowRight","false","","","","","","","",""
"html-keyboard-response","70","454897","0.0-3.0-13.0-2.0-1.3","spark_pilot_2","9133","2","7","Female","","","","","","","null","<div style=""font-size:60px;"">+</div>","null","fixation","","","","","","","","","","","","","",""
"revaluation","71","458909","0.0-3.0-13.0-2.0-0.4","spark_pilot_2","9133","2","7","Female","","true","","","","","[]","./assets/img/space/11.jpg","[]","practice block","space","-5","{""ArrowUp,ArrowLeft"":3,""ArrowUp,ArrowRight"":36,""ArrowDown,ArrowLeft"":15,""ArrowDown,ArrowRight"":23}","false","","false","","","","","","","",""
"html-keyboard-response","72","459412","0.0-3.0-13.0-2.0-1.4","spark_pilot_2","9133","2","7","Female","","","","","","","null","<div style=""font-size:60px;"">+</div>","null","fixation","","","","","","","","","","","","","",""
"revaluation","73","465420","0.0-3.0-13.0-2.0-0.5","spark_pilot_2","9133","2","7","Female","","false","","","","","[627.5,10.900000002235174]","./assets/img/space/12.jpg","[""ArrowUp"",""ArrowRight""]","practice block","space","36","{""ArrowUp,ArrowLeft"":3,""ArrowUp,ArrowRight"":36,""ArrowDown,ArrowLeft"":15,""ArrowDown,ArrowRight"":23}","true","ArrowUp,ArrowRight","false","","","","","","","",""
"html-keyboard-response","74","465922","0.0-3.0-13.0-2.0-1.5","spark_pilot_2","9133","2","7","Female","","","","","","","null","<div style=""font-size:60px;"">+</div>","null","fixation","","","","","","","","","","","","","",""
"revaluation","75","471931","0.0-3.0-13.0-2.0-0.6","spark_pilot_2","9133","2","7","Female","","false","","","","","[869.1999999992549,803.2999999970198]","./assets/img/space/13.jpg","[""ArrowUp"",""ArrowRight""]","practice block","space","36","{""ArrowUp,ArrowLeft"":3,""ArrowUp,ArrowRight"":36,""ArrowDown,ArrowLeft"":15,""ArrowDown,ArrowRight"":23}","true","ArrowUp,ArrowRight","false","","","","","","","",""
"html-keyboard-response","76","472434","0.0-3.0-13.0-2.0-1.6","spark_pilot_2","9133","2","7","Female","","","","","","","null","<div style=""font-size:60px;"">+</div>","null","fixation","","","","","","","","","","","","","",""
"revaluation","77","478442","0.0-3.0-13.0-2.0-0.7","spark_pilot_2","9133","2","7","Female","","false","","","","","[661.7000000029802,685]","./assets/img/space/14.jpg","[""ArrowUp"",""ArrowRight""]","practice block","space","36","{""ArrowUp,ArrowLeft"":3,""ArrowUp,ArrowRight"":36,""ArrowDown,ArrowLeft"":15,""ArrowDown,ArrowRight"":23}","true","ArrowUp,ArrowRight","false","","","","","","","",""
"html-keyboard-response","78","478944","0.0-3.0-13.0-2.0-1.7","spark_pilot_2","9133","2","7","Female","","","","","","","null","<div style=""font-size:60px;"">+</div>","null","fixation","","","","","","","","","","","","","",""
"revaluation","79","482952","0.0-3.0-13.0-2.0-0.8","spark_pilot_2","9133","2","7","Female","","false","","","","","[567.8000000007451]","./assets/img/space/catch/3.jpg","[""ArrowUp""]","practice block","space","-10","{""ArrowUp,ArrowLeft"":3,""ArrowUp,ArrowRight"":36,""ArrowDown,ArrowLeft"":15,""ArrowDown,ArrowRight"":23}","false","ArrowUp","true","","","","","","","",""
"html-keyboard-response","80","483454","0.0-3.0-13.0-2.0-1.8","spark_pilot_2","9133","2","7","Female","","","","","","","null","<div style=""font-size:60px;"">+</div>","null","fixation","","","","","","","","","","","","","",""
"learning-instructions","81","522348","0.0-3.0-13.0-3.0-0.0","spark_pilot_2","9133","2","7","Female","","","","","","","25939.900000002235","<p> Now, you will travel with a friend who will choose whether you go up or down first. </p>
            <p> On these turns, you will just see the animal that they found. You will still get to choose which chest to search for treasure.</p>","","instructions","","","","","","","","","","","","","",""
"revaluation","82","526368","0.0-3.0-13.0-4.0-0.0","spark_pilot_2","9133","2","7","Female","","false","","","","","[1520.5]","./assets/img/space/animals/rabbit.jpg","[""ArrowRight""]","practice block","space","23","{""ArrowUp,ArrowLeft"":3,""ArrowUp,ArrowRight"":36,""ArrowDown,ArrowLeft"":15,""ArrowDown,ArrowRight"":23}","true","ArrowDown,ArrowRight","","","","","","","","",""
"html-keyboard-response","83","526870","0.0-3.0-13.0-4.0-1.0","spark_pilot_2","9133","2","7","Female","","","","","","","null","<div style=""font-size:60px;"">+</div>","null","fixation","","","","","","","","","","","","","",""
"revaluation","84","530875","0.0-3.0-13.0-4.0-0.1","spark_pilot_2","9133","2","7","Female","","false","","","","","[686.1000000014901]","./assets/img/space/animals/cat.jpg","[""ArrowRight""]","practice block","space","36","{""ArrowUp,ArrowLeft"":3,""ArrowUp,ArrowRight"":36,""ArrowDown,ArrowLeft"":15,""ArrowDown,ArrowRight"":23}","true","ArrowUp,ArrowRight","","","","","","","","",""
"html-keyboard-response","85","531377","0.0-3.0-13.0-4.0-1.1","spark_pilot_2","9133","2","7","Female","","","","","","","null","<div style=""font-size:60px;"">+</div>","null","fixation","","","","","","","","","","","","","",""
"revaluation","86","535384","0.0-3.0-13.0-4.0-0.2","spark_pilot_2","9133","2","7","Female","","false","","","","","[494.29999999701977]","./assets/img/space/animals/cat.jpg","[""ArrowRight""]","practice block","space","36","{""ArrowUp,ArrowLeft"":3,""ArrowUp,ArrowRight"":36,""ArrowDown,ArrowLeft"":15,""ArrowDown,ArrowRight"":23}","true","ArrowUp,ArrowRight","","","","","","","","",""
"html-keyboard-response","87","535886","0.0-3.0-13.0-4.0-1.2","spark_pilot_2","9133","2","7","Female","","","","","","","null","<div style=""font-size:60px;"">+</div>","null","fixation","","","","","","","","","","","","","",""
"revaluation","88","539894","0.0-3.0-13.0-4.0-0.3","spark_pilot_2","9133","2","7","Female","","false","","","","","[361.8999999985099]","./assets/img/space/animals/rabbit.jpg","[""ArrowRight""]","practice block","space","23","{""ArrowUp,ArrowLeft"":3,""ArrowUp,ArrowRight"":36,""ArrowDown,ArrowLeft"":15,""ArrowDown,ArrowRight"":23}","true","ArrowDown,ArrowRight","","","","","","","","",""
"html-keyboard-response","89","540395","0.0-3.0-13.0-4.0-1.3","spark_pilot_2","9133","2","7","Female","","","","","","","null","<div style=""font-size:60px;"">+</div>","null","fixation","","","","","","","","","","","","","",""
"learning-instructions","90","552505","0.0-3.0-13.0-5.0-0.0","spark_pilot_2","9133","2","7","Female","","","","","","","4680.099999997765","<p> Time to play the dot game! </p>
            <p> For 15 seconds, click the red dots on the following screen as they appear. </p>","","instructions","","","","","","","","","","","","","",""
"revaluation","91","567508","0.0-3.0-13.0-6.0-0.0","spark_pilot_2","9133","2","7","Female","","","","","","","[197]","","","rest practice","","10","","","","","0","15000","","","","","",""
"learning-instructions","92","577953","0.0-3.0-13.0-7.0-0.0","spark_pilot_2","9133","2","7","Female","","","","","","","4316.699999999255","<p> You have almost finished this part of the game! </p>
            <p> We are going to ask you to make a few more choices. </p>","","instructions","","","","","","","","","","","","","",""
"learning-instructions","93","596309","0.0-3.0-13.0-7.0-0.1","spark_pilot_2","9133","2","7","Female","","","","","","","4352.29999999702","<p> First, you need to decide whether to go up or down. When you see each picture, use the arrow keys to make your choice. </p>
            <p><b>You will not see which animal you found, but try to get to the one that will give you the most treasure.</b></p>","","instructions","","","","","","","","","","","","","",""
"revaluation","94","597732","0.0-3.0-13.0-8.0","spark_pilot_2","9133","2","7","Female","","false","","","","","[1420.800000000745]","./assets/img/space/15.jpg","[""ArrowUp""]","practice block","space","0","{""ArrowUp,ArrowLeft"":3,""ArrowUp,ArrowRight"":36,""ArrowDown,ArrowLeft"":15,""ArrowDown,ArrowRight"":23}","true","ArrowUp","false","","","","","","","",""
"html-keyboard-response","95","598235","0.0-3.0-13.0-9.0","spark_pilot_2","9133","2","7","Female","","","","","","","null","<div style=""font-size:60px;"">+</div>","null","fixation","","","","","","","","","","","","","",""
"learning-instructions","96","610708","0.0-3.0-13.0-10.0-0.0","spark_pilot_2","9133","2","7","Female","","","","","","","1083.199999999255","<p> Now you will see the animals again and can search their chests for treasure. </p>
            <p> This time, you will not see how much treasure you earned, but you will earn more bonus money for making better choices. </p>","","instructions","","","","","","","","","","","","","",""
"revaluation","97","611228","0.0-3.0-13.0-11.0-0.0","spark_pilot_2","9133","2","7","Female","","false","","","","","[518.1999999992549]","./assets/img/space/animals/cat.jpg","[""ArrowRight""]","practice block","space","0","{""ArrowUp,ArrowLeft"":3,""ArrowUp,ArrowRight"":36,""ArrowDown,ArrowLeft"":15,""ArrowDown,ArrowRight"":23}","true","ArrowUp,ArrowRight","","","","","","","","",""
"html-keyboard-response","98","611732","0.0-3.0-13.0-11.0-1.0","spark_pilot_2","9133","2","7","Female","","","","","","","null","<div style=""font-size:60px;"">+</div>","null","fixation","","","","","","","","","","","","","",""
"revaluation","99","612357","0.0-3.0-13.0-11.0-0.1","spark_pilot_2","9133","2","7","Female","","false","","","","","[619.8000000007451]","./assets/img/space/animals/rabbit.jpg","[""ArrowRight""]","practice block","space","0","{""ArrowUp,ArrowLeft"":3,""ArrowUp,ArrowRight"":36,""ArrowDown,ArrowLeft"":15,""ArrowDown,ArrowRight"":23}","true","ArrowDown,ArrowRight","","","","","","","","",""
"html-keyboard-response","100","612872","0.0-3.0-13.0-11.0-1.1","spark_pilot_2","9133","2","7","Female","","","","","","","null","<div style=""font-size:60px;"">+</div>","null","fixation","","","","","","","","","","","","","",""
"learning-instructions","101","619946","0.0-3.0-14.0-0.0","spark_pilot_2","9133","2","7","Female","","","","","","","2401.099999997765","<p> Before you start, we're going to ask you a few questions about how the game works. </p>","","instructions","","","","","","","","","","","","","",""
"comp-q","102","629403","0.0-3.0-15.0-0.0-0.0","spark_pilot_2","9133","2","7","Female","","","","","","","3868.300000000745","<p> <b> True or False? </b> </p>
            <p> There can be 50 pieces of treasure in a given animal's chest. </p>","0","comp_question","","","","false","","","","","","","","","",""
"comp-q","103","638692","0.0-3.0-15.0-0.0-1.0","spark_pilot_2","9133","2","7","Female","","","","","","","2766.699999999255","<p> <b>Incorrect.</b> The amount of treasure in each chest can range from 0 to 40 pieces. </p>","0","comp_answer","","","","","","","","","","","","","",""
"comp-q","104","645215","0.0-3.0-15.0-0.1-0.1","spark_pilot_2","9133","2","7","Female","","","","","","","959","<p> <b> True or False? </b> </p>
            <p> There can be 50 pieces of treasure in a given animal's chest. </p>","1","comp_question","","","","true","","","","","","","","","",""
"comp-q","105","654172","0.0-3.0-15.0-0.1-1.1","spark_pilot_2","9133","2","7","Female","","","","","","","2297","<p> <b> That's right! </b> The amount of treasure in each chest can range from 0 to 40 pieces. </p>","0","comp_answer","","","","","","","","","","","","","",""
"comp-q","106","662258","0.0-3.0-15.0-0.2-0.2","spark_pilot_2","9133","2","7","Female","","","","","","","982.5","<p> <b> True or False? </b> </p><p> In this game, all animals have the same amount of treasure in their left and right chests. </p>","1","comp_question","","","","true","","","","","","","","","",""
"comp-q","107","670217","0.0-3.0-15.0-0.2-1.2","spark_pilot_2","9133","2","7","Female","","","","","","","2730.5","<p> <b> That's right! </b> Animals have different amounts of treasure in their treasure chests. </p>","0","comp_answer","","","","","","","","","","","","","",""
"comp-q","108","677017","0.0-3.0-15.0-0.3-0.3","spark_pilot_2","9133","2","7","Female","","","","","","","951.5","<p> <b> True or False? </b> </p><p> The same animal will always be there if you go up in the same place. </p>","1","comp_question","","","","false","","","","","","","","","",""
"comp-q","109","686225","0.0-3.0-15.0-0.3-1.3","spark_pilot_2","9133","2","7","Female","","","","","","","2919","<p> <b>Incorrect.</b> One animal lives in the upper part and one lives in the lower part of every place. </p>","0","comp_answer","","","","","","","","","","","","","",""
"comp-q","110","692743","0.0-3.0-15.0-0.4-0.4","spark_pilot_2","9133","2","7","Female","","","","","","","697.5999999977648","<p> <b> True or False? </b> </p><p> The same animal will always be there if you go up in the same place. </p>","1","comp_question","","","","false","","","","","","","","","",""
"comp-q","111","704641","0.0-3.0-15.0-0.4-1.4","spark_pilot_2","9133","2","7","Female","","","","","","","5625.199999999255","<p> <b>Incorrect.</b> One animal lives in the upper part and one lives in the lower part of every place. </p>","0","comp_answer","","","","","","","","","","","","","",""
"comp-q","112","713711","0.0-3.0-15.0-0.5-0.5","spark_pilot_2","9133","2","7","Female","","","","","","","3245.699999999255","<p> <b> True or False? </b> </p><p> The same animal will always be there if you go up in the same place. </p>","0","comp_question","","","","true","","","","","","","","","",""
"comp-q","113","729080","0.0-3.0-15.0-0.5-1.5","spark_pilot_2","9133","2","7","Female","","","","","","","8924.199999999255","<p> <b> That's right! </b> One animal lives in the upper part and one lives in the lower part of every place. </p>","0","comp_answer","","","","","","","","","","","","","",""
"comp-q","114","738014","0.0-3.0-15.0-0.6-0.6","spark_pilot_2","9133","2","7","Female","","","","","","","3418.7000000029802","<p> <b> True or False? </b> </p><p> If you see a different picture, it means you are in a new place. </p>","0","comp_question","","","","false","","","","","","","","","",""
"comp-q","115","754386","0.0-3.0-15.0-0.6-1.6","spark_pilot_2","9133","2","7","Female","","","","","","","5281.199999999255","<p> <b>Incorrect.</b> Lots of different images may show the same place. For example,  you may see three different images that all remind you that you are in outer space. </p>","0","comp_answer","","","","","","","","","","","","","",""
"comp-q","116","762604","0.0-3.0-15.0-0.7-0.7","spark_pilot_2","9133","2","7","Female","","","","","","","2718.300000000745","<p> <b> True or False? </b> </p><p> If you see a different picture, it means you are in a new place. </p>","1","comp_question","","","","true","","","","","","","","","",""
"comp-q","117","779138","0.0-3.0-15.0-0.7-1.7","spark_pilot_2","9133","2","7","Female","","","","","","","5313.10000000149","<p> <b> That's right! </b> Lots of different images may show the same place. For example,  you may see three different images that all remind you that you are in outer space. </p>","0","comp_answer","","","","","","","","","","","","","",""
"learning-instructions","118","792314","0.0-3.0-16.0-0.0","spark_pilot_2","9133","2","7","Female","","","","","","","3318.800000000745","<p> Good job. Remember to do your best because the amount of treasure you earn will be converted into bonus money. </p>
            <p> It’s time to start the real game! </p>","","instructions","","","","","","","","","","","","","",""
"learning-instructions","119","800036","0.0-4.0-0.0-0.0","spark_pilot_2","9133","2","7","Female","","","","","","","5010.60000000149","<p> This time you are searching for treasure in the <b>ocean</b>.</p>","","instructions","","","","","","","","","","","","","",""
"learning-instructions","120","819494","0.0-4.0-0.0-0.1","spark_pilot_2","9133","2","7","Female","","","","","","","2179.099999997765","<p><b>New</b> animals with <b>new</b> treasure chests live here. You need to explore to discover where the animal with the best treasure chest is.</p>
                    <p> Like before, once you figure out which animal has the chest with the most treasure, you should try to get to that animal and select that chest! </p>","","instructions","","","","","","","","","","","","","",""
"learning-instructions","121","836610","0.0-4.0-1.0-0.0","spark_pilot_2","9133","2","7","Female","","","","","","","2385.099999997765","<p> Remember, when you see a picture of the place, use the up and down keys to <b>find an animal</b>.</p>
            <p> When you encounter an animal, you should use the left and right keys to <b>select a treasure chest</b>.</p>
            <p> Don't forget to look out for the robber! </p>","","instructions","","","","","","","","","","","","","",""
"revaluation","122","842624","0.0-4.0-2.0-0.0","spark_pilot_2","9133","2","7","Female","","false","","","","","[1997.5999999977648,1717.6000000014901]","./assets/img/ocean/memory/27.jpg","[""ArrowUp"",""ArrowLeft""]","value training","ocean","23","{""ArrowUp,ArrowLeft"":23,""ArrowUp,ArrowRight"":10,""ArrowDown,ArrowLeft"":8,""ArrowDown,ArrowRight"":30}","false","ArrowUp,ArrowLeft","false","","","revaluation","1","0","","",""
"html-keyboard-response","123","843141","0.0-4.0-2.0-1.0","spark_pilot_2","9133","2","7","Female","","","","","","","null","<div style=""font-size:60px;"">+</div>","null","fixation","","","","","","","","","","","1","","",""
"revaluation","124","847149","0.0-4.0-2.0-0.1","spark_pilot_2","9133","2","7","Female","","false","","","","","[1336]","./assets/img/ocean/catch/0.jpg","[""spaceBar""]","value training","ocean","0","{""ArrowUp,ArrowLeft"":23,""ArrowUp,ArrowRight"":10,""ArrowDown,ArrowLeft"":8,""ArrowDown,ArrowRight"":30}","true","spaceBar","true","","","revaluation","1","2","","",""
"html-keyboard-response","125","847650","0.0-4.0-2.0-1.1","spark_pilot_2","9133","2","7","Female","","","","","","","null","<div style=""font-size:60px;"">+</div>","null","fixation","","","","","","","","","","","3","","",""
"revaluation","126","853667","0.0-4.0-2.0-0.2","spark_pilot_2","9133","2","7","Female","","false","","","","","[1770.2999999970198,911]","./assets/img/ocean/memory/21.jpg","[""ArrowDown"",""ArrowRight""]","value training","ocean","30","{""ArrowUp,ArrowLeft"":23,""ArrowUp,ArrowRight"":10,""ArrowDown,ArrowLeft"":8,""ArrowDown,ArrowRight"":30}","true","ArrowDown,ArrowRight","false","","","revaluation","1","4","","",""
"html-keyboard-response","127","854170","0.0-4.0-2.0-1.2","spark_pilot_2","9133","2","7","Female","","","","","","","null","<div style=""font-size:60px;"">+</div>","null","fixation","","","","","","","","","","","5","","",""
"revaluation","128","860199","0.0-4.0-2.0-0.3","spark_pilot_2","9133","2","7","Female","","false","","","","","[1371,1178.7000000029802]","./assets/img/ocean/memory/16.jpg","[""ArrowUp"",""ArrowLeft""]","value training","ocean","23","{""ArrowUp,ArrowLeft"":23,""ArrowUp,ArrowRight"":10,""ArrowDown,ArrowLeft"":8,""ArrowDown,ArrowRight"":30}","false","ArrowUp,ArrowLeft","false","","","revaluation","1","6","","",""
"html-keyboard-response","129","860703","0.0-4.0-2.0-1.3","spark_pilot_2","9133","2","7","Female","","","","","","","null","<div style=""font-size:60px;"">+</div>","null","fixation","","","","","","","","","","","7","","",""
"revaluation","130","866715","0.0-4.0-2.0-0.4","spark_pilot_2","9133","2","7","Female","","false","","","","","[1111.300000000745,955.1999999992549]","./assets/img/ocean/memory/39.jpg","[""ArrowUp"",""ArrowRight""]","value training","ocean","10","{""ArrowUp,ArrowLeft"":23,""ArrowUp,ArrowRight"":10,""ArrowDown,ArrowLeft"":8,""ArrowDown,ArrowRight"":30}","false","ArrowUp,ArrowRight","false","","","revaluation","1","8","","",""
"html-keyboard-response","131","867218","0.0-4.0-2.0-1.4","spark_pilot_2","9133","2","7","Female","","","","","","","null","<div style=""font-size:60px;"">+</div>","null","fixation","","","","","","","","","","","9","","",""
"revaluation","132","873241","0.0-4.0-2.0-0.5","spark_pilot_2","9133","2","7","Female","","false","","","","","[1417.5999999977648,1658.6000000014901]","./assets/img/ocean/memory/23.jpg","[""ArrowUp"",""ArrowRight""]","value training","ocean","10","{""ArrowUp,ArrowLeft"":23,""ArrowUp,ArrowRight"":10,""ArrowDown,ArrowLeft"":8,""ArrowDown,ArrowRight"":30}","false","ArrowUp,ArrowRight","false","","","revaluation","1","10","","",""
"html-keyboard-response","133","873744","0.0-4.0-2.0-1.5","spark_pilot_2","9133","2","7","Female","","","","","","","null","<div style=""font-size:60px;"">+</div>","null","fixation","","","","","","","","","","","11","","",""
"revaluation","134","879753","0.0-4.0-2.0-0.6","spark_pilot_2","9133","2","7","Female","","false","","","","","[986.3999999985099,454.30000000074506]","./assets/img/ocean/memory/9.jpg","[""ArrowDown"",""ArrowLeft""]","value training","ocean","8","{""ArrowUp,ArrowLeft"":23,""ArrowUp,ArrowRight"":10,""ArrowDown,ArrowLeft"":8,""ArrowDown,ArrowRight"":30}","false","ArrowDown,ArrowLeft","false","","","revaluation","1","12","","",""
"html-keyboard-response","135","880256","0.0-4.0-2.0-1.6","spark_pilot_2","9133","2","7","Female","","","","","","","null","<div style=""font-size:60px;"">+</div>","null","fixation","","","","","","","","","","","13","","",""
"revaluation","136","886262","0.0-4.0-2.0-0.7","spark_pilot_2","9133","2","7","Female","","false","","","","","[1369.4000000022352,608.5]","./assets/img/ocean/memory/20.jpg","[""ArrowDown"",""ArrowRight""]","value training","ocean","30","{""ArrowUp,ArrowLeft"":23,""ArrowUp,ArrowRight"":10,""ArrowDown,ArrowLeft"":8,""ArrowDown,ArrowRight"":30}","true","ArrowDown,ArrowRight","false","","","revaluation","1","14","","",""
"html-keyboard-response","137","886763","0.0-4.0-2.0-1.7","spark_pilot_2","9133","2","7","Female","","","","","","","null","<div style=""font-size:60px;"">+</div>","null","fixation","","","","","","","","","","","15","","",""
"revaluation","138","890772","0.0-4.0-2.0-0.8","spark_pilot_2","9133","2","7","Female","","false","","","","","[1491.2999999970198]","./assets/img/ocean/catch/1.jpg","[""ArrowDown""]","value training","ocean","-10","{""ArrowUp,ArrowLeft"":23,""ArrowUp,ArrowRight"":10,""ArrowDown,ArrowLeft"":8,""ArrowDown,ArrowRight"":30}","false","ArrowDown","true","","","revaluation","1","16","","",""
"html-keyboard-response","139","891275","0.0-4.0-2.0-1.8","spark_pilot_2","9133","2","7","Female","","","","","","","null","<div style=""font-size:60px;"">+</div>","null","fixation","","","","","","","","","","","17","","",""
"revaluation","140","895282","0.0-4.0-2.0-0.9","spark_pilot_2","9133","2","7","Female","","true","","","","","[]","./assets/img/ocean/memory/25.jpg","[]","value training","ocean","-5","{""ArrowUp,ArrowLeft"":23,""ArrowUp,ArrowRight"":10,""ArrowDown,ArrowLeft"":8,""ArrowDown,ArrowRight"":30}","false","","false","","","revaluation","1","18","","",""
"html-keyboard-response","141","895784","0.0-4.0-2.0-1.9","spark_pilot_2","9133","2","7","Female","","","","","","","null","<div style=""font-size:60px;"">+</div>","null","fixation","","","","","","","","","","","19","","",""
"revaluation","142","901790","0.0-4.0-2.0-0.10","spark_pilot_2","9133","2","7","Female","","false","","","","","[31.599999997764826,528.8000000007451]","./assets/img/ocean/memory/27.jpg","[""ArrowDown"",""ArrowRight""]","value training","ocean","30","{""ArrowUp,ArrowLeft"":23,""ArrowUp,ArrowRight"":10,""ArrowDown,ArrowLeft"":8,""ArrowDown,ArrowRight"":30}","true","ArrowDown,ArrowRight","false","","","revaluation","1","20","","",""
"html-keyboard-response","143","902292","0.0-4.0-2.0-1.10","spark_pilot_2","9133","2","7","Female","","","","","","","null","<div style=""font-size:60px;"">+</div>","null","fixation","","","","","","","","","","","21","","",""
"revaluation","144","908300","0.0-4.0-2.0-0.11","spark_pilot_2","9133","2","7","Female","","false","","","","","[410.20000000298023,481.69999999925494]","./assets/img/ocean/memory/21.jpg","[""ArrowUp"",""ArrowLeft""]","value training","ocean","23","{""ArrowUp,ArrowLeft"":23,""ArrowUp,ArrowRight"":10,""ArrowDown,ArrowLeft"":8,""ArrowDown,ArrowRight"":30}","false","ArrowUp,ArrowLeft","false","","","revaluation","1","22","","",""
"html-keyboard-response","145","908802","0.0-4.0-2.0-1.11","spark_pilot_2","9133","2","7","Female","","","","","","","null","<div style=""font-size:60px;"">+</div>","null","fixation","","","","","","","","","","","23","","",""
"revaluation","146","914808","0.0-4.0-2.0-0.12","spark_pilot_2","9133","2","7","Female","","false","","","","","[463.3999999985099,725.5]","./assets/img/ocean/memory/40.jpg","[""ArrowDown"",""ArrowRight""]","value training","ocean","30","{""ArrowUp,ArrowLeft"":23,""ArrowUp,ArrowRight"":10,""ArrowDown,ArrowLeft"":8,""ArrowDown,ArrowRight"":30}","true","ArrowDown,ArrowRight","false","","","revaluation","1","24","","",""
"html-keyboard-response","147","915312","0.0-4.0-2.0-1.12","spark_pilot_2","9133","2","7","Female","","","","","","","null","<div style=""font-size:60px;"">+</div>","null","fixation","","","","","","","","","","","25","","",""
"revaluation","148","919319","0.0-4.0-2.0-0.13","spark_pilot_2","9133","2","7","Female","","false","","","","","[534.6000000014901]","./assets/img/ocean/catch/4.jpg","[""ArrowDown""]","value training","ocean","-10","{""ArrowUp,ArrowLeft"":23,""ArrowUp,ArrowRight"":10,""ArrowDown,ArrowLeft"":8,""ArrowDown,ArrowRight"":30}","false","ArrowDown","true","","","revaluation","1","26","","",""
"html-keyboard-response","149","919822","0.0-4.0-2.0-1.13","spark_pilot_2","9133","2","7","Female","","","","","","","null","<div style=""font-size:60px;"">+</div>","null","fixation","","","","","","","","","","","27","","",""
"revaluation","150","925831","0.0-4.0-2.0-0.14","spark_pilot_2","9133","2","7","Female","","false","","","","","[1921.300000000745,551]","./assets/img/ocean/memory/11.jpg","[""ArrowDown"",""ArrowRight""]","value training","ocean","30","{""ArrowUp,ArrowLeft"":23,""ArrowUp,ArrowRight"":10,""ArrowDown,ArrowLeft"":8,""ArrowDown,ArrowRight"":30}","true","ArrowDown,ArrowRight","false","","","revaluation","1","28","","",""
"html-keyboard-response","151","926332","0.0-4.0-2.0-1.14","spark_pilot_2","9133","2","7","Female","","","","","","","null","<div style=""font-size:60px;"">+</div>","null","fixation","","","","","","","","","","","29","","",""
"revaluation","152","930338","0.0-4.0-2.0-0.15","spark_pilot_2","9133","2","7","Female","","false","","","","","[879.5]","./assets/img/ocean/catch/5.jpg","[""spaceBar""]","value training","ocean","0","{""ArrowUp,ArrowLeft"":23,""ArrowUp,ArrowRight"":10,""ArrowDown,ArrowLeft"":8,""ArrowDown,ArrowRight"":30}","true","spaceBar","true","","","revaluation","1","30","","",""
"html-keyboard-response","153","930840","0.0-4.0-2.0-1.15","spark_pilot_2","9133","2","7","Female","","","","","","","null","<div style=""font-size:60px;"">+</div>","null","fixation","","","","","","","","","","","31","","",""
"revaluation","154","934848","0.0-4.0-2.0-0.16","spark_pilot_2","9133","2","7","Female","","false","","","","","[751.3000000007451]","./assets/img/ocean/catch/3.jpg","[""spaceBar""]","value training","ocean","0","{""ArrowUp,ArrowLeft"":23,""ArrowUp,ArrowRight"":10,""ArrowDown,ArrowLeft"":8,""ArrowDown,ArrowRight"":30}","true","spaceBar","true","","","revaluation","1","32","","",""
"html-keyboard-response","155","935350","0.0-4.0-2.0-1.16","spark_pilot_2","9133","2","7","Female","","","","","","","null","<div style=""font-size:60px;"">+</div>","null","fixation","","","","","","","","","","","33","","",""
"revaluation","156","941361","0.0-4.0-2.0-0.17","spark_pilot_2","9133","2","7","Female","","false","","","","","[1512.199999999255,620.6999999992549]","./assets/img/ocean/memory/25.jpg","[""ArrowUp"",""ArrowRight""]","value training","ocean","10","{""ArrowUp,ArrowLeft"":23,""ArrowUp,ArrowRight"":10,""ArrowDown,ArrowLeft"":8,""ArrowDown,ArrowRight"":30}","false","ArrowUp,ArrowRight","false","","","revaluation","1","34","","",""
"html-keyboard-response","157","941864","0.0-4.0-2.0-1.17","spark_pilot_2","9133","2","7","Female","","","","","","","null","<div style=""font-size:60px;"">+</div>","null","fixation","","","","","","","","","","","35","","",""
"revaluation","158","947873","0.0-4.0-2.0-0.18","spark_pilot_2","9133","2","7","Female","","false","","","","","[1501.9000000022352,557.5]","./assets/img/ocean/memory/14.jpg","[""ArrowDown"",""ArrowLeft""]","value training","ocean","8","{""ArrowUp,ArrowLeft"":23,""ArrowUp,ArrowRight"":10,""ArrowDown,ArrowLeft"":8,""ArrowDown,ArrowRight"":30}","false","ArrowDown,ArrowLeft","false","","","revaluation","1","36","","",""
"html-keyboard-response","159","948376","0.0-4.0-2.0-1.18","spark_pilot_2","9133","2","7","Female","","","","","","","null","<div style=""font-size:60px;"">+</div>","null","fixation","","","","","","","","","","","37","","",""
"revaluation","160","954383","0.0-4.0-2.0-0.19","spark_pilot_2","9133","2","7","Female","","false","","","","","[1975.3999999985099,918.7999999970198]","./assets/img/ocean/memory/15.jpg","[""ArrowDown"",""ArrowRight""]","value training","ocean","30","{""ArrowUp,ArrowLeft"":23,""ArrowUp,ArrowRight"":10,""ArrowDown,ArrowLeft"":8,""ArrowDown,ArrowRight"":30}","true","ArrowDown,ArrowRight","false","","","revaluation","1","38","","",""
"html-keyboard-response","161","954885","0.0-4.0-2.0-1.19","spark_pilot_2","9133","2","7","Female","","","","","","","null","<div style=""font-size:60px;"">+</div>","null","fixation","","","","","","","","","","","39","","",""
"revaluation","162","960892","0.0-4.0-2.0-0.20","spark_pilot_2","9133","2","7","Female","","false","","","","","[1035.2000000029802,489.3999999985099]","./assets/img/ocean/memory/12.jpg","[""ArrowDown"",""ArrowRight""]","value training","ocean","30","{""ArrowUp,ArrowLeft"":23,""ArrowUp,ArrowRight"":10,""ArrowDown,ArrowLeft"":8,""ArrowDown,ArrowRight"":30}","true","ArrowDown,ArrowRight","false","","","revaluation","1","40","","",""
"html-keyboard-response","163","961394","0.0-4.0-2.0-1.20","spark_pilot_2","9133","2","7","Female","","","","","","","null","<div style=""font-size:60px;"">+</div>","null","fixation","","","","","","","","","","","41","","",""
"revaluation","164","965401","0.0-4.0-2.0-0.21","spark_pilot_2","9133","2","7","Female","","false","","","","","[650.8999999985099]","./assets/img/ocean/catch/7.jpg","[""spaceBar""]","value training","ocean","0","{""ArrowUp,ArrowLeft"":23,""ArrowUp,ArrowRight"":10,""ArrowDown,ArrowLeft"":8,""ArrowDown,ArrowRight"":30}","true","spaceBar","true","","","revaluation","1","42","","",""
"html-keyboard-response","165","965903","0.0-4.0-2.0-1.21","spark_pilot_2","9133","2","7","Female","","","","","","","null","<div style=""font-size:60px;"">+</div>","null","fixation","","","","","","","","","","","43","","",""
"revaluation","166","971911","0.0-4.0-2.0-0.22","spark_pilot_2","9133","2","7","Female","","false","","","","","[1751.5,1326.699999999255]","./assets/img/ocean/memory/36.jpg","[""ArrowDown"",""ArrowRight""]","value training","ocean","30","{""ArrowUp,ArrowLeft"":23,""ArrowUp,ArrowRight"":10,""ArrowDown,ArrowLeft"":8,""ArrowDown,ArrowRight"":30}","true","ArrowDown,ArrowRight","false","","","revaluation","1","44","","",""
"html-keyboard-response","167","972413","0.0-4.0-2.0-1.22","spark_pilot_2","9133","2","7","Female","","","","","","","null","<div style=""font-size:60px;"">+</div>","null","fixation","","","","","","","","","","","45","","",""
"revaluation","168","976422","0.0-4.0-2.0-0.23","spark_pilot_2","9133","2","7","Female","","true","","","","","[]","./assets/img/ocean/memory/34.jpg","[]","value training","ocean","-5","{""ArrowUp,ArrowLeft"":23,""ArrowUp,ArrowRight"":10,""ArrowDown,ArrowLeft"":8,""ArrowDown,ArrowRight"":30}","false","","false","","","revaluation","1","46","","",""
"html-keyboard-response","169","976925","0.0-4.0-2.0-1.23","spark_pilot_2","9133","2","7","Female","","","","","","","null","<div style=""font-size:60px;"">+</div>","null","fixation","","","","","","","","","","","47","","",""
"revaluation","170","982934","0.0-4.0-2.0-0.24","spark_pilot_2","9133","2","7","Female","","false","","","","","[945.5999999977648,238]","./assets/img/ocean/memory/24.jpg","[""ArrowUp"",""ArrowRight""]","value training","ocean","10","{""ArrowUp,ArrowLeft"":23,""ArrowUp,ArrowRight"":10,""ArrowDown,ArrowLeft"":8,""ArrowDown,ArrowRight"":30}","false","ArrowUp,ArrowRight","false","","","revaluation","1","48","","",""
"html-keyboard-response","171","983435","0.0-4.0-2.0-1.24","spark_pilot_2","9133","2","7","Female","","","","","","","null","<div style=""font-size:60px;"">+</div>","null","fixation","","","","","","","","","","","49","","",""
"revaluation","172","989445","0.0-4.0-2.0-0.25","spark_pilot_2","9133","2","7","Female","","false","","","","","[370,513.5]","./assets/img/ocean/memory/34.jpg","[""ArrowDown"",""ArrowLeft""]","value training","ocean","8","{""ArrowUp,ArrowLeft"":23,""ArrowUp,ArrowRight"":10,""ArrowDown,ArrowLeft"":8,""ArrowDown,ArrowRight"":30}","false","ArrowDown,ArrowLeft","false","","","revaluation","1","50","","",""
"html-keyboard-response","173","989947","0.0-4.0-2.0-1.25","spark_pilot_2","9133","2","7","Female","","","","","","","null","<div style=""font-size:60px;"">+</div>","null","fixation","","","","","","","","","","","51","","",""
"revaluation","174","995955","0.0-4.0-2.0-0.26","spark_pilot_2","9133","2","7","Female","","false","","","","","[777.6999999992549,418]","./assets/img/ocean/memory/11.jpg","[""ArrowDown"",""ArrowRight""]","value training","ocean","30","{""ArrowUp,ArrowLeft"":23,""ArrowUp,ArrowRight"":10,""ArrowDown,ArrowLeft"":8,""ArrowDown,ArrowRight"":30}","true","ArrowDown,ArrowRight","false","","","revaluation","1","52","","",""
"html-keyboard-response","175","996458","0.0-4.0-2.0-1.26","spark_pilot_2","9133","2","7","Female","","","","","","","null","<div style=""font-size:60px;"">+</div>","null","fixation","","","","","","","","","","","53","","",""
"revaluation","176","1002466","0.0-4.0-2.0-0.27","spark_pilot_2","9133","2","7","Female","","false","","","","","[908.6999999992549,315.29999999701977]","./assets/img/ocean/memory/40.jpg","[""ArrowUp"",""ArrowLeft""]","value training","ocean","23","{""ArrowUp,ArrowLeft"":23,""ArrowUp,ArrowRight"":10,""ArrowDown,ArrowLeft"":8,""ArrowDown,ArrowRight"":30}","false","ArrowUp,ArrowLeft","false","","","revaluation","1","54","","",""
"html-keyboard-response","177","1002968","0.0-4.0-2.0-1.27","spark_pilot_2","9133","2","7","Female","","","","","","","null","<div style=""font-size:60px;"">+</div>","null","fixation","","","","","","","","","","","55","","",""
"revaluation","178","1008976","0.0-4.0-2.0-0.28","spark_pilot_2","9133","2","7","Female","","false","","","","","[460.19999999925494,965.8999999985099]","./assets/img/ocean/memory/31.jpg","[""ArrowDown"",""ArrowRight""]","value training","ocean","30","{""ArrowUp,ArrowLeft"":23,""ArrowUp,ArrowRight"":10,""ArrowDown,ArrowLeft"":8,""ArrowDown,ArrowRight"":30}","true","ArrowDown,ArrowRight","false","","","revaluation","1","56","","",""
"html-keyboard-response","179","1009479","0.0-4.0-2.0-1.28","spark_pilot_2","9133","2","7","Female","","","","","","","null","<div style=""font-size:60px;"">+</div>","null","fixation","","","","","","","","","","","57","","",""
"revaluation","180","1015490","0.0-4.0-2.0-0.29","spark_pilot_2","9133","2","7","Female","","false","","","","","[959,388.69999999925494]","./assets/img/ocean/memory/41.jpg","[""ArrowDown"",""ArrowRight""]","value training","ocean","30","{""ArrowUp,ArrowLeft"":23,""ArrowUp,ArrowRight"":10,""ArrowDown,ArrowLeft"":8,""ArrowDown,ArrowRight"":30}","true","ArrowDown,ArrowRight","false","","","revaluation","1","58","","",""
"html-keyboard-response","181","1015993","0.0-4.0-2.0-1.29","spark_pilot_2","9133","2","7","Female","","","","","","","null","<div style=""font-size:60px;"">+</div>","null","fixation","","","","","","","","","","","59","","",""
"revaluation","182","1022002","0.0-4.0-2.0-0.30","spark_pilot_2","9133","2","7","Female","","false","","","","","[773.6999999992549,290.5]","./assets/img/ocean/memory/13.jpg","[""ArrowDown"",""ArrowRight""]","value training","ocean","30","{""ArrowUp,ArrowLeft"":23,""ArrowUp,ArrowRight"":10,""ArrowDown,ArrowLeft"":8,""ArrowDown,ArrowRight"":30}","true","ArrowDown,ArrowRight","false","","","revaluation","1","60","","",""
"html-keyboard-response","183","1022505","0.0-4.0-2.0-1.30","spark_pilot_2","9133","2","7","Female","","","","","","","null","<div style=""font-size:60px;"">+</div>","null","fixation","","","","","","","","","","","61","","",""
"revaluation","184","1028514","0.0-4.0-2.0-0.31","spark_pilot_2","9133","2","7","Female","","false","","","","","[766.2999999970198,364.5]","./assets/img/ocean/memory/41.jpg","[""ArrowDown"",""ArrowRight""]","value training","ocean","30","{""ArrowUp,ArrowLeft"":23,""ArrowUp,ArrowRight"":10,""ArrowDown,ArrowLeft"":8,""ArrowDown,ArrowRight"":30}","true","ArrowDown,ArrowRight","false","","","revaluation","1","62","","",""
"html-keyboard-response","185","1029017","0.0-4.0-2.0-1.31","spark_pilot_2","9133","2","7","Female","","","","","","","null","<div style=""font-size:60px;"">+</div>","null","fixation","","","","","","","","","","","63","","",""
"revaluation","186","1035026","0.0-4.0-2.0-0.32","spark_pilot_2","9133","2","7","Female","","false","","","","","[837.1999999992549,411.30000000074506]","./assets/img/ocean/memory/28.jpg","[""ArrowDown"",""ArrowRight""]","value training","ocean","30","{""ArrowUp,ArrowLeft"":23,""ArrowUp,ArrowRight"":10,""ArrowDown,ArrowLeft"":8,""ArrowDown,ArrowRight"":30}","true","ArrowDown,ArrowRight","false","","","revaluation","1","64","","",""
"html-keyboard-response","187","1035527","0.0-4.0-2.0-1.32","spark_pilot_2","9133","2","7","Female","","","","","","","null","<div style=""font-size:60px;"">+</div>","null","fixation","","","","","","","","","","","65","","",""
"revaluation","188","1041531","0.0-4.0-2.0-0.33","spark_pilot_2","9133","2","7","Female","","false","","","","","[794.8000000007451,329.80000000074506]","./assets/img/ocean/memory/14.jpg","[""ArrowDown"",""ArrowRight""]","value training","ocean","30","{""ArrowUp,ArrowLeft"":23,""ArrowUp,ArrowRight"":10,""ArrowDown,ArrowLeft"":8,""ArrowDown,ArrowRight"":30}","true","ArrowDown,ArrowRight","false","","","revaluation","1","66","","",""
"html-keyboard-response","189","1042033","0.0-4.0-2.0-1.33","spark_pilot_2","9133","2","7","Female","","","","","","","null","<div style=""font-size:60px;"">+</div>","null","fixation","","","","","","","","","","","67","","",""
"revaluation","190","1048043","0.0-4.0-2.0-0.34","spark_pilot_2","9133","2","7","Female","","false","","","","","[1084.8999999985099,466.69999999925494]","./assets/img/ocean/memory/9.jpg","[""ArrowDown"",""ArrowRight""]","value training","ocean","30","{""ArrowUp,ArrowLeft"":23,""ArrowUp,ArrowRight"":10,""ArrowDown,ArrowLeft"":8,""ArrowDown,ArrowRight"":30}","true","ArrowDown,ArrowRight","false","","","revaluation","1","68","","",""
"html-keyboard-response","191","1048547","0.0-4.0-2.0-1.34","spark_pilot_2","9133","2","7","Female","","","","","","","null","<div style=""font-size:60px;"">+</div>","null","fixation","","","","","","","","","","","69","","",""
"revaluation","192","1054556","0.0-4.0-2.0-0.35","spark_pilot_2","9133","2","7","Female","","false","","","","","[891.0999999977648,346.19999999925494]","./assets/img/ocean/memory/1.jpg","[""ArrowDown"",""ArrowRight""]","value training","ocean","30","{""ArrowUp,ArrowLeft"":23,""ArrowUp,ArrowRight"":10,""ArrowDown,ArrowLeft"":8,""ArrowDown,ArrowRight"":30}","true","ArrowDown,ArrowRight","false","","","revaluation","1","70","","",""
"html-keyboard-response","193","1055060","0.0-4.0-2.0-1.35","spark_pilot_2","9133","2","7","Female","","","","","","","null","<div style=""font-size:60px;"">+</div>","null","fixation","","","","","","","","","","","71","","",""
"revaluation","194","1061070","0.0-4.0-2.0-0.36","spark_pilot_2","9133","2","7","Female","","false","","","","","[756.8000000007451,305.0999999977648]","./assets/img/ocean/memory/36.jpg","[""ArrowDown"",""ArrowRight""]","value training","ocean","30","{""ArrowUp,ArrowLeft"":23,""ArrowUp,ArrowRight"":10,""ArrowDown,ArrowLeft"":8,""ArrowDown,ArrowRight"":30}","true","ArrowDown,ArrowRight","false","","","revaluation","1","72","","",""
"html-keyboard-response","195","1061571","0.0-4.0-2.0-1.36","spark_pilot_2","9133","2","7","Female","","","","","","","null","<div style=""font-size:60px;"">+</div>","null","fixation","","","","","","","","","","","73","","",""
"revaluation","196","1067578","0.0-4.0-2.0-0.37","spark_pilot_2","9133","2","7","Female","","false","","","","","[1035.8999999985099,397.0999999977648]","./assets/img/ocean/memory/39.jpg","[""ArrowDown"",""ArrowRight""]","value training","ocean","30","{""ArrowUp,ArrowLeft"":23,""ArrowUp,ArrowRight"":10,""ArrowDown,ArrowLeft"":8,""ArrowDown,ArrowRight"":30}","true","ArrowDown,ArrowRight","false","","","revaluation","1","74","","",""
"html-keyboard-response","197","1068080","0.0-4.0-2.0-1.37","spark_pilot_2","9133","2","7","Female","","","","","","","null","<div style=""font-size:60px;"">+</div>","null","fixation","","","","","","","","","","","75","","",""
"revaluation","198","1074091","0.0-4.0-2.0-0.38","spark_pilot_2","9133","2","7","Female","","false","","","","","[462.0999999977648,398.80000000074506]","./assets/img/ocean/memory/12.jpg","[""ArrowUp"",""ArrowLeft""]","value training","ocean","23","{""ArrowUp,ArrowLeft"":23,""ArrowUp,ArrowRight"":10,""ArrowDown,ArrowLeft"":8,""ArrowDown,ArrowRight"":30}","false","ArrowUp,ArrowLeft","false","","","revaluation","1","76","","",""
"html-keyboard-response","199","1074593","0.0-4.0-2.0-1.38","spark_pilot_2","9133","2","7","Female","","","","","","","null","<div style=""font-size:60px;"">+</div>","null","fixation","","","","","","","","","","","77","","",""
"revaluation","200","1080600","0.0-4.0-2.0-0.39","spark_pilot_2","9133","2","7","Female","","false","","","","","[701,170.40000000223517]","./assets/img/ocean/memory/23.jpg","[""ArrowUp"",""ArrowLeft""]","value training","ocean","23","{""ArrowUp,ArrowLeft"":23,""ArrowUp,ArrowRight"":10,""ArrowDown,ArrowLeft"":8,""ArrowDown,ArrowRight"":30}","false","ArrowUp,ArrowLeft","false","","","revaluation","1","78","","",""
"html-keyboard-response","201","1081102","0.0-4.0-2.0-1.39","spark_pilot_2","9133","2","7","Female","","","","","","","null","<div style=""font-size:60px;"">+</div>","null","fixation","","","","","","","","","","","79","","",""
"revaluation","202","1087112","0.0-4.0-2.0-0.40","spark_pilot_2","9133","2","7","Female","","false","","","","","[542.1000000014901,375.9000000022352]","./assets/img/ocean/memory/1.jpg","[""ArrowDown"",""ArrowRight""]","value training","ocean","30","{""ArrowUp,ArrowLeft"":23,""ArrowUp,ArrowRight"":10,""ArrowDown,ArrowLeft"":8,""ArrowDown,ArrowRight"":30}","true","ArrowDown,ArrowRight","false","","","revaluation","1","80","","",""
"html-keyboard-response","203","1087615","0.0-4.0-2.0-1.40","spark_pilot_2","9133","2","7","Female","","","","","","","null","<div style=""font-size:60px;"">+</div>","null","fixation","","","","","","","","","","","81","","",""
"revaluation","204","1093623","0.0-4.0-2.0-0.41","spark_pilot_2","9133","2","7","Female","","false","","","","","[654.8999999985099,414.3999999985099]","./assets/img/ocean/memory/28.jpg","[""ArrowDown"",""ArrowRight""]","value training","ocean","30","{""ArrowUp,ArrowLeft"":23,""ArrowUp,ArrowRight"":10,""ArrowDown,ArrowLeft"":8,""ArrowDown,ArrowRight"":30}","true","ArrowDown,ArrowRight","false","","","revaluation","1","82","","",""
"html-keyboard-response","205","1094126","0.0-4.0-2.0-1.41","spark_pilot_2","9133","2","7","Female","","","","","","","null","<div style=""font-size:60px;"">+</div>","null","fixation","","","","","","","","","","","83","","",""
"revaluation","206","1100135","0.0-4.0-2.0-0.42","spark_pilot_2","9133","2","7","Female","","false","","","","","[441.1000000014901,350.80000000074506]","./assets/img/ocean/memory/24.jpg","[""ArrowUp"",""ArrowLeft""]","value training","ocean","23","{""ArrowUp,ArrowLeft"":23,""ArrowUp,ArrowRight"":10,""ArrowDown,ArrowLeft"":8,""ArrowDown,ArrowRight"":30}","false","ArrowUp,ArrowLeft","false","","","revaluation","1","84","","",""
"html-keyboard-response","207","1100636","0.0-4.0-2.0-1.42","spark_pilot_2","9133","2","7","Female","","","","","","","null","<div style=""font-size:60px;"">+</div>","null","fixation","","","","","","","","","","","85","","",""
"revaluation","208","1106646","0.0-4.0-2.0-0.43","spark_pilot_2","9133","2","7","Female","","false","","","","","[960.5,399.4000000022352]","./assets/img/ocean/memory/31.jpg","[""ArrowDown"",""ArrowRight""]","value training","ocean","30","{""ArrowUp,ArrowLeft"":23,""ArrowUp,ArrowRight"":10,""ArrowDown,ArrowLeft"":8,""ArrowDown,ArrowRight"":30}","true","ArrowDown,ArrowRight","false","","","revaluation","1","86","","",""
"html-keyboard-response","209","1107149","0.0-4.0-2.0-1.43","spark_pilot_2","9133","2","7","Female","","","","","","","null","<div style=""font-size:60px;"">+</div>","null","fixation","","","","","","","","","","","87","","",""
"revaluation","210","1113155","0.0-4.0-2.0-0.44","spark_pilot_2","9133","2","7","Female","","false","","","","","[988.3000000007451,371.30000000074506]","./assets/img/ocean/memory/20.jpg","[""ArrowUp"",""ArrowLeft""]","value training","ocean","23","{""ArrowUp,ArrowLeft"":23,""ArrowUp,ArrowRight"":10,""ArrowDown,ArrowLeft"":8,""ArrowDown,ArrowRight"":30}","false","ArrowUp,ArrowLeft","false","","","revaluation","1","88","","",""
"html-keyboard-response","211","1113657","0.0-4.0-2.0-1.44","spark_pilot_2","9133","2","7","Female","","","","","","","null","<div style=""font-size:60px;"">+</div>","null","fixation","","","","","","","","","","","89","","",""
"revaluation","212","1117665","0.0-4.0-2.0-0.45","spark_pilot_2","9133","2","7","Female","","false","","","","","[436.5]","./assets/img/ocean/catch/2.jpg","[""ArrowDown""]","value training","ocean","-10","{""ArrowUp,ArrowLeft"":23,""ArrowUp,ArrowRight"":10,""ArrowDown,ArrowLeft"":8,""ArrowDown,ArrowRight"":30}","false","ArrowDown","true","","","revaluation","1","90","","",""
"html-keyboard-response","213","1118167","0.0-4.0-2.0-1.45","spark_pilot_2","9133","2","7","Female","","","","","","","null","<div style=""font-size:60px;"">+</div>","null","fixation","","","","","","","","","","","91","","",""
"revaluation","214","1124176","0.0-4.0-2.0-0.46","spark_pilot_2","9133","2","7","Female","","false","","","","","[1223.6000000014901,773]","./assets/img/ocean/memory/15.jpg","[""ArrowDown"",""ArrowRight""]","value training","ocean","30","{""ArrowUp,ArrowLeft"":23,""ArrowUp,ArrowRight"":10,""ArrowDown,ArrowLeft"":8,""ArrowDown,ArrowRight"":30}","true","ArrowDown,ArrowRight","false","","","revaluation","1","92","","",""
"html-keyboard-response","215","1124679","0.0-4.0-2.0-1.46","spark_pilot_2","9133","2","7","Female","","","","","","","null","<div style=""font-size:60px;"">+</div>","null","fixation","","","","","","","","","","","93","","",""
"revaluation","216","1130689","0.0-4.0-2.0-0.47","spark_pilot_2","9133","2","7","Female","","false","","","","","[541.6999999992549,543.6999999992549]","./assets/img/ocean/memory/13.jpg","[""ArrowDown"",""ArrowRight""]","value training","ocean","30","{""ArrowUp,ArrowLeft"":23,""ArrowUp,ArrowRight"":10,""ArrowDown,ArrowLeft"":8,""ArrowDown,ArrowRight"":30}","true","ArrowDown,ArrowRight","false","","","revaluation","1","94","","",""
"html-keyboard-response","217","1131192","0.0-4.0-2.0-1.47","spark_pilot_2","9133","2","7","Female","","","","","","","null","<div style=""font-size:60px;"">+</div>","null","fixation","","","","","","","","","","","95","","",""
"revaluation","218","1137201","0.0-4.0-2.0-0.48","spark_pilot_2","9133","2","7","Female","","false","","","","","[573.3999999985099,1058.2000000029802]","./assets/img/ocean/memory/16.jpg","[""ArrowDown"",""ArrowRight""]","value training","ocean","30","{""ArrowUp,ArrowLeft"":23,""ArrowUp,ArrowRight"":10,""ArrowDown,ArrowLeft"":8,""ArrowDown,ArrowRight"":30}","true","ArrowDown,ArrowRight","false","","","revaluation","1","96","","",""
"html-keyboard-response","219","1137704","0.0-4.0-2.0-1.48","spark_pilot_2","9133","2","7","Female","","","","","","","null","<div style=""font-size:60px;"">+</div>","null","fixation","","","","","","","","","","","97","","",""
"revaluation","220","1141710","0.0-4.0-2.0-0.49","spark_pilot_2","9133","2","7","Female","","false","","","","","[533.8000000007451]","./assets/img/ocean/catch/6.jpg","[""spaceBar""]","value training","ocean","0","{""ArrowUp,ArrowLeft"":23,""ArrowUp,ArrowRight"":10,""ArrowDown,ArrowLeft"":8,""ArrowDown,ArrowRight"":30}","true","spaceBar","true","","","revaluation","1","98","","",""
"html-keyboard-response","221","1142214","0.0-4.0-2.0-1.49","spark_pilot_2","9133","2","7","Female","","","","","","","null","<div style=""font-size:60px;"">+</div>","null","fixation","","","","","","","","","","","99","","",""
"learning-instructions","222","1160114","0.0-4.0-3.0-0.0","spark_pilot_2","9133","2","7","Female","","","","","","","4975","<p> Now, you will travel with a friend who will choose whether you go up or down first. </p>
            <p> On these turns, you will just see the animal that they found. You will still get to choose which chest to search for treasure.</p>","","instructions","","","","","","","","","","","","","",""
"revaluation","223","1164142","0.0-4.0-4.0-0.0","spark_pilot_2","9133","2","7","Female","","false","","","","","[1470]","./assets/img/ocean/animals/seahorse.jpg","[""ArrowRight""]","revaluation","ocean","7","{""ArrowUp,ArrowLeft"":27,""ArrowUp,ArrowRight"":15,""ArrowDown,ArrowLeft"":21,""ArrowDown,ArrowRight"":7}","false","ArrowDown,ArrowRight","","","","revaluation","1","0","","",""
"html-keyboard-response","224","1164663","0.0-4.0-4.0-1.0","spark_pilot_2","9133","2","7","Female","","","","","","","null","<div style=""font-size:60px;"">+</div>","null","fixation","","","","","","","","","","","1","","",""
"revaluation","225","1168679","0.0-4.0-4.0-0.1","spark_pilot_2","9133","2","7","Female","","false","","","","","[1160.800000000745]","./assets/img/ocean/animals/octopus.jpg","[""ArrowLeft""]","revaluation","ocean","27","{""ArrowUp,ArrowLeft"":27,""ArrowUp,ArrowRight"":15,""ArrowDown,ArrowLeft"":21,""ArrowDown,ArrowRight"":7}","true","ArrowUp,ArrowLeft","","","","revaluation","1","2","","",""
"html-keyboard-response","226","1169181","0.0-4.0-4.0-1.1","spark_pilot_2","9133","2","7","Female","","","","","","","null","<div style=""font-size:60px;"">+</div>","null","fixation","","","","","","","","","","","3","","",""
"revaluation","227","1173189","0.0-4.0-4.0-0.2","spark_pilot_2","9133","2","7","Female","","false","","","","","[702.8000000007451]","./assets/img/ocean/animals/octopus.jpg","[""ArrowLeft""]","revaluation","ocean","27","{""ArrowUp,ArrowLeft"":27,""ArrowUp,ArrowRight"":15,""ArrowDown,ArrowLeft"":21,""ArrowDown,ArrowRight"":7}","true","ArrowUp,ArrowLeft","","","","revaluation","1","4","","",""
"html-keyboard-response","228","1173692","0.0-4.0-4.0-1.2","spark_pilot_2","9133","2","7","Female","","","","","","","null","<div style=""font-size:60px;"">+</div>","null","fixation","","","","","","","","","","","5","","",""
"revaluation","229","1177700","0.0-4.0-4.0-0.3","spark_pilot_2","9133","2","7","Female","","false","","","","","[897.1000000014901]","./assets/img/ocean/animals/seahorse.jpg","[""ArrowLeft""]","revaluation","ocean","21","{""ArrowUp,ArrowLeft"":27,""ArrowUp,ArrowRight"":15,""ArrowDown,ArrowLeft"":21,""ArrowDown,ArrowRight"":7}","true","ArrowDown,ArrowLeft","","","","revaluation","1","6","","",""
"html-keyboard-response","230","1178214","0.0-4.0-4.0-1.3","spark_pilot_2","9133","2","7","Female","","","","","","","null","<div style=""font-size:60px;"">+</div>","null","fixation","","","","","","","","","","","7","","",""
"revaluation","231","1182227","0.0-4.0-4.0-0.4","spark_pilot_2","9133","2","7","Female","","false","","","","","[1094.300000000745]","./assets/img/ocean/animals/octopus.jpg","[""ArrowRight""]","revaluation","ocean","15","{""ArrowUp,ArrowLeft"":27,""ArrowUp,ArrowRight"":15,""ArrowDown,ArrowLeft"":21,""ArrowDown,ArrowRight"":7}","false","ArrowUp,ArrowRight","","","","revaluation","1","8","","",""
"html-keyboard-response","232","1182729","0.0-4.0-4.0-1.4","spark_pilot_2","9133","2","7","Female","","","","","","","null","<div style=""font-size:60px;"">+</div>","null","fixation","","","","","","","","","","","9","","",""
"revaluation","233","1186737","0.0-4.0-4.0-0.5","spark_pilot_2","9133","2","7","Female","","false","","","","","[1127.199999999255]","./assets/img/ocean/animals/seahorse.jpg","[""ArrowLeft""]","revaluation","ocean","21","{""ArrowUp,ArrowLeft"":27,""ArrowUp,ArrowRight"":15,""ArrowDown,ArrowLeft"":21,""ArrowDown,ArrowRight"":7}","true","ArrowDown,ArrowLeft","","","","revaluation","1","10","","",""
"html-keyboard-response","234","1187239","0.0-4.0-4.0-1.5","spark_pilot_2","9133","2","7","Female","","","","","","","null","<div style=""font-size:60px;"">+</div>","null","fixation","","","","","","","","","","","11","","",""
"revaluation","235","1191246","0.0-4.0-4.0-0.6","spark_pilot_2","9133","2","7","Female","","false","","","","","[1065.1000000014901]","./assets/img/ocean/animals/seahorse.jpg","[""ArrowLeft""]","revaluation","ocean","21","{""ArrowUp,ArrowLeft"":27,""ArrowUp,ArrowRight"":15,""ArrowDown,ArrowLeft"":21,""ArrowDown,ArrowRight"":7}","true","ArrowDown,ArrowLeft","","","","revaluation","1","12","","",""
"html-keyboard-response","236","1191749","0.0-4.0-4.0-1.6","spark_pilot_2","9133","2","7","Female","","","","","","","null","<div style=""font-size:60px;"">+</div>","null","fixation","","","","","","","","","","","13","","",""
"revaluation","237","1195754","0.0-4.0-4.0-0.7","spark_pilot_2","9133","2","7","Female","","false","","","","","[1293.5999999977648]","./assets/img/ocean/animals/octopus.jpg","[""ArrowRight""]","revaluation","ocean","15","{""ArrowUp,ArrowLeft"":27,""ArrowUp,ArrowRight"":15,""ArrowDown,ArrowLeft"":21,""ArrowDown,ArrowRight"":7}","false","ArrowUp,ArrowRight","","","","revaluation","1","14","","",""
"html-keyboard-response","238","1196255","0.0-4.0-4.0-1.7","spark_pilot_2","9133","2","7","Female","","","","","","","null","<div style=""font-size:60px;"">+</div>","null","fixation","","","","","","","","","","","15","","",""
"revaluation","239","1200263","0.0-4.0-4.0-0.8","spark_pilot_2","9133","2","7","Female","","false","","","","","[1221]","./assets/img/ocean/animals/octopus.jpg","[""ArrowLeft""]","revaluation","ocean","27","{""ArrowUp,ArrowLeft"":27,""ArrowUp,ArrowRight"":15,""ArrowDown,ArrowLeft"":21,""ArrowDown,ArrowRight"":7}","true","ArrowUp,ArrowLeft","","","","revaluation","1","16","","",""
"html-keyboard-response","240","1200765","0.0-4.0-4.0-1.8","spark_pilot_2","9133","2","7","Female","","","","","","","null","<div style=""font-size:60px;"">+</div>","null","fixation","","","","","","","","","","","17","","",""
"revaluation","241","1204771","0.0-4.0-4.0-0.9","spark_pilot_2","9133","2","7","Female","","false","","","","","[627.1000000014901]","./assets/img/ocean/animals/seahorse.jpg","[""ArrowLeft""]","revaluation","ocean","21","{""ArrowUp,ArrowLeft"":27,""ArrowUp,ArrowRight"":15,""ArrowDown,ArrowLeft"":21,""ArrowDown,ArrowRight"":7}","true","ArrowDown,ArrowLeft","","","","revaluation","1","18","","",""
"html-keyboard-response","242","1205273","0.0-4.0-4.0-1.9","spark_pilot_2","9133","2","7","Female","","","","","","","null","<div style=""font-size:60px;"">+</div>","null","fixation","","","","","","","","","","","19","","",""
"revaluation","243","1209282","0.0-4.0-4.0-0.10","spark_pilot_2","9133","2","7","Female","","false","","","","","[715.2999999970198]","./assets/img/ocean/animals/octopus.jpg","[""ArrowLeft""]","revaluation","ocean","27","{""ArrowUp,ArrowLeft"":27,""ArrowUp,ArrowRight"":15,""ArrowDown,ArrowLeft"":21,""ArrowDown,ArrowRight"":7}","true","ArrowUp,ArrowLeft","","","","revaluation","1","20","","",""
"html-keyboard-response","244","1209784","0.0-4.0-4.0-1.10","spark_pilot_2","9133","2","7","Female","","","","","","","null","<div style=""font-size:60px;"">+</div>","null","fixation","","","","","","","","","","","21","","",""
"revaluation","245","1213788","0.0-4.0-4.0-0.11","spark_pilot_2","9133","2","7","Female","","false","","","","","[849.0999999977648]","./assets/img/ocean/animals/octopus.jpg","[""ArrowRight""]","revaluation","ocean","15","{""ArrowUp,ArrowLeft"":27,""ArrowUp,ArrowRight"":15,""ArrowDown,ArrowLeft"":21,""ArrowDown,ArrowRight"":7}","false","ArrowUp,ArrowRight","","","","revaluation","1","22","","",""
"html-keyboard-response","246","1214289","0.0-4.0-4.0-1.11","spark_pilot_2","9133","2","7","Female","","","","","","","null","<div style=""font-size:60px;"">+</div>","null","fixation","","","","","","","","","","","23","","",""
"revaluation","247","1218298","0.0-4.0-4.0-0.12","spark_pilot_2","9133","2","7","Female","","false","","","","","[619.5]","./assets/img/ocean/animals/seahorse.jpg","[""ArrowLeft""]","revaluation","ocean","21","{""ArrowUp,ArrowLeft"":27,""ArrowUp,ArrowRight"":15,""ArrowDown,ArrowLeft"":21,""ArrowDown,ArrowRight"":7}","true","ArrowDown,ArrowLeft","","","","revaluation","1","24","","",""
"html-keyboard-response","248","1218800","0.0-4.0-4.0-1.12","spark_pilot_2","9133","2","7","Female","","","","","","","null","<div style=""font-size:60px;"">+</div>","null","fixation","","","","","","","","","","","25","","",""
"revaluation","249","1222805","0.0-4.0-4.0-0.13","spark_pilot_2","9133","2","7","Female","","false","","","","","[800.5]","./assets/img/ocean/animals/seahorse.jpg","[""ArrowLeft""]","revaluation","ocean","21","{""ArrowUp,ArrowLeft"":27,""ArrowUp,ArrowRight"":15,""ArrowDown,ArrowLeft"":21,""ArrowDown,ArrowRight"":7}","true","ArrowDown,ArrowLeft","","","","revaluation","1","26","","",""
"html-keyboard-response","250","1223307","0.0-4.0-4.0-1.13","spark_pilot_2","9133","2","7","Female","","","","","","","null","<div style=""font-size:60px;"">+</div>","null","fixation","","","","","","","","","","","27","","",""
"revaluation","251","1227315","0.0-4.0-4.0-0.14","spark_pilot_2","9133","2","7","Female","","false","","","","","[1314.6000000014901]","./assets/img/ocean/animals/octopus.jpg","[""ArrowLeft""]","revaluation","ocean","27","{""ArrowUp,ArrowLeft"":27,""ArrowUp,ArrowRight"":15,""ArrowDown,ArrowLeft"":21,""ArrowDown,ArrowRight"":7}","true","ArrowUp,ArrowLeft","","","","revaluation","1","28","","",""
"html-keyboard-response","252","1227818","0.0-4.0-4.0-1.14","spark_pilot_2","9133","2","7","Female","","","","","","","null","<div style=""font-size:60px;"">+</div>","null","fixation","","","","","","","","","","","29","","",""
"revaluation","253","1231824","0.0-4.0-4.0-0.15","spark_pilot_2","9133","2","7","Female","","false","","","","","[1293.699999999255]","./assets/img/ocean/animals/seahorse.jpg","[""ArrowLeft""]","revaluation","ocean","21","{""ArrowUp,ArrowLeft"":27,""ArrowUp,ArrowRight"":15,""ArrowDown,ArrowLeft"":21,""ArrowDown,ArrowRight"":7}","true","ArrowDown,ArrowLeft","","","","revaluation","1","30","","",""
"html-keyboard-response","254","1232326","0.0-4.0-4.0-1.15","spark_pilot_2","9133","2","7","Female","","","","","","","null","<div style=""font-size:60px;"">+</div>","null","fixation","","","","","","","","","","","31","","",""
"revaluation","255","1236335","0.0-4.0-4.0-0.16","spark_pilot_2","9133","2","7","Female","","false","","","","","[1384.5]","./assets/img/ocean/animals/seahorse.jpg","[""ArrowLeft""]","revaluation","ocean","21","{""ArrowUp,ArrowLeft"":27,""ArrowUp,ArrowRight"":15,""ArrowDown,ArrowLeft"":21,""ArrowDown,ArrowRight"":7}","true","ArrowDown,ArrowLeft","","","","revaluation","1","32","","",""
"html-keyboard-response","256","1236838","0.0-4.0-4.0-1.16","spark_pilot_2","9133","2","7","Female","","","","","","","null","<div style=""font-size:60px;"">+</div>","null","fixation","","","","","","","","","","","33","","",""
"revaluation","257","1240844","0.0-4.0-4.0-0.17","spark_pilot_2","9133","2","7","Female","","false","","","","","[505.6000000014901]","./assets/img/ocean/animals/octopus.jpg","[""ArrowRight""]","revaluation","ocean","15","{""ArrowUp,ArrowLeft"":27,""ArrowUp,ArrowRight"":15,""ArrowDown,ArrowLeft"":21,""ArrowDown,ArrowRight"":7}","false","ArrowUp,ArrowRight","","","","revaluation","1","34","","",""
"html-keyboard-response","258","1241346","0.0-4.0-4.0-1.17","spark_pilot_2","9133","2","7","Female","","","","","","","null","<div style=""font-size:60px;"">+</div>","null","fixation","","","","","","","","","","","35","","",""
"learning-instructions","259","1301066","0.0-4.0-5.0-0.0","spark_pilot_2","9133","2","7","Female","","","","","","","48271.199999999255","<p> Time to play the dot game! </p>
            <p> For one minute, click the red dots on the following screen as they appear. </p>
            <p><b> Don't look away, as you will earn bonus for clicking dots</b>. </p>","","instructions","","","","","","","","","","","","","",""
"revaluation","260","1361070","0.0-4.0-6.0-0.0","spark_pilot_2","9133","2","7","Female","","","","","","","[181,207,173,223,332]","","","rest","","50","","","","","0","60000","","","","","",""
"learning-instructions","261","1369151","0.0-4.0-7.0-0.0","spark_pilot_2","9133","2","7","Female","","","","","","","1941.199999999255","<p> You have almost finished this part of the game! </p>
            <p> We are going to ask you to make a few more choices. </p>","","instructions","","","","","","","","","","","","","",""
"learning-instructions","262","1387626","0.0-4.0-7.0-0.1","spark_pilot_2","9133","2","7","Female","","","","","","","4494.900000002235","<p> First, you need to decide whether to go up or down. When you see each picture, use the arrow keys to make your choice. </p>
            <p><b>You will not see which animal you found, but try to get to the one that will give you the most treasure.</b></p>","","instructions","","","","","","","","","","","","","",""
"revaluation","263","1389252","0.0-4.0-8.0-0.0","spark_pilot_2","9133","2","7","Female","","false","","","","","[1623.6000000014901]","./assets/img/ocean/test/1.jpg","[""ArrowDown""]","first stage test","ocean","0","{""ArrowUp,ArrowLeft"":27,""ArrowUp,ArrowRight"":15,""ArrowDown,ArrowLeft"":21,""ArrowDown,ArrowRight"":7}","false","ArrowDown","false","","","revaluation","1","","","",""
"html-keyboard-response","264","1389764","0.0-4.0-8.0-1.0","spark_pilot_2","9133","2","7","Female","","","","","","","null","<div style=""font-size:60px;"">+</div>","null","fixation","","","","","","","","","","","","","",""
"revaluation","265","1390899","0.0-4.0-8.0-0.1","spark_pilot_2","9133","2","7","Female","","false","","","","","[1129.1000000014901]","./assets/img/ocean/test/0.jpg","[""ArrowUp""]","first stage test","ocean","0","{""ArrowUp,ArrowLeft"":27,""ArrowUp,ArrowRight"":15,""ArrowDown,ArrowLeft"":21,""ArrowDown,ArrowRight"":7}","true","ArrowUp","false","","","revaluation","1","","","",""
"html-keyboard-response","266","1391406","0.0-4.0-8.0-1.1","spark_pilot_2","9133","2","7","Female","","","","","","","null","<div style=""font-size:60px;"">+</div>","null","fixation","","","","","","","","","","","","","",""
"revaluation","267","1392876","0.0-4.0-8.0-0.2","spark_pilot_2","9133","2","7","Female","","false","","","","","[1463.699999999255]","./assets/img/ocean/test/3.jpg","[""ArrowUp""]","first stage test","ocean","0","{""ArrowUp,ArrowLeft"":27,""ArrowUp,ArrowRight"":15,""ArrowDown,ArrowLeft"":21,""ArrowDown,ArrowRight"":7}","true","ArrowUp","false","","","revaluation","1","","","",""
"html-keyboard-response","268","1393379","0.0-4.0-8.0-1.2","spark_pilot_2","9133","2","7","Female","","","","","","","null","<div style=""font-size:60px;"">+</div>","null","fixation","","","","","","","","","","","","","",""
"revaluation","269","1394331","0.0-4.0-8.0-0.3","spark_pilot_2","9133","2","7","Female","","false","","","","","[945]","./assets/img/ocean/test/2.jpg","[""ArrowDown""]","first stage test","ocean","0","{""ArrowUp,ArrowLeft"":27,""ArrowUp,ArrowRight"":15,""ArrowDown,ArrowLeft"":21,""ArrowDown,ArrowRight"":7}","false","ArrowDown","false","","","revaluation","1","","","",""
"html-keyboard-response","270","1394836","0.0-4.0-8.0-1.3","spark_pilot_2","9133","2","7","Female","","","","","","","null","<div style=""font-size:60px;"">+</div>","null","fixation","","","","","","","","","","","","","",""
"learning-instructions","271","1408184","0.0-4.0-9.0-0.0","spark_pilot_2","9133","2","7","Female","","","","","","","2002.699999999255","<p> Now you will see the animals again and can search their chests for treasure. </p>
            <p> This time, you will not see how much treasure you earned, but you will earn more bonus money for making better choices. </p>","","instructions","","","","","","","","","","","","","",""
"revaluation","272","1409716","0.0-4.0-10.0-0.0","spark_pilot_2","9133","2","7","Female","","false","","","","","[1530.2999999970198]","./assets/img/ocean/animals/octopus.jpg","[""ArrowLeft""]","second stage test","ocean","0","{""ArrowUp,ArrowLeft"":27,""ArrowUp,ArrowRight"":15,""ArrowDown,ArrowLeft"":21,""ArrowDown,ArrowRight"":7}","true","ArrowUp,ArrowLeft","","","","revaluation","1","","","",""
"html-keyboard-response","273","1410232","0.0-4.0-10.0-1.0","spark_pilot_2","9133","2","7","Female","","","","","","","null","<div style=""font-size:60px;"">+</div>","null","fixation","","","","","","","","","","","","","",""
"revaluation","274","1411099","0.0-4.0-10.0-0.1","spark_pilot_2","9133","2","7","Female","","false","","","","","[859.3000000007451]","./assets/img/ocean/animals/octopus.jpg","[""ArrowLeft""]","second stage test","ocean","0","{""ArrowUp,ArrowLeft"":27,""ArrowUp,ArrowRight"":15,""ArrowDown,ArrowLeft"":21,""ArrowDown,ArrowRight"":7}","true","ArrowUp,ArrowLeft","","","","revaluation","1","","","",""
"html-keyboard-response","275","1411611","0.0-4.0-10.0-1.1","spark_pilot_2","9133","2","7","Female","","","","","","","null","<div style=""font-size:60px;"">+</div>","null","fixation","","","","","","","","","","","","","",""
"revaluation","276","1412251","0.0-4.0-10.0-0.2","spark_pilot_2","9133","2","7","Female","","false","","","","","[632.8999999985099]","./assets/img/ocean/animals/octopus.jpg","[""ArrowRight""]","second stage test","ocean","0","{""ArrowUp,ArrowLeft"":27,""ArrowUp,ArrowRight"":15,""ArrowDown,ArrowLeft"":21,""ArrowDown,ArrowRight"":7}","false","ArrowUp,ArrowRight","","","","revaluation","1","","","",""
"html-keyboard-response","277","1412755","0.0-4.0-10.0-1.2","spark_pilot_2","9133","2","7","Female","","","","","","","null","<div style=""font-size:60px;"">+</div>","null","fixation","","","","","","","","","","","","","",""
"revaluation","278","1413699","0.0-4.0-10.0-0.3","spark_pilot_2","9133","2","7","Female","","false","","","","","[937.3000000007451]","./assets/img/ocean/animals/octopus.jpg","[""ArrowLeft""]","second stage test","ocean","0","{""ArrowUp,ArrowLeft"":27,""ArrowUp,ArrowRight"":15,""ArrowDown,ArrowLeft"":21,""ArrowDown,ArrowRight"":7}","true","ArrowUp,ArrowLeft","","","","revaluation","1","","","",""
"html-keyboard-response","279","1414214","0.0-4.0-10.0-1.3","spark_pilot_2","9133","2","7","Female","","","","","","","null","<div style=""font-size:60px;"">+</div>","null","fixation","","","","","","","","","","","","","",""
"revaluation","280","1415156","0.0-4.0-10.0-0.4","spark_pilot_2","9133","2","7","Female","","false","","","","","[935.3000000007451]","./assets/img/ocean/animals/seahorse.jpg","[""ArrowRight""]","second stage test","ocean","0","{""ArrowUp,ArrowLeft"":27,""ArrowUp,ArrowRight"":15,""ArrowDown,ArrowLeft"":21,""ArrowDown,ArrowRight"":7}","false","ArrowDown,ArrowRight","","","","revaluation","1","","","",""
"html-keyboard-response","281","1415672","0.0-4.0-10.0-1.4","spark_pilot_2","9133","2","7","Female","","","","","","","null","<div style=""font-size:60px;"">+</div>","null","fixation","","","","","","","","","","","","","",""
"revaluation","282","1416323","0.0-4.0-10.0-0.5","spark_pilot_2","9133","2","7","Female","","false","","","","","[645.3000000007451]","./assets/img/ocean/animals/seahorse.jpg","[""ArrowLeft""]","second stage test","ocean","0","{""ArrowUp,ArrowLeft"":27,""ArrowUp,ArrowRight"":15,""ArrowDown,ArrowLeft"":21,""ArrowDown,ArrowRight"":7}","true","ArrowDown,ArrowLeft","","","","revaluation","1","","","",""
"html-keyboard-response","283","1416833","0.0-4.0-10.0-1.5","spark_pilot_2","9133","2","7","Female","","","","","","","null","<div style=""font-size:60px;"">+</div>","null","fixation","","","","","","","","","","","","","",""
"revaluation","284","1417275","0.0-4.0-10.0-0.6","spark_pilot_2","9133","2","7","Female","","false","","","","","[434.1000000014901]","./assets/img/ocean/animals/seahorse.jpg","[""ArrowRight""]","second stage test","ocean","0","{""ArrowUp,ArrowLeft"":27,""ArrowUp,ArrowRight"":15,""ArrowDown,ArrowLeft"":21,""ArrowDown,ArrowRight"":7}","false","ArrowDown,ArrowRight","","","","revaluation","1","","","",""
"html-keyboard-response","285","1417788","0.0-4.0-10.0-1.6","spark_pilot_2","9133","2","7","Female","","","","","","","null","<div style=""font-size:60px;"">+</div>","null","fixation","","","","","","","","","","","","","",""
"revaluation","286","1418252","0.0-4.0-10.0-0.7","spark_pilot_2","9133","2","7","Female","","false","","","","","[458.30000000074506]","./assets/img/ocean/animals/seahorse.jpg","[""ArrowLeft""]","second stage test","ocean","0","{""ArrowUp,ArrowLeft"":27,""ArrowUp,ArrowRight"":15,""ArrowDown,ArrowLeft"":21,""ArrowDown,ArrowRight"":7}","true","ArrowDown,ArrowLeft","","","","revaluation","1","","","",""
"html-keyboard-response","287","1418761","0.0-4.0-10.0-1.7","spark_pilot_2","9133","2","7","Female","","","","","","","null","<div style=""font-size:60px;"">+</div>","null","fixation","","","","","","","","","","","","","",""
"learning-instructions","288","1423862","0.0-4.0-0.1-0.2","spark_pilot_2","9133","2","7","Female","","","","","","","2311.300000000745","<p> This time you are searching for treasure in the <b>canyon</b>.</p>","","instructions","","","","","","","","","","","","","",""
"learning-instructions","289","1443730","0.0-4.0-0.1-0.3","spark_pilot_2","9133","2","7","Female","","","","","","","2618.89999999851","<p><b>New</b> animals with <b>new</b> treasure chests live here. You need to explore to discover where the animal with the best treasure chest is.</p>
                    <p> Like before, once you figure out which animal has the chest with the most treasure, you should try to get to that animal and select that chest! </p>","","instructions","","","","","","","","","","","","","",""
"learning-instructions","290","1461395","0.0-4.0-1.1-0.1","spark_pilot_2","9133","2","7","Female","","","","","","","2933.599999997765","<p> Remember, when you see a picture of the place, use the up and down keys to <b>find an animal</b>.</p>
            <p> When you encounter an animal, you should use the left and right keys to <b>select a treasure chest</b>.</p>
            <p> Don't forget to look out for the robber! </p>","","instructions","","","","","","","","","","","","","",""
"revaluation","291","1467407","0.0-4.0-2.1-0.50","spark_pilot_2","9133","2","7","Female","","false","","","","","[1639.4000000022352,1301.199999999255]","./assets/img/canyon/memory/16.jpg","[""ArrowUp"",""ArrowRight""]","value training","canyon","10","{""ArrowUp,ArrowLeft"":26,""ArrowUp,ArrowRight"":10,""ArrowDown,ArrowLeft"":5,""ArrowDown,ArrowRight"":17}","false","ArrowUp,ArrowRight","false","","","original","2","0","","",""
"html-keyboard-response","292","1467909","0.0-4.0-2.1-1.50","spark_pilot_2","9133","2","7","Female","","","","","","","null","<div style=""font-size:60px;"">+</div>","null","fixation","","","","","","","","","","","1","","",""
"revaluation","293","1473924","0.0-4.0-2.1-0.51","spark_pilot_2","9133","2","7","Female","","false","","","","","[896.3999999985099,1728.199999999255]","./assets/img/canyon/memory/40.jpg","[""ArrowUp"",""ArrowLeft""]","value training","canyon","26","{""ArrowUp,ArrowLeft"":26,""ArrowUp,ArrowRight"":10,""ArrowDown,ArrowLeft"":5,""ArrowDown,ArrowRight"":17}","true","ArrowUp,ArrowLeft","false","","","original","2","2","","",""
"html-keyboard-response","294","1474427","0.0-4.0-2.1-1.51","spark_pilot_2","9133","2","7","Female","","","","","","","null","<div style=""font-size:60px;"">+</div>","null","fixation","","","","","","","","","","","3","","",""
"revaluation","295","1480436","0.0-4.0-2.1-0.52","spark_pilot_2","9133","2","7","Female","","false","","","","","[1026.6000000014901,1249.4000000022352]","./assets/img/canyon/memory/11.jpg","[""ArrowUp"",""ArrowLeft""]","value training","canyon","26","{""ArrowUp,ArrowLeft"":26,""ArrowUp,ArrowRight"":10,""ArrowDown,ArrowLeft"":5,""ArrowDown,ArrowRight"":17}","true","ArrowUp,ArrowLeft","false","","","original","2","4","","",""
"html-keyboard-response","296","1480949","0.0-4.0-2.1-1.52","spark_pilot_2","9133","2","7","Female","","","","","","","null","<div style=""font-size:60px;"">+</div>","null","fixation","","","","","","","","","","","5","","",""
"revaluation","297","1484967","0.0-4.0-2.1-0.53","spark_pilot_2","9133","2","7","Female","","false","","","","","[1427.800000000745]","./assets/img/canyon/catch/3.jpg","[""spaceBar""]","value training","canyon","0","{""ArrowUp,ArrowLeft"":26,""ArrowUp,ArrowRight"":10,""ArrowDown,ArrowLeft"":5,""ArrowDown,ArrowRight"":17}","true","spaceBar","true","","","original","2","6","","",""
"html-keyboard-response","298","1485470","0.0-4.0-2.1-1.53","spark_pilot_2","9133","2","7","Female","","","","","","","null","<div style=""font-size:60px;"">+</div>","null","fixation","","","","","","","","","","","7","","",""
"revaluation","299","1489475","0.0-4.0-2.1-0.54","spark_pilot_2","9133","2","7","Female","","true","","","","","[]","./assets/img/canyon/memory/11.jpg","[]","value training","canyon","-5","{""ArrowUp,ArrowLeft"":26,""ArrowUp,ArrowRight"":10,""ArrowDown,ArrowLeft"":5,""ArrowDown,ArrowRight"":17}","false","","false","","","original","2","8","","",""
"html-keyboard-response","300","1489977","0.0-4.0-2.1-1.54","spark_pilot_2","9133","2","7","Female","","","","","","","null","<div style=""font-size:60px;"">+</div>","null","fixation","","","","","","","","","","","9","","",""
"revaluation","301","1495987","0.0-4.0-2.1-0.55","spark_pilot_2","9133","2","7","Female","","false","","","","","[804.1000000014901,1180]","./assets/img/canyon/memory/13.jpg","[""ArrowDown"",""ArrowRight""]","value training","canyon","17","{""ArrowUp,ArrowLeft"":26,""ArrowUp,ArrowRight"":10,""ArrowDown,ArrowLeft"":5,""ArrowDown,ArrowRight"":17}","false","ArrowDown,ArrowRight","false","","","original","2","10","","",""
"html-keyboard-response","302","1496489","0.0-4.0-2.1-1.55","spark_pilot_2","9133","2","7","Female","","","","","","","null","<div style=""font-size:60px;"">+</div>","null","fixation","","","","","","","","","","","11","","",""
"revaluation","303","1500497","0.0-4.0-2.1-0.56","spark_pilot_2","9133","2","7","Female","","false","","","","","[1091.5]","./assets/img/canyon/catch/1.jpg","[""spaceBar""]","value training","canyon","0","{""ArrowUp,ArrowLeft"":26,""ArrowUp,ArrowRight"":10,""ArrowDown,ArrowLeft"":5,""ArrowDown,ArrowRight"":17}","true","spaceBar","true","","","original","2","12","","",""
"html-keyboard-response","304","1500999","0.0-4.0-2.1-1.56","spark_pilot_2","9133","2","7","Female","","","","","","","null","<div style=""font-size:60px;"">+</div>","null","fixation","","","","","","","","","","","13","","",""
"revaluation","305","1507023","0.0-4.0-2.1-0.57","spark_pilot_2","9133","2","7","Female","","false","","","","","[1268.2999999970198,1685.3999999985099]","./assets/img/canyon/memory/39.jpg","[""ArrowUp"",""ArrowLeft""]","value training","canyon","26","{""ArrowUp,ArrowLeft"":26,""ArrowUp,ArrowRight"":10,""ArrowDown,ArrowLeft"":5,""ArrowDown,ArrowRight"":17}","true","ArrowUp,ArrowLeft","false","","","original","2","14","","",""
"html-keyboard-response","306","1507527","0.0-4.0-2.1-1.57","spark_pilot_2","9133","2","7","Female","","","","","","","null","<div style=""font-size:60px;"">+</div>","null","fixation","","","","","","","","","","","15","","",""
"revaluation","307","1513537","0.0-4.0-2.1-0.58","spark_pilot_2","9133","2","7","Female","","false","","","","","[1060,1117.4000000022352]","./assets/img/canyon/memory/41.jpg","[""ArrowUp"",""ArrowLeft""]","value training","canyon","26","{""ArrowUp,ArrowLeft"":26,""ArrowUp,ArrowRight"":10,""ArrowDown,ArrowLeft"":5,""ArrowDown,ArrowRight"":17}","true","ArrowUp,ArrowLeft","false","","","original","2","16","","",""
