"trial_type","trial_index","time_elapsed","internal_node_id","task_version","subject_id","assigned_condition","age","gender","success","timeout","failed_images","failed_audio","failed_video","browser_interaction","rt","stimulus","response","task_part","environment","score","rewardMap","correct","fullState","isCatch","numberMissed","duration","condition","order","trial_num","key_press","ground_truth","bonus"
"pavlovia","0","1339","0.0-0.0","spark_pilot_2","7099","6","7","Male","","","","","","","","","","","","","","","","","","","","","","","",""
"preload","1","14504","0.0-1.0","spark_pilot_2","7099","6","7","Male","true","false","[]","[]","[]","[{""event"":""fullscreenenter"",""trial"":2,""time"":34097}]","","","","","","","","","","","","","","","","","",""
"fullscreen","2","35055","0.0-2.0","spark_pilot_2","7099","6","7","Male","true","","","","","","","","","","","","","","","","","","","","","","",""
"audio-button-response","3","39542","0.0-3.0-0.0-0.0","spark_pilot_2","7099","6","7","Male","","","","","","","4331","./assets/audio/audiotest/turtle.mp3","2","audio_test","","","","","","","","","","","","","",""
"learning-instructions","4","49968","0.0-3.0-1.0-0.0","spark_pilot_2","7099","6","7","Male","","","","","","","3398.2999999523163","<p> Welcome! Please remember to stay in fullscreen mode and don't click away from the experiment. </p>","","instructions","","","","","","","","","","","","","",""
"learning-instructions","5","59804","0.0-3.0-1.0-0.1","spark_pilot_2","7099","6","7","Male","","","","","","","1415.6999998092651","<p> Today you will be playing a game to earn treasure. </p>
            <p> At the end of the experiment, you will earn a bonus based on how much treasure you find. </p>
            <img src='./assets/img/instructions/treasure.jpg' class='instructions-image'>","","instructions","","","","","","","","","","","","","",""
"learning-instructions","6","69414","0.0-3.0-1.0-0.2","spark_pilot_2","7099","6","7","Male","","","","","","","1323.2000000476837","<p> Animals have hidden treasure in treasure chests. </p>
            <p> You need to first find an animal and then choose which of their treasure chests to search. </p>
            <img src='./assets/img/space/animals/cat.jpg' class='instructions-image'>","","instructions","","","","","","","","","","","","","",""
"learning-instructions","7","83637","0.0-3.0-1.0-0.3","spark_pilot_2","7099","6","7","Male","","","","","","","1048","<p> In each round, you will search for treasure in a different place. In the real game, there will be two rounds. </p>
            <p> You will begin with a separate, practice round where you will search for treasure in outer space. </p>
            <img src='./assets/img/space/0.jpg' class='instructions-image'>","","instructions","","","","","","","","","","","","","",""
"learning-instructions","8","95968","0.0-3.0-1.0-0.4","spark_pilot_2","7099","6","7","Male","","","","","","","898.2999999523163","<p> On every turn, you will see a picture of the place that you are in, but the specific image may be different each time. </p>
            <p> For example, both of these images mean you are in outer space. </p>
            <img src='./assets/img/instructions/outerspace.jpg' class='instructions-image'>","","instructions","","","","","","","","","","","","","",""
"learning-instructions","9","106410","0.0-3.0-1.0-0.5","spark_pilot_2","7099","6","7","Male","","","","","","","2599","<p> You need to decide which direction to travel in. </p>
            <p> You can choose between going <b>up or down</b> by using the arrow keys. </p>
            <img src='./assets/img/instructions/updown.jpg' class='instructions-image'>","","instructions","","","","","","","","","","","","","",""
"learning-instructions","10","147389","0.0-3.0-1.0-0.6","spark_pilot_2","7099","6","7","Male","","","","","","","32159.700000047684","<p> You will have <b>2 seconds</b> to make your choice. </p>
            <p> If you do not make a choice within 2 seconds, you will not find an animal or earn treasure. </p>
            <img src='./assets/img/instructions/2seconds.jpg' class='instructions-image'>","","instructions","","","","","","","","","","","","","",""
"learning-instructions","11","157952","0.0-3.0-1.0-0.7","spark_pilot_2","7099","6","7","Male","","","","","","","3511.2999999523163","<p> Let’s try practicing that now! </p>
            <p> When you see a picture of the place you are in, press the <b>up</b> key to travel up. </p>
            <img src='./assets/img/instructions/pressUp.jpg' class='instructions-image'>","","instructions","","","","","","","","","","","","","",""
"revaluation","12","161971","0.0-3.0-2.0-0.0","spark_pilot_2","7099","6","7","Male","","false","","","","","[1746.9000000953674]","./assets/img/space/0.jpg","[""ArrowUp""]","first stage practice","space","0","null","null","ArrowUp","false","","","","","","","",""
"html-keyboard-response","13","162476","0.0-3.0-2.0-1.0","spark_pilot_2","7099","6","7","Male","","","","","","","null","<div style=""font-size:60px;"">+</div>","null","fixation","","","","","","","","","","","","","",""
"revaluation","14","166498","0.0-3.0-2.0-0.1","spark_pilot_2","7099","6","7","Male","","true","","","","","[]","./assets/img/space/1.jpg","[]","first stage practice","space","-5","null","null","","false","","","","","","","",""
"html-keyboard-response","15","167006","0.0-3.0-2.0-1.1","spark_pilot_2","7099","6","7","Male","","","","","","","null","<div style=""font-size:60px;"">+</div>","null","fixation","","","","","","","","","","","","","",""
"revaluation","16","171042","0.0-3.0-2.0-0.2","spark_pilot_2","7099","6","7","Male","","true","","","","","[]","./assets/img/space/2.jpg","[]","first stage practice","space","-5","null","null","","false","","","","","","","",""
"html-keyboard-response","17","171557","0.0-3.0-2.0-1.2","spark_pilot_2","7099","6","7","Male","","","","","","","null","<div style=""font-size:60px;"">+</div>","null","fixation","","","","","","","","","","","","","",""
"learning-instructions","18","178600","0.0-3.0-3.0-0.0","spark_pilot_2","7099","6","7","Male","","","","","","","2301.7999999523163","<p> Great job! Now try pressing the <b>down</b> key to travel down. </p>
            <img src='./assets/img/instructions/pressDown.jpg' class='instructions-image'>","","instructions","","","","","","","","","","","","","",""
"revaluation","19","182608","0.0-3.0-4.0-0.0","spark_pilot_2","7099","6","7","Male","","false","","","","","[215]","./assets/img/space/3.jpg","[""ArrowDown""]","first stage practice","space","0","null","null","ArrowDown","false","","","","","","","",""
"html-keyboard-response","20","183119","0.0-3.0-4.0-1.0","spark_pilot_2","7099","6","7","Male","","","","","","","null","<div style=""font-size:60px;"">+</div>","null","fixation","","","","","","","","","","","","","",""
"revaluation","21","187134","0.0-3.0-4.0-0.1","spark_pilot_2","7099","6","7","Male","","false","","","","","[402.7999999523163]","./assets/img/space/4.jpg","[""ArrowDown""]","first stage practice","space","0","null","null","ArrowDown","false","","","","","","","",""
"html-keyboard-response","22","187646","0.0-3.0-4.0-1.1","spark_pilot_2","7099","6","7","Male","","","","","","","null","<div style=""font-size:60px;"">+</div>","null","fixation","","","","","","","","","","","","","",""
"revaluation","23","191656","0.0-3.0-4.0-0.2","spark_pilot_2","7099","6","7","Male","","true","","","","","[]","./assets/img/space/5.jpg","[]","first stage practice","space","-5","null","null","","false","","","","","","","",""
"html-keyboard-response","24","192159","0.0-3.0-4.0-1.2","spark_pilot_2","7099","6","7","Male","","","","","","","null","<div style=""font-size:60px;"">+</div>","null","fixation","","","","","","","","","","","","","",""
"learning-instructions","25","231880","0.0-3.0-5.0-0.0","spark_pilot_2","7099","6","7","Male","","","","","","","29860.5","<p> The animals don’t move, so the animal in the upper part of a place will stay in the upper part of a place, and the animal in the lower part of a place will stay in the lower part of a place. </p>","","instructions","","","","","","","","","","","","","",""
"learning-instructions","26","243438","0.0-3.0-5.0-0.1","spark_pilot_2","7099","6","7","Male","","","","","","","2417.800000190735","<p> Each animal has two treasure chests for you to choose from. </p>
            <p> The amount of treasure in each chest can range from <b> 0 to 40 pieces.</b></p>","","instructions","","","","","","","","","","","","","",""
"learning-instructions","27","256362","0.0-3.0-5.0-0.2","spark_pilot_2","7099","6","7","Male","","","","","","","1711.4000000953674","<p> You should decide which chest to search for treasure by using the <b>left</b> and <b>right</b> arrow keys. </p>
            <p><b> Pay attention to which animal is on the screen, as the animals have different treasure chests. </b></p>
            <img src='./assets/img/instructions/leftright.jpg' class='instructions-image'>","","instructions","","","","","","","","","","","","","",""
"learning-instructions","28","264010","0.0-3.0-5.0-0.3","spark_pilot_2","7099","6","7","Male","","","","","","","1269.9000000953674","<p> Let’s try practicing that now. </p>
            <p> When you see an animal, choose which chest to search for treasure. </p>
            <img src='./assets/img/instructions/chooseChest.jpg' class='instructions-image'>","","instructions","","","","","","","","","","","","","",""
"revaluation","29","268034","0.0-3.0-6.0-0.0","spark_pilot_2","7099","6","7","Male","","false","","","","","[798.7999999523163]","./assets/img/space/animals/cat.jpg","[""ArrowRight""]","second stage practice","space","36","{""ArrowUp,ArrowLeft"":3,""ArrowUp,ArrowRight"":36,""ArrowDown,ArrowLeft"":15,""ArrowDown,ArrowRight"":23}","true","ArrowUp,ArrowRight","","","","","","","","",""
"html-keyboard-response","30","268546","0.0-3.0-6.0-1.0","spark_pilot_2","7099","6","7","Male","","","","","","","null","<div style=""font-size:60px;"">+</div>","null","fixation","","","","","","","","","","","","","",""
"revaluation","31","272566","0.0-3.0-6.0-0.1","spark_pilot_2","7099","6","7","Male","","false","","","","","[665.5]","./assets/img/space/animals/rabbit.jpg","[""ArrowRight""]","second stage practice","space","23","{""ArrowUp,ArrowLeft"":3,""ArrowUp,ArrowRight"":36,""ArrowDown,ArrowLeft"":15,""ArrowDown,ArrowRight"":23}","true","ArrowDown,ArrowRight","","","","","","","","",""
"html-keyboard-response","32","273075","0.0-3.0-6.0-1.1","spark_pilot_2","7099","6","7","Male","","","","","","","null","<div style=""font-size:60px;"">+</div>","null","fixation","","","","","","","","","","","","","",""
"revaluation","33","277096","0.0-3.0-6.0-0.2","spark_pilot_2","7099","6","7","Male","","false","","","","","[419.80000019073486]","./assets/img/space/animals/cat.jpg","[""ArrowLeft""]","second stage practice","space","3","{""ArrowUp,ArrowLeft"":3,""ArrowUp,ArrowRight"":36,""ArrowDown,ArrowLeft"":15,""ArrowDown,ArrowRight"":23}","false","ArrowUp,ArrowLeft","","","","","","","","",""
"html-keyboard-response","34","277604","0.0-3.0-6.0-1.2","spark_pilot_2","7099","6","7","Male","","","","","","","null","<div style=""font-size:60px;"">+</div>","null","fixation","","","","","","","","","","","","","",""
"revaluation","35","281621","0.0-3.0-6.0-0.3","spark_pilot_2","7099","6","7","Male","","false","","","","","[427.40000009536743]","./assets/img/space/animals/rabbit.jpg","[""ArrowRight""]","second stage practice","space","23","{""ArrowUp,ArrowLeft"":3,""ArrowUp,ArrowRight"":36,""ArrowDown,ArrowLeft"":15,""ArrowDown,ArrowRight"":23}","true","ArrowDown,ArrowRight","","","","","","","","",""
"html-keyboard-response","36","282125","0.0-3.0-6.0-1.3","spark_pilot_2","7099","6","7","Male","","","","","","","null","<div style=""font-size:60px;"">+</div>","null","fixation","","","","","","","","","","","","","",""
"learning-instructions","37","306660","0.0-3.0-7.0-0.0","spark_pilot_2","7099","6","7","Male","","","","","","","7698.899999856949","<p> Great job. Now let’s try putting it together. </p>
            <p> On each turn, you will first see a picture to remind you of the place you are in, and you need to choose whether to go up or down. </p>
            <p> Then you will see an animal and choose which of its chests to search for treasure. </p>","","instructions","","","","","","","","","","","","","",""
"learning-instructions","38","315954","0.0-3.0-7.0-0.1","spark_pilot_2","7099","6","7","Male","","","","","","","895.5","<p> When you choose whether to go up or down, try to go to the animal with the chest with the most treasure. </p>
            <p> Try practicing that now! </p>","","instructions","","","","","","","","","","","","","",""
"revaluation","39","321997","0.0-3.0-8.0-0.0","spark_pilot_2","7099","6","7","Male","","false","","","","","[1579.5,1717.6000001430511]","./assets/img/space/6.jpg","[""ArrowUp"",""ArrowRight""]","full practice","space","36","{""ArrowUp,ArrowLeft"":3,""ArrowUp,ArrowRight"":36,""ArrowDown,ArrowLeft"":15,""ArrowDown,ArrowRight"":23}","true","ArrowUp,ArrowRight","false","","","","","","","",""
"html-keyboard-response","40","322503","0.0-3.0-8.0-1.0","spark_pilot_2","7099","6","7","Male","","","","","","","null","<div style=""font-size:60px;"">+</div>","null","fixation","","","","","","","","","","","","","",""
"revaluation","41","328538","0.0-3.0-8.0-0.1","spark_pilot_2","7099","6","7","Male","","false","","","","","[619,540.2999999523163]","./assets/img/space/7.jpg","[""ArrowUp"",""ArrowRight""]","full practice","space","36","{""ArrowUp,ArrowLeft"":3,""ArrowUp,ArrowRight"":36,""ArrowDown,ArrowLeft"":15,""ArrowDown,ArrowRight"":23}","true","ArrowUp,ArrowRight","false","","","","","","","",""
"html-keyboard-response","42","329045","0.0-3.0-8.0-1.1","spark_pilot_2","7099","6","7","Male","","","","","","","null","<div style=""font-size:60px;"">+</div>","null","fixation","","","","","","","","","","","","","",""
"revaluation","43","335085","0.0-3.0-8.0-0.2","spark_pilot_2","7099","6","7","Male","","true","","","","","[728.0999999046326]","./assets/img/space/8.jpg","[""ArrowUp""]","full practice","space","-5","{""ArrowUp,ArrowLeft"":3,""ArrowUp,ArrowRight"":36,""ArrowDown,ArrowLeft"":15,""ArrowDown,ArrowRight"":23}","false","ArrowUp","false","","","","","","","",""
"html-keyboard-response","44","335593","0.0-3.0-8.0-1.2","spark_pilot_2","7099","6","7","Male","","","","","","","null","<div style=""font-size:60px;"">+</div>","null","fixation","","","","","","","","","","","","","",""
"revaluation","45","341629","0.0-3.0-8.0-0.3","spark_pilot_2","7099","6","7","Male","","false","","","","","[867.9000000953674,563.3999998569489]","./assets/img/space/9.jpg","[""ArrowUp"",""ArrowRight""]","full practice","space","36","{""ArrowUp,ArrowLeft"":3,""ArrowUp,ArrowRight"":36,""ArrowDown,ArrowLeft"":15,""ArrowDown,ArrowRight"":23}","true","ArrowUp,ArrowRight","false","","","","","","","",""
"html-keyboard-response","46","342132","0.0-3.0-8.0-1.3","spark_pilot_2","7099","6","7","Male","","","","","","","null","<div style=""font-size:60px;"">+</div>","null","fixation","","","","","","","","","","","","","",""
"revaluation","47","348162","0.0-3.0-8.0-0.4","spark_pilot_2","7099","6","7","Male","","false","","","","","[1481.5,534]","./assets/img/space/10.jpg","[""ArrowDown"",""ArrowRight""]","full practice","space","23","{""ArrowUp,ArrowLeft"":3,""ArrowUp,ArrowRight"":36,""ArrowDown,ArrowLeft"":15,""ArrowDown,ArrowRight"":23}","false","ArrowDown,ArrowRight","false","","","","","","","",""
"html-keyboard-response","48","348668","0.0-3.0-8.0-1.4","spark_pilot_2","7099","6","7","Male","","","","","","","null","<div style=""font-size:60px;"">+</div>","null","fixation","","","","","","","","","","","","","",""
"learning-instructions","49","361637","0.0-3.0-9.0-0.0","spark_pilot_2","7099","6","7","Male","","","","","","","2656.4000000953674","<p> One last thing: sometimes, you will see a robber. The robber can be anywhere in the picture. </p>
            <p> If you do not stop them, you will lose treasure. </p>
            <img src='./assets/img/instructions/robber.jpg' class='instructions-image'>","","instructions","","","","","","","","","","","","","",""
"learning-instructions","50","369396","0.0-3.0-9.0-0.1","spark_pilot_2","7099","6","7","Male","","","","","","","585.9000000953674","<p> If you see the robber, you should <b>press the space bar</b> rather than using the arrow keys. </p>
            <p> Try practicing that now! </p>","","instructions","","","","","","","","","","","","","",""
"revaluation","51","373416","0.0-3.0-10.0-0.0","spark_pilot_2","7099","6","7","Male","","false","","","","","[1701]","./assets/img/space/catch/0.jpg","[""spaceBar""]","catch practice","space","0","{""ArrowUp,ArrowLeft"":3,""ArrowUp,ArrowRight"":36,""ArrowDown,ArrowLeft"":15,""ArrowDown,ArrowRight"":23}","true","spaceBar","true","","","","","","","",""
"html-keyboard-response","52","373920","0.0-3.0-10.0-1.0","spark_pilot_2","7099","6","7","Male","","","","","","","null","<div style=""font-size:60px;"">+</div>","null","fixation","","","","","","","","","","","","","",""
"revaluation","53","377936","0.0-3.0-10.0-0.1","spark_pilot_2","7099","6","7","Male","","false","","","","","[491.59999990463257]","./assets/img/space/catch/1.jpg","[""spaceBar""]","catch practice","space","0","{""ArrowUp,ArrowLeft"":3,""ArrowUp,ArrowRight"":36,""ArrowDown,ArrowLeft"":15,""ArrowDown,ArrowRight"":23}","true","spaceBar","true","","","","","","","",""
"html-keyboard-response","54","378445","0.0-3.0-10.0-1.1","spark_pilot_2","7099","6","7","Male","","","","","","","null","<div style=""font-size:60px;"">+</div>","null","fixation","","","","","","","","","","","","","",""
"revaluation","55","382466","0.0-3.0-10.0-0.2","spark_pilot_2","7099","6","7","Male","","false","","","","","[1088.2999999523163]","./assets/img/space/catch/2.jpg","[""spaceBar""]","catch practice","space","0","{""ArrowUp,ArrowLeft"":3,""ArrowUp,ArrowRight"":36,""ArrowDown,ArrowLeft"":15,""ArrowDown,ArrowRight"":23}","true","spaceBar","true","","","","","","","",""
"html-keyboard-response","56","382980","0.0-3.0-10.0-1.2","spark_pilot_2","7099","6","7","Male","","","","","","","null","<div style=""font-size:60px;"">+</div>","null","fixation","","","","","","","","","","","","","",""
"learning-instructions","57","398903","0.0-3.0-11.0-0.0","spark_pilot_2","7099","6","7","Male","","","","","","","2233.600000143051","<p> After you explore a place to find treasure, it will be time to play a different game. </p>
            <p> During this game, red dots will appear on the screen and fall down slowly. </p>
            <p><b> You must click on them before they reach the bottom. </b></p>
            <img src='./assets/img/instructions/dotGame.jpg' class='instructions-image'>","","instructions","","","","","","","","","","","","","",""
"learning-instructions","58","405210","0.0-3.0-11.0-0.1","spark_pilot_2","7099","6","7","Male","","","","","","","621.3999998569489","<p> For every dot you click, you will earn additional treasure. </p>
            <p> Let’s try practicing that now. </p>","","instructions","","","","","","","","","","","","","",""
"revaluation","59","420228","0.0-3.0-12.0-0.0","spark_pilot_2","7099","6","7","Male","","","","","","","[63]","","","rest practice","","10","","","","","0","15000","","","","","",""
"learning-instructions","60","426570","0.0-3.0-13.0-0.0-0.0","spark_pilot_2","7099","6","7","Male","","","","","","","1011.6000001430511","<p> Now, you will practice a shortened version of the game to get a sense of how it all fits together. </p>","","instructions","","","","","","","","","","","","","",""
"learning-instructions","61","430550","0.0-3.0-13.0-0.0-0.1","spark_pilot_2","7099","6","7","Male","","","","","","","782.8000001907349","<p>This time you are searching for treasure in outer space.</p>","","instructions","","","","","","","","","","","","","",""
"learning-instructions","62","447061","0.0-3.0-13.0-1.0-0.0","spark_pilot_2","7099","6","7","Male","","","","","","","1711.2999999523163","<p> Remember, when you see a picture of the place, use the up and down keys to <b>find an animal</b>.</p>
            <p> When you encounter an animal, you should use the left and right keys to <b>select a treasure chest</b>.</p>
            <p> Don't forget to look out for the robber! </p>","","instructions","","","","","","","","","","","","","",""
"revaluation","63","451084","0.0-3.0-13.0-2.0-0.0","spark_pilot_2","7099","6","7","Male","","true","","","","","[]","./assets/img/space/11.jpg","[]","practice block","space","-5","{""ArrowUp,ArrowLeft"":3,""ArrowUp,ArrowRight"":36,""ArrowDown,ArrowLeft"":15,""ArrowDown,ArrowRight"":23}","false","","false","","","","","","","",""
"html-keyboard-response","64","451595","0.0-3.0-13.0-2.0-1.0","spark_pilot_2","7099","6","7","Male","","","","","","","null","<div style=""font-size:60px;"">+</div>","null","fixation","","","","","","","","","","","","","",""
"revaluation","65","457615","0.0-3.0-13.0-2.0-0.1","spark_pilot_2","7099","6","7","Male","","false","","","","","[885.5999999046326,1508.5999999046326]","./assets/img/space/12.jpg","[""ArrowUp"",""ArrowRight""]","practice block","space","36","{""ArrowUp,ArrowLeft"":3,""ArrowUp,ArrowRight"":36,""ArrowDown,ArrowLeft"":15,""ArrowDown,ArrowRight"":23}","true","ArrowUp,ArrowRight","false","","","","","","","",""
"html-keyboard-response","66","458126","0.0-3.0-13.0-2.0-1.1","spark_pilot_2","7099","6","7","Male","","","","","","","null","<div style=""font-size:60px;"">+</div>","null","fixation","","","","","","","","","","","","","",""
"revaluation","67","464145","0.0-3.0-13.0-2.0-0.2","spark_pilot_2","7099","6","7","Male","","false","","","","","[797.5,686.5999999046326]","./assets/img/space/13.jpg","[""ArrowUp"",""ArrowRight""]","practice block","space","36","{""ArrowUp,ArrowLeft"":3,""ArrowUp,ArrowRight"":36,""ArrowDown,ArrowLeft"":15,""ArrowDown,ArrowRight"":23}","true","ArrowUp,ArrowRight","false","","","","","","","",""
"html-keyboard-response","68","464653","0.0-3.0-13.0-2.0-1.2","spark_pilot_2","7099","6","7","Male","","","","","","","null","<div style=""font-size:60px;"">+</div>","null","fixation","","","","","","","","","","","","","",""
"revaluation","69","468676","0.0-3.0-13.0-2.0-0.3","spark_pilot_2","7099","6","7","Male","","true","","","","","[]","./assets/img/space/14.jpg","[]","practice block","space","-5","{""ArrowUp,ArrowLeft"":3,""ArrowUp,ArrowRight"":36,""ArrowDown,ArrowLeft"":15,""ArrowDown,ArrowRight"":23}","false","","false","","","","","","","",""
"html-keyboard-response","70","469196","0.0-3.0-13.0-2.0-1.3","spark_pilot_2","7099","6","7","Male","","","","","","","null","<div style=""font-size:60px;"">+</div>","null","fixation","","","","","","","","","","","","","",""
"revaluation","71","475237","0.0-3.0-13.0-2.0-0.4","spark_pilot_2","7099","6","7","Male","","false","","","","","[477.90000009536743,634.3999998569489]","./assets/img/space/11.jpg","[""ArrowUp"",""ArrowRight""]","practice block","space","36","{""ArrowUp,ArrowLeft"":3,""ArrowUp,ArrowRight"":36,""ArrowDown,ArrowLeft"":15,""ArrowDown,ArrowRight"":23}","true","ArrowUp,ArrowRight","false","","","","","","","",""
"html-keyboard-response","72","475744","0.0-3.0-13.0-2.0-1.4","spark_pilot_2","7099","6","7","Male","","","","","","","null","<div style=""font-size:60px;"">+</div>","null","fixation","","","","","","","","","","","","","",""
"revaluation","73","479755","0.0-3.0-13.0-2.0-0.5","spark_pilot_2","7099","6","7","Male","","true","","","","","[]","./assets/img/space/12.jpg","[]","practice block","space","-5","{""ArrowUp,ArrowLeft"":3,""ArrowUp,ArrowRight"":36,""ArrowDown,ArrowLeft"":15,""ArrowDown,ArrowRight"":23}","false","","false","","","","","","","",""
"html-keyboard-response","74","480265","0.0-3.0-13.0-2.0-1.5","spark_pilot_2","7099","6","7","Male","","","","","","","null","<div style=""font-size:60px;"">+</div>","null","fixation","","","","","","","","","","","","","",""
"revaluation","75","486285","0.0-3.0-13.0-2.0-0.6","spark_pilot_2","7099","6","7","Male","","false","","","","","[1346,690.5]","./assets/img/space/13.jpg","[""ArrowUp"",""ArrowRight""]","practice block","space","36","{""ArrowUp,ArrowLeft"":3,""ArrowUp,ArrowRight"":36,""ArrowDown,ArrowLeft"":15,""ArrowDown,ArrowRight"":23}","true","ArrowUp,ArrowRight","false","","","","","","","",""
"html-keyboard-response","76","486787","0.0-3.0-13.0-2.0-1.6","spark_pilot_2","7099","6","7","Male","","","","","","","null","<div style=""font-size:60px;"">+</div>","null","fixation","","","","","","","","","","","","","",""
"revaluation","77","492814","0.0-3.0-13.0-2.0-0.7","spark_pilot_2","7099","6","7","Male","","false","","","","","[470.89999985694885,418]","./assets/img/space/14.jpg","[""ArrowUp"",""ArrowRight""]","practice block","space","36","{""ArrowUp,ArrowLeft"":3,""ArrowUp,ArrowRight"":36,""ArrowDown,ArrowLeft"":15,""ArrowDown,ArrowRight"":23}","true","ArrowUp,ArrowRight","false","","","","","","","",""
"html-keyboard-response","78","493325","0.0-3.0-13.0-2.0-1.7","spark_pilot_2","7099","6","7","Male","","","","","","","null","<div style=""font-size:60px;"">+</div>","null","fixation","","","","","","","","","","","","","",""
"revaluation","79","497343","0.0-3.0-13.0-2.0-0.8","spark_pilot_2","7099","6","7","Male","","true","","","","","[]","./assets/img/space/catch/3.jpg","[]","practice block","space","-5","{""ArrowUp,ArrowLeft"":3,""ArrowUp,ArrowRight"":36,""ArrowDown,ArrowLeft"":15,""ArrowDown,ArrowRight"":23}","false","","true","","","","","","","",""
"html-keyboard-response","80","497855","0.0-3.0-13.0-2.0-1.8","spark_pilot_2","7099","6","7","Male","","","","","","","null","<div style=""font-size:60px;"">+</div>","null","fixation","","","","","","","","","","","","","",""
"learning-instructions","81","513741","0.0-3.0-13.0-3.0-0.0","spark_pilot_2","7099","6","7","Male","","","","","","","2843.399999856949","<p> Now, you will travel with a friend who will choose whether you go up or down first. </p>
            <p> On these turns, you will just see the animal that they found. You will still get to choose which chest to search for treasure.</p>","","instructions","","","","","","","","","","","","","",""
"revaluation","82","517756","0.0-3.0-13.0-4.0-0.0","spark_pilot_2","7099","6","7","Male","","false","","","","","[1560.2999999523163]","./assets/img/space/animals/rabbit.jpg","[""ArrowRight""]","practice block","space","23","{""ArrowUp,ArrowLeft"":3,""ArrowUp,ArrowRight"":36,""ArrowDown,ArrowLeft"":15,""ArrowDown,ArrowRight"":23}","true","ArrowDown,ArrowRight","","","","","","","","",""
"html-keyboard-response","83","518260","0.0-3.0-13.0-4.0-1.0","spark_pilot_2","7099","6","7","Male","","","","","","","null","<div style=""font-size:60px;"">+</div>","null","fixation","","","","","","","","","","","","","",""
"revaluation","84","522274","0.0-3.0-13.0-4.0-0.1","spark_pilot_2","7099","6","7","Male","","false","","","","","[379.7000000476837]","./assets/img/space/animals/rabbit.jpg","[""ArrowRight""]","practice block","space","23","{""ArrowUp,ArrowLeft"":3,""ArrowUp,ArrowRight"":36,""ArrowDown,ArrowLeft"":15,""ArrowDown,ArrowRight"":23}","true","ArrowDown,ArrowRight","","","","","","","","",""
"html-keyboard-response","85","522786","0.0-3.0-13.0-4.0-1.1","spark_pilot_2","7099","6","7","Male","","","","","","","null","<div style=""font-size:60px;"">+</div>","null","fixation","","","","","","","","","","","","","",""
"revaluation","86","526820","0.0-3.0-13.0-4.0-0.2","spark_pilot_2","7099","6","7","Male","","false","","","","","[1225.9000000953674]","./assets/img/space/animals/cat.jpg","[""ArrowRight""]","practice block","space","36","{""ArrowUp,ArrowLeft"":3,""ArrowUp,ArrowRight"":36,""ArrowDown,ArrowLeft"":15,""ArrowDown,ArrowRight"":23}","true","ArrowUp,ArrowRight","","","","","","","","",""
"html-keyboard-response","87","527325","0.0-3.0-13.0-4.0-1.2","spark_pilot_2","7099","6","7","Male","","","","","","","null","<div style=""font-size:60px;"">+</div>","null","fixation","","","","","","","","","","","","","",""
"revaluation","88","531335","0.0-3.0-13.0-4.0-0.3","spark_pilot_2","7099","6","7","Male","","false","","","","","[730.7000000476837]","./assets/img/space/animals/cat.jpg","[""ArrowRight""]","practice block","space","36","{""ArrowUp,ArrowLeft"":3,""ArrowUp,ArrowRight"":36,""ArrowDown,ArrowLeft"":15,""ArrowDown,ArrowRight"":23}","true","ArrowUp,ArrowRight","","","","","","","","",""
"html-keyboard-response","89","531845","0.0-3.0-13.0-4.0-1.3","spark_pilot_2","7099","6","7","Male","","","","","","","null","<div style=""font-size:60px;"">+</div>","null","fixation","","","","","","","","","","","","","",""
"learning-instructions","90","542937","0.0-3.0-13.0-5.0-0.0","spark_pilot_2","7099","6","7","Male","","","","","","","3716.5","<p> Time to play the dot game! </p>
            <p> For 15 seconds, click the red dots on the following screen as they appear. </p>","","instructions","","","","","","","","","","","","","",""
"revaluation","91","557944","0.0-3.0-13.0-6.0-0.0","spark_pilot_2","7099","6","7","Male","","","","","","","[73]","","","rest practice","","10","","","","","0","15000","","","","","",""
"learning-instructions","92","565990","0.0-3.0-13.0-7.0-0.0","spark_pilot_2","7099","6","7","Male","","","","","","","1910.7000000476837","<p> You have almost finished this part of the game! </p>
            <p> We are going to ask you to make a few more choices. </p>","","instructions","","","","","","","","","","","","","",""
"learning-instructions","93","586278","0.0-3.0-13.0-7.0-0.1","spark_pilot_2","7099","6","7","Male","","","","","","","6258.799999952316","<p> First, you need to decide whether to go up or down. When you see each picture, use the arrow keys to make your choice. </p>
            <p><b>You will not see which animal you found, but try to get to the one that will give you the most treasure.</b></p>","","instructions","","","","","","","","","","","","","",""
"revaluation","94","589148","0.0-3.0-13.0-8.0","spark_pilot_2","7099","6","7","Male","","false","","","","","[2867.100000143051]","./assets/img/space/15.jpg","[""ArrowUp""]","practice block","space","0","{""ArrowUp,ArrowLeft"":3,""ArrowUp,ArrowRight"":36,""ArrowDown,ArrowLeft"":15,""ArrowDown,ArrowRight"":23}","true","ArrowUp","false","","","","","","","",""
"html-keyboard-response","95","589652","0.0-3.0-13.0-9.0","spark_pilot_2","7099","6","7","Male","","","","","","","null","<div style=""font-size:60px;"">+</div>","null","fixation","","","","","","","","","","","","","",""
"learning-instructions","96","602737","0.0-3.0-13.0-10.0-0.0","spark_pilot_2","7099","6","7","Male","","","","","","","1687.2000000476837","<p> Now you will see the animals again and can search their chests for treasure. </p>
            <p> This time, you will not see how much treasure you earned, but you will earn more bonus money for making better choices. </p>","","instructions","","","","","","","","","","","","","",""
"revaluation","97","603237","0.0-3.0-13.0-11.0-0.0","spark_pilot_2","7099","6","7","Male","","false","","","","","[497.60000014305115]","./assets/img/space/animals/cat.jpg","[""ArrowRight""]","practice block","space","0","{""ArrowUp,ArrowLeft"":3,""ArrowUp,ArrowRight"":36,""ArrowDown,ArrowLeft"":15,""ArrowDown,ArrowRight"":23}","true","ArrowUp,ArrowRight","","","","","","","","",""
"html-keyboard-response","98","603756","0.0-3.0-13.0-11.0-1.0","spark_pilot_2","7099","6","7","Male","","","","","","","null","<div style=""font-size:60px;"">+</div>","null","fixation","","","","","","","","","","","","","",""
"revaluation","99","604324","0.0-3.0-13.0-11.0-0.1","spark_pilot_2","7099","6","7","Male","","false","","","","","[565]","./assets/img/space/animals/rabbit.jpg","[""ArrowRight""]","practice block","space","0","{""ArrowUp,ArrowLeft"":3,""ArrowUp,ArrowRight"":36,""ArrowDown,ArrowLeft"":15,""ArrowDown,ArrowRight"":23}","true","ArrowDown,ArrowRight","","","","","","","","",""
"html-keyboard-response","100","604835","0.0-3.0-13.0-11.0-1.1","spark_pilot_2","7099","6","7","Male","","","","","","","null","<div style=""font-size:60px;"">+</div>","null","fixation","","","","","","","","","","","","","",""
"learning-instructions","101","611088","0.0-3.0-14.0-0.0","spark_pilot_2","7099","6","7","Male","","","","","","","1669.6000001430511","<p> Before you start, we're going to ask you a few questions about how the game works. </p>","","instructions","","","","","","","","","","","","","",""
"comp-q","102","620102","0.0-3.0-15.0-0.0-0.0","spark_pilot_2","7099","6","7","Male","","","","","","","3297.0999999046326","<p> <b> True or False? </b> </p>
            <p> There can be 50 pieces of treasure in a given animal's chest. </p>","1","comp_question","","","","true","","","","","","","","","",""
"comp-q","103","628472","0.0-3.0-15.0-0.0-1.0","spark_pilot_2","7099","6","7","Male","","","","","","","1695","<p> <b> That's right! </b> The amount of treasure in each chest can range from 0 to 40 pieces. </p>","0","comp_answer","","","","","","","","","","","","","",""
"comp-q","104","637438","0.0-3.0-15.0-0.1-0.1","spark_pilot_2","7099","6","7","Male","","","","","","","1837.9000000953674","<p> <b> True or False? </b> </p><p> In this game, all animals have the same amount of treasure in their left and right chests. </p>","1","comp_question","","","","true","","","","","","","","","",""
"comp-q","105","643978","0.0-3.0-15.0-0.1-1.1","spark_pilot_2","7099","6","7","Male","","","","","","","1298.0999999046326","<p> <b> That's right! </b> Animals have different amounts of treasure in their treasure chests. </p>","0","comp_answer","","","","","","","","","","","","","",""
"comp-q","106","653417","0.0-3.0-15.0-0.2-0.2","spark_pilot_2","7099","6","7","Male","","","","","","","3576.2999999523163","<p> <b> True or False? </b> </p><p> The same animal will always be there if you go up in the same place. </p>","1","comp_question","","","","false","","","","","","","","","",""
"comp-q","107","662084","0.0-3.0-15.0-0.2-1.2","spark_pilot_2","7099","6","7","Male","","","","","","","2346.800000190735","<p> <b>Incorrect.</b> One animal lives in the upper part and one lives in the lower part of every place. </p>","0","comp_answer","","","","","","","","","","","","","",""
"comp-q","108","670731","0.0-3.0-15.0-0.3-0.3","spark_pilot_2","7099","6","7","Male","","","","","","","2833.7999999523163","<p> <b> True or False? </b> </p><p> The same animal will always be there if you go up in the same place. </p>","1","comp_question","","","","false","","","","","","","","","",""
"comp-q","109","678913","0.0-3.0-15.0-0.3-1.3","spark_pilot_2","7099","6","7","Male","","","","","","","1906.1000001430511","<p> <b>Incorrect.</b> One animal lives in the upper part and one lives in the lower part of every place. </p>","0","comp_answer","","","","","","","","","","","","","",""
"comp-q","110","685873","0.0-3.0-15.0-0.4-0.4","spark_pilot_2","7099","6","7","Male","","","","","","","1146.6999998092651","<p> <b> True or False? </b> </p><p> The same animal will always be there if you go up in the same place. </p>","0","comp_question","","","","true","","","","","","","","","",""
"comp-q","111","694449","0.0-3.0-15.0-0.4-1.4","spark_pilot_2","7099","6","7","Male","","","","","","","2119.2000000476837","<p> <b> That's right! </b> One animal lives in the upper part and one lives in the lower part of every place. </p>","0","comp_answer","","","","","","","","","","","","","",""
"comp-q","112","700934","0.0-3.0-15.0-0.5-0.5","spark_pilot_2","7099","6","7","Male","","","","","","","956.2000000476837","<p> <b> True or False? </b> </p><p> If you see a different picture, it means you are in a new place. </p>","0","comp_question","","","","false","","","","","","","","","",""
"comp-q","113","714883","0.0-3.0-15.0-0.5-1.5","spark_pilot_2","7099","6","7","Male","","","","","","","2836.600000143051","<p> <b>Incorrect.</b> Lots of different images may show the same place. For example,  you may see three different images that all remind you that you are in outer space. </p>","0","comp_answer","","","","","","","","","","","","","",""
"comp-q","114","721307","0.0-3.0-15.0-0.6-0.6","spark_pilot_2","7099","6","7","Male","","","","","","","926.5999999046326","<p> <b> True or False? </b> </p><p> If you see a different picture, it means you are in a new place. </p>","0","comp_question","","","","false","","","","","","","","","",""
"comp-q","115","733674","0.0-3.0-15.0-0.6-1.6","spark_pilot_2","7099","6","7","Male","","","","","","","1306.2000000476837","<p> <b>Incorrect.</b> Lots of different images may show the same place. For example,  you may see three different images that all remind you that you are in outer space. </p>","0","comp_answer","","","","","","","","","","","","","",""
"comp-q","116","740044","0.0-3.0-15.0-0.7-0.7","spark_pilot_2","7099","6","7","Male","","","","","","","873.5","<p> <b> True or False? </b> </p><p> If you see a different picture, it means you are in a new place. </p>","1","comp_question","","","","true","","","","","","","","","",""
"comp-q","117","754403","0.0-3.0-15.0-0.7-1.7","spark_pilot_2","7099","6","7","Male","","","","","","","3103.7999999523163","<p> <b> That's right! </b> Lots of different images may show the same place. For example,  you may see three different images that all remind you that you are in outer space. </p>","0","comp_answer","","","","","","","","","","","","","",""
"learning-instructions","118","765586","0.0-3.0-16.0-0.0","spark_pilot_2","7099","6","7","Male","","","","","","","1308.0999999046326","<p> Good job. Remember to do your best because the amount of treasure you earn will be converted into bonus money. </p>
            <p> It’s time to start the real game! </p>","","instructions","","","","","","","","","","","","","",""
"learning-instructions","119","769538","0.0-4.0-0.0-0.0","spark_pilot_2","7099","6","7","Male","","","","","","","1158","<p> This time you are searching for treasure in the <b>canyon</b>.</p>","","instructions","","","","","","","","","","","","","",""
"learning-instructions","120","792074","0.0-4.0-0.0-0.1","spark_pilot_2","7099","6","7","Male","","","","","","","5217.200000047684","<p><b>New</b> animals with <b>new</b> treasure chests live here. You need to explore to discover where the animal with the best treasure chest is.</p>
                    <p> Like before, once you figure out which animal has the chest with the most treasure, you should try to get to that animal and select that chest! </p>","","instructions","","","","","","","","","","","","","",""
"learning-instructions","121","807537","0.0-4.0-1.0-0.0","spark_pilot_2","7099","6","7","Male","","","","","","","737.2000000476837","<p> Remember, when you see a picture of the place, use the up and down keys to <b>find an animal</b>.</p>
            <p> When you encounter an animal, you should use the left and right keys to <b>select a treasure chest</b>.</p>
            <p> Don't forget to look out for the robber! </p>","","instructions","","","","","","","","","","","","","",""
"revaluation","122","813566","0.0-4.0-2.0-0.0","spark_pilot_2","7099","6","7","Male","","false","","","","","[1890.3999998569489,833.5]","./assets/img/canyon/memory/24.jpg","[""ArrowUp"",""ArrowRight""]","value training","canyon","10","{""ArrowUp,ArrowLeft"":23,""ArrowUp,ArrowRight"":10,""ArrowDown,ArrowLeft"":8,""ArrowDown,ArrowRight"":30}","false","ArrowUp,ArrowRight","false","","","revaluation","1","0","","",""
"html-keyboard-response","123","814076","0.0-4.0-2.0-1.0","spark_pilot_2","7099","6","7","Male","","","","","","","null","<div style=""font-size:60px;"">+</div>","null","fixation","","","","","","","","","","","1","","",""
"revaluation","124","820106","0.0-4.0-2.0-0.1","spark_pilot_2","7099","6","7","Male","","false","","","","","[1161,593.5999999046326]","./assets/img/canyon/memory/5.jpg","[""ArrowUp"",""ArrowRight""]","value training","canyon","10","{""ArrowUp,ArrowLeft"":23,""ArrowUp,ArrowRight"":10,""ArrowDown,ArrowLeft"":8,""ArrowDown,ArrowRight"":30}","false","ArrowUp,ArrowRight","false","","","revaluation","1","2","","",""
"html-keyboard-response","125","820610","0.0-4.0-2.0-1.1","spark_pilot_2","7099","6","7","Male","","","","","","","null","<div style=""font-size:60px;"">+</div>","null","fixation","","","","","","","","","","","3","","",""
"revaluation","126","826636","0.0-4.0-2.0-0.2","spark_pilot_2","7099","6","7","Male","","false","","","","","[678.2000000476837,363.2999999523163]","./assets/img/canyon/memory/18.jpg","[""ArrowUp"",""ArrowRight""]","value training","canyon","10","{""ArrowUp,ArrowLeft"":23,""ArrowUp,ArrowRight"":10,""ArrowDown,ArrowLeft"":8,""ArrowDown,ArrowRight"":30}","false","ArrowUp,ArrowRight","false","","","revaluation","1","4","","",""
"html-keyboard-response","127","827145","0.0-4.0-2.0-1.2","spark_pilot_2","7099","6","7","Male","","","","","","","null","<div style=""font-size:60px;"">+</div>","null","fixation","","","","","","","","","","","5","","",""
"revaluation","128","833175","0.0-4.0-2.0-0.3","spark_pilot_2","7099","6","7","Male","","false","","","","","[545.5,1055.5]","./assets/img/canyon/memory/27.jpg","[""ArrowDown"",""ArrowRight""]","value training","canyon","30","{""ArrowUp,ArrowLeft"":23,""ArrowUp,ArrowRight"":10,""ArrowDown,ArrowLeft"":8,""ArrowDown,ArrowRight"":30}","true","ArrowDown,ArrowRight","false","","","revaluation","1","6","","",""
"html-keyboard-response","129","833684","0.0-4.0-2.0-1.3","spark_pilot_2","7099","6","7","Male","","","","","","","null","<div style=""font-size:60px;"">+</div>","null","fixation","","","","","","","","","","","7","","",""
"revaluation","130","839706","0.0-4.0-2.0-0.4","spark_pilot_2","7099","6","7","Male","","false","","","","","[457.7000000476837,488.5]","./assets/img/canyon/memory/38.jpg","[""ArrowDown"",""ArrowRight""]","value training","canyon","30","{""ArrowUp,ArrowLeft"":23,""ArrowUp,ArrowRight"":10,""ArrowDown,ArrowLeft"":8,""ArrowDown,ArrowRight"":30}","true","ArrowDown,ArrowRight","false","","","revaluation","1","8","","",""
"html-keyboard-response","131","840214","0.0-4.0-2.0-1.4","spark_pilot_2","7099","6","7","Male","","","","","","","null","<div style=""font-size:60px;"">+</div>","null","fixation","","","","","","","","","","","9","","",""
"revaluation","132","844236","0.0-4.0-2.0-0.5","spark_pilot_2","7099","6","7","Male","","false","","","","","[1289.7000000476837]","./assets/img/canyon/catch/4.jpg","[""spaceBar""]","value training","canyon","0","{""ArrowUp,ArrowLeft"":23,""ArrowUp,ArrowRight"":10,""ArrowDown,ArrowLeft"":8,""ArrowDown,ArrowRight"":30}","true","spaceBar","true","","","revaluation","1","10","","",""
"html-keyboard-response","133","844746","0.0-4.0-2.0-1.5","spark_pilot_2","7099","6","7","Male","","","","","","","null","<div style=""font-size:60px;"">+</div>","null","fixation","","","","","","","","","","","11","","",""
"revaluation","134","848758","0.0-4.0-2.0-0.6","spark_pilot_2","7099","6","7","Male","","false","","","","","[790.2000000476837]","./assets/img/canyon/catch/5.jpg","[""spaceBar""]","value training","canyon","0","{""ArrowUp,ArrowLeft"":23,""ArrowUp,ArrowRight"":10,""ArrowDown,ArrowLeft"":8,""ArrowDown,ArrowRight"":30}","true","spaceBar","true","","","revaluation","1","12","","",""
"html-keyboard-response","135","849266","0.0-4.0-2.0-1.6","spark_pilot_2","7099","6","7","Male","","","","","","","null","<div style=""font-size:60px;"">+</div>","null","fixation","","","","","","","","","","","13","","",""
"revaluation","136","855291","0.0-4.0-2.0-0.7","spark_pilot_2","7099","6","7","Male","","false","","","","","[1692.5999999046326,756.7999999523163]","./assets/img/canyon/memory/31.jpg","[""ArrowUp"",""ArrowRight""]","value training","canyon","10","{""ArrowUp,ArrowLeft"":23,""ArrowUp,ArrowRight"":10,""ArrowDown,ArrowLeft"":8,""ArrowDown,ArrowRight"":30}","false","ArrowUp,ArrowRight","false","","","revaluation","1","14","","",""
"html-keyboard-response","137","855800","0.0-4.0-2.0-1.7","spark_pilot_2","7099","6","7","Male","","","","","","","null","<div style=""font-size:60px;"">+</div>","null","fixation","","","","","","","","","","","15","","",""
"revaluation","138","861837","0.0-4.0-2.0-0.8","spark_pilot_2","7099","6","7","Male","","false","","","","","[1381.4000000953674,559.9000000953674]","./assets/img/canyon/memory/28.jpg","[""ArrowUp"",""ArrowRight""]","value training","canyon","10","{""ArrowUp,ArrowLeft"":23,""ArrowUp,ArrowRight"":10,""ArrowDown,ArrowLeft"":8,""ArrowDown,ArrowRight"":30}","false","ArrowUp,ArrowRight","false","","","revaluation","1","16","","",""
"html-keyboard-response","139","862343","0.0-4.0-2.0-1.8","spark_pilot_2","7099","6","7","Male","","","","","","","null","<div style=""font-size:60px;"">+</div>","null","fixation","","","","","","","","","","","17","","",""
"revaluation","140","868377","0.0-4.0-2.0-0.9","spark_pilot_2","7099","6","7","Male","","false","","","","","[1510.1000001430511,449.59999990463257]","./assets/img/canyon/memory/31.jpg","[""ArrowUp"",""ArrowRight""]","value training","canyon","10","{""ArrowUp,ArrowLeft"":23,""ArrowUp,ArrowRight"":10,""ArrowDown,ArrowLeft"":8,""ArrowDown,ArrowRight"":30}","false","ArrowUp,ArrowRight","false","","","revaluation","1","18","","",""
"html-keyboard-response","141","868885","0.0-4.0-2.0-1.9","spark_pilot_2","7099","6","7","Male","","","","","","","null","<div style=""font-size:60px;"">+</div>","null","fixation","","","","","","","","","","","19","","",""
"revaluation","142","872905","0.0-4.0-2.0-0.10","spark_pilot_2","7099","6","7","Male","","false","","","","","[1399.9000000953674]","./assets/img/canyon/catch/1.jpg","[""spaceBar""]","value training","canyon","0","{""ArrowUp,ArrowLeft"":23,""ArrowUp,ArrowRight"":10,""ArrowDown,ArrowLeft"":8,""ArrowDown,ArrowRight"":30}","true","spaceBar","true","","","revaluation","1","20","","",""
"html-keyboard-response","143","873416","0.0-4.0-2.0-1.10","spark_pilot_2","7099","6","7","Male","","","","","","","null","<div style=""font-size:60px;"">+</div>","null","fixation","","","","","","","","","","","21","","",""
"revaluation","144","879439","0.0-4.0-2.0-0.11","spark_pilot_2","7099","6","7","Male","","false","","","","","[1951,890.9000000953674]","./assets/img/canyon/memory/10.jpg","[""ArrowUp"",""ArrowRight""]","value training","canyon","10","{""ArrowUp,ArrowLeft"":23,""ArrowUp,ArrowRight"":10,""ArrowDown,ArrowLeft"":8,""ArrowDown,ArrowRight"":30}","false","ArrowUp,ArrowRight","false","","","revaluation","1","22","","",""
"html-keyboard-response","145","879946","0.0-4.0-2.0-1.11","spark_pilot_2","7099","6","7","Male","","","","","","","null","<div style=""font-size:60px;"">+</div>","null","fixation","","","","","","","","","","","23","","",""
"revaluation","146","885967","0.0-4.0-2.0-0.12","spark_pilot_2","7099","6","7","Male","","false","","","","","[601.7999999523163,429.2999999523163]","./assets/img/canyon/memory/5.jpg","[""ArrowDown"",""ArrowRight""]","value training","canyon","30","{""ArrowUp,ArrowLeft"":23,""ArrowUp,ArrowRight"":10,""ArrowDown,ArrowLeft"":8,""ArrowDown,ArrowRight"":30}","true","ArrowDown,ArrowRight","false","","","revaluation","1","24","","",""
"html-keyboard-response","147","886473","0.0-4.0-2.0-1.12","spark_pilot_2","7099","6","7","Male","","","","","","","null","<div style=""font-size:60px;"">+</div>","null","fixation","","","","","","","","","","","25","","",""
"revaluation","148","892506","0.0-4.0-2.0-0.13","spark_pilot_2","7099","6","7","Male","","false","","","","","[1170.0999999046326,523.7999999523163]","./assets/img/canyon/memory/14.jpg","[""ArrowDown"",""ArrowRight""]","value training","canyon","30","{""ArrowUp,ArrowLeft"":23,""ArrowUp,ArrowRight"":10,""ArrowDown,ArrowLeft"":8,""ArrowDown,ArrowRight"":30}","true","ArrowDown,ArrowRight","false","","","revaluation","1","26","","",""
"html-keyboard-response","149","893015","0.0-4.0-2.0-1.13","spark_pilot_2","7099","6","7","Male","","","","","","","null","<div style=""font-size:60px;"">+</div>","null","fixation","","","","","","","","","","","27","","",""
"revaluation","150","899049","0.0-4.0-2.0-0.14","spark_pilot_2","7099","6","7","Male","","false","","","","","[925.5,437.89999985694885]","./assets/img/canyon/memory/33.jpg","[""ArrowDown"",""ArrowRight""]","value training","canyon","30","{""ArrowUp,ArrowLeft"":23,""ArrowUp,ArrowRight"":10,""ArrowDown,ArrowLeft"":8,""ArrowDown,ArrowRight"":30}","true","ArrowDown,ArrowRight","false","","","revaluation","1","28","","",""
"html-keyboard-response","151","899555","0.0-4.0-2.0-1.14","spark_pilot_2","7099","6","7","Male","","","","","","","null","<div style=""font-size:60px;"">+</div>","null","fixation","","","","","","","","","","","29","","",""
"revaluation","152","905571","0.0-4.0-2.0-0.15","spark_pilot_2","7099","6","7","Male","","false","","","","","[1478.6000001430511,467.40000009536743]","./assets/img/canyon/memory/19.jpg","[""ArrowDown"",""ArrowRight""]","value training","canyon","30","{""ArrowUp,ArrowLeft"":23,""ArrowUp,ArrowRight"":10,""ArrowDown,ArrowLeft"":8,""ArrowDown,ArrowRight"":30}","true","ArrowDown,ArrowRight","false","","","revaluation","1","30","","",""
"html-keyboard-response","153","906074","0.0-4.0-2.0-1.15","spark_pilot_2","7099","6","7","Male","","","","","","","null","<div style=""font-size:60px;"">+</div>","null","fixation","","","","","","","","","","","31","","",""
"revaluation","154","912103","0.0-4.0-2.0-0.16","spark_pilot_2","7099","6","7","Male","","false","","","","","[901.7999999523163,337.5]","./assets/img/canyon/memory/10.jpg","[""ArrowDown"",""ArrowRight""]","value training","canyon","30","{""ArrowUp,ArrowLeft"":23,""ArrowUp,ArrowRight"":10,""ArrowDown,ArrowLeft"":8,""ArrowDown,ArrowRight"":30}","true","ArrowDown,ArrowRight","false","","","revaluation","1","32","","",""
"html-keyboard-response","155","912620","0.0-4.0-2.0-1.16","spark_pilot_2","7099","6","7","Male","","","","","","","null","<div style=""font-size:60px;"">+</div>","null","fixation","","","","","","","","","","","33","","",""
"revaluation","156","918651","0.0-4.0-2.0-0.17","spark_pilot_2","7099","6","7","Male","","false","","","","","[1431.1000001430511,495.40000009536743]","./assets/img/canyon/memory/41.jpg","[""ArrowUp"",""ArrowRight""]","value training","canyon","10","{""ArrowUp,ArrowLeft"":23,""ArrowUp,ArrowRight"":10,""ArrowDown,ArrowLeft"":8,""ArrowDown,ArrowRight"":30}","false","ArrowUp,ArrowRight","false","","","revaluation","1","34","","",""
"html-keyboard-response","157","919163","0.0-4.0-2.0-1.17","spark_pilot_2","7099","6","7","Male","","","","","","","null","<div style=""font-size:60px;"">+</div>","null","fixation","","","","","","","","","","","35","","",""
"revaluation","158","925188","0.0-4.0-2.0-0.18","spark_pilot_2","7099","6","7","Male","","false","","","","","[987.2999999523163,558.8999998569489]","./assets/img/canyon/memory/14.jpg","[""ArrowDown"",""ArrowRight""]","value training","canyon","30","{""ArrowUp,ArrowLeft"":23,""ArrowUp,ArrowRight"":10,""ArrowDown,ArrowLeft"":8,""ArrowDown,ArrowRight"":30}","true","ArrowDown,ArrowRight","false","","","revaluation","1","36","","",""
"html-keyboard-response","159","925690","0.0-4.0-2.0-1.18","spark_pilot_2","7099","6","7","Male","","","","","","","null","<div style=""font-size:60px;"">+</div>","null","fixation","","","","","","","","","","","37","","",""
"revaluation","160","931703","0.0-4.0-2.0-0.19","spark_pilot_2","7099","6","7","Male","","false","","","","","[888.6000001430511,477.5]","./assets/img/canyon/memory/2.jpg","[""ArrowDown"",""ArrowRight""]","value training","canyon","30","{""ArrowUp,ArrowLeft"":23,""ArrowUp,ArrowRight"":10,""ArrowDown,ArrowLeft"":8,""ArrowDown,ArrowRight"":30}","true","ArrowDown,ArrowRight","false","","","revaluation","1","38","","",""
"html-keyboard-response","161","932217","0.0-4.0-2.0-1.19","spark_pilot_2","7099","6","7","Male","","","","","","","null","<div style=""font-size:60px;"">+</div>","null","fixation","","","","","","","","","","","39","","",""
"revaluation","162","938235","0.0-4.0-2.0-0.20","spark_pilot_2","7099","6","7","Male","","false","","","","","[1609.7999999523163,580.7999999523163]","./assets/img/canyon/memory/19.jpg","[""ArrowDown"",""ArrowRight""]","value training","canyon","30","{""ArrowUp,ArrowLeft"":23,""ArrowUp,ArrowRight"":10,""ArrowDown,ArrowLeft"":8,""ArrowDown,ArrowRight"":30}","true","ArrowDown,ArrowRight","false","","","revaluation","1","40","","",""
"html-keyboard-response","163","938747","0.0-4.0-2.0-1.20","spark_pilot_2","7099","6","7","Male","","","","","","","null","<div style=""font-size:60px;"">+</div>","null","fixation","","","","","","","","","","","41","","",""
"revaluation","164","942765","0.0-4.0-2.0-0.21","spark_pilot_2","7099","6","7","Male","","false","","","","","[1122.7999999523163]","./assets/img/canyon/catch/7.jpg","[""spaceBar""]","value training","canyon","0","{""ArrowUp,ArrowLeft"":23,""ArrowUp,ArrowRight"":10,""ArrowDown,ArrowLeft"":8,""ArrowDown,ArrowRight"":30}","true","spaceBar","true","","","revaluation","1","42","","",""
"html-keyboard-response","165","943271","0.0-4.0-2.0-1.21","spark_pilot_2","7099","6","7","Male","","","","","","","null","<div style=""font-size:60px;"">+</div>","null","fixation","","","","","","","","","","","43","","",""
"revaluation","166","947295","0.0-4.0-2.0-0.22","spark_pilot_2","7099","6","7","Male","","false","","","","","[530.0999999046326]","./assets/img/canyon/catch/0.jpg","[""spaceBar""]","value training","canyon","0","{""ArrowUp,ArrowLeft"":23,""ArrowUp,ArrowRight"":10,""ArrowDown,ArrowLeft"":8,""ArrowDown,ArrowRight"":30}","true","spaceBar","true","","","revaluation","1","44","","",""
"html-keyboard-response","167","947807","0.0-4.0-2.0-1.22","spark_pilot_2","7099","6","7","Male","","","","","","","null","<div style=""font-size:60px;"">+</div>","null","fixation","","","","","","","","","","","45","","",""
"revaluation","168","953825","0.0-4.0-2.0-0.23","spark_pilot_2","7099","6","7","Male","","false","","","","","[1177.5,716.2999999523163]","./assets/img/canyon/memory/6.jpg","[""ArrowUp"",""ArrowRight""]","value training","canyon","10","{""ArrowUp,ArrowLeft"":23,""ArrowUp,ArrowRight"":10,""ArrowDown,ArrowLeft"":8,""ArrowDown,ArrowRight"":30}","false","ArrowUp,ArrowRight","false","","","revaluation","1","46","","",""
"html-keyboard-response","169","954334","0.0-4.0-2.0-1.23","spark_pilot_2","7099","6","7","Male","","","","","","","null","<div style=""font-size:60px;"">+</div>","null","fixation","","","","","","","","","","","47","","",""
"revaluation","170","960365","0.0-4.0-2.0-0.24","spark_pilot_2","7099","6","7","Male","","false","","","","","[532.0999999046326,502.59999990463257]","./assets/img/canyon/memory/6.jpg","[""ArrowUp"",""ArrowRight""]","value training","canyon","10","{""ArrowUp,ArrowLeft"":23,""ArrowUp,ArrowRight"":10,""ArrowDown,ArrowLeft"":8,""ArrowDown,ArrowRight"":30}","false","ArrowUp,ArrowRight","false","","","revaluation","1","48","","",""
"html-keyboard-response","171","960877","0.0-4.0-2.0-1.24","spark_pilot_2","7099","6","7","Male","","","","","","","null","<div style=""font-size:60px;"">+</div>","null","fixation","","","","","","","","","","","49","","",""
"revaluation","172","966904","0.0-4.0-2.0-0.25","spark_pilot_2","7099","6","7","Male","","false","","","","","[605.7999999523163,394.5]","./assets/img/canyon/memory/15.jpg","[""ArrowDown"",""ArrowRight""]","value training","canyon","30","{""ArrowUp,ArrowLeft"":23,""ArrowUp,ArrowRight"":10,""ArrowDown,ArrowLeft"":8,""ArrowDown,ArrowRight"":30}","true","ArrowDown,ArrowRight","false","","","revaluation","1","50","","",""
"html-keyboard-response","173","967417","0.0-4.0-2.0-1.25","spark_pilot_2","7099","6","7","Male","","","","","","","null","<div style=""font-size:60px;"">+</div>","null","fixation","","","","","","","","","","","51","","",""
"revaluation","174","973447","0.0-4.0-2.0-0.26","spark_pilot_2","7099","6","7","Male","","false","","","","","[345.7000000476837,501]","./assets/img/canyon/memory/1.jpg","[""ArrowDown"",""ArrowRight""]","value training","canyon","30","{""ArrowUp,ArrowLeft"":23,""ArrowUp,ArrowRight"":10,""ArrowDown,ArrowLeft"":8,""ArrowDown,ArrowRight"":30}","true","ArrowDown,ArrowRight","false","","","revaluation","1","52","","",""
"html-keyboard-response","175","973955","0.0-4.0-2.0-1.26","spark_pilot_2","7099","6","7","Male","","","","","","","null","<div style=""font-size:60px;"">+</div>","null","fixation","","","","","","","","","","","53","","",""
"revaluation","176","979985","0.0-4.0-2.0-0.27","spark_pilot_2","7099","6","7","Male","","false","","","","","[468.2999999523163,631.1000001430511]","./assets/img/canyon/memory/2.jpg","[""ArrowDown"",""ArrowRight""]","value training","canyon","30","{""ArrowUp,ArrowLeft"":23,""ArrowUp,ArrowRight"":10,""ArrowDown,ArrowLeft"":8,""ArrowDown,ArrowRight"":30}","true","ArrowDown,ArrowRight","false","","","revaluation","1","54","","",""
"html-keyboard-response","177","980496","0.0-4.0-2.0-1.27","spark_pilot_2","7099","6","7","Male","","","","","","","null","<div style=""font-size:60px;"">+</div>","null","fixation","","","","","","","","","","","55","","",""
"revaluation","178","986516","0.0-4.0-2.0-0.28","spark_pilot_2","7099","6","7","Male","","false","","","","","[650.2000000476837,479.10000014305115]","./assets/img/canyon/memory/33.jpg","[""ArrowDown"",""ArrowLeft""]","value training","canyon","8","{""ArrowUp,ArrowLeft"":23,""ArrowUp,ArrowRight"":10,""ArrowDown,ArrowLeft"":8,""ArrowDown,ArrowRight"":30}","false","ArrowDown,ArrowLeft","false","","","revaluation","1","56","","",""
"html-keyboard-response","179","987020","0.0-4.0-2.0-1.28","spark_pilot_2","7099","6","7","Male","","","","","","","null","<div style=""font-size:60px;"">+</div>","null","fixation","","","","","","","","","","","57","","",""
"revaluation","180","993053","0.0-4.0-2.0-0.29","spark_pilot_2","7099","6","7","Male","","false","","","","","[1213.3999998569489,474.30000019073486]","./assets/img/canyon/memory/24.jpg","[""ArrowDown"",""ArrowRight""]","value training","canyon","30","{""ArrowUp,ArrowLeft"":23,""ArrowUp,ArrowRight"":10,""ArrowDown,ArrowLeft"":8,""ArrowDown,ArrowRight"":30}","true","ArrowDown,ArrowRight","false","","","revaluation","1","58","","",""
"html-keyboard-response","181","993564","0.0-4.0-2.0-1.29","spark_pilot_2","7099","6","7","Male","","","","","","","null","<div style=""font-size:60px;"">+</div>","null","fixation","","","","","","","","","","","59","","",""
"revaluation","182","999590","0.0-4.0-2.0-0.30","spark_pilot_2","7099","6","7","Male","","false","","","","","[421.5,431.19999980926514]","./assets/img/canyon/memory/36.jpg","[""ArrowDown"",""ArrowRight""]","value training","canyon","30","{""ArrowUp,ArrowLeft"":23,""ArrowUp,ArrowRight"":10,""ArrowDown,ArrowLeft"":8,""ArrowDown,ArrowRight"":30}","true","ArrowDown,ArrowRight","false","","","revaluation","1","60","","",""
"html-keyboard-response","183","1000094","0.0-4.0-2.0-1.30","spark_pilot_2","7099","6","7","Male","","","","","","","null","<div style=""font-size:60px;"">+</div>","null","fixation","","","","","","","","","","","61","","",""
"revaluation","184","1004114","0.0-4.0-2.0-0.31","spark_pilot_2","7099","6","7","Male","","false","","","","","[1838.7999999523163]","./assets/img/canyon/catch/2.jpg","[""spaceBar""]","value training","canyon","0","{""ArrowUp,ArrowLeft"":23,""ArrowUp,ArrowRight"":10,""ArrowDown,ArrowLeft"":8,""ArrowDown,ArrowRight"":30}","true","spaceBar","true","","","revaluation","1","62","","",""
"html-keyboard-response","185","1004616","0.0-4.0-2.0-1.31","spark_pilot_2","7099","6","7","Male","","","","","","","null","<div style=""font-size:60px;"">+</div>","null","fixation","","","","","","","","","","","63","","",""
"revaluation","186","1010646","0.0-4.0-2.0-0.32","spark_pilot_2","7099","6","7","Male","","false","","","","","[1798.3999998569489,527.7000000476837]","./assets/img/canyon/memory/41.jpg","[""ArrowUp"",""ArrowRight""]","value training","canyon","10","{""ArrowUp,ArrowLeft"":23,""ArrowUp,ArrowRight"":10,""ArrowDown,ArrowLeft"":8,""ArrowDown,ArrowRight"":30}","false","ArrowUp,ArrowRight","false","","","revaluation","1","64","","",""
"html-keyboard-response","187","1011153","0.0-4.0-2.0-1.32","spark_pilot_2","7099","6","7","Male","","","","","","","null","<div style=""font-size:60px;"">+</div>","null","fixation","","","","","","","","","","","65","","",""
"revaluation","188","1017183","0.0-4.0-2.0-0.33","spark_pilot_2","7099","6","7","Male","","false","","","","","[571.8999998569489,724.8999998569489]","./assets/img/canyon/memory/39.jpg","[""ArrowDown"",""ArrowRight""]","value training","canyon","30","{""ArrowUp,ArrowLeft"":23,""ArrowUp,ArrowRight"":10,""ArrowDown,ArrowLeft"":8,""ArrowDown,ArrowRight"":30}","true","ArrowDown,ArrowRight","false","","","revaluation","1","66","","",""
"html-keyboard-response","189","1017688","0.0-4.0-2.0-1.33","spark_pilot_2","7099","6","7","Male","","","","","","","null","<div style=""font-size:60px;"">+</div>","null","fixation","","","","","","","","","","","67","","",""
"revaluation","190","1023716","0.0-4.0-2.0-0.34","spark_pilot_2","7099","6","7","Male","","false","","","","","[467.90000009536743,437.2000000476837]","./assets/img/canyon/memory/17.jpg","[""ArrowDown"",""ArrowRight""]","value training","canyon","30","{""ArrowUp,ArrowLeft"":23,""ArrowUp,ArrowRight"":10,""ArrowDown,ArrowLeft"":8,""ArrowDown,ArrowRight"":30}","true","ArrowDown,ArrowRight","false","","","revaluation","1","68","","",""
"html-keyboard-response","191","1024225","0.0-4.0-2.0-1.34","spark_pilot_2","7099","6","7","Male","","","","","","","null","<div style=""font-size:60px;"">+</div>","null","fixation","","","","","","","","","","","69","","",""
"revaluation","192","1030255","0.0-4.0-2.0-0.35","spark_pilot_2","7099","6","7","Male","","false","","","","","[909.7000000476837,649.2000000476837]","./assets/img/canyon/memory/38.jpg","[""ArrowDown"",""ArrowRight""]","value training","canyon","30","{""ArrowUp,ArrowLeft"":23,""ArrowUp,ArrowRight"":10,""ArrowDown,ArrowLeft"":8,""ArrowDown,ArrowRight"":30}","true","ArrowDown,ArrowRight","false","","","revaluation","1","70","","",""
"html-keyboard-response","193","1030766","0.0-4.0-2.0-1.35","spark_pilot_2","7099","6","7","Male","","","","","","","null","<div style=""font-size:60px;"">+</div>","null","fixation","","","","","","","","","","","71","","",""
"revaluation","194","1036797","0.0-4.0-2.0-0.36","spark_pilot_2","7099","6","7","Male","","false","","","","","[1735.7999999523163,532.0999999046326]","./assets/img/canyon/memory/4.jpg","[""ArrowDown"",""ArrowRight""]","value training","canyon","30","{""ArrowUp,ArrowLeft"":23,""ArrowUp,ArrowRight"":10,""ArrowDown,ArrowLeft"":8,""ArrowDown,ArrowRight"":30}","true","ArrowDown,ArrowRight","false","","","revaluation","1","72","","",""
"html-keyboard-response","195","1037306","0.0-4.0-2.0-1.36","spark_pilot_2","7099","6","7","Male","","","","","","","null","<div style=""font-size:60px;"">+</div>","null","fixation","","","","","","","","","","","73","","",""
"revaluation","196","1041327","0.0-4.0-2.0-0.37","spark_pilot_2","7099","6","7","Male","","false","","","","","[907.7999999523163]","./assets/img/canyon/catch/6.jpg","[""spaceBar""]","value training","canyon","0","{""ArrowUp,ArrowLeft"":23,""ArrowUp,ArrowRight"":10,""ArrowDown,ArrowLeft"":8,""ArrowDown,ArrowRight"":30}","true","spaceBar","true","","","revaluation","1","74","","",""
"html-keyboard-response","197","1041834","0.0-4.0-2.0-1.37","spark_pilot_2","7099","6","7","Male","","","","","","","null","<div style=""font-size:60px;"">+</div>","null","fixation","","","","","","","","","","","75","","",""
"revaluation","198","1047865","0.0-4.0-2.0-0.38","spark_pilot_2","7099","6","7","Male","","false","","","","","[1592.7000000476837,630.2999999523163]","./assets/img/canyon/memory/15.jpg","[""ArrowDown"",""ArrowRight""]","value training","canyon","30","{""ArrowUp,ArrowLeft"":23,""ArrowUp,ArrowRight"":10,""ArrowDown,ArrowLeft"":8,""ArrowDown,ArrowRight"":30}","true","ArrowDown,ArrowRight","false","","","revaluation","1","76","","",""
"html-keyboard-response","199","1048371","0.0-4.0-2.0-1.38","spark_pilot_2","7099","6","7","Male","","","","","","","null","<div style=""font-size:60px;"">+</div>","null","fixation","","","","","","","","","","","77","","",""
"revaluation","200","1054401","0.0-4.0-2.0-0.39","spark_pilot_2","7099","6","7","Male","","false","","","","","[1674.3999998569489,354.2999999523163]","./assets/img/canyon/memory/35.jpg","[""ArrowDown"",""ArrowRight""]","value training","canyon","30","{""ArrowUp,ArrowLeft"":23,""ArrowUp,ArrowRight"":10,""ArrowDown,ArrowLeft"":8,""ArrowDown,ArrowRight"":30}","true","ArrowDown,ArrowRight","false","","","revaluation","1","78","","",""
"html-keyboard-response","201","1054907","0.0-4.0-2.0-1.39","spark_pilot_2","7099","6","7","Male","","","","","","","null","<div style=""font-size:60px;"">+</div>","null","fixation","","","","","","","","","","","79","","",""
"revaluation","202","1060935","0.0-4.0-2.0-0.40","spark_pilot_2","7099","6","7","Male","","false","","","","","[596,375.39999985694885]","./assets/img/canyon/memory/28.jpg","[""ArrowDown"",""ArrowRight""]","value training","canyon","30","{""ArrowUp,ArrowLeft"":23,""ArrowUp,ArrowRight"":10,""ArrowDown,ArrowLeft"":8,""ArrowDown,ArrowRight"":30}","true","ArrowDown,ArrowRight","false","","","revaluation","1","80","","",""
"html-keyboard-response","203","1061446","0.0-4.0-2.0-1.40","spark_pilot_2","7099","6","7","Male","","","","","","","null","<div style=""font-size:60px;"">+</div>","null","fixation","","","","","","","","","","","81","","",""
"revaluation","204","1065464","0.0-4.0-2.0-0.41","spark_pilot_2","7099","6","7","Male","","true","","","","","[]","./assets/img/canyon/memory/36.jpg","[]","value training","canyon","-5","{""ArrowUp,ArrowLeft"":23,""ArrowUp,ArrowRight"":10,""ArrowDown,ArrowLeft"":8,""ArrowDown,ArrowRight"":30}","false","","false","","","revaluation","1","82","","",""
"html-keyboard-response","205","1065976","0.0-4.0-2.0-1.41","spark_pilot_2","7099","6","7","Male","","","","","","","null","<div style=""font-size:60px;"">+</div>","null","fixation","","","","","","","","","","","83","","",""
"revaluation","206","1071995","0.0-4.0-2.0-0.42","spark_pilot_2","7099","6","7","Male","","false","","","","","[752.2999999523163,546.5]","./assets/img/canyon/memory/4.jpg","[""ArrowDown"",""ArrowRight""]","value training","canyon","30","{""ArrowUp,ArrowLeft"":23,""ArrowUp,ArrowRight"":10,""ArrowDown,ArrowLeft"":8,""ArrowDown,ArrowRight"":30}","true","ArrowDown,ArrowRight","false","","","revaluation","1","84","","",""
"html-keyboard-response","207","1072502","0.0-4.0-2.0-1.42","spark_pilot_2","7099","6","7","Male","","","","","","","null","<div style=""font-size:60px;"">+</div>","null","fixation","","","","","","","","","","","85","","",""
"revaluation","208","1078527","0.0-4.0-2.0-0.43","spark_pilot_2","7099","6","7","Male","","false","","","","","[656.7999999523163,519]","./assets/img/canyon/memory/27.jpg","[""ArrowDown"",""ArrowRight""]","value training","canyon","30","{""ArrowUp,ArrowLeft"":23,""ArrowUp,ArrowRight"":10,""ArrowDown,ArrowLeft"":8,""ArrowDown,ArrowRight"":30}","true","ArrowDown,ArrowRight","false","","","revaluation","1","86","","",""
"html-keyboard-response","209","1079031","0.0-4.0-2.0-1.43","spark_pilot_2","7099","6","7","Male","","","","","","","null","<div style=""font-size:60px;"">+</div>","null","fixation","","","","","","","","","","","87","","",""
"revaluation","210","1085055","0.0-4.0-2.0-0.44","spark_pilot_2","7099","6","7","Male","","false","","","","","[1177.2000000476837,391]","./assets/img/canyon/memory/1.jpg","[""ArrowDown"",""ArrowRight""]","value training","canyon","30","{""ArrowUp,ArrowLeft"":23,""ArrowUp,ArrowRight"":10,""ArrowDown,ArrowLeft"":8,""ArrowDown,ArrowRight"":30}","true","ArrowDown,ArrowRight","false","","","revaluation","1","88","","",""
"html-keyboard-response","211","1085564","0.0-4.0-2.0-1.44","spark_pilot_2","7099","6","7","Male","","","","","","","null","<div style=""font-size:60px;"">+</div>","null","fixation","","","","","","","","","","","89","","",""
"revaluation","212","1091585","0.0-4.0-2.0-0.45","spark_pilot_2","7099","6","7","Male","","false","","","","","[1967.3000001907349,925.7999999523163]","./assets/img/canyon/memory/18.jpg","[""ArrowDown"",""ArrowRight""]","value training","canyon","30","{""ArrowUp,ArrowLeft"":23,""ArrowUp,ArrowRight"":10,""ArrowDown,ArrowLeft"":8,""ArrowDown,ArrowRight"":30}","true","ArrowDown,ArrowRight","false","","","revaluation","1","90","","",""
"html-keyboard-response","213","1092094","0.0-4.0-2.0-1.45","spark_pilot_2","7099","6","7","Male","","","","","","","null","<div style=""font-size:60px;"">+</div>","null","fixation","","","","","","","","","","","91","","",""
"revaluation","214","1096115","0.0-4.0-2.0-0.46","spark_pilot_2","7099","6","7","Male","","false","","","","","[1008.7000000476837]","./assets/img/canyon/catch/3.jpg","[""spaceBar""]","value training","canyon","0","{""ArrowUp,ArrowLeft"":23,""ArrowUp,ArrowRight"":10,""ArrowDown,ArrowLeft"":8,""ArrowDown,ArrowRight"":30}","true","spaceBar","true","","","revaluation","1","92","","",""
"html-keyboard-response","215","1096626","0.0-4.0-2.0-1.46","spark_pilot_2","7099","6","7","Male","","","","","","","null","<div style=""font-size:60px;"">+</div>","null","fixation","","","","","","","","","","","93","","",""
"revaluation","216","1102656","0.0-4.0-2.0-0.47","spark_pilot_2","7099","6","7","Male","","false","","","","","[1512.7000000476837,516.8999998569489]","./assets/img/canyon/memory/39.jpg","[""ArrowDown"",""ArrowRight""]","value training","canyon","30","{""ArrowUp,ArrowLeft"":23,""ArrowUp,ArrowRight"":10,""ArrowDown,ArrowLeft"":8,""ArrowDown,ArrowRight"":30}","true","ArrowDown,ArrowRight","false","","","revaluation","1","94","","",""
"html-keyboard-response","217","1103164","0.0-4.0-2.0-1.47","spark_pilot_2","7099","6","7","Male","","","","","","","null","<div style=""font-size:60px;"">+</div>","null","fixation","","","","","","","","","","","95","","",""
"revaluation","218","1109196","0.0-4.0-2.0-0.48","spark_pilot_2","7099","6","7","Male","","false","","","","","[448.2000000476837,404.7000000476837]","./assets/img/canyon/memory/17.jpg","[""ArrowDown"",""ArrowRight""]","value training","canyon","30","{""ArrowUp,ArrowLeft"":23,""ArrowUp,ArrowRight"":10,""ArrowDown,ArrowLeft"":8,""ArrowDown,ArrowRight"":30}","true","ArrowDown,ArrowRight","false","","","revaluation","1","96","","",""
"html-keyboard-response","219","1109704","0.0-4.0-2.0-1.48","spark_pilot_2","7099","6","7","Male","","","","","","","null","<div style=""font-size:60px;"">+</div>","null","fixation","","","","","","","","","","","97","","",""
"revaluation","220","1115734","0.0-4.0-2.0-0.49","spark_pilot_2","7099","6","7","Male","","false","","","","","[633.2000000476837,390.7000000476837]","./assets/img/canyon/memory/35.jpg","[""ArrowDown"",""ArrowRight""]","value training","canyon","30","{""ArrowUp,ArrowLeft"":23,""ArrowUp,ArrowRight"":10,""ArrowDown,ArrowLeft"":8,""ArrowDown,ArrowRight"":30}","true","ArrowDown,ArrowRight","false","","","revaluation","1","98","","",""
"html-keyboard-response","221","1116247","0.0-4.0-2.0-1.49","spark_pilot_2","7099","6","7","Male","","","","","","","null","<div style=""font-size:60px;"">+</div>","null","fixation","","","","","","","","","","","99","","",""
"learning-instructions","222","1130768","0.0-4.0-3.0-0.0","spark_pilot_2","7099","6","7","Male","","","","","","","1478","<p> Now, you will travel with a friend who will choose whether you go up or down first. </p>
            <p> On these turns, you will just see the animal that they found. You will still get to choose which chest to search for treasure.</p>","","instructions","","","","","","","","","","","","","",""
"revaluation","223","1134778","0.0-4.0-4.0-0.0","spark_pilot_2","7099","6","7","Male","","false","","","","","[1438.7000000476837]","./assets/img/canyon/animals/giraffe.jpg","[""ArrowRight""]","revaluation","canyon","7","{""ArrowUp,ArrowLeft"":27,""ArrowUp,ArrowRight"":15,""ArrowDown,ArrowLeft"":21,""ArrowDown,ArrowRight"":7}","false","ArrowDown,ArrowRight","","","","revaluation","1","0","","",""
"html-keyboard-response","224","1135295","0.0-4.0-4.0-1.0","spark_pilot_2","7099","6","7","Male","","","","","","","null","<div style=""font-size:60px;"">+</div>","null","fixation","","","","","","","","","","","1","","",""
"revaluation","225","1139317","0.0-4.0-4.0-0.1","spark_pilot_2","7099","6","7","Male","","false","","","","","[605.2999999523163]","./assets/img/canyon/animals/giraffe.jpg","[""ArrowLeft""]","revaluation","canyon","21","{""ArrowUp,ArrowLeft"":27,""ArrowUp,ArrowRight"":15,""ArrowDown,ArrowLeft"":21,""ArrowDown,ArrowRight"":7}","true","ArrowDown,ArrowLeft","","","","revaluation","1","2","","",""
"html-keyboard-response","226","1139825","0.0-4.0-4.0-1.1","spark_pilot_2","7099","6","7","Male","","","","","","","null","<div style=""font-size:60px;"">+</div>","null","fixation","","","","","","","","","","","3","","",""
"revaluation","227","1143856","0.0-4.0-4.0-0.2","spark_pilot_2","7099","6","7","Male","","false","","","","","[327.7000000476837]","./assets/img/canyon/animals/lion.jpg","[""ArrowLeft""]","revaluation","canyon","27","{""ArrowUp,ArrowLeft"":27,""ArrowUp,ArrowRight"":15,""ArrowDown,ArrowLeft"":21,""ArrowDown,ArrowRight"":7}","true","ArrowUp,ArrowLeft","","","","revaluation","1","4","","",""
"html-keyboard-response","228","1144375","0.0-4.0-4.0-1.2","spark_pilot_2","7099","6","7","Male","","","","","","","null","<div style=""font-size:60px;"">+</div>","null","fixation","","","","","","","","","","","5","","",""
"revaluation","229","1148395","0.0-4.0-4.0-0.3","spark_pilot_2","7099","6","7","Male","","false","","","","","[600.5]","./assets/img/canyon/animals/giraffe.jpg","[""ArrowLeft""]","revaluation","canyon","21","{""ArrowUp,ArrowLeft"":27,""ArrowUp,ArrowRight"":15,""ArrowDown,ArrowLeft"":21,""ArrowDown,ArrowRight"":7}","true","ArrowDown,ArrowLeft","","","","revaluation","1","6","","",""
"html-keyboard-response","230","1148900","0.0-4.0-4.0-1.3","spark_pilot_2","7099","6","7","Male","","","","","","","null","<div style=""font-size:60px;"">+</div>","null","fixation","","","","","","","","","","","7","","",""
"revaluation","231","1152914","0.0-4.0-4.0-0.4","spark_pilot_2","7099","6","7","Male","","false","","","","","[466.90000009536743]","./assets/img/canyon/animals/giraffe.jpg","[""ArrowLeft""]","revaluation","canyon","21","{""ArrowUp,ArrowLeft"":27,""ArrowUp,ArrowRight"":15,""ArrowDown,ArrowLeft"":21,""ArrowDown,ArrowRight"":7}","true","ArrowDown,ArrowLeft","","","","revaluation","1","8","","",""
"html-keyboard-response","232","1153427","0.0-4.0-4.0-1.4","spark_pilot_2","7099","6","7","Male","","","","","","","null","<div style=""font-size:60px;"">+</div>","null","fixation","","","","","","","","","","","9","","",""
"revaluation","233","1157447","0.0-4.0-4.0-0.5","spark_pilot_2","7099","6","7","Male","","false","","","","","[137.79999995231628]","./assets/img/canyon/animals/lion.jpg","[""ArrowLeft""]","revaluation","canyon","27","{""ArrowUp,ArrowLeft"":27,""ArrowUp,ArrowRight"":15,""ArrowDown,ArrowLeft"":21,""ArrowDown,ArrowRight"":7}","true","ArrowUp,ArrowLeft","","","","revaluation","1","10","","",""
"html-keyboard-response","234","1157955","0.0-4.0-4.0-1.5","spark_pilot_2","7099","6","7","Male","","","","","","","null","<div style=""font-size:60px;"">+</div>","null","fixation","","","","","","","","","","","11","","",""
"revaluation","235","1161975","0.0-4.0-4.0-0.6","spark_pilot_2","7099","6","7","Male","","false","","","","","[748.2000000476837]","./assets/img/canyon/animals/lion.jpg","[""ArrowLeft""]","revaluation","canyon","27","{""ArrowUp,ArrowLeft"":27,""ArrowUp,ArrowRight"":15,""ArrowDown,ArrowLeft"":21,""ArrowDown,ArrowRight"":7}","true","ArrowUp,ArrowLeft","","","","revaluation","1","12","","",""
"html-keyboard-response","236","1162485","0.0-4.0-4.0-1.6","spark_pilot_2","7099","6","7","Male","","","","","","","null","<div style=""font-size:60px;"">+</div>","null","fixation","","","","","","","","","","","13","","",""
"revaluation","237","1166507","0.0-4.0-4.0-0.7","spark_pilot_2","7099","6","7","Male","","false","","","","","[468.7000000476837]","./assets/img/canyon/animals/lion.jpg","[""ArrowLeft""]","revaluation","canyon","27","{""ArrowUp,ArrowLeft"":27,""ArrowUp,ArrowRight"":15,""ArrowDown,ArrowLeft"":21,""ArrowDown,ArrowRight"":7}","true","ArrowUp,ArrowLeft","","","","revaluation","1","14","","",""
"html-keyboard-response","238","1167009","0.0-4.0-4.0-1.7","spark_pilot_2","7099","6","7","Male","","","","","","","null","<div style=""font-size:60px;"">+</div>","null","fixation","","","","","","","","","","","15","","",""
"revaluation","239","1171017","0.0-4.0-4.0-0.8","spark_pilot_2","7099","6","7","Male","","false","","","","","[630]","./assets/img/canyon/animals/giraffe.jpg","[""ArrowLeft""]","revaluation","canyon","21","{""ArrowUp,ArrowLeft"":27,""ArrowUp,ArrowRight"":15,""ArrowDown,ArrowLeft"":21,""ArrowDown,ArrowRight"":7}","true","ArrowDown,ArrowLeft","","","","revaluation","1","16","","",""
"html-keyboard-response","240","1171523","0.0-4.0-4.0-1.8","spark_pilot_2","7099","6","7","Male","","","","","","","null","<div style=""font-size:60px;"">+</div>","null","fixation","","","","","","","","","","","17","","",""
"revaluation","241","1175541","0.0-4.0-4.0-0.9","spark_pilot_2","7099","6","7","Male","","false","","","","","[511.7999999523163]","./assets/img/canyon/animals/lion.jpg","[""ArrowLeft""]","revaluation","canyon","27","{""ArrowUp,ArrowLeft"":27,""ArrowUp,ArrowRight"":15,""ArrowDown,ArrowLeft"":21,""ArrowDown,ArrowRight"":7}","true","ArrowUp,ArrowLeft","","","","revaluation","1","18","","",""
"html-keyboard-response","242","1176045","0.0-4.0-4.0-1.9","spark_pilot_2","7099","6","7","Male","","","","","","","null","<div style=""font-size:60px;"">+</div>","null","fixation","","","","","","","","","","","19","","",""
"revaluation","243","1180065","0.0-4.0-4.0-0.10","spark_pilot_2","7099","6","7","Male","","false","","","","","[570.2999999523163]","./assets/img/canyon/animals/lion.jpg","[""ArrowLeft""]","revaluation","canyon","27","{""ArrowUp,ArrowLeft"":27,""ArrowUp,ArrowRight"":15,""ArrowDown,ArrowLeft"":21,""ArrowDown,ArrowRight"":7}","true","ArrowUp,ArrowLeft","","","","revaluation","1","20","","",""
"html-keyboard-response","244","1180575","0.0-4.0-4.0-1.10","spark_pilot_2","7099","6","7","Male","","","","","","","null","<div style=""font-size:60px;"">+</div>","null","fixation","","","","","","","","","","","21","","",""
"revaluation","245","1184598","0.0-4.0-4.0-0.11","spark_pilot_2","7099","6","7","Male","","true","","","","","[]","./assets/img/canyon/animals/giraffe.jpg","[]","revaluation","canyon","-5","{""ArrowUp,ArrowLeft"":27,""ArrowUp,ArrowRight"":15,""ArrowDown,ArrowLeft"":21,""ArrowDown,ArrowRight"":7}","false","ArrowDown","","","","revaluation","1","22","","",""
"html-keyboard-response","246","1185106","0.0-4.0-4.0-1.11","spark_pilot_2","7099","6","7","Male","","","","","","","null","<div style=""font-size:60px;"">+</div>","null","fixation","","","","","","","","","","","23","","",""
"revaluation","247","1189124","0.0-4.0-4.0-0.12","spark_pilot_2","7099","6","7","Male","","false","","","","","[549.1000001430511]","./assets/img/canyon/animals/lion.jpg","[""ArrowLeft""]","revaluation","canyon","27","{""ArrowUp,ArrowLeft"":27,""ArrowUp,ArrowRight"":15,""ArrowDown,ArrowLeft"":21,""ArrowDown,ArrowRight"":7}","true","ArrowUp,ArrowLeft","","","","revaluation","1","24","","",""
"html-keyboard-response","248","1189627","0.0-4.0-4.0-1.12","spark_pilot_2","7099","6","7","Male","","","","","","","null","<div style=""font-size:60px;"">+</div>","null","fixation","","","","","","","","","","","25","","",""
"revaluation","249","1193645","0.0-4.0-4.0-0.13","spark_pilot_2","7099","6","7","Male","","false","","","","","[453.10000014305115]","./assets/img/canyon/animals/giraffe.jpg","[""ArrowLeft""]","revaluation","canyon","21","{""ArrowUp,ArrowLeft"":27,""ArrowUp,ArrowRight"":15,""ArrowDown,ArrowLeft"":21,""ArrowDown,ArrowRight"":7}","true","ArrowDown,ArrowLeft","","","","revaluation","1","26","","",""
"html-keyboard-response","250","1194154","0.0-4.0-4.0-1.13","spark_pilot_2","7099","6","7","Male","","","","","","","null","<div style=""font-size:60px;"">+</div>","null","fixation","","","","","","","","","","","27","","",""
"revaluation","251","1198165","0.0-4.0-4.0-0.14","spark_pilot_2","7099","6","7","Male","","false","","","","","[460]","./assets/img/canyon/animals/lion.jpg","[""ArrowLeft""]","revaluation","canyon","27","{""ArrowUp,ArrowLeft"":27,""ArrowUp,ArrowRight"":15,""ArrowDown,ArrowLeft"":21,""ArrowDown,ArrowRight"":7}","true","ArrowUp,ArrowLeft","","","","revaluation","1","28","","",""
"html-keyboard-response","252","1198674","0.0-4.0-4.0-1.14","spark_pilot_2","7099","6","7","Male","","","","","","","null","<div style=""font-size:60px;"">+</div>","null","fixation","","","","","","","","","","","29","","",""
"revaluation","253","1202683","0.0-4.0-4.0-0.15","spark_pilot_2","7099","6","7","Male","","false","","","","","[305.80000019073486]","./assets/img/canyon/animals/giraffe.jpg","[""ArrowLeft""]","revaluation","canyon","21","{""ArrowUp,ArrowLeft"":27,""ArrowUp,ArrowRight"":15,""ArrowDown,ArrowLeft"":21,""ArrowDown,ArrowRight"":7}","true","ArrowDown,ArrowLeft","","","","revaluation","1","30","","",""
"html-keyboard-response","254","1203185","0.0-4.0-4.0-1.15","spark_pilot_2","7099","6","7","Male","","","","","","","null","<div style=""font-size:60px;"">+</div>","null","fixation","","","","","","","","","","","31","","",""
"revaluation","255","1207205","0.0-4.0-4.0-0.16","spark_pilot_2","7099","6","7","Male","","true","","","","","[]","./assets/img/canyon/animals/giraffe.jpg","[]","revaluation","canyon","-5","{""ArrowUp,ArrowLeft"":27,""ArrowUp,ArrowRight"":15,""ArrowDown,ArrowLeft"":21,""ArrowDown,ArrowRight"":7}","false","ArrowDown","","","","revaluation","1","32","","",""
"html-keyboard-response","256","1207708","0.0-4.0-4.0-1.16","spark_pilot_2","7099","6","7","Male","","","","","","","null","<div style=""font-size:60px;"">+</div>","null","fixation","","","","","","","","","","","33","","",""
"revaluation","257","1211723","0.0-4.0-4.0-0.17","spark_pilot_2","7099","6","7","Male","","false","","","","","[483.40000009536743]","./assets/img/canyon/animals/lion.jpg","[""ArrowLeft""]","revaluation","canyon","27","{""ArrowUp,ArrowLeft"":27,""ArrowUp,ArrowRight"":15,""ArrowDown,ArrowLeft"":21,""ArrowDown,ArrowRight"":7}","true","ArrowUp,ArrowLeft","","","","revaluation","1","34","","",""
"html-keyboard-response","258","1212227","0.0-4.0-4.0-1.17","spark_pilot_2","7099","6","7","Male","","","","","","","null","<div style=""font-size:60px;"">+</div>","null","fixation","","","","","","","","","","","35","","",""
"learning-instructions","259","1226073","0.0-4.0-5.0-0.0","spark_pilot_2","7099","6","7","Male","","","","","","","2213.0999999046326","<p> Time to play the dot game! </p>
            <p> For one minute, click the red dots on the following screen as they appear. </p>
            <p><b> Don't look away, as you will earn bonus for clicking dots</b>. </p>","","instructions","","","","","","","","","","","","","",""
"revaluation","260","1286080","0.0-4.0-6.0-0.0","spark_pilot_2","7099","6","7","Male","","","","","","","[124,83,88,87,73,72]","","","rest","","60","","","","","0","60000","","","","","",""
"learning-instructions","261","1294405","0.0-4.0-7.0-0.0","spark_pilot_2","7099","6","7","Male","","","","","","","2075.7000000476837","<p> You have almost finished this part of the game! </p>
            <p> We are going to ask you to make a few more choices. </p>","","instructions","","","","","","","","","","","","","",""
"learning-instructions","262","1309796","0.0-4.0-7.0-0.1","spark_pilot_2","7099","6","7","Male","","","","","","","1426.7000000476837","<p> First, you need to decide whether to go up or down. When you see each picture, use the arrow keys to make your choice. </p>
            <p><b>You will not see which animal you found, but try to get to the one that will give you the most treasure.</b></p>","","instructions","","","","","","","","","","","","","",""
"revaluation","263","1311163","0.0-4.0-8.0-0.0","spark_pilot_2","7099","6","7","Male","","false","","","","","[1365.2999999523163]","./assets/img/canyon/test/1.jpg","[""ArrowUp""]","first stage test","canyon","0","{""ArrowUp,ArrowLeft"":27,""ArrowUp,ArrowRight"":15,""ArrowDown,ArrowLeft"":21,""ArrowDown,ArrowRight"":7}","true","ArrowUp","false","","","revaluation","1","","","",""
"html-keyboard-response","264","1311665","0.0-4.0-8.0-1.0","spark_pilot_2","7099","6","7","Male","","","","","","","null","<div style=""font-size:60px;"">+</div>","null","fixation","","","","","","","","","","","","","",""
"revaluation","265","1312387","0.0-4.0-8.0-0.1","spark_pilot_2","7099","6","7","Male","","false","","","","","[715.7000000476837]","./assets/img/canyon/test/2.jpg","[""ArrowUp""]","first stage test","canyon","0","{""ArrowUp,ArrowLeft"":27,""ArrowUp,ArrowRight"":15,""ArrowDown,ArrowLeft"":21,""ArrowDown,ArrowRight"":7}","true","ArrowUp","false","","","revaluation","1","","","",""
"html-keyboard-response","266","1312894","0.0-4.0-8.0-1.1","spark_pilot_2","7099","6","7","Male","","","","","","","null","<div style=""font-size:60px;"">+</div>","null","fixation","","","","","","","","","","","","","",""
"revaluation","267","1313439","0.0-4.0-8.0-0.2","spark_pilot_2","7099","6","7","Male","","false","","","","","[542.2999999523163]","./assets/img/canyon/test/3.jpg","[""ArrowUp""]","first stage test","canyon","0","{""ArrowUp,ArrowLeft"":27,""ArrowUp,ArrowRight"":15,""ArrowDown,ArrowLeft"":21,""ArrowDown,ArrowRight"":7}","true","ArrowUp","false","","","revaluation","1","","","",""
"html-keyboard-response","268","1313944","0.0-4.0-8.0-1.2","spark_pilot_2","7099","6","7","Male","","","","","","","null","<div style=""font-size:60px;"">+</div>","null","fixation","","","","","","","","","","","","","",""
"revaluation","269","1314466","0.0-4.0-8.0-0.3","spark_pilot_2","7099","6","7","Male","","false","","","","","[515.7000000476837]","./assets/img/canyon/test/0.jpg","[""ArrowUp""]","first stage test","canyon","0","{""ArrowUp,ArrowLeft"":27,""ArrowUp,ArrowRight"":15,""ArrowDown,ArrowLeft"":21,""ArrowDown,ArrowRight"":7}","true","ArrowUp","false","","","revaluation","1","","","",""
"html-keyboard-response","270","1314974","0.0-4.0-8.0-1.3","spark_pilot_2","7099","6","7","Male","","","","","","","null","<div style=""font-size:60px;"">+</div>","null","fixation","","","","","","","","","","","","","",""
"learning-instructions","271","1328266","0.0-4.0-9.0-0.0","spark_pilot_2","7099","6","7","Male","","","","","","","1948.4000000953674","<p> Now you will see the animals again and can search their chests for treasure. </p>
            <p> This time, you will not see how much treasure you earned, but you will earn more bonus money for making better choices. </p>","","instructions","","","","","","","","","","","","","",""
"revaluation","272","1329544","0.0-4.0-10.0-0.0","spark_pilot_2","7099","6","7","Male","","false","","","","","[1275.7999999523163]","./assets/img/canyon/animals/lion.jpg","[""ArrowRight""]","second stage test","canyon","0","{""ArrowUp,ArrowLeft"":27,""ArrowUp,ArrowRight"":15,""ArrowDown,ArrowLeft"":21,""ArrowDown,ArrowRight"":7}","false","ArrowUp,ArrowRight","","","","revaluation","1","","","",""
"html-keyboard-response","273","1330059","0.0-4.0-10.0-1.0","spark_pilot_2","7099","6","7","Male","","","","","","","null","<div style=""font-size:60px;"">+</div>","null","fixation","","","","","","","","","","","","","",""
"revaluation","274","1331014","0.0-4.0-10.0-0.1","spark_pilot_2","7099","6","7","Male","","false","","","","","[953]","./assets/img/canyon/animals/lion.jpg","[""ArrowRight""]","second stage test","canyon","0","{""ArrowUp,ArrowLeft"":27,""ArrowUp,ArrowRight"":15,""ArrowDown,ArrowLeft"":21,""ArrowDown,ArrowRight"":7}","false","ArrowUp,ArrowRight","","","","revaluation","1","","","",""
"html-keyboard-response","275","1331525","0.0-4.0-10.0-1.1","spark_pilot_2","7099","6","7","Male","","","","","","","null","<div style=""font-size:60px;"">+</div>","null","fixation","","","","","","","","","","","","","",""
"revaluation","276","1332013","0.0-4.0-10.0-0.2","spark_pilot_2","7099","6","7","Male","","false","","","","","[483.19999980926514]","./assets/img/canyon/animals/lion.jpg","[""ArrowRight""]","second stage test","canyon","0","{""ArrowUp,ArrowLeft"":27,""ArrowUp,ArrowRight"":15,""ArrowDown,ArrowLeft"":21,""ArrowDown,ArrowRight"":7}","false","ArrowUp,ArrowRight","","","","revaluation","1","","","",""
"html-keyboard-response","277","1332523","0.0-4.0-10.0-1.2","spark_pilot_2","7099","6","7","Male","","","","","","","null","<div style=""font-size:60px;"">+</div>","null","fixation","","","","","","","","","","","","","",""
"revaluation","278","1333199","0.0-4.0-10.0-0.3","spark_pilot_2","7099","6","7","Male","","false","","","","","[669.7999999523163]","./assets/img/canyon/animals/lion.jpg","[""ArrowRight""]","second stage test","canyon","0","{""ArrowUp,ArrowLeft"":27,""ArrowUp,ArrowRight"":15,""ArrowDown,ArrowLeft"":21,""ArrowDown,ArrowRight"":7}","false","ArrowUp,ArrowRight","","","","revaluation","1","","","",""
"html-keyboard-response","279","1333709","0.0-4.0-10.0-1.3","spark_pilot_2","7099","6","7","Male","","","","","","","null","<div style=""font-size:60px;"">+</div>","null","fixation","","","","","","","","","","","","","",""
"revaluation","280","1334074","0.0-4.0-10.0-0.4","spark_pilot_2","7099","6","7","Male","","false","","","","","[362.7999999523163]","./assets/img/canyon/animals/giraffe.jpg","[""ArrowRight""]","second stage test","canyon","0","{""ArrowUp,ArrowLeft"":27,""ArrowUp,ArrowRight"":15,""ArrowDown,ArrowLeft"":21,""ArrowDown,ArrowRight"":7}","false","ArrowDown,ArrowRight","","","","revaluation","1","","","",""
"html-keyboard-response","281","1334584","0.0-4.0-10.0-1.4","spark_pilot_2","7099","6","7","Male","","","","","","","null","<div style=""font-size:60px;"">+</div>","null","fixation","","","","","","","","","","","","","",""
"revaluation","282","1334994","0.0-4.0-10.0-0.5","spark_pilot_2","7099","6","7","Male","","false","","","","","[402.39999985694885]","./assets/img/canyon/animals/giraffe.jpg","[""ArrowRight""]","second stage test","canyon","0","{""ArrowUp,ArrowLeft"":27,""ArrowUp,ArrowRight"":15,""ArrowDown,ArrowLeft"":21,""ArrowDown,ArrowRight"":7}","false","ArrowDown,ArrowRight","","","","revaluation","1","","","",""
"html-keyboard-response","283","1335503","0.0-4.0-10.0-1.5","spark_pilot_2","7099","6","7","Male","","","","","","","null","<div style=""font-size:60px;"">+</div>","null","fixation","","","","","","","","","","","","","",""
"revaluation","284","1336564","0.0-4.0-10.0-0.6","spark_pilot_2","7099","6","7","Male","","false","","","","","[1057.3000001907349]","./assets/img/canyon/animals/giraffe.jpg","[""ArrowLeft""]","second stage test","canyon","0","{""ArrowUp,ArrowLeft"":27,""ArrowUp,ArrowRight"":15,""ArrowDown,ArrowLeft"":21,""ArrowDown,ArrowRight"":7}","true","ArrowDown,ArrowLeft","","","","revaluation","1","","","",""
"html-keyboard-response","285","1337074","0.0-4.0-10.0-1.6","spark_pilot_2","7099","6","7","Male","","","","","","","null","<div style=""font-size:60px;"">+</div>","null","fixation","","","","","","","","","","","","","",""
"revaluation","286","1337452","0.0-4.0-10.0-0.7","spark_pilot_2","7099","6","7","Male","","false","","","","","[371.7999999523163]","./assets/img/canyon/animals/giraffe.jpg","[""ArrowLeft""]","second stage test","canyon","0","{""ArrowUp,ArrowLeft"":27,""ArrowUp,ArrowRight"":15,""ArrowDown,ArrowLeft"":21,""ArrowDown,ArrowRight"":7}","true","ArrowDown,ArrowLeft","","","","revaluation","1","","","",""
"html-keyboard-response","287","1337964","0.0-4.0-10.0-1.7","spark_pilot_2","7099","6","7","Male","","","","","","","null","<div style=""font-size:60px;"">+</div>","null","fixation","","","","","","","","","","","","","",""
"learning-instructions","288","1343594","0.0-4.0-0.1-0.2","spark_pilot_2","7099","6","7","Male","","","","","","","2925.0999999046326","<p> This time you are searching for treasure in the <b>ocean</b>.</p>","","instructions","","","","","","","","","","","","","",""
"learning-instructions","289","1362384","0.0-4.0-0.1-0.3","spark_pilot_2","7099","6","7","Male","","","","","","","1535.6000001430511","<p><b>New</b> animals with <b>new</b> treasure chests live here. You need to explore to discover where the animal with the best treasure chest is.</p>
                    <p> Like before, once you figure out which animal has the chest with the most treasure, you should try to get to that animal and select that chest! </p>","","instructions","","","","","","","","","","","","","",""
"learning-instructions","290","1379804","0.0-4.0-1.1-0.1","spark_pilot_2","7099","6","7","Male","","","","","","","2686.5","<p> Remember, when you see a picture of the place, use the up and down keys to <b>find an animal</b>.</p>
            <p> When you encounter an animal, you should use the left and right keys to <b>select a treasure chest</b>.</p>
            <p> Don't forget to look out for the robber! </p>","","instructions","","","","","","","","","","","","","",""
"revaluation","291","1385839","0.0-4.0-2.1-0.50","spark_pilot_2","7099","6","7","Male","","false","","","","","[1092,935.1000001430511]","./assets/img/ocean/memory/31.jpg","[""ArrowDown"",""ArrowRight""]","value training","ocean","17","{""ArrowUp,ArrowLeft"":26,""ArrowUp,ArrowRight"":10,""ArrowDown,ArrowLeft"":5,""ArrowDown,ArrowRight"":17}","false","ArrowDown,ArrowRight","false","","","original","2","0","","",""
"html-keyboard-response","292","1386344","0.0-4.0-2.1-1.50","spark_pilot_2","7099","6","7","Male","","","","","","","null","<div style=""font-size:60px;"">+</div>","null","fixation","","","","","","","","","","","1","","",""
"revaluation","293","1392364","0.0-4.0-2.1-0.51","spark_pilot_2","7099","6","7","Male","","false","","","","","[374.7999999523163,435.5]","./assets/img/ocean/memory/38.jpg","[""ArrowDown"",""ArrowLeft""]","value training","ocean","5","{""ArrowUp,ArrowLeft"":26,""ArrowUp,ArrowRight"":10,""ArrowDown,ArrowLeft"":5,""ArrowDown,ArrowRight"":17}","false","ArrowDown,ArrowLeft","false","","","original","2","2","","",""
"html-keyboard-response","294","1392870","0.0-4.0-2.1-1.51","spark_pilot_2","7099","6","7","Male","","","","","","","null","<div style=""font-size:60px;"">+</div>","null","fixation","","","","","","","","","","","3","","",""
"revaluation","295","1398903","0.0-4.0-2.1-0.52","spark_pilot_2","7099","6","7","Male","","false","","","","","[414.7000000476837,334.90000009536743]","./assets/img/ocean/memory/33.jpg","[""ArrowDown"",""ArrowRight""]","value training","ocean","17","{""ArrowUp,ArrowLeft"":26,""ArrowUp,ArrowRight"":10,""ArrowDown,ArrowLeft"":5,""ArrowDown,ArrowRight"":17}","false","ArrowDown,ArrowRight","false","","","original","2","4","","",""
"html-keyboard-response","296","1399404","0.0-4.0-2.1-1.52","spark_pilot_2","7099","6","7","Male","","","","","","","null","<div style=""font-size:60px;"">+</div>","null","fixation","","","","","","","","","","","5","","",""
"revaluation","297","1405435","0.0-4.0-2.1-0.53","spark_pilot_2","7099","6","7","Male","","false","","","","","[456.5,558.5]","./assets/img/ocean/memory/41.jpg","[""ArrowUp"",""ArrowRight""]","value training","ocean","10","{""ArrowUp,ArrowLeft"":26,""ArrowUp,ArrowRight"":10,""ArrowDown,ArrowLeft"":5,""ArrowDown,ArrowRight"":17}","false","ArrowUp,ArrowRight","false","","","original","2","6","","",""
"html-keyboard-response","298","1405946","0.0-4.0-2.1-1.53","spark_pilot_2","7099","6","7","Male","","","","","","","null","<div style=""font-size:60px;"">+</div>","null","fixation","","","","","","","","","","","7","","",""
"revaluation","299","1411965","0.0-4.0-2.1-0.54","spark_pilot_2","7099","6","7","Male","","false","","","","","[1009.5,707.2999999523163]","./assets/img/ocean/memory/31.jpg","[""ArrowUp"",""ArrowLeft""]","value training","ocean","26","{""ArrowUp,ArrowLeft"":26,""ArrowUp,ArrowRight"":10,""ArrowDown,ArrowLeft"":5,""ArrowDown,ArrowRight"":17}","true","ArrowUp,ArrowLeft","false","","","original","2","8","","",""
"html-keyboard-response","300","1412473","0.0-4.0-2.1-1.54","spark_pilot_2","7099","6","7","Male","","","","","","","null","<div style=""font-size:60px;"">+</div>","null","fixation","","","","","","","","","","","9","","",""
"revaluation","301","1418503","0.0-4.0-2.1-0.55","spark_pilot_2","7099","6","7","Male","","false","","","","","[1272.6000001430511,547.2999999523163]","./assets/img/ocean/memory/27.jpg","[""ArrowUp"",""ArrowLeft""]","value training","ocean","26","{""ArrowUp,ArrowLeft"":26,""ArrowUp,ArrowRight"":10,""ArrowDown,ArrowLeft"":5,""ArrowDown,ArrowRight"":17}","true","ArrowUp,ArrowLeft","false","","","original","2","10","","",""
"html-keyboard-response","302","1419005","0.0-4.0-2.1-1.55","spark_pilot_2","7099","6","7","Male","","","","","","","null","<div style=""font-size:60px;"">+</div>","null","fixation","","","","","","","","","","","11","","",""
"revaluation","303","1425030","0.0-4.0-2.1-0.56","spark_pilot_2","7099","6","7","Male","","false","","","","","[614.6000001430511,583.1000001430511]","./assets/img/ocean/memory/14.jpg","[""ArrowUp"",""ArrowLeft""]","value training","ocean","26","{""ArrowUp,ArrowLeft"":26,""ArrowUp,ArrowRight"":10,""ArrowDown,ArrowLeft"":5,""ArrowDown,ArrowRight"":17}","true","ArrowUp,ArrowLeft","false","","","original","2","12","","",""
"html-keyboard-response","304","1425534","0.0-4.0-2.1-1.56","spark_pilot_2","7099","6","7","Male","","","","","","","null","<div style=""font-size:60px;"">+</div>","null","fixation","","","","","","","","","","","13","","",""
"revaluation","305","1431565","0.0-4.0-2.1-0.57","spark_pilot_2","7099","6","7","Male","","false","","","","","[358.90000009536743,560.6000001430511]","./assets/img/ocean/memory/41.jpg","[""ArrowUp"",""ArrowLeft""]","value training","ocean","26","{""ArrowUp,ArrowLeft"":26,""ArrowUp,ArrowRight"":10,""ArrowDown,ArrowLeft"":5,""ArrowDown,ArrowRight"":17}","true","ArrowUp,ArrowLeft","false","","","original","2","14","","",""
"html-keyboard-response","306","1432077","0.0-4.0-2.1-1.57","spark_pilot_2","7099","6","7","Male","","","","","","","null","<div style=""font-size:60px;"">+</div>","null","fixation","","","","","","","","","","","15","","",""
"revaluation","307","1438103","0.0-4.0-2.1-0.58","spark_pilot_2","7099","6","7","Male","","false","","","","","[368.40000009536743,413.60000014305115]","./assets/img/ocean/memory/2.jpg","[""ArrowUp"",""ArrowLeft""]","value training","ocean","26","{""ArrowUp,ArrowLeft"":26,""ArrowUp,ArrowRight"":10,""ArrowDown,ArrowLeft"":5,""ArrowDown,ArrowRight"":17}","true","ArrowUp,ArrowLeft","false","","","original","2","16","","",""
"html-keyboard-response","308","1438614","0.0-4.0-2.1-1.58","spark_pilot_2","7099","6","7","Male","","","","","","","null","<div style=""font-size:60px;"">+</div>","null","fixation","","","","","","","","","","","17","","",""
"revaluation","309","1444649","0.0-4.0-2.1-0.59","spark_pilot_2","7099","6","7","Male","","false","","","","","[435.5,421]","./assets/img/ocean/memory/17.jpg","[""ArrowUp"",""ArrowLeft""]","value training","ocean","26","{""ArrowUp,ArrowLeft"":26,""ArrowUp,ArrowRight"":10,""ArrowDown,ArrowLeft"":5,""ArrowDown,ArrowRight"":17}","true","ArrowUp,ArrowLeft","false","","","original","2","18","","",""
