"trial_type","trial_index","time_elapsed","internal_node_id","task_version","subject_id","assigned_condition","age","gender","success","timeout","failed_images","failed_audio","failed_video","browser_interaction","rt","stimulus","response","task_part","environment","score","rewardMap","correct","fullState","isCatch","numberMissed","duration","condition","order","trial_num","key_press","ground_truth","bonus"
"pavlovia","0","979","0.0-0.0","spark_pilot_2","7300","5","11","Male","","","","","","","","","","","","","","","","","","","","","","","",""
"preload","1","52081","0.0-1.0","spark_pilot_2","7300","5","11","Male","true","false","[]","[]","[]","[{""event"":""fullscreenenter"",""trial"":2,""time"":69205}]","","","","","","","","","","","","","","","","","",""
"fullscreen","2","70195","0.0-2.0","spark_pilot_2","7300","5","11","Male","true","","","","","","","","","","","","","","","","","","","","","","",""
"audio-button-response","3","75648","0.0-3.0-0.0-0.0","spark_pilot_2","7300","5","11","Male","","","","","","","4960","./assets/audio/audiotest/turtle.mp3","2","audio_test","","","","","","","","","","","","","",""
"learning-instructions","4","84939","0.0-3.0-1.0-0.0","spark_pilot_2","7300","5","11","Male","","","","","","","2241.2999999523163","<p> Welcome! Please remember to stay in fullscreen mode and don't click away from the experiment. </p>","","instructions","","","","","","","","","","","","","",""
"learning-instructions","5","95937","0.0-3.0-1.0-0.1","spark_pilot_2","7300","5","11","Male","","","","","","","2519.800000011921","<p> Today you will be playing a game to earn treasure. </p>
            <p> At the end of the experiment, you will earn a bonus based on how much treasure you find. </p>
            <img src='./assets/img/instructions/treasure.jpg' class='instructions-image'>","","instructions","","","","","","","","","","","","","",""
"learning-instructions","6","106163","0.0-3.0-1.0-0.2","spark_pilot_2","7300","5","11","Male","","","","","","","1935.300000011921","<p> Animals have hidden treasure in treasure chests. </p>
            <p> You need to first find an animal and then choose which of their treasure chests to search. </p>
            <img src='./assets/img/space/animals/cat.jpg' class='instructions-image'>","","instructions","","","","","","","","","","","","","",""
"learning-instructions","7","128977","0.0-3.0-1.0-0.3","spark_pilot_2","7300","5","11","Male","","","","","","","9670.300000011921","<p> In each round, you will search for treasure in a different place. In the real game, there will be two rounds. </p>
            <p> You will begin with a separate, practice round where you will search for treasure in outer space. </p>
            <img src='./assets/img/space/0.jpg' class='instructions-image'>","","instructions","","","","","","","","","","","","","",""
"learning-instructions","8","140973","0.0-3.0-1.0-0.4","spark_pilot_2","7300","5","11","Male","","","","","","","484.4000000357628","<p> On every turn, you will see a picture of the place that you are in, but the specific image may be different each time. </p>
            <p> For example, both of these images mean you are in outer space. </p>
            <img src='./assets/img/instructions/outerspace.jpg' class='instructions-image'>","","instructions","","","","","","","","","","","","","",""
"learning-instructions","9","149553","0.0-3.0-1.0-0.5","spark_pilot_2","7300","5","11","Male","","","","","","","682.5999999642372","<p> You need to decide which direction to travel in. </p>
            <p> You can choose between going <b>up or down</b> by using the arrow keys. </p>
            <img src='./assets/img/instructions/updown.jpg' class='instructions-image'>","","instructions","","","","","","","","","","","","","",""
"learning-instructions","10","160493","0.0-3.0-1.0-0.6","spark_pilot_2","7300","5","11","Male","","","","","","","2044.8999999761581","<p> You will have <b>2 seconds</b> to make your choice. </p>
            <p> If you do not make a choice within 2 seconds, you will not find an animal or earn treasure. </p>
            <img src='./assets/img/instructions/2seconds.jpg' class='instructions-image'>","","instructions","","","","","","","","","","","","","",""
"learning-instructions","11","169930","0.0-3.0-1.0-0.7","spark_pilot_2","7300","5","11","Male","","","","","","","2341","<p> Let’s try practicing that now! </p>
            <p> When you see a picture of the place you are in, press the <b>up</b> key to travel up. </p>
            <img src='./assets/img/instructions/pressUp.jpg' class='instructions-image'>","","instructions","","","","","","","","","","","","","",""
"revaluation","12","173988","0.0-3.0-2.0-0.0","spark_pilot_2","7300","5","11","Male","","false","","","","","[657.3000000119209]","./assets/img/space/0.jpg","[""ArrowUp""]","first stage practice","space","0","null","null","ArrowUp","false","","","","","","","",""
"html-keyboard-response","13","174497","0.0-3.0-2.0-1.0","spark_pilot_2","7300","5","11","Male","","","","","","","null","<div style=""font-size:60px;"">+</div>","null","fixation","","","","","","","","","","","","","",""
"revaluation","14","178520","0.0-3.0-2.0-0.1","spark_pilot_2","7300","5","11","Male","","false","","","","","[625.3000000119209]","./assets/img/space/1.jpg","[""ArrowUp""]","first stage practice","space","0","null","null","ArrowUp","false","","","","","","","",""
"html-keyboard-response","15","179032","0.0-3.0-2.0-1.1","spark_pilot_2","7300","5","11","Male","","","","","","","null","<div style=""font-size:60px;"">+</div>","null","fixation","","","","","","","","","","","","","",""
"revaluation","16","183068","0.0-3.0-2.0-0.2","spark_pilot_2","7300","5","11","Male","","false","","","","","[460.30000001192093]","./assets/img/space/2.jpg","[""ArrowUp""]","first stage practice","space","0","null","null","ArrowUp","false","","","","","","","",""
"html-keyboard-response","17","183577","0.0-3.0-2.0-1.2","spark_pilot_2","7300","5","11","Male","","","","","","","null","<div style=""font-size:60px;"">+</div>","null","fixation","","","","","","","","","","","","","",""
"learning-instructions","18","189107","0.0-3.0-3.0-0.0","spark_pilot_2","7300","5","11","Male","","","","","","","717","<p> Great job! Now try pressing the <b>down</b> key to travel down. </p>
            <img src='./assets/img/instructions/pressDown.jpg' class='instructions-image'>","","instructions","","","","","","","","","","","","","",""
"revaluation","19","193118","0.0-3.0-4.0-0.0","spark_pilot_2","7300","5","11","Male","","false","","","","","[663.6999999880791]","./assets/img/space/3.jpg","[""ArrowDown""]","first stage practice","space","0","null","null","ArrowDown","false","","","","","","","",""
"html-keyboard-response","20","193635","0.0-3.0-4.0-1.0","spark_pilot_2","7300","5","11","Male","","","","","","","null","<div style=""font-size:60px;"">+</div>","null","fixation","","","","","","","","","","","","","",""
"revaluation","21","197664","0.0-3.0-4.0-0.1","spark_pilot_2","7300","5","11","Male","","false","","","","","[125.39999997615814]","./assets/img/space/4.jpg","[""ArrowDown""]","first stage practice","space","0","null","null","ArrowDown","false","","","","","","","",""
"html-keyboard-response","22","198171","0.0-3.0-4.0-1.1","spark_pilot_2","7300","5","11","Male","","","","","","","null","<div style=""font-size:60px;"">+</div>","null","fixation","","","","","","","","","","","","","",""
"revaluation","23","202186","0.0-3.0-4.0-0.2","spark_pilot_2","7300","5","11","Male","","false","","","","","[210.10000002384186]","./assets/img/space/5.jpg","[""ArrowDown""]","first stage practice","space","0","null","null","ArrowDown","false","","","","","","","",""
"html-keyboard-response","24","202690","0.0-3.0-4.0-1.2","spark_pilot_2","7300","5","11","Male","","","","","","","null","<div style=""font-size:60px;"">+</div>","null","fixation","","","","","","","","","","","","","",""
"learning-instructions","25","214028","0.0-3.0-5.0-0.0","spark_pilot_2","7300","5","11","Male","","","","","","","1399","<p> The animals don’t move, so the animal in the upper part of a place will stay in the upper part of a place, and the animal in the lower part of a place will stay in the lower part of a place. </p>","","instructions","","","","","","","","","","","","","",""
"learning-instructions","26","224489","0.0-3.0-5.0-0.1","spark_pilot_2","7300","5","11","Male","","","","","","","1239.5999999642372","<p> Each animal has two treasure chests for you to choose from. </p>
            <p> The amount of treasure in each chest can range from <b> 0 to 40 pieces.</b></p>","","instructions","","","","","","","","","","","","","",""
"learning-instructions","27","236315","0.0-3.0-5.0-0.2","spark_pilot_2","7300","5","11","Male","","","","","","","537.5999999642372","<p> You should decide which chest to search for treasure by using the <b>left</b> and <b>right</b> arrow keys. </p>
            <p><b> Pay attention to which animal is on the screen, as the animals have different treasure chests. </b></p>
            <img src='./assets/img/instructions/leftright.jpg' class='instructions-image'>","","instructions","","","","","","","","","","","","","",""
"learning-instructions","28","243258","0.0-3.0-5.0-0.3","spark_pilot_2","7300","5","11","Male","","","","","","","568.5","<p> Let’s try practicing that now. </p>
            <p> When you see an animal, choose which chest to search for treasure. </p>
            <img src='./assets/img/instructions/chooseChest.jpg' class='instructions-image'>","","instructions","","","","","","","","","","","","","",""
"revaluation","29","247274","0.0-3.0-6.0-0.0","spark_pilot_2","7300","5","11","Male","","false","","","","","[975.1000000238419]","./assets/img/space/animals/cat.jpg","[""ArrowRight""]","second stage practice","space","36","{""ArrowUp,ArrowLeft"":3,""ArrowUp,ArrowRight"":36,""ArrowDown,ArrowLeft"":15,""ArrowDown,ArrowRight"":23}","true","ArrowUp,ArrowRight","","","","","","","","",""
"html-keyboard-response","30","247783","0.0-3.0-6.0-1.0","spark_pilot_2","7300","5","11","Male","","","","","","","null","<div style=""font-size:60px;"">+</div>","null","fixation","","","","","","","","","","","","","",""
"revaluation","31","251817","0.0-3.0-6.0-0.1","spark_pilot_2","7300","5","11","Male","","false","","","","","[391.10000002384186]","./assets/img/space/animals/rabbit.jpg","[""ArrowRight""]","second stage practice","space","23","{""ArrowUp,ArrowLeft"":3,""ArrowUp,ArrowRight"":36,""ArrowDown,ArrowLeft"":15,""ArrowDown,ArrowRight"":23}","true","ArrowDown,ArrowRight","","","","","","","","",""
"html-keyboard-response","32","252321","0.0-3.0-6.0-1.1","spark_pilot_2","7300","5","11","Male","","","","","","","null","<div style=""font-size:60px;"">+</div>","null","fixation","","","","","","","","","","","","","",""
"revaluation","33","256349","0.0-3.0-6.0-0.2","spark_pilot_2","7300","5","11","Male","","false","","","","","[563.5]","./assets/img/space/animals/rabbit.jpg","[""ArrowLeft""]","second stage practice","space","15","{""ArrowUp,ArrowLeft"":3,""ArrowUp,ArrowRight"":36,""ArrowDown,ArrowLeft"":15,""ArrowDown,ArrowRight"":23}","false","ArrowDown,ArrowLeft","","","","","","","","",""
"html-keyboard-response","34","256863","0.0-3.0-6.0-1.2","spark_pilot_2","7300","5","11","Male","","","","","","","null","<div style=""font-size:60px;"">+</div>","null","fixation","","","","","","","","","","","","","",""
"revaluation","35","260885","0.0-3.0-6.0-0.3","spark_pilot_2","7300","5","11","Male","","false","","","","","[311.80000001192093]","./assets/img/space/animals/cat.jpg","[""ArrowLeft""]","second stage practice","space","3","{""ArrowUp,ArrowLeft"":3,""ArrowUp,ArrowRight"":36,""ArrowDown,ArrowLeft"":15,""ArrowDown,ArrowRight"":23}","false","ArrowUp,ArrowLeft","","","","","","","","",""
"html-keyboard-response","36","261391","0.0-3.0-6.0-1.3","spark_pilot_2","7300","5","11","Male","","","","","","","null","<div style=""font-size:60px;"">+</div>","null","fixation","","","","","","","","","","","","","",""
"learning-instructions","37","278875","0.0-3.0-7.0-0.0","spark_pilot_2","7300","5","11","Male","","","","","","","545.8000000119209","<p> Great job. Now let’s try putting it together. </p>
            <p> On each turn, you will first see a picture to remind you of the place you are in, and you need to choose whether to go up or down. </p>
            <p> Then you will see an animal and choose which of its chests to search for treasure. </p>","","instructions","","","","","","","","","","","","","",""
"learning-instructions","38","288484","0.0-3.0-7.0-0.1","spark_pilot_2","7300","5","11","Male","","","","","","","1275.9000000357628","<p> When you choose whether to go up or down, try to go to the animal with the chest with the most treasure. </p>
            <p> Try practicing that now! </p>","","instructions","","","","","","","","","","","","","",""
"revaluation","39","294516","0.0-3.0-8.0-0.0","spark_pilot_2","7300","5","11","Male","","false","","","","","[1474.6000000238419,932.6999999880791]","./assets/img/space/6.jpg","[""ArrowUp"",""ArrowRight""]","full practice","space","36","{""ArrowUp,ArrowLeft"":3,""ArrowUp,ArrowRight"":36,""ArrowDown,ArrowLeft"":15,""ArrowDown,ArrowRight"":23}","true","ArrowUp,ArrowRight","false","","","","","","","",""
"html-keyboard-response","40","295022","0.0-3.0-8.0-1.0","spark_pilot_2","7300","5","11","Male","","","","","","","null","<div style=""font-size:60px;"">+</div>","null","fixation","","","","","","","","","","","","","",""
"revaluation","41","301058","0.0-3.0-8.0-0.1","spark_pilot_2","7300","5","11","Male","","false","","","","","[309.80000001192093,509.19999998807907]","./assets/img/space/7.jpg","[""ArrowDown"",""ArrowRight""]","full practice","space","23","{""ArrowUp,ArrowLeft"":3,""ArrowUp,ArrowRight"":36,""ArrowDown,ArrowLeft"":15,""ArrowDown,ArrowRight"":23}","false","ArrowDown,ArrowRight","false","","","","","","","",""
"html-keyboard-response","42","301560","0.0-3.0-8.0-1.1","spark_pilot_2","7300","5","11","Male","","","","","","","null","<div style=""font-size:60px;"">+</div>","null","fixation","","","","","","","","","","","","","",""
"revaluation","43","307593","0.0-3.0-8.0-0.2","spark_pilot_2","7300","5","11","Male","","false","","","","","[429.10000002384186,473]","./assets/img/space/8.jpg","[""ArrowUp"",""ArrowRight""]","full practice","space","36","{""ArrowUp,ArrowLeft"":3,""ArrowUp,ArrowRight"":36,""ArrowDown,ArrowLeft"":15,""ArrowDown,ArrowRight"":23}","true","ArrowUp,ArrowRight","false","","","","","","","",""
"html-keyboard-response","44","308107","0.0-3.0-8.0-1.2","spark_pilot_2","7300","5","11","Male","","","","","","","null","<div style=""font-size:60px;"">+</div>","null","fixation","","","","","","","","","","","","","",""
"revaluation","45","314138","0.0-3.0-8.0-0.3","spark_pilot_2","7300","5","11","Male","","false","","","","","[535.2000000476837,571.6000000238419]","./assets/img/space/9.jpg","[""ArrowDown"",""ArrowLeft""]","full practice","space","15","{""ArrowUp,ArrowLeft"":3,""ArrowUp,ArrowRight"":36,""ArrowDown,ArrowLeft"":15,""ArrowDown,ArrowRight"":23}","false","ArrowDown,ArrowLeft","false","","","","","","","",""
"html-keyboard-response","46","314648","0.0-3.0-8.0-1.3","spark_pilot_2","7300","5","11","Male","","","","","","","null","<div style=""font-size:60px;"">+</div>","null","fixation","","","","","","","","","","","","","",""
"revaluation","47","320678","0.0-3.0-8.0-0.4","spark_pilot_2","7300","5","11","Male","","false","","","","","[555.3000000119209,986]","./assets/img/space/10.jpg","[""ArrowDown"",""ArrowRight""]","full practice","space","23","{""ArrowUp,ArrowLeft"":3,""ArrowUp,ArrowRight"":36,""ArrowDown,ArrowLeft"":15,""ArrowDown,ArrowRight"":23}","false","ArrowDown,ArrowRight","false","","","","","","","",""
"html-keyboard-response","48","321185","0.0-3.0-8.0-1.4","spark_pilot_2","7300","5","11","Male","","","","","","","null","<div style=""font-size:60px;"">+</div>","null","fixation","","","","","","","","","","","","","",""
"learning-instructions","49","332770","0.0-3.0-9.0-0.0","spark_pilot_2","7300","5","11","Male","","","","","","","1017.9000000357628","<p> One last thing: sometimes, you will see a robber. The robber can be anywhere in the picture. </p>
            <p> If you do not stop them, you will lose treasure. </p>
            <img src='./assets/img/instructions/robber.jpg' class='instructions-image'>","","instructions","","","","","","","","","","","","","",""
"learning-instructions","50","340505","0.0-3.0-9.0-0.1","spark_pilot_2","7300","5","11","Male","","","","","","","504.19999998807907","<p> If you see the robber, you should <b>press the space bar</b> rather than using the arrow keys. </p>
            <p> Try practicing that now! </p>","","instructions","","","","","","","","","","","","","",""
"revaluation","51","344515","0.0-3.0-10.0-0.0","spark_pilot_2","7300","5","11","Male","","false","","","","","[496.7999999523163]","./assets/img/space/catch/0.jpg","[""spaceBar""]","catch practice","space","0","{""ArrowUp,ArrowLeft"":3,""ArrowUp,ArrowRight"":36,""ArrowDown,ArrowLeft"":15,""ArrowDown,ArrowRight"":23}","true","spaceBar","true","","","","","","","",""
"html-keyboard-response","52","345025","0.0-3.0-10.0-1.0","spark_pilot_2","7300","5","11","Male","","","","","","","null","<div style=""font-size:60px;"">+</div>","null","fixation","","","","","","","","","","","","","",""
"revaluation","53","349044","0.0-3.0-10.0-0.1","spark_pilot_2","7300","5","11","Male","","false","","","","","[784.8999999761581]","./assets/img/space/catch/1.jpg","[""spaceBar""]","catch practice","space","0","{""ArrowUp,ArrowLeft"":3,""ArrowUp,ArrowRight"":36,""ArrowDown,ArrowLeft"":15,""ArrowDown,ArrowRight"":23}","true","spaceBar","true","","","","","","","",""
"html-keyboard-response","54","349555","0.0-3.0-10.0-1.1","spark_pilot_2","7300","5","11","Male","","","","","","","null","<div style=""font-size:60px;"">+</div>","null","fixation","","","","","","","","","","","","","",""
"revaluation","55","353576","0.0-3.0-10.0-0.2","spark_pilot_2","7300","5","11","Male","","false","","","","","[293.0999999642372]","./assets/img/space/catch/2.jpg","[""spaceBar""]","catch practice","space","0","{""ArrowUp,ArrowLeft"":3,""ArrowUp,ArrowRight"":36,""ArrowDown,ArrowLeft"":15,""ArrowDown,ArrowRight"":23}","true","spaceBar","true","","","","","","","",""
"html-keyboard-response","56","354084","0.0-3.0-10.0-1.2","spark_pilot_2","7300","5","11","Male","","","","","","","null","<div style=""font-size:60px;"">+</div>","null","fixation","","","","","","","","","","","","","",""
"learning-instructions","57","367991","0.0-3.0-11.0-0.0","spark_pilot_2","7300","5","11","Male","","","","","","","209.10000002384186","<p> After you explore a place to find treasure, it will be time to play a different game. </p>
            <p> During this game, red dots will appear on the screen and fall down slowly. </p>
            <p><b> You must click on them before they reach the bottom. </b></p>
            <img src='./assets/img/instructions/dotGame.jpg' class='instructions-image'>","","instructions","","","","","","","","","","","","","",""
"learning-instructions","58","374148","0.0-3.0-11.0-0.1","spark_pilot_2","7300","5","11","Male","","","","","","","436.69999998807907","<p> For every dot you click, you will earn additional treasure. </p>
            <p> Let’s try practicing that now. </p>","","instructions","","","","","","","","","","","","","",""
"revaluation","59","389170","0.0-3.0-12.0-0.0","spark_pilot_2","7300","5","11","Male","","","","","","","[105]","","","rest practice","","10","","","","","0","15000","","","","","",""
"learning-instructions","60","395764","0.0-3.0-13.0-0.0-0.0","spark_pilot_2","7300","5","11","Male","","","","","","","1252.7000000476837","<p> Now, you will practice a shortened version of the game to get a sense of how it all fits together. </p>","","instructions","","","","","","","","","","","","","",""
"learning-instructions","61","400110","0.0-3.0-13.0-0.0-0.1","spark_pilot_2","7300","5","11","Male","","","","","","","1128.699999988079","<p>This time you are searching for treasure in outer space.</p>","","instructions","","","","","","","","","","","","","",""
"learning-instructions","62","416069","0.0-3.0-13.0-1.0-0.0","spark_pilot_2","7300","5","11","Male","","","","","","","1087.5999999642372","<p> Remember, when you see a picture of the place, use the up and down keys to <b>find an animal</b>.</p>
            <p> When you encounter an animal, you should use the left and right keys to <b>select a treasure chest</b>.</p>
            <p> Don't forget to look out for the robber! </p>","","instructions","","","","","","","","","","","","","",""
"revaluation","63","422101","0.0-3.0-13.0-2.0-0.0","spark_pilot_2","7300","5","11","Male","","false","","","","","[1153.6000000238419,694.5999999642372]","./assets/img/space/11.jpg","[""ArrowUp"",""ArrowRight""]","practice block","space","36","{""ArrowUp,ArrowLeft"":3,""ArrowUp,ArrowRight"":36,""ArrowDown,ArrowLeft"":15,""ArrowDown,ArrowRight"":23}","true","ArrowUp,ArrowRight","false","","","","","","","",""
"html-keyboard-response","64","422606","0.0-3.0-13.0-2.0-1.0","spark_pilot_2","7300","5","11","Male","","","","","","","null","<div style=""font-size:60px;"">+</div>","null","fixation","","","","","","","","","","","","","",""
"revaluation","65","428644","0.0-3.0-13.0-2.0-0.1","spark_pilot_2","7300","5","11","Male","","false","","","","","[570.5,744.1999999880791]","./assets/img/space/12.jpg","[""ArrowUp"",""ArrowLeft""]","practice block","space","3","{""ArrowUp,ArrowLeft"":3,""ArrowUp,ArrowRight"":36,""ArrowDown,ArrowLeft"":15,""ArrowDown,ArrowRight"":23}","false","ArrowUp,ArrowLeft","false","","","","","","","",""
"html-keyboard-response","66","429156","0.0-3.0-13.0-2.0-1.1","spark_pilot_2","7300","5","11","Male","","","","","","","null","<div style=""font-size:60px;"">+</div>","null","fixation","","","","","","","","","","","","","",""
"revaluation","67","433179","0.0-3.0-13.0-2.0-0.2","spark_pilot_2","7300","5","11","Male","","true","","","","","[]","./assets/img/space/13.jpg","[]","practice block","space","-5","{""ArrowUp,ArrowLeft"":3,""ArrowUp,ArrowRight"":36,""ArrowDown,ArrowLeft"":15,""ArrowDown,ArrowRight"":23}","false","","false","","","","","","","",""
"html-keyboard-response","68","433688","0.0-3.0-13.0-2.0-1.2","spark_pilot_2","7300","5","11","Male","","","","","","","null","<div style=""font-size:60px;"">+</div>","null","fixation","","","","","","","","","","","","","",""
"revaluation","69","439723","0.0-3.0-13.0-2.0-0.3","spark_pilot_2","7300","5","11","Male","","false","","","","","[434.19999998807907,563.5999999642372]","./assets/img/space/14.jpg","[""ArrowUp"",""ArrowRight""]","practice block","space","36","{""ArrowUp,ArrowLeft"":3,""ArrowUp,ArrowRight"":36,""ArrowDown,ArrowLeft"":15,""ArrowDown,ArrowRight"":23}","true","ArrowUp,ArrowRight","false","","","","","","","",""
"html-keyboard-response","70","440233","0.0-3.0-13.0-2.0-1.3","spark_pilot_2","7300","5","11","Male","","","","","","","null","<div style=""font-size:60px;"">+</div>","null","fixation","","","","","","","","","","","","","",""
"revaluation","71","446264","0.0-3.0-13.0-2.0-0.4","spark_pilot_2","7300","5","11","Male","","false","","","","","[481.30000001192093,385.9000000357628]","./assets/img/space/11.jpg","[""ArrowUp"",""ArrowRight""]","practice block","space","36","{""ArrowUp,ArrowLeft"":3,""ArrowUp,ArrowRight"":36,""ArrowDown,ArrowLeft"":15,""ArrowDown,ArrowRight"":23}","true","ArrowUp,ArrowRight","false","","","","","","","",""
"html-keyboard-response","72","446774","0.0-3.0-13.0-2.0-1.4","spark_pilot_2","7300","5","11","Male","","","","","","","null","<div style=""font-size:60px;"">+</div>","null","fixation","","","","","","","","","","","","","",""
"revaluation","73","452806","0.0-3.0-13.0-2.0-0.5","spark_pilot_2","7300","5","11","Male","","false","","","","","[574.7000000476837,252.9000000357628]","./assets/img/space/12.jpg","[""ArrowUp"",""ArrowRight""]","practice block","space","36","{""ArrowUp,ArrowLeft"":3,""ArrowUp,ArrowRight"":36,""ArrowDown,ArrowLeft"":15,""ArrowDown,ArrowRight"":23}","true","ArrowUp,ArrowRight","false","","","","","","","",""
"html-keyboard-response","74","453317","0.0-3.0-13.0-2.0-1.5","spark_pilot_2","7300","5","11","Male","","","","","","","null","<div style=""font-size:60px;"">+</div>","null","fixation","","","","","","","","","","","","","",""
"revaluation","75","459341","0.0-3.0-13.0-2.0-0.6","spark_pilot_2","7300","5","11","Male","","false","","","","","[1264.9000000357628,410.5]","./assets/img/space/13.jpg","[""ArrowUp"",""ArrowRight""]","practice block","space","36","{""ArrowUp,ArrowLeft"":3,""ArrowUp,ArrowRight"":36,""ArrowDown,ArrowLeft"":15,""ArrowDown,ArrowRight"":23}","true","ArrowUp,ArrowRight","false","","","","","","","",""
"html-keyboard-response","76","459845","0.0-3.0-13.0-2.0-1.6","spark_pilot_2","7300","5","11","Male","","","","","","","null","<div style=""font-size:60px;"">+</div>","null","fixation","","","","","","","","","","","","","",""
"revaluation","77","465871","0.0-3.0-13.0-2.0-0.7","spark_pilot_2","7300","5","11","Male","","false","","","","","[845.1000000238419,453.0999999642372]","./assets/img/space/14.jpg","[""ArrowUp"",""ArrowRight""]","practice block","space","36","{""ArrowUp,ArrowLeft"":3,""ArrowUp,ArrowRight"":36,""ArrowDown,ArrowLeft"":15,""ArrowDown,ArrowRight"":23}","true","ArrowUp,ArrowRight","false","","","","","","","",""
"html-keyboard-response","78","466378","0.0-3.0-13.0-2.0-1.7","spark_pilot_2","7300","5","11","Male","","","","","","","null","<div style=""font-size:60px;"">+</div>","null","fixation","","","","","","","","","","","","","",""
"revaluation","79","470392","0.0-3.0-13.0-2.0-0.8","spark_pilot_2","7300","5","11","Male","","false","","","","","[773.8999999761581]","./assets/img/space/catch/3.jpg","[""spaceBar""]","practice block","space","0","{""ArrowUp,ArrowLeft"":3,""ArrowUp,ArrowRight"":36,""ArrowDown,ArrowLeft"":15,""ArrowDown,ArrowRight"":23}","true","spaceBar","true","","","","","","","",""
"html-keyboard-response","80","470898","0.0-3.0-13.0-2.0-1.8","spark_pilot_2","7300","5","11","Male","","","","","","","null","<div style=""font-size:60px;"">+</div>","null","fixation","","","","","","","","","","","","","",""
"learning-instructions","81","485434","0.0-3.0-13.0-3.0-0.0","spark_pilot_2","7300","5","11","Male","","","","","","","1158.3999999761581","<p> Now, you will travel with a friend who will choose whether you go up or down first. </p>
            <p> On these turns, you will just see the animal that they found. You will still get to choose which chest to search for treasure.</p>","","instructions","","","","","","","","","","","","","",""
"revaluation","82","489457","0.0-3.0-13.0-4.0-0.0","spark_pilot_2","7300","5","11","Male","","false","","","","","[1449.300000011921]","./assets/img/space/animals/rabbit.jpg","[""ArrowRight""]","practice block","space","23","{""ArrowUp,ArrowLeft"":3,""ArrowUp,ArrowRight"":36,""ArrowDown,ArrowLeft"":15,""ArrowDown,ArrowRight"":23}","true","ArrowDown,ArrowRight","","","","","","","","",""
"html-keyboard-response","83","489959","0.0-3.0-13.0-4.0-1.0","spark_pilot_2","7300","5","11","Male","","","","","","","null","<div style=""font-size:60px;"">+</div>","null","fixation","","","","","","","","","","","","","",""
"revaluation","84","493978","0.0-3.0-13.0-4.0-0.1","spark_pilot_2","7300","5","11","Male","","false","","","","","[525]","./assets/img/space/animals/cat.jpg","[""ArrowRight""]","practice block","space","36","{""ArrowUp,ArrowLeft"":3,""ArrowUp,ArrowRight"":36,""ArrowDown,ArrowLeft"":15,""ArrowDown,ArrowRight"":23}","true","ArrowUp,ArrowRight","","","","","","","","",""
"html-keyboard-response","85","494489","0.0-3.0-13.0-4.0-1.1","spark_pilot_2","7300","5","11","Male","","","","","","","null","<div style=""font-size:60px;"">+</div>","null","fixation","","","","","","","","","","","","","",""
"revaluation","86","498512","0.0-3.0-13.0-4.0-0.2","spark_pilot_2","7300","5","11","Male","","false","","","","","[571.5999999642372]","./assets/img/space/animals/rabbit.jpg","[""ArrowRight""]","practice block","space","23","{""ArrowUp,ArrowLeft"":3,""ArrowUp,ArrowRight"":36,""ArrowDown,ArrowLeft"":15,""ArrowDown,ArrowRight"":23}","true","ArrowDown,ArrowRight","","","","","","","","",""
"html-keyboard-response","87","499022","0.0-3.0-13.0-4.0-1.2","spark_pilot_2","7300","5","11","Male","","","","","","","null","<div style=""font-size:60px;"">+</div>","null","fixation","","","","","","","","","","","","","",""
"revaluation","88","503043","0.0-3.0-13.0-4.0-0.3","spark_pilot_2","7300","5","11","Male","","false","","","","","[876.1999999880791]","./assets/img/space/animals/cat.jpg","[""ArrowLeft""]","practice block","space","3","{""ArrowUp,ArrowLeft"":3,""ArrowUp,ArrowRight"":36,""ArrowDown,ArrowLeft"":15,""ArrowDown,ArrowRight"":23}","false","ArrowUp,ArrowLeft","","","","","","","","",""
"html-keyboard-response","89","503554","0.0-3.0-13.0-4.0-1.3","spark_pilot_2","7300","5","11","Male","","","","","","","null","<div style=""font-size:60px;"">+</div>","null","fixation","","","","","","","","","","","","","",""
"learning-instructions","90","512089","0.0-3.0-13.0-5.0-0.0","spark_pilot_2","7300","5","11","Male","","","","","","","1023.7999999523163","<p> Time to play the dot game! </p>
            <p> For 15 seconds, click the red dots on the following screen as they appear. </p>","","instructions","","","","","","","","","","","","","",""
"revaluation","91","527094","0.0-3.0-13.0-6.0-0.0","spark_pilot_2","7300","5","11","Male","","","","","","","[128]","","","rest practice","","10","","","","","0","15000","","","","","",""
"learning-instructions","92","534095","0.0-3.0-13.0-7.0-0.0","spark_pilot_2","7300","5","11","Male","","","","","","","828.9000000357628","<p> You have almost finished this part of the game! </p>
            <p> We are going to ask you to make a few more choices. </p>","","instructions","","","","","","","","","","","","","",""
"learning-instructions","93","548740","0.0-3.0-13.0-7.0-0.1","spark_pilot_2","7300","5","11","Male","","","","","","","524.2000000476837","<p> First, you need to decide whether to go up or down. When you see each picture, use the arrow keys to make your choice. </p>
            <p><b>You will not see which animal you found, but try to get to the one that will give you the most treasure.</b></p>","","instructions","","","","","","","","","","","","","",""
"revaluation","94","549751","0.0-3.0-13.0-8.0","spark_pilot_2","7300","5","11","Male","","false","","","","","[1005]","./assets/img/space/15.jpg","[""ArrowUp""]","practice block","space","0","{""ArrowUp,ArrowLeft"":3,""ArrowUp,ArrowRight"":36,""ArrowDown,ArrowLeft"":15,""ArrowDown,ArrowRight"":23}","true","ArrowUp","false","","","","","","","",""
"html-keyboard-response","95","550262","0.0-3.0-13.0-9.0","spark_pilot_2","7300","5","11","Male","","","","","","","null","<div style=""font-size:60px;"">+</div>","null","fixation","","","","","","","","","","","","","",""
"learning-instructions","96","563265","0.0-3.0-13.0-10.0-0.0","spark_pilot_2","7300","5","11","Male","","","","","","","1528.699999988079","<p> Now you will see the animals again and can search their chests for treasure. </p>
            <p> This time, you will not see how much treasure you earned, but you will earn more bonus money for making better choices. </p>","","instructions","","","","","","","","","","","","","",""
"revaluation","97","564079","0.0-3.0-13.0-11.0-0.0","spark_pilot_2","7300","5","11","Male","","false","","","","","[808.5]","./assets/img/space/animals/cat.jpg","[""ArrowRight""]","practice block","space","0","{""ArrowUp,ArrowLeft"":3,""ArrowUp,ArrowRight"":36,""ArrowDown,ArrowLeft"":15,""ArrowDown,ArrowRight"":23}","true","ArrowUp,ArrowRight","","","","","","","","",""
"html-keyboard-response","98","564581","0.0-3.0-13.0-11.0-1.0","spark_pilot_2","7300","5","11","Male","","","","","","","null","<div style=""font-size:60px;"">+</div>","null","fixation","","","","","","","","","","","","","",""
"revaluation","99","565456","0.0-3.0-13.0-11.0-0.1","spark_pilot_2","7300","5","11","Male","","false","","","","","[869.0999999642372]","./assets/img/space/animals/rabbit.jpg","[""ArrowRight""]","practice block","space","0","{""ArrowUp,ArrowLeft"":3,""ArrowUp,ArrowRight"":36,""ArrowDown,ArrowLeft"":15,""ArrowDown,ArrowRight"":23}","true","ArrowDown,ArrowRight","","","","","","","","",""
"html-keyboard-response","100","565971","0.0-3.0-13.0-11.0-1.1","spark_pilot_2","7300","5","11","Male","","","","","","","null","<div style=""font-size:60px;"">+</div>","null","fixation","","","","","","","","","","","","","",""
"learning-instructions","101","571461","0.0-3.0-14.0-0.0","spark_pilot_2","7300","5","11","Male","","","","","","","874.1999999880791","<p> Before you start, we're going to ask you a few questions about how the game works. </p>","","instructions","","","","","","","","","","","","","",""
"comp-q","102","578340","0.0-3.0-15.0-0.0-0.0","spark_pilot_2","7300","5","11","Male","","","","","","","1234.0999999642372","<p> <b> True or False? </b> </p>
            <p> There can be 50 pieces of treasure in a given animal's chest. </p>","1","comp_question","","","","true","","","","","","","","","",""
"comp-q","103","590049","0.0-3.0-15.0-0.0-1.0","spark_pilot_2","7300","5","11","Male","","","","","","","4992.299999952316","<p> <b> That's right! </b> The amount of treasure in each chest can range from 0 to 40 pieces. </p>","0","comp_answer","","","","","","","","","","","","","",""
"comp-q","104","600751","0.0-3.0-15.0-0.1-0.1","spark_pilot_2","7300","5","11","Male","","","","","","","3523.5","<p> <b> True or False? </b> </p><p> In this game, all animals have the same amount of treasure in their left and right chests. </p>","1","comp_question","","","","true","","","","","","","","","",""
"comp-q","105","608067","0.0-3.0-15.0-0.1-1.1","spark_pilot_2","7300","5","11","Male","","","","","","","2040.6000000238419","<p> <b> That's right! </b> Animals have different amounts of treasure in their treasure chests. </p>","0","comp_answer","","","","","","","","","","","","","",""
"comp-q","106","615152","0.0-3.0-15.0-0.2-0.2","spark_pilot_2","7300","5","11","Male","","","","","","","1177.800000011921","<p> <b> True or False? </b> </p><p> The same animal will always be there if you go up in the same place. </p>","1","comp_question","","","","false","","","","","","","","","",""
"comp-q","107","623185","0.0-3.0-15.0-0.2-1.2","spark_pilot_2","7300","5","11","Male","","","","","","","1680.199999988079","<p> <b>Incorrect.</b> One animal lives in the upper part and one lives in the lower part of every place. </p>","0","comp_answer","","","","","","","","","","","","","",""
"comp-q","108","630069","0.0-3.0-15.0-0.3-0.3","spark_pilot_2","7300","5","11","Male","","","","","","","1054.5","<p> <b> True or False? </b> </p><p> The same animal will always be there if you go up in the same place. </p>","0","comp_question","","","","true","","","","","","","","","",""
"comp-q","109","647732","0.0-3.0-15.0-0.3-1.3","spark_pilot_2","7300","5","11","Male","","","","","","","11159.399999976158","<p> <b> That's right! </b> One animal lives in the upper part and one lives in the lower part of every place. </p>","0","comp_answer","","","","","","","","","","","","","",""
"comp-q","110","654209","0.0-3.0-15.0-0.4-0.4","spark_pilot_2","7300","5","11","Male","","","","","","","904.1000000238419","<p> <b> True or False? </b> </p><p> If you see a different picture, it means you are in a new place. </p>","0","comp_question","","","","false","","","","","","","","","",""
"comp-q","111","668906","0.0-3.0-15.0-0.4-1.4","spark_pilot_2","7300","5","11","Male","","","","","","","3511.400000035763","<p> <b>Incorrect.</b> Lots of different images may show the same place. For example,  you may see three different images that all remind you that you are in outer space. </p>","0","comp_answer","","","","","","","","","","","","","",""
"comp-q","112","676285","0.0-3.0-15.0-0.5-0.5","spark_pilot_2","7300","5","11","Male","","","","","","","1868.300000011921","<p> <b> True or False? </b> </p><p> If you see a different picture, it means you are in a new place. </p>","1","comp_question","","","","true","","","","","","","","","",""
"comp-q","113","689201","0.0-3.0-15.0-0.5-1.5","spark_pilot_2","7300","5","11","Male","","","","","","","1584.3999999761581","<p> <b> That's right! </b> Lots of different images may show the same place. For example,  you may see three different images that all remind you that you are in outer space. </p>","0","comp_answer","","","","","","","","","","","","","",""
"learning-instructions","114","700628","0.0-3.0-16.0-0.0","spark_pilot_2","7300","5","11","Male","","","","","","","1480.9000000357628","<p> Good job. Remember to do your best because the amount of treasure you earn will be converted into bonus money. </p>
            <p> It’s time to start the real game! </p>","","instructions","","","","","","","","","","","","","",""
"learning-instructions","115","704727","0.0-4.0-0.0-0.0","spark_pilot_2","7300","5","11","Male","","","","","","","1290.8999999761581","<p> This time you are searching for treasure in the <b>canyon</b>.</p>","","instructions","","","","","","","","","","","","","",""
"learning-instructions","116","723431","0.0-4.0-0.0-0.1","spark_pilot_2","7300","5","11","Male","","","","","","","1284.6000000238419","<p><b>New</b> animals with <b>new</b> treasure chests live here. You need to explore to discover where the animal with the best treasure chest is.</p>
                    <p> Like before, once you figure out which animal has the chest with the most treasure, you should try to get to that animal and select that chest! </p>","","instructions","","","","","","","","","","","","","",""
"learning-instructions","117","739064","0.0-4.0-1.0-0.0","spark_pilot_2","7300","5","11","Male","","","","","","","910.6000000238419","<p> Remember, when you see a picture of the place, use the up and down keys to <b>find an animal</b>.</p>
            <p> When you encounter an animal, you should use the left and right keys to <b>select a treasure chest</b>.</p>
            <p> Don't forget to look out for the robber! </p>","","instructions","","","","","","","","","","","","","",""
"revaluation","118","745102","0.0-4.0-2.0-0.0","spark_pilot_2","7300","5","11","Male","","false","","","","","[991.5,514.1000000238419]","./assets/img/canyon/memory/30.jpg","[""ArrowUp"",""ArrowRight""]","value training","canyon","10","{""ArrowUp,ArrowLeft"":26,""ArrowUp,ArrowRight"":10,""ArrowDown,ArrowLeft"":5,""ArrowDown,ArrowRight"":17}","false","ArrowUp,ArrowRight","false","","","original","1","0","","",""
"html-keyboard-response","119","745617","0.0-4.0-2.0-1.0","spark_pilot_2","7300","5","11","Male","","","","","","","null","<div style=""font-size:60px;"">+</div>","null","fixation","","","","","","","","","","","1","","",""
"revaluation","120","751666","0.0-4.0-2.0-0.1","spark_pilot_2","7300","5","11","Male","","false","","","","","[406.19999998807907,809.0999999642372]","./assets/img/canyon/memory/34.jpg","[""ArrowDown"",""ArrowRight""]","value training","canyon","17","{""ArrowUp,ArrowLeft"":26,""ArrowUp,ArrowRight"":10,""ArrowDown,ArrowLeft"":5,""ArrowDown,ArrowRight"":17}","false","ArrowDown,ArrowRight","false","","","original","1","2","","",""
"html-keyboard-response","121","752175","0.0-4.0-2.0-1.1","spark_pilot_2","7300","5","11","Male","","","","","","","null","<div style=""font-size:60px;"">+</div>","null","fixation","","","","","","","","","","","3","","",""
"revaluation","122","758197","0.0-4.0-2.0-0.2","spark_pilot_2","7300","5","11","Male","","false","","","","","[717.5,409.19999998807907]","./assets/img/canyon/memory/6.jpg","[""ArrowDown"",""ArrowLeft""]","value training","canyon","5","{""ArrowUp,ArrowLeft"":26,""ArrowUp,ArrowRight"":10,""ArrowDown,ArrowLeft"":5,""ArrowDown,ArrowRight"":17}","false","ArrowDown,ArrowLeft","false","","","original","1","4","","",""
"html-keyboard-response","123","758710","0.0-4.0-2.0-1.2","spark_pilot_2","7300","5","11","Male","","","","","","","null","<div style=""font-size:60px;"">+</div>","null","fixation","","","","","","","","","","","5","","",""
"revaluation","124","764751","0.0-4.0-2.0-0.3","spark_pilot_2","7300","5","11","Male","","false","","","","","[372.19999998807907,993.6999999880791]","./assets/img/canyon/memory/1.jpg","[""ArrowUp"",""ArrowLeft""]","value training","canyon","26","{""ArrowUp,ArrowLeft"":26,""ArrowUp,ArrowRight"":10,""ArrowDown,ArrowLeft"":5,""ArrowDown,ArrowRight"":17}","true","ArrowUp,ArrowLeft","false","","","original","1","6","","",""
"html-keyboard-response","125","765253","0.0-4.0-2.0-1.3","spark_pilot_2","7300","5","11","Male","","","","","","","null","<div style=""font-size:60px;"">+</div>","null","fixation","","","","","","","","","","","7","","",""
"revaluation","126","771276","0.0-4.0-2.0-0.4","spark_pilot_2","7300","5","11","Male","","false","","","","","[615.3999999761581,502.4000000357628]","./assets/img/canyon/memory/20.jpg","[""ArrowUp"",""ArrowRight""]","value training","canyon","10","{""ArrowUp,ArrowLeft"":26,""ArrowUp,ArrowRight"":10,""ArrowDown,ArrowLeft"":5,""ArrowDown,ArrowRight"":17}","false","ArrowUp,ArrowRight","false","","","original","1","8","","",""
"html-keyboard-response","127","771780","0.0-4.0-2.0-1.4","spark_pilot_2","7300","5","11","Male","","","","","","","null","<div style=""font-size:60px;"">+</div>","null","fixation","","","","","","","","","","","9","","",""
"revaluation","128","777819","0.0-4.0-2.0-0.5","spark_pilot_2","7300","5","11","Male","","false","","","","","[809.8000000119209,411.19999998807907]","./assets/img/canyon/memory/27.jpg","[""ArrowUp"",""ArrowLeft""]","value training","canyon","26","{""ArrowUp,ArrowLeft"":26,""ArrowUp,ArrowRight"":10,""ArrowDown,ArrowLeft"":5,""ArrowDown,ArrowRight"":17}","true","ArrowUp,ArrowLeft","false","","","original","1","10","","",""
"html-keyboard-response","129","778321","0.0-4.0-2.0-1.5","spark_pilot_2","7300","5","11","Male","","","","","","","null","<div style=""font-size:60px;"">+</div>","null","fixation","","","","","","","","","","","11","","",""
"revaluation","130","784346","0.0-4.0-2.0-0.6","spark_pilot_2","7300","5","11","Male","","false","","","","","[352.69999998807907,616.8000000119209]","./assets/img/canyon/memory/13.jpg","[""ArrowDown"",""ArrowRight""]","value training","canyon","17","{""ArrowUp,ArrowLeft"":26,""ArrowUp,ArrowRight"":10,""ArrowDown,ArrowLeft"":5,""ArrowDown,ArrowRight"":17}","false","ArrowDown,ArrowRight","false","","","original","1","12","","",""
"html-keyboard-response","131","784851","0.0-4.0-2.0-1.6","spark_pilot_2","7300","5","11","Male","","","","","","","null","<div style=""font-size:60px;"">+</div>","null","fixation","","","","","","","","","","","13","","",""
"revaluation","132","790876","0.0-4.0-2.0-0.7","spark_pilot_2","7300","5","11","Male","","false","","","","","[270.5999999642372,559.1999999880791]","./assets/img/canyon/memory/19.jpg","[""ArrowUp"",""ArrowLeft""]","value training","canyon","26","{""ArrowUp,ArrowLeft"":26,""ArrowUp,ArrowRight"":10,""ArrowDown,ArrowLeft"":5,""ArrowDown,ArrowRight"":17}","true","ArrowUp,ArrowLeft","false","","","original","1","14","","",""
"html-keyboard-response","133","791394","0.0-4.0-2.0-1.7","spark_pilot_2","7300","5","11","Male","","","","","","","null","<div style=""font-size:60px;"">+</div>","null","fixation","","","","","","","","","","","15","","",""
"revaluation","134","797407","0.0-4.0-2.0-0.8","spark_pilot_2","7300","5","11","Male","","false","","","","","[279,355.19999998807907]","./assets/img/canyon/memory/27.jpg","[""ArrowUp"",""ArrowLeft""]","value training","canyon","26","{""ArrowUp,ArrowLeft"":26,""ArrowUp,ArrowRight"":10,""ArrowDown,ArrowLeft"":5,""ArrowDown,ArrowRight"":17}","true","ArrowUp,ArrowLeft","false","","","original","1","16","","",""
"html-keyboard-response","135","797924","0.0-4.0-2.0-1.8","spark_pilot_2","7300","5","11","Male","","","","","","","null","<div style=""font-size:60px;"">+</div>","null","fixation","","","","","","","","","","","17","","",""
"revaluation","136","803950","0.0-4.0-2.0-0.9","spark_pilot_2","7300","5","11","Male","","false","","","","","[822.1999999880791,464.5]","./assets/img/canyon/memory/3.jpg","[""ArrowUp"",""ArrowLeft""]","value training","canyon","26","{""ArrowUp,ArrowLeft"":26,""ArrowUp,ArrowRight"":10,""ArrowDown,ArrowLeft"":5,""ArrowDown,ArrowRight"":17}","true","ArrowUp,ArrowLeft","false","","","original","1","18","","",""
"html-keyboard-response","137","804461","0.0-4.0-2.0-1.9","spark_pilot_2","7300","5","11","Male","","","","","","","null","<div style=""font-size:60px;"">+</div>","null","fixation","","","","","","","","","","","19","","",""
"revaluation","138","810487","0.0-4.0-2.0-0.10","spark_pilot_2","7300","5","11","Male","","false","","","","","[1067.2000000476837,521.5]","./assets/img/canyon/memory/20.jpg","[""ArrowUp"",""ArrowLeft""]","value training","canyon","26","{""ArrowUp,ArrowLeft"":26,""ArrowUp,ArrowRight"":10,""ArrowDown,ArrowLeft"":5,""ArrowDown,ArrowRight"":17}","true","ArrowUp,ArrowLeft","false","","","original","1","20","","",""
"html-keyboard-response","139","810990","0.0-4.0-2.0-1.10","spark_pilot_2","7300","5","11","Male","","","","","","","null","<div style=""font-size:60px;"">+</div>","null","fixation","","","","","","","","","","","21","","",""
"revaluation","140","817018","0.0-4.0-2.0-0.11","spark_pilot_2","7300","5","11","Male","","false","","","","","[757.5,459]","./assets/img/canyon/memory/15.jpg","[""ArrowUp"",""ArrowLeft""]","value training","canyon","26","{""ArrowUp,ArrowLeft"":26,""ArrowUp,ArrowRight"":10,""ArrowDown,ArrowLeft"":5,""ArrowDown,ArrowRight"":17}","true","ArrowUp,ArrowLeft","false","","","original","1","22","","",""
"html-keyboard-response","141","817529","0.0-4.0-2.0-1.11","spark_pilot_2","7300","5","11","Male","","","","","","","null","<div style=""font-size:60px;"">+</div>","null","fixation","","","","","","","","","","","23","","",""
"revaluation","142","821547","0.0-4.0-2.0-0.12","spark_pilot_2","7300","5","11","Male","","false","","","","","[774.5]","./assets/img/canyon/catch/3.jpg","[""spaceBar""]","value training","canyon","0","{""ArrowUp,ArrowLeft"":26,""ArrowUp,ArrowRight"":10,""ArrowDown,ArrowLeft"":5,""ArrowDown,ArrowRight"":17}","true","spaceBar","true","","","original","1","24","","",""
"html-keyboard-response","143","822049","0.0-4.0-2.0-1.12","spark_pilot_2","7300","5","11","Male","","","","","","","null","<div style=""font-size:60px;"">+</div>","null","fixation","","","","","","","","","","","25","","",""
"revaluation","144","828081","0.0-4.0-2.0-0.13","spark_pilot_2","7300","5","11","Male","","false","","","","","[620.0999999642372,1077.699999988079]","./assets/img/canyon/memory/40.jpg","[""ArrowUp"",""ArrowLeft""]","value training","canyon","26","{""ArrowUp,ArrowLeft"":26,""ArrowUp,ArrowRight"":10,""ArrowDown,ArrowLeft"":5,""ArrowDown,ArrowRight"":17}","true","ArrowUp,ArrowLeft","false","","","original","1","26","","",""
"html-keyboard-response","145","828587","0.0-4.0-2.0-1.13","spark_pilot_2","7300","5","11","Male","","","","","","","null","<div style=""font-size:60px;"">+</div>","null","fixation","","","","","","","","","","","27","","",""
"revaluation","146","834614","0.0-4.0-2.0-0.14","spark_pilot_2","7300","5","11","Male","","true","","","","","[1405.300000011921]","./assets/img/canyon/memory/7.jpg","[""ArrowUp""]","value training","canyon","-5","{""ArrowUp,ArrowLeft"":26,""ArrowUp,ArrowRight"":10,""ArrowDown,ArrowLeft"":5,""ArrowDown,ArrowRight"":17}","false","ArrowUp","false","","","original","1","28","","",""
"html-keyboard-response","147","835122","0.0-4.0-2.0-1.14","spark_pilot_2","7300","5","11","Male","","","","","","","null","<div style=""font-size:60px;"">+</div>","null","fixation","","","","","","","","","","","29","","",""
"revaluation","148","841147","0.0-4.0-2.0-0.15","spark_pilot_2","7300","5","11","Male","","false","","","","","[701.9000000357628,545.3000000119209]","./assets/img/canyon/memory/6.jpg","[""ArrowUp"",""ArrowLeft""]","value training","canyon","26","{""ArrowUp,ArrowLeft"":26,""ArrowUp,ArrowRight"":10,""ArrowDown,ArrowLeft"":5,""ArrowDown,ArrowRight"":17}","true","ArrowUp,ArrowLeft","false","","","original","1","30","","",""
"html-keyboard-response","149","841650","0.0-4.0-2.0-1.15","spark_pilot_2","7300","5","11","Male","","","","","","","null","<div style=""font-size:60px;"">+</div>","null","fixation","","","","","","","","","","","31","","",""
"revaluation","150","847672","0.0-4.0-2.0-0.16","spark_pilot_2","7300","5","11","Male","","false","","","","","[165.10000002384186,355.89999997615814]","./assets/img/canyon/memory/18.jpg","[""ArrowUp"",""ArrowLeft""]","value training","canyon","26","{""ArrowUp,ArrowLeft"":26,""ArrowUp,ArrowRight"":10,""ArrowDown,ArrowLeft"":5,""ArrowDown,ArrowRight"":17}","true","ArrowUp,ArrowLeft","false","","","original","1","32","","",""
"html-keyboard-response","151","848181","0.0-4.0-2.0-1.16","spark_pilot_2","7300","5","11","Male","","","","","","","null","<div style=""font-size:60px;"">+</div>","null","fixation","","","","","","","","","","","33","","",""
"revaluation","152","854200","0.0-4.0-2.0-0.17","spark_pilot_2","7300","5","11","Male","","false","","","","","[315.5,335.39999997615814]","./assets/img/canyon/memory/3.jpg","[""ArrowUp"",""ArrowLeft""]","value training","canyon","26","{""ArrowUp,ArrowLeft"":26,""ArrowUp,ArrowRight"":10,""ArrowDown,ArrowLeft"":5,""ArrowDown,ArrowRight"":17}","true","ArrowUp,ArrowLeft","false","","","original","1","34","","",""
"html-keyboard-response","153","854710","0.0-4.0-2.0-1.17","spark_pilot_2","7300","5","11","Male","","","","","","","null","<div style=""font-size:60px;"">+</div>","null","fixation","","","","","","","","","","","35","","",""
"revaluation","154","858731","0.0-4.0-2.0-0.18","spark_pilot_2","7300","5","11","Male","","false","","","","","[724.8000000119209]","./assets/img/canyon/catch/6.jpg","[""ArrowUp""]","value training","canyon","-10","{""ArrowUp,ArrowLeft"":26,""ArrowUp,ArrowRight"":10,""ArrowDown,ArrowLeft"":5,""ArrowDown,ArrowRight"":17}","false","ArrowUp","true","","","original","1","36","","",""
"html-keyboard-response","155","859239","0.0-4.0-2.0-1.18","spark_pilot_2","7300","5","11","Male","","","","","","","null","<div style=""font-size:60px;"">+</div>","null","fixation","","","","","","","","","","","37","","",""
"revaluation","156","865274","0.0-4.0-2.0-0.19","spark_pilot_2","7300","5","11","Male","","false","","","","","[979.7000000476837,531]","./assets/img/canyon/memory/24.jpg","[""ArrowUp"",""ArrowLeft""]","value training","canyon","26","{""ArrowUp,ArrowLeft"":26,""ArrowUp,ArrowRight"":10,""ArrowDown,ArrowLeft"":5,""ArrowDown,ArrowRight"":17}","true","ArrowUp,ArrowLeft","false","","","original","1","38","","",""
"html-keyboard-response","157","865780","0.0-4.0-2.0-1.19","spark_pilot_2","7300","5","11","Male","","","","","","","null","<div style=""font-size:60px;"">+</div>","null","fixation","","","","","","","","","","","39","","",""
"revaluation","158","869797","0.0-4.0-2.0-0.20","spark_pilot_2","7300","5","11","Male","","false","","","","","[982.3000000119209]","./assets/img/canyon/catch/1.jpg","[""spaceBar""]","value training","canyon","0","{""ArrowUp,ArrowLeft"":26,""ArrowUp,ArrowRight"":10,""ArrowDown,ArrowLeft"":5,""ArrowDown,ArrowRight"":17}","true","spaceBar","true","","","original","1","40","","",""
"html-keyboard-response","159","870313","0.0-4.0-2.0-1.20","spark_pilot_2","7300","5","11","Male","","","","","","","null","<div style=""font-size:60px;"">+</div>","null","fixation","","","","","","","","","","","41","","",""
"revaluation","160","876339","0.0-4.0-2.0-0.21","spark_pilot_2","7300","5","11","Male","","false","","","","","[391,690.5]","./assets/img/canyon/memory/0.jpg","[""ArrowUp"",""ArrowLeft""]","value training","canyon","26","{""ArrowUp,ArrowLeft"":26,""ArrowUp,ArrowRight"":10,""ArrowDown,ArrowLeft"":5,""ArrowDown,ArrowRight"":17}","true","ArrowUp,ArrowLeft","false","","","original","1","42","","",""
"html-keyboard-response","161","876849","0.0-4.0-2.0-1.21","spark_pilot_2","7300","5","11","Male","","","","","","","null","<div style=""font-size:60px;"">+</div>","null","fixation","","","","","","","","","","","43","","",""
"revaluation","162","880868","0.0-4.0-2.0-0.22","spark_pilot_2","7300","5","11","Male","","false","","","","","[790.9000000357628]","./assets/img/canyon/catch/0.jpg","[""spaceBar""]","value training","canyon","0","{""ArrowUp,ArrowLeft"":26,""ArrowUp,ArrowRight"":10,""ArrowDown,ArrowLeft"":5,""ArrowDown,ArrowRight"":17}","true","spaceBar","true","","","original","1","44","","",""
"html-keyboard-response","163","881380","0.0-4.0-2.0-1.22","spark_pilot_2","7300","5","11","Male","","","","","","","null","<div style=""font-size:60px;"">+</div>","null","fixation","","","","","","","","","","","45","","",""
"revaluation","164","887392","0.0-4.0-2.0-0.23","spark_pilot_2","7300","5","11","Male","","false","","","","","[662.1000000238419,749.8000000119209]","./assets/img/canyon/memory/8.jpg","[""ArrowUp"",""ArrowLeft""]","value training","canyon","26","{""ArrowUp,ArrowLeft"":26,""ArrowUp,ArrowRight"":10,""ArrowDown,ArrowLeft"":5,""ArrowDown,ArrowRight"":17}","true","ArrowUp,ArrowLeft","false","","","original","1","46","","",""
"html-keyboard-response","165","887896","0.0-4.0-2.0-1.23","spark_pilot_2","7300","5","11","Male","","","","","","","null","<div style=""font-size:60px;"">+</div>","null","fixation","","","","","","","","","","","47","","",""
"revaluation","166","893919","0.0-4.0-2.0-0.24","spark_pilot_2","7300","5","11","Male","","false","","","","","[464.19999998807907,416.60000002384186]","./assets/img/canyon/memory/34.jpg","[""ArrowUp"",""ArrowLeft""]","value training","canyon","26","{""ArrowUp,ArrowLeft"":26,""ArrowUp,ArrowRight"":10,""ArrowDown,ArrowLeft"":5,""ArrowDown,ArrowRight"":17}","true","ArrowUp,ArrowLeft","false","","","original","1","48","","",""
"html-keyboard-response","167","894422","0.0-4.0-2.0-1.24","spark_pilot_2","7300","5","11","Male","","","","","","","null","<div style=""font-size:60px;"">+</div>","null","fixation","","","","","","","","","","","49","","",""
"revaluation","168","900441","0.0-4.0-2.0-0.25","spark_pilot_2","7300","5","11","Male","","false","","","","","[500.89999997615814,466.9000000357628]","./assets/img/canyon/memory/19.jpg","[""ArrowUp"",""ArrowLeft""]","value training","canyon","26","{""ArrowUp,ArrowLeft"":26,""ArrowUp,ArrowRight"":10,""ArrowDown,ArrowLeft"":5,""ArrowDown,ArrowRight"":17}","true","ArrowUp,ArrowLeft","false","","","original","1","50","","",""
"html-keyboard-response","169","900956","0.0-4.0-2.0-1.25","spark_pilot_2","7300","5","11","Male","","","","","","","null","<div style=""font-size:60px;"">+</div>","null","fixation","","","","","","","","","","","51","","",""
"revaluation","170","906987","0.0-4.0-2.0-0.26","spark_pilot_2","7300","5","11","Male","","false","","","","","[1142.5999999642372,551.8999999761581]","./assets/img/canyon/memory/39.jpg","[""ArrowUp"",""ArrowLeft""]","value training","canyon","26","{""ArrowUp,ArrowLeft"":26,""ArrowUp,ArrowRight"":10,""ArrowDown,ArrowLeft"":5,""ArrowDown,ArrowRight"":17}","true","ArrowUp,ArrowLeft","false","","","original","1","52","","",""
"html-keyboard-response","171","907497","0.0-4.0-2.0-1.26","spark_pilot_2","7300","5","11","Male","","","","","","","null","<div style=""font-size:60px;"">+</div>","null","fixation","","","","","","","","","","","53","","",""
"revaluation","172","911526","0.0-4.0-2.0-0.27","spark_pilot_2","7300","5","11","Male","","false","","","","","[701.1000000238419]","./assets/img/canyon/catch/5.jpg","[""ArrowUp""]","value training","canyon","-10","{""ArrowUp,ArrowLeft"":26,""ArrowUp,ArrowRight"":10,""ArrowDown,ArrowLeft"":5,""ArrowDown,ArrowRight"":17}","false","ArrowUp","true","","","original","1","54","","",""
"html-keyboard-response","173","912033","0.0-4.0-2.0-1.27","spark_pilot_2","7300","5","11","Male","","","","","","","null","<div style=""font-size:60px;"">+</div>","null","fixation","","","","","","","","","","","55","","",""
"revaluation","174","916049","0.0-4.0-2.0-0.28","spark_pilot_2","7300","5","11","Male","","false","","","","","[631.5]","./assets/img/canyon/catch/7.jpg","[""spaceBar""]","value training","canyon","0","{""ArrowUp,ArrowLeft"":26,""ArrowUp,ArrowRight"":10,""ArrowDown,ArrowLeft"":5,""ArrowDown,ArrowRight"":17}","true","spaceBar","true","","","original","1","56","","",""
"html-keyboard-response","175","916556","0.0-4.0-2.0-1.28","spark_pilot_2","7300","5","11","Male","","","","","","","null","<div style=""font-size:60px;"">+</div>","null","fixation","","","","","","","","","","","57","","",""
"revaluation","176","922580","0.0-4.0-2.0-0.29","spark_pilot_2","7300","5","11","Male","","false","","","","","[1543.2000000476837,634.1999999880791]","./assets/img/canyon/memory/32.jpg","[""ArrowUp"",""ArrowLeft""]","value training","canyon","26","{""ArrowUp,ArrowLeft"":26,""ArrowUp,ArrowRight"":10,""ArrowDown,ArrowLeft"":5,""ArrowDown,ArrowRight"":17}","true","ArrowUp,ArrowLeft","false","","","original","1","58","","",""
"html-keyboard-response","177","923089","0.0-4.0-2.0-1.29","spark_pilot_2","7300","5","11","Male","","","","","","","null","<div style=""font-size:60px;"">+</div>","null","fixation","","","","","","","","","","","59","","",""
"revaluation","178","929117","0.0-4.0-2.0-0.30","spark_pilot_2","7300","5","11","Male","","false","","","","","[1021.3000000119209,113.20000004768372]","./assets/img/canyon/memory/39.jpg","[""ArrowUp"",""ArrowLeft""]","value training","canyon","26","{""ArrowUp,ArrowLeft"":26,""ArrowUp,ArrowRight"":10,""ArrowDown,ArrowLeft"":5,""ArrowDown,ArrowRight"":17}","true","ArrowUp,ArrowLeft","false","","","original","1","60","","",""
"html-keyboard-response","179","929626","0.0-4.0-2.0-1.30","spark_pilot_2","7300","5","11","Male","","","","","","","null","<div style=""font-size:60px;"">+</div>","null","fixation","","","","","","","","","","","61","","",""
"revaluation","180","935643","0.0-4.0-2.0-0.31","spark_pilot_2","7300","5","11","Male","","false","","","","","[1261.699999988079,1072.699999988079]","./assets/img/canyon/memory/23.jpg","[""ArrowUp"",""ArrowLeft""]","value training","canyon","26","{""ArrowUp,ArrowLeft"":26,""ArrowUp,ArrowRight"":10,""ArrowDown,ArrowLeft"":5,""ArrowDown,ArrowRight"":17}","true","ArrowUp,ArrowLeft","false","","","original","1","62","","",""
"html-keyboard-response","181","936148","0.0-4.0-2.0-1.31","spark_pilot_2","7300","5","11","Male","","","","","","","null","<div style=""font-size:60px;"">+</div>","null","fixation","","","","","","","","","","","63","","",""
"revaluation","182","942184","0.0-4.0-2.0-0.32","spark_pilot_2","7300","5","11","Male","","false","","","","","[760.8000000119209,491]","./assets/img/canyon/memory/13.jpg","[""ArrowUp"",""ArrowLeft""]","value training","canyon","26","{""ArrowUp,ArrowLeft"":26,""ArrowUp,ArrowRight"":10,""ArrowDown,ArrowLeft"":5,""ArrowDown,ArrowRight"":17}","true","ArrowUp,ArrowLeft","false","","","original","1","64","","",""
"html-keyboard-response","183","942701","0.0-4.0-2.0-1.32","spark_pilot_2","7300","5","11","Male","","","","","","","null","<div style=""font-size:60px;"">+</div>","null","fixation","","","","","","","","","","","65","","",""
"revaluation","184","948721","0.0-4.0-2.0-0.33","spark_pilot_2","7300","5","11","Male","","false","","","","","[502.4000000357628,560.8999999761581]","./assets/img/canyon/memory/18.jpg","[""ArrowUp"",""ArrowLeft""]","value training","canyon","26","{""ArrowUp,ArrowLeft"":26,""ArrowUp,ArrowRight"":10,""ArrowDown,ArrowLeft"":5,""ArrowDown,ArrowRight"":17}","true","ArrowUp,ArrowLeft","false","","","original","1","66","","",""
"html-keyboard-response","185","949230","0.0-4.0-2.0-1.33","spark_pilot_2","7300","5","11","Male","","","","","","","null","<div style=""font-size:60px;"">+</div>","null","fixation","","","","","","","","","","","67","","",""
"revaluation","186","955247","0.0-4.0-2.0-0.34","spark_pilot_2","7300","5","11","Male","","false","","","","","[526.5,1539.3999999761581]","./assets/img/canyon/memory/0.jpg","[""ArrowUp"",""ArrowLeft""]","value training","canyon","26","{""ArrowUp,ArrowLeft"":26,""ArrowUp,ArrowRight"":10,""ArrowDown,ArrowLeft"":5,""ArrowDown,ArrowRight"":17}","true","ArrowUp,ArrowLeft","false","","","original","1","68","","",""
"html-keyboard-response","187","955753","0.0-4.0-2.0-1.34","spark_pilot_2","7300","5","11","Male","","","","","","","null","<div style=""font-size:60px;"">+</div>","null","fixation","","","","","","","","","","","69","","",""
"revaluation","188","961784","0.0-4.0-2.0-0.35","spark_pilot_2","7300","5","11","Male","","false","","","","","[667.8000000119209,305.5999999642372]","./assets/img/canyon/memory/1.jpg","[""ArrowUp"",""ArrowLeft""]","value training","canyon","26","{""ArrowUp,ArrowLeft"":26,""ArrowUp,ArrowRight"":10,""ArrowDown,ArrowLeft"":5,""ArrowDown,ArrowRight"":17}","true","ArrowUp,ArrowLeft","false","","","original","1","70","","",""
"html-keyboard-response","189","962290","0.0-4.0-2.0-1.35","spark_pilot_2","7300","5","11","Male","","","","","","","null","<div style=""font-size:60px;"">+</div>","null","fixation","","","","","","","","","","","71","","",""
"revaluation","190","966315","0.0-4.0-2.0-0.36","spark_pilot_2","7300","5","11","Male","","false","","","","","[989.4000000357628]","./assets/img/canyon/catch/4.jpg","[""spaceBar""]","value training","canyon","0","{""ArrowUp,ArrowLeft"":26,""ArrowUp,ArrowRight"":10,""ArrowDown,ArrowLeft"":5,""ArrowDown,ArrowRight"":17}","true","spaceBar","true","","","original","1","72","","",""
"html-keyboard-response","191","966824","0.0-4.0-2.0-1.36","spark_pilot_2","7300","5","11","Male","","","","","","","null","<div style=""font-size:60px;"">+</div>","null","fixation","","","","","","","","","","","73","","",""
"revaluation","192","972856","0.0-4.0-2.0-0.37","spark_pilot_2","7300","5","11","Male","","false","","","","","[849.6000000238419,644.8000000119209]","./assets/img/canyon/memory/7.jpg","[""ArrowUp"",""ArrowLeft""]","value training","canyon","26","{""ArrowUp,ArrowLeft"":26,""ArrowUp,ArrowRight"":10,""ArrowDown,ArrowLeft"":5,""ArrowDown,ArrowRight"":17}","true","ArrowUp,ArrowLeft","false","","","original","1","74","","",""
"html-keyboard-response","193","973361","0.0-4.0-2.0-1.37","spark_pilot_2","7300","5","11","Male","","","","","","","null","<div style=""font-size:60px;"">+</div>","null","fixation","","","","","","","","","","","75","","",""
"revaluation","194","979374","0.0-4.0-2.0-0.38","spark_pilot_2","7300","5","11","Male","","false","","","","","[718.5,1145.699999988079]","./assets/img/canyon/memory/16.jpg","[""ArrowUp"",""ArrowRight""]","value training","canyon","10","{""ArrowUp,ArrowLeft"":26,""ArrowUp,ArrowRight"":10,""ArrowDown,ArrowLeft"":5,""ArrowDown,ArrowRight"":17}","false","ArrowUp,ArrowRight","false","","","original","1","76","","",""
"html-keyboard-response","195","979881","0.0-4.0-2.0-1.38","spark_pilot_2","7300","5","11","Male","","","","","","","null","<div style=""font-size:60px;"">+</div>","null","fixation","","","","","","","","","","","77","","",""
"revaluation","196","985913","0.0-4.0-2.0-0.39","spark_pilot_2","7300","5","11","Male","","false","","","","","[552.3000000119209,633.6000000238419]","./assets/img/canyon/memory/40.jpg","[""ArrowDown"",""ArrowLeft""]","value training","canyon","5","{""ArrowUp,ArrowLeft"":26,""ArrowUp,ArrowRight"":10,""ArrowDown,ArrowLeft"":5,""ArrowDown,ArrowRight"":17}","false","ArrowDown,ArrowLeft","false","","","original","1","78","","",""
"html-keyboard-response","197","986416","0.0-4.0-2.0-1.39","spark_pilot_2","7300","5","11","Male","","","","","","","null","<div style=""font-size:60px;"">+</div>","null","fixation","","","","","","","","","","","79","","",""
"revaluation","198","990440","0.0-4.0-2.0-0.40","spark_pilot_2","7300","5","11","Male","","false","","","","","[452.10000002384186]","./assets/img/canyon/catch/2.jpg","[""ArrowDown""]","value training","canyon","-10","{""ArrowUp,ArrowLeft"":26,""ArrowUp,ArrowRight"":10,""ArrowDown,ArrowLeft"":5,""ArrowDown,ArrowRight"":17}","false","ArrowDown","true","","","original","1","80","","",""
"html-keyboard-response","199","990946","0.0-4.0-2.0-1.40","spark_pilot_2","7300","5","11","Male","","","","","","","null","<div style=""font-size:60px;"">+</div>","null","fixation","","","","","","","","","","","81","","",""
"revaluation","200","996963","0.0-4.0-2.0-0.41","spark_pilot_2","7300","5","11","Male","","false","","","","","[1246.300000011921,671.3999999761581]","./assets/img/canyon/memory/8.jpg","[""ArrowDown"",""ArrowRight""]","value training","canyon","17","{""ArrowUp,ArrowLeft"":26,""ArrowUp,ArrowRight"":10,""ArrowDown,ArrowLeft"":5,""ArrowDown,ArrowRight"":17}","false","ArrowDown,ArrowRight","false","","","original","1","82","","",""
"html-keyboard-response","201","997476","0.0-4.0-2.0-1.41","spark_pilot_2","7300","5","11","Male","","","","","","","null","<div style=""font-size:60px;"">+</div>","null","fixation","","","","","","","","","","","83","","",""
"revaluation","202","1003507","0.0-4.0-2.0-0.42","spark_pilot_2","7300","5","11","Male","","false","","","","","[1229,838.5]","./assets/img/canyon/memory/16.jpg","[""ArrowUp"",""ArrowLeft""]","value training","canyon","26","{""ArrowUp,ArrowLeft"":26,""ArrowUp,ArrowRight"":10,""ArrowDown,ArrowLeft"":5,""ArrowDown,ArrowRight"":17}","true","ArrowUp,ArrowLeft","false","","","original","1","84","","",""
"html-keyboard-response","203","1004016","0.0-4.0-2.0-1.42","spark_pilot_2","7300","5","11","Male","","","","","","","null","<div style=""font-size:60px;"">+</div>","null","fixation","","","","","","","","","","","85","","",""
"revaluation","204","1010047","0.0-4.0-2.0-0.43","spark_pilot_2","7300","5","11","Male","","false","","","","","[1280.5999999642372,716.5]","./assets/img/canyon/memory/32.jpg","[""ArrowUp"",""ArrowLeft""]","value training","canyon","26","{""ArrowUp,ArrowLeft"":26,""ArrowUp,ArrowRight"":10,""ArrowDown,ArrowLeft"":5,""ArrowDown,ArrowRight"":17}","true","ArrowUp,ArrowLeft","false","","","original","1","86","","",""
"html-keyboard-response","205","1010556","0.0-4.0-2.0-1.43","spark_pilot_2","7300","5","11","Male","","","","","","","null","<div style=""font-size:60px;"">+</div>","null","fixation","","","","","","","","","","","87","","",""
"revaluation","206","1016584","0.0-4.0-2.0-0.44","spark_pilot_2","7300","5","11","Male","","false","","","","","[1105.300000011921,546.5]","./assets/img/canyon/memory/24.jpg","[""ArrowUp"",""ArrowLeft""]","value training","canyon","26","{""ArrowUp,ArrowLeft"":26,""ArrowUp,ArrowRight"":10,""ArrowDown,ArrowLeft"":5,""ArrowDown,ArrowRight"":17}","true","ArrowUp,ArrowLeft","false","","","original","1","88","","",""
"html-keyboard-response","207","1017097","0.0-4.0-2.0-1.44","spark_pilot_2","7300","5","11","Male","","","","","","","null","<div style=""font-size:60px;"">+</div>","null","fixation","","","","","","","","","","","89","","",""
"revaluation","208","1023124","0.0-4.0-2.0-0.45","spark_pilot_2","7300","5","11","Male","","false","","","","","[753.7999999523163,649.2000000476837]","./assets/img/canyon/memory/15.jpg","[""ArrowUp"",""ArrowLeft""]","value training","canyon","26","{""ArrowUp,ArrowLeft"":26,""ArrowUp,ArrowRight"":10,""ArrowDown,ArrowLeft"":5,""ArrowDown,ArrowRight"":17}","true","ArrowUp,ArrowLeft","false","","","original","1","90","","",""
"html-keyboard-response","209","1023626","0.0-4.0-2.0-1.45","spark_pilot_2","7300","5","11","Male","","","","","","","null","<div style=""font-size:60px;"">+</div>","null","fixation","","","","","","","","","","","91","","",""
"revaluation","210","1029645","0.0-4.0-2.0-0.46","spark_pilot_2","7300","5","11","Male","","false","","","","","[249.89999997615814,555.6999999880791]","./assets/img/canyon/memory/17.jpg","[""ArrowUp"",""ArrowLeft""]","value training","canyon","26","{""ArrowUp,ArrowLeft"":26,""ArrowUp,ArrowRight"":10,""ArrowDown,ArrowLeft"":5,""ArrowDown,ArrowRight"":17}","true","ArrowUp,ArrowLeft","false","","","original","1","92","","",""
"html-keyboard-response","211","1030148","0.0-4.0-2.0-1.46","spark_pilot_2","7300","5","11","Male","","","","","","","null","<div style=""font-size:60px;"">+</div>","null","fixation","","","","","","","","","","","93","","",""
"revaluation","212","1036173","0.0-4.0-2.0-0.47","spark_pilot_2","7300","5","11","Male","","false","","","","","[621.2000000476837,541.1000000238419]","./assets/img/canyon/memory/30.jpg","[""ArrowUp"",""ArrowLeft""]","value training","canyon","26","{""ArrowUp,ArrowLeft"":26,""ArrowUp,ArrowRight"":10,""ArrowDown,ArrowLeft"":5,""ArrowDown,ArrowRight"":17}","true","ArrowUp,ArrowLeft","false","","","original","1","94","","",""
"html-keyboard-response","213","1036689","0.0-4.0-2.0-1.47","spark_pilot_2","7300","5","11","Male","","","","","","","null","<div style=""font-size:60px;"">+</div>","null","fixation","","","","","","","","","","","95","","",""
"revaluation","214","1042713","0.0-4.0-2.0-0.48","spark_pilot_2","7300","5","11","Male","","false","","","","","[427.7999999523163,540.3000000119209]","./assets/img/canyon/memory/17.jpg","[""ArrowUp"",""ArrowLeft""]","value training","canyon","26","{""ArrowUp,ArrowLeft"":26,""ArrowUp,ArrowRight"":10,""ArrowDown,ArrowLeft"":5,""ArrowDown,ArrowRight"":17}","true","ArrowUp,ArrowLeft","false","","","original","1","96","","",""
"html-keyboard-response","215","1043223","0.0-4.0-2.0-1.48","spark_pilot_2","7300","5","11","Male","","","","","","","null","<div style=""font-size:60px;"">+</div>","null","fixation","","","","","","","","","","","97","","",""
"revaluation","216","1049245","0.0-4.0-2.0-0.49","spark_pilot_2","7300","5","11","Male","","true","","","","","[908.5999999642372]","./assets/img/canyon/memory/23.jpg","[""ArrowUp""]","value training","canyon","-5","{""ArrowUp,ArrowLeft"":26,""ArrowUp,ArrowRight"":10,""ArrowDown,ArrowLeft"":5,""ArrowDown,ArrowRight"":17}","false","ArrowUp","false","","","original","1","98","","",""
"html-keyboard-response","217","1049753","0.0-4.0-2.0-1.49","spark_pilot_2","7300","5","11","Male","","","","","","","null","<div style=""font-size:60px;"">+</div>","null","fixation","","","","","","","","","","","99","","",""
"learning-instructions","218","1066339","0.0-4.0-3.0-0.0","spark_pilot_2","7300","5","11","Male","","","","","","","3314","<p> Now, you will travel with a friend who will choose whether you go up or down first. </p>
            <p> On these turns, you will just see the animal that they found. You will still get to choose which chest to search for treasure.</p>","","instructions","","","","","","","","","","","","","",""
"revaluation","219","1070359","0.0-4.0-4.0-0.0","spark_pilot_2","7300","5","11","Male","","false","","","","","[1594.8999999761581]","./assets/img/canyon/animals/lion.jpg","[""ArrowLeft""]","revaluation","canyon","26","{""ArrowUp,ArrowLeft"":26,""ArrowUp,ArrowRight"":10,""ArrowDown,ArrowLeft"":5,""ArrowDown,ArrowRight"":17}","true","ArrowUp,ArrowLeft","","","","original","1","0","","",""
"html-keyboard-response","220","1070882","0.0-4.0-4.0-1.0","spark_pilot_2","7300","5","11","Male","","","","","","","null","<div style=""font-size:60px;"">+</div>","null","fixation","","","","","","","","","","","1","","",""
"revaluation","221","1074908","0.0-4.0-4.0-0.1","spark_pilot_2","7300","5","11","Male","","false","","","","","[280.89999997615814]","./assets/img/canyon/animals/giraffe.jpg","[""ArrowRight""]","revaluation","canyon","17","{""ArrowUp,ArrowLeft"":26,""ArrowUp,ArrowRight"":10,""ArrowDown,ArrowLeft"":5,""ArrowDown,ArrowRight"":17}","true","ArrowDown,ArrowRight","","","","original","1","2","","",""
"html-keyboard-response","222","1075420","0.0-4.0-4.0-1.1","spark_pilot_2","7300","5","11","Male","","","","","","","null","<div style=""font-size:60px;"">+</div>","null","fixation","","","","","","","","","","","3","","",""
"revaluation","223","1079441","0.0-4.0-4.0-0.2","spark_pilot_2","7300","5","11","Male","","false","","","","","[840.5]","./assets/img/canyon/animals/giraffe.jpg","[""ArrowRight""]","revaluation","canyon","17","{""ArrowUp,ArrowLeft"":26,""ArrowUp,ArrowRight"":10,""ArrowDown,ArrowLeft"":5,""ArrowDown,ArrowRight"":17}","true","ArrowDown,ArrowRight","","","","original","1","4","","",""
"html-keyboard-response","224","1079949","0.0-4.0-4.0-1.2","spark_pilot_2","7300","5","11","Male","","","","","","","null","<div style=""font-size:60px;"">+</div>","null","fixation","","","","","","","","","","","5","","",""
"revaluation","225","1083979","0.0-4.0-4.0-0.3","spark_pilot_2","7300","5","11","Male","","false","","","","","[579.1999999880791]","./assets/img/canyon/animals/giraffe.jpg","[""ArrowRight""]","revaluation","canyon","17","{""ArrowUp,ArrowLeft"":26,""ArrowUp,ArrowRight"":10,""ArrowDown,ArrowLeft"":5,""ArrowDown,ArrowRight"":17}","true","ArrowDown,ArrowRight","","","","original","1","6","","",""
"html-keyboard-response","226","1084491","0.0-4.0-4.0-1.3","spark_pilot_2","7300","5","11","Male","","","","","","","null","<div style=""font-size:60px;"">+</div>","null","fixation","","","","","","","","","","","7","","",""
"revaluation","227","1088522","0.0-4.0-4.0-0.4","spark_pilot_2","7300","5","11","Male","","false","","","","","[534.1999999880791]","./assets/img/canyon/animals/lion.jpg","[""ArrowLeft""]","revaluation","canyon","26","{""ArrowUp,ArrowLeft"":26,""ArrowUp,ArrowRight"":10,""ArrowDown,ArrowLeft"":5,""ArrowDown,ArrowRight"":17}","true","ArrowUp,ArrowLeft","","","","original","1","8","","",""
"html-keyboard-response","228","1089033","0.0-4.0-4.0-1.4","spark_pilot_2","7300","5","11","Male","","","","","","","null","<div style=""font-size:60px;"">+</div>","null","fixation","","","","","","","","","","","9","","",""
"revaluation","229","1093055","0.0-4.0-4.0-0.5","spark_pilot_2","7300","5","11","Male","","false","","","","","[611.5999999642372]","./assets/img/canyon/animals/lion.jpg","[""ArrowLeft""]","revaluation","canyon","26","{""ArrowUp,ArrowLeft"":26,""ArrowUp,ArrowRight"":10,""ArrowDown,ArrowLeft"":5,""ArrowDown,ArrowRight"":17}","true","ArrowUp,ArrowLeft","","","","original","1","10","","",""
"html-keyboard-response","230","1093569","0.0-4.0-4.0-1.5","spark_pilot_2","7300","5","11","Male","","","","","","","null","<div style=""font-size:60px;"">+</div>","null","fixation","","","","","","","","","","","11","","",""
"revaluation","231","1097593","0.0-4.0-4.0-0.6","spark_pilot_2","7300","5","11","Male","","false","","","","","[769]","./assets/img/canyon/animals/lion.jpg","[""ArrowLeft""]","revaluation","canyon","26","{""ArrowUp,ArrowLeft"":26,""ArrowUp,ArrowRight"":10,""ArrowDown,ArrowLeft"":5,""ArrowDown,ArrowRight"":17}","true","ArrowUp,ArrowLeft","","","","original","1","12","","",""
"html-keyboard-response","232","1098107","0.0-4.0-4.0-1.6","spark_pilot_2","7300","5","11","Male","","","","","","","null","<div style=""font-size:60px;"">+</div>","null","fixation","","","","","","","","","","","13","","",""
"revaluation","233","1102121","0.0-4.0-4.0-0.7","spark_pilot_2","7300","5","11","Male","","false","","","","","[599.5999999642372]","./assets/img/canyon/animals/giraffe.jpg","[""ArrowRight""]","revaluation","canyon","17","{""ArrowUp,ArrowLeft"":26,""ArrowUp,ArrowRight"":10,""ArrowDown,ArrowLeft"":5,""ArrowDown,ArrowRight"":17}","true","ArrowDown,ArrowRight","","","","original","1","14","","",""
"html-keyboard-response","234","1102625","0.0-4.0-4.0-1.7","spark_pilot_2","7300","5","11","Male","","","","","","","null","<div style=""font-size:60px;"">+</div>","null","fixation","","","","","","","","","","","15","","",""
"revaluation","235","1106638","0.0-4.0-4.0-0.8","spark_pilot_2","7300","5","11","Male","","false","","","","","[373.5]","./assets/img/canyon/animals/lion.jpg","[""ArrowLeft""]","revaluation","canyon","26","{""ArrowUp,ArrowLeft"":26,""ArrowUp,ArrowRight"":10,""ArrowDown,ArrowLeft"":5,""ArrowDown,ArrowRight"":17}","true","ArrowUp,ArrowLeft","","","","original","1","16","","",""
"html-keyboard-response","236","1107143","0.0-4.0-4.0-1.8","spark_pilot_2","7300","5","11","Male","","","","","","","null","<div style=""font-size:60px;"">+</div>","null","fixation","","","","","","","","","","","17","","",""
"revaluation","237","1111163","0.0-4.0-4.0-0.9","spark_pilot_2","7300","5","11","Male","","false","","","","","[663.5999999642372]","./assets/img/canyon/animals/lion.jpg","[""ArrowRight""]","revaluation","canyon","10","{""ArrowUp,ArrowLeft"":26,""ArrowUp,ArrowRight"":10,""ArrowDown,ArrowLeft"":5,""ArrowDown,ArrowRight"":17}","false","ArrowUp,ArrowRight","","","","original","1","18","","",""
"html-keyboard-response","238","1111669","0.0-4.0-4.0-1.9","spark_pilot_2","7300","5","11","Male","","","","","","","null","<div style=""font-size:60px;"">+</div>","null","fixation","","","","","","","","","","","19","","",""
"revaluation","239","1115684","0.0-4.0-4.0-0.10","spark_pilot_2","7300","5","11","Male","","false","","","","","[834.8000000119209]","./assets/img/canyon/animals/giraffe.jpg","[""ArrowRight""]","revaluation","canyon","17","{""ArrowUp,ArrowLeft"":26,""ArrowUp,ArrowRight"":10,""ArrowDown,ArrowLeft"":5,""ArrowDown,ArrowRight"":17}","true","ArrowDown,ArrowRight","","","","original","1","20","","",""
"html-keyboard-response","240","1116188","0.0-4.0-4.0-1.10","spark_pilot_2","7300","5","11","Male","","","","","","","null","<div style=""font-size:60px;"">+</div>","null","fixation","","","","","","","","","","","21","","",""
"revaluation","241","1120206","0.0-4.0-4.0-0.11","spark_pilot_2","7300","5","11","Male","","false","","","","","[780.3999999761581]","./assets/img/canyon/animals/lion.jpg","[""ArrowLeft""]","revaluation","canyon","26","{""ArrowUp,ArrowLeft"":26,""ArrowUp,ArrowRight"":10,""ArrowDown,ArrowLeft"":5,""ArrowDown,ArrowRight"":17}","true","ArrowUp,ArrowLeft","","","","original","1","22","","",""
"html-keyboard-response","242","1120715","0.0-4.0-4.0-1.11","spark_pilot_2","7300","5","11","Male","","","","","","","null","<div style=""font-size:60px;"">+</div>","null","fixation","","","","","","","","","","","23","","",""
"revaluation","243","1124731","0.0-4.0-4.0-0.12","spark_pilot_2","7300","5","11","Male","","false","","","","","[1412.300000011921]","./assets/img/canyon/animals/giraffe.jpg","[""ArrowRight""]","revaluation","canyon","17","{""ArrowUp,ArrowLeft"":26,""ArrowUp,ArrowRight"":10,""ArrowDown,ArrowLeft"":5,""ArrowDown,ArrowRight"":17}","true","ArrowDown,ArrowRight","","","","original","1","24","","",""
"html-keyboard-response","244","1125235","0.0-4.0-4.0-1.12","spark_pilot_2","7300","5","11","Male","","","","","","","null","<div style=""font-size:60px;"">+</div>","null","fixation","","","","","","","","","","","25","","",""
"revaluation","245","1129265","0.0-4.0-4.0-0.13","spark_pilot_2","7300","5","11","Male","","false","","","","","[474.0999999642372]","./assets/img/canyon/animals/lion.jpg","[""ArrowLeft""]","revaluation","canyon","26","{""ArrowUp,ArrowLeft"":26,""ArrowUp,ArrowRight"":10,""ArrowDown,ArrowLeft"":5,""ArrowDown,ArrowRight"":17}","true","ArrowUp,ArrowLeft","","","","original","1","26","","",""
"html-keyboard-response","246","1129768","0.0-4.0-4.0-1.13","spark_pilot_2","7300","5","11","Male","","","","","","","null","<div style=""font-size:60px;"">+</div>","null","fixation","","","","","","","","","","","27","","",""
"revaluation","247","1133777","0.0-4.0-4.0-0.14","spark_pilot_2","7300","5","11","Male","","false","","","","","[477.0999999642372]","./assets/img/canyon/animals/lion.jpg","[""ArrowRight""]","revaluation","canyon","10","{""ArrowUp,ArrowLeft"":26,""ArrowUp,ArrowRight"":10,""ArrowDown,ArrowLeft"":5,""ArrowDown,ArrowRight"":17}","false","ArrowUp,ArrowRight","","","","original","1","28","","",""
"html-keyboard-response","248","1134284","0.0-4.0-4.0-1.14","spark_pilot_2","7300","5","11","Male","","","","","","","null","<div style=""font-size:60px;"">+</div>","null","fixation","","","","","","","","","","","29","","",""
"revaluation","249","1138294","0.0-4.0-4.0-0.15","spark_pilot_2","7300","5","11","Male","","false","","","","","[927.7999999523163]","./assets/img/canyon/animals/giraffe.jpg","[""ArrowRight""]","revaluation","canyon","17","{""ArrowUp,ArrowLeft"":26,""ArrowUp,ArrowRight"":10,""ArrowDown,ArrowLeft"":5,""ArrowDown,ArrowRight"":17}","true","ArrowDown,ArrowRight","","","","original","1","30","","",""
"html-keyboard-response","250","1138811","0.0-4.0-4.0-1.15","spark_pilot_2","7300","5","11","Male","","","","","","","null","<div style=""font-size:60px;"">+</div>","null","fixation","","","","","","","","","","","31","","",""
"revaluation","251","1142835","0.0-4.0-4.0-0.16","spark_pilot_2","7300","5","11","Male","","false","","","","","[891.5999999642372]","./assets/img/canyon/animals/giraffe.jpg","[""ArrowRight""]","revaluation","canyon","17","{""ArrowUp,ArrowLeft"":26,""ArrowUp,ArrowRight"":10,""ArrowDown,ArrowLeft"":5,""ArrowDown,ArrowRight"":17}","true","ArrowDown,ArrowRight","","","","original","1","32","","",""
"html-keyboard-response","252","1143341","0.0-4.0-4.0-1.16","spark_pilot_2","7300","5","11","Male","","","","","","","null","<div style=""font-size:60px;"">+</div>","null","fixation","","","","","","","","","","","33","","",""
"revaluation","253","1147356","0.0-4.0-4.0-0.17","spark_pilot_2","7300","5","11","Male","","false","","","","","[903.1000000238419]","./assets/img/canyon/animals/giraffe.jpg","[""ArrowRight""]","revaluation","canyon","17","{""ArrowUp,ArrowLeft"":26,""ArrowUp,ArrowRight"":10,""ArrowDown,ArrowLeft"":5,""ArrowDown,ArrowRight"":17}","true","ArrowDown,ArrowRight","","","","original","1","34","","",""
"html-keyboard-response","254","1147862","0.0-4.0-4.0-1.17","spark_pilot_2","7300","5","11","Male","","","","","","","null","<div style=""font-size:60px;"">+</div>","null","fixation","","","","","","","","","","","35","","",""
"learning-instructions","255","1160994","0.0-4.0-5.0-0.0","spark_pilot_2","7300","5","11","Male","","","","","","","1270.8999999761581","<p> Time to play the dot game! </p>
            <p> For one minute, click the red dots on the following screen as they appear. </p>
            <p><b> Don't look away, as you will earn bonus for clicking dots</b>. </p>","","instructions","","","","","","","","","","","","","",""
"revaluation","256","1220997","0.0-4.0-6.0-0.0","spark_pilot_2","7300","5","11","Male","","","","","","","[124,64,103,111,107,83,47]","","","rest","","70","","","","","0","60000","","","","","",""
"learning-instructions","257","1228754","0.0-4.0-7.0-0.0","spark_pilot_2","7300","5","11","Male","","","","","","","1305.6000000238419","<p> You have almost finished this part of the game! </p>
            <p> We are going to ask you to make a few more choices. </p>","","instructions","","","","","","","","","","","","","",""
"learning-instructions","258","1243613","0.0-4.0-7.0-0.1","spark_pilot_2","7300","5","11","Male","","","","","","","885.6999999880791","<p> First, you need to decide whether to go up or down. When you see each picture, use the arrow keys to make your choice. </p>
            <p><b>You will not see which animal you found, but try to get to the one that will give you the most treasure.</b></p>","","instructions","","","","","","","","","","","","","",""
"revaluation","259","1244816","0.0-4.0-8.0-0.0","spark_pilot_2","7300","5","11","Male","","false","","","","","[1196.800000011921]","./assets/img/canyon/test/0.jpg","[""ArrowUp""]","first stage test","canyon","0","{""ArrowUp,ArrowLeft"":26,""ArrowUp,ArrowRight"":10,""ArrowDown,ArrowLeft"":5,""ArrowDown,ArrowRight"":17}","true","ArrowUp","false","","","original","1","","","",""
"html-keyboard-response","260","1245326","0.0-4.0-8.0-1.0","spark_pilot_2","7300","5","11","Male","","","","","","","null","<div style=""font-size:60px;"">+</div>","null","fixation","","","","","","","","","","","","","",""
"revaluation","261","1246974","0.0-4.0-8.0-0.1","spark_pilot_2","7300","5","11","Male","","false","","","","","[1642.5]","./assets/img/canyon/test/2.jpg","[""ArrowUp""]","first stage test","canyon","0","{""ArrowUp,ArrowLeft"":26,""ArrowUp,ArrowRight"":10,""ArrowDown,ArrowLeft"":5,""ArrowDown,ArrowRight"":17}","true","ArrowUp","false","","","original","1","","","",""
"html-keyboard-response","262","1247487","0.0-4.0-8.0-1.1","spark_pilot_2","7300","5","11","Male","","","","","","","null","<div style=""font-size:60px;"">+</div>","null","fixation","","","","","","","","","","","","","",""
"revaluation","263","1248253","0.0-4.0-8.0-0.2","spark_pilot_2","7300","5","11","Male","","false","","","","","[759.8000000119209]","./assets/img/canyon/test/1.jpg","[""ArrowUp""]","first stage test","canyon","0","{""ArrowUp,ArrowLeft"":26,""ArrowUp,ArrowRight"":10,""ArrowDown,ArrowLeft"":5,""ArrowDown,ArrowRight"":17}","true","ArrowUp","false","","","original","1","","","",""
"html-keyboard-response","264","1248764","0.0-4.0-8.0-1.2","spark_pilot_2","7300","5","11","Male","","","","","","","null","<div style=""font-size:60px;"">+</div>","null","fixation","","","","","","","","","","","","","",""
"revaluation","265","1249387","0.0-4.0-8.0-0.3","spark_pilot_2","7300","5","11","Male","","false","","","","","[618]","./assets/img/canyon/test/3.jpg","[""ArrowDown""]","first stage test","canyon","0","{""ArrowUp,ArrowLeft"":26,""ArrowUp,ArrowRight"":10,""ArrowDown,ArrowLeft"":5,""ArrowDown,ArrowRight"":17}","false","ArrowDown","false","","","original","1","","","",""
"html-keyboard-response","266","1249897","0.0-4.0-8.0-1.3","spark_pilot_2","7300","5","11","Male","","","","","","","null","<div style=""font-size:60px;"">+</div>","null","fixation","","","","","","","","","","","","","",""
"learning-instructions","267","1262317","0.0-4.0-9.0-0.0","spark_pilot_2","7300","5","11","Male","","","","","","","1069.199999988079","<p> Now you will see the animals again and can search their chests for treasure. </p>
            <p> This time, you will not see how much treasure you earned, but you will earn more bonus money for making better choices. </p>","","instructions","","","","","","","","","","","","","",""
"revaluation","268","1264042","0.0-4.0-10.0-0.0","spark_pilot_2","7300","5","11","Male","","false","","","","","[1720]","./assets/img/canyon/animals/lion.jpg","[""ArrowLeft""]","second stage test","canyon","0","{""ArrowUp,ArrowLeft"":26,""ArrowUp,ArrowRight"":10,""ArrowDown,ArrowLeft"":5,""ArrowDown,ArrowRight"":17}","true","ArrowUp,ArrowLeft","","","","original","1","","","",""
"html-keyboard-response","269","1264544","0.0-4.0-10.0-1.0","spark_pilot_2","7300","5","11","Male","","","","","","","null","<div style=""font-size:60px;"">+</div>","null","fixation","","","","","","","","","","","","","",""
"revaluation","270","1265075","0.0-4.0-10.0-0.1","spark_pilot_2","7300","5","11","Male","","false","","","","","[525.3000000119209]","./assets/img/canyon/animals/lion.jpg","[""ArrowLeft""]","second stage test","canyon","0","{""ArrowUp,ArrowLeft"":26,""ArrowUp,ArrowRight"":10,""ArrowDown,ArrowLeft"":5,""ArrowDown,ArrowRight"":17}","true","ArrowUp,ArrowLeft","","","","original","1","","","",""
"html-keyboard-response","271","1265581","0.0-4.0-10.0-1.1","spark_pilot_2","7300","5","11","Male","","","","","","","null","<div style=""font-size:60px;"">+</div>","null","fixation","","","","","","","","","","","","","",""
"revaluation","272","1266319","0.0-4.0-10.0-0.2","spark_pilot_2","7300","5","11","Male","","false","","","","","[733.0999999642372]","./assets/img/canyon/animals/lion.jpg","[""ArrowLeft""]","second stage test","canyon","0","{""ArrowUp,ArrowLeft"":26,""ArrowUp,ArrowRight"":10,""ArrowDown,ArrowLeft"":5,""ArrowDown,ArrowRight"":17}","true","ArrowUp,ArrowLeft","","","","original","1","","","",""
"html-keyboard-response","273","1266821","0.0-4.0-10.0-1.2","spark_pilot_2","7300","5","11","Male","","","","","","","null","<div style=""font-size:60px;"">+</div>","null","fixation","","","","","","","","","","","","","",""
"revaluation","274","1267193","0.0-4.0-10.0-0.3","spark_pilot_2","7300","5","11","Male","","false","","","","","[365.89999997615814]","./assets/img/canyon/animals/lion.jpg","[""ArrowLeft""]","second stage test","canyon","0","{""ArrowUp,ArrowLeft"":26,""ArrowUp,ArrowRight"":10,""ArrowDown,ArrowLeft"":5,""ArrowDown,ArrowRight"":17}","true","ArrowUp,ArrowLeft","","","","original","1","","","",""
"html-keyboard-response","275","1267697","0.0-4.0-10.0-1.3","spark_pilot_2","7300","5","11","Male","","","","","","","null","<div style=""font-size:60px;"">+</div>","null","fixation","","","","","","","","","","","","","",""
"revaluation","276","1268240","0.0-4.0-10.0-0.4","spark_pilot_2","7300","5","11","Male","","false","","","","","[538.1000000238419]","./assets/img/canyon/animals/giraffe.jpg","[""ArrowRight""]","second stage test","canyon","0","{""ArrowUp,ArrowLeft"":26,""ArrowUp,ArrowRight"":10,""ArrowDown,ArrowLeft"":5,""ArrowDown,ArrowRight"":17}","true","ArrowDown,ArrowRight","","","","original","1","","","",""
"html-keyboard-response","277","1268755","0.0-4.0-10.0-1.4","spark_pilot_2","7300","5","11","Male","","","","","","","null","<div style=""font-size:60px;"">+</div>","null","fixation","","","","","","","","","","","","","",""
"revaluation","278","1269493","0.0-4.0-10.0-0.5","spark_pilot_2","7300","5","11","Male","","false","","","","","[731.9000000357628]","./assets/img/canyon/animals/giraffe.jpg","[""ArrowRight""]","second stage test","canyon","0","{""ArrowUp,ArrowLeft"":26,""ArrowUp,ArrowRight"":10,""ArrowDown,ArrowLeft"":5,""ArrowDown,ArrowRight"":17}","true","ArrowDown,ArrowRight","","","","original","1","","","",""
"html-keyboard-response","279","1269995","0.0-4.0-10.0-1.5","spark_pilot_2","7300","5","11","Male","","","","","","","null","<div style=""font-size:60px;"">+</div>","null","fixation","","","","","","","","","","","","","",""
"revaluation","280","1270427","0.0-4.0-10.0-0.6","spark_pilot_2","7300","5","11","Male","","false","","","","","[424.4000000357628]","./assets/img/canyon/animals/giraffe.jpg","[""ArrowRight""]","second stage test","canyon","0","{""ArrowUp,ArrowLeft"":26,""ArrowUp,ArrowRight"":10,""ArrowDown,ArrowLeft"":5,""ArrowDown,ArrowRight"":17}","true","ArrowDown,ArrowRight","","","","original","1","","","",""
"html-keyboard-response","281","1270935","0.0-4.0-10.0-1.6","spark_pilot_2","7300","5","11","Male","","","","","","","null","<div style=""font-size:60px;"">+</div>","null","fixation","","","","","","","","","","","","","",""
"revaluation","282","1271386","0.0-4.0-10.0-0.7","spark_pilot_2","7300","5","11","Male","","false","","","","","[445.7999999523163]","./assets/img/canyon/animals/giraffe.jpg","[""ArrowRight""]","second stage test","canyon","0","{""ArrowUp,ArrowLeft"":26,""ArrowUp,ArrowRight"":10,""ArrowDown,ArrowLeft"":5,""ArrowDown,ArrowRight"":17}","true","ArrowDown,ArrowRight","","","","original","1","","","",""
"html-keyboard-response","283","1271895","0.0-4.0-10.0-1.7","spark_pilot_2","7300","5","11","Male","","","","","","","null","<div style=""font-size:60px;"">+</div>","null","fixation","","","","","","","","","","","","","",""
"learning-instructions","284","1276162","0.0-4.0-0.1-0.2","spark_pilot_2","7300","5","11","Male","","","","","","","1533.199999988079","<p> This time you are searching for treasure in the <b>ocean</b>.</p>","","instructions","","","","","","","","","","","","","",""
"learning-instructions","285","1293885","0.0-4.0-0.1-0.3","spark_pilot_2","7300","5","11","Male","","","","","","","482.19999998807907","<p><b>New</b> animals with <b>new</b> treasure chests live here. You need to explore to discover where the animal with the best treasure chest is.</p>
                    <p> Like before, once you figure out which animal has the chest with the most treasure, you should try to get to that animal and select that chest! </p>","","instructions","","","","","","","","","","","","","",""
"learning-instructions","286","1309554","0.0-4.0-1.1-0.1","spark_pilot_2","7300","5","11","Male","","","","","","","939.7000000476837","<p> Remember, when you see a picture of the place, use the up and down keys to <b>find an animal</b>.</p>
            <p> When you encounter an animal, you should use the left and right keys to <b>select a treasure chest</b>.</p>
            <p> Don't forget to look out for the robber! </p>","","instructions","","","","","","","","","","","","","",""
"revaluation","287","1315588","0.0-4.0-2.1-0.50","spark_pilot_2","7300","5","11","Male","","false","","","","","[1248.6000000238419,801]","./assets/img/ocean/memory/18.jpg","[""ArrowUp"",""ArrowRight""]","value training","ocean","10","{""ArrowUp,ArrowLeft"":23,""ArrowUp,ArrowRight"":10,""ArrowDown,ArrowLeft"":8,""ArrowDown,ArrowRight"":30}","false","ArrowUp,ArrowRight","false","","","revaluation","2","0","","",""
"html-keyboard-response","288","1316100","0.0-4.0-2.1-1.50","spark_pilot_2","7300","5","11","Male","","","","","","","null","<div style=""font-size:60px;"">+</div>","null","fixation","","","","","","","","","","","1","","",""
"revaluation","289","1322138","0.0-4.0-2.1-0.51","spark_pilot_2","7300","5","11","Male","","false","","","","","[448.19999998807907,312.9000000357628]","./assets/img/ocean/memory/6.jpg","[""ArrowUp"",""ArrowLeft""]","value training","ocean","23","{""ArrowUp,ArrowLeft"":23,""ArrowUp,ArrowRight"":10,""ArrowDown,ArrowLeft"":8,""ArrowDown,ArrowRight"":30}","false","ArrowUp,ArrowLeft","false","","","revaluation","2","2","","",""
"html-keyboard-response","290","1322651","0.0-4.0-2.1-1.51","spark_pilot_2","7300","5","11","Male","","","","","","","null","<div style=""font-size:60px;"">+</div>","null","fixation","","","","","","","","","","","3","","",""
"revaluation","291","1328684","0.0-4.0-2.1-0.52","spark_pilot_2","7300","5","11","Male","","false","","","","","[385.80000001192093,1167.300000011921]","./assets/img/ocean/memory/40.jpg","[""ArrowDown"",""ArrowLeft""]","value training","ocean","8","{""ArrowUp,ArrowLeft"":23,""ArrowUp,ArrowRight"":10,""ArrowDown,ArrowLeft"":8,""ArrowDown,ArrowRight"":30}","false","ArrowDown,ArrowLeft","false","","","revaluation","2","4","","",""
"html-keyboard-response","292","1329200","0.0-4.0-2.1-1.52","spark_pilot_2","7300","5","11","Male","","","","","","","null","<div style=""font-size:60px;"">+</div>","null","fixation","","","","","","","","","","","5","","",""
"revaluation","293","1333212","0.0-4.0-2.1-0.53","spark_pilot_2","7300","5","11","Male","","false","","","","","[1553.800000011921]","./assets/img/ocean/catch/2.jpg","[""spaceBar""]","value training","ocean","0","{""ArrowUp,ArrowLeft"":23,""ArrowUp,ArrowRight"":10,""ArrowDown,ArrowLeft"":8,""ArrowDown,ArrowRight"":30}","true","spaceBar","true","","","revaluation","2","6","","",""
"html-keyboard-response","294","1333714","0.0-4.0-2.1-1.53","spark_pilot_2","7300","5","11","Male","","","","","","","null","<div style=""font-size:60px;"">+</div>","null","fixation","","","","","","","","","","","7","","",""
"revaluation","295","1339734","0.0-4.0-2.1-0.54","spark_pilot_2","7300","5","11","Male","","false","","","","","[1365.7000000476837,456.10000002384186]","./assets/img/ocean/memory/0.jpg","[""ArrowDown"",""ArrowRight""]","value training","ocean","30","{""ArrowUp,ArrowLeft"":23,""ArrowUp,ArrowRight"":10,""ArrowDown,ArrowLeft"":8,""ArrowDown,ArrowRight"":30}","true","ArrowDown,ArrowRight","false","","","revaluation","2","8","","",""
"html-keyboard-response","296","1340243","0.0-4.0-2.1-1.54","spark_pilot_2","7300","5","11","Male","","","","","","","null","<div style=""font-size:60px;"">+</div>","null","fixation","","","","","","","","","","","9","","",""
"revaluation","297","1346255","0.0-4.0-2.1-0.55","spark_pilot_2","7300","5","11","Male","","false","","","","","[431.5,422.39999997615814]","./assets/img/ocean/memory/24.jpg","[""ArrowDown"",""ArrowRight""]","value training","ocean","30","{""ArrowUp,ArrowLeft"":23,""ArrowUp,ArrowRight"":10,""ArrowDown,ArrowLeft"":8,""ArrowDown,ArrowRight"":30}","true","ArrowDown,ArrowRight","false","","","revaluation","2","10","","",""
"html-keyboard-response","298","1346757","0.0-4.0-2.1-1.55","spark_pilot_2","7300","5","11","Male","","","","","","","null","<div style=""font-size:60px;"">+</div>","null","fixation","","","","","","","","","","","11","","",""
"revaluation","299","1352781","0.0-4.0-2.1-0.56","spark_pilot_2","7300","5","11","Male","","false","","","","","[281.10000002384186,923.6000000238419]","./assets/img/ocean/memory/19.jpg","[""ArrowUp"",""ArrowLeft""]","value training","ocean","23","{""ArrowUp,ArrowLeft"":23,""ArrowUp,ArrowRight"":10,""ArrowDown,ArrowLeft"":8,""ArrowDown,ArrowRight"":30}","false","ArrowUp,ArrowLeft","false","","","revaluation","2","12","","",""
"html-keyboard-response","300","1353291","0.0-4.0-2.1-1.56","spark_pilot_2","7300","5","11","Male","","","","","","","null","<div style=""font-size:60px;"">+</div>","null","fixation","","","","","","","","","","","13","","",""
"revaluation","301","1357314","0.0-4.0-2.1-0.57","spark_pilot_2","7300","5","11","Male","","false","","","","","[437.5]","./assets/img/ocean/catch/1.jpg","[""ArrowDown""]","value training","ocean","-10","{""ArrowUp,ArrowLeft"":23,""ArrowUp,ArrowRight"":10,""ArrowDown,ArrowLeft"":8,""ArrowDown,ArrowRight"":30}","false","ArrowDown","true","","","revaluation","2","14","","",""
"html-keyboard-response","302","1357819","0.0-4.0-2.1-1.57","spark_pilot_2","7300","5","11","Male","","","","","","","null","<div style=""font-size:60px;"">+</div>","null","fixation","","","","","","","","","","","15","","",""
"revaluation","303","1361829","0.0-4.0-2.1-0.58","spark_pilot_2","7300","5","11","Male","","false","","","","","[1046.5]","./assets/img/ocean/catch/5.jpg","[""spaceBar""]","value training","ocean","0","{""ArrowUp,ArrowLeft"":23,""ArrowUp,ArrowRight"":10,""ArrowDown,ArrowLeft"":8,""ArrowDown,ArrowRight"":30}","true","spaceBar","true","","","revaluation","2","16","","",""
"html-keyboard-response","304","1362334","0.0-4.0-2.1-1.58","spark_pilot_2","7300","5","11","Male","","","","","","","null","<div style=""font-size:60px;"">+</div>","null","fixation","","","","","","","","","","","17","","",""
"revaluation","305","1368348","0.0-4.0-2.1-0.59","spark_pilot_2","7300","5","11","Male","","false","","","","","[1451.5,1963.3999999761581]","./assets/img/ocean/memory/13.jpg","[""ArrowDown"",""ArrowRight""]","value training","ocean","30","{""ArrowUp,ArrowLeft"":23,""ArrowUp,ArrowRight"":10,""ArrowDown,ArrowLeft"":8,""ArrowDown,ArrowRight"":30}","true","ArrowDown,ArrowRight","false","","","revaluation","2","18","","",""
"html-keyboard-response","306","1368852","0.0-4.0-2.1-1.59","spark_pilot_2","7300","5","11","Male","","","","","","","null","<div style=""font-size:60px;"">+</div>","null","fixation","","","","","","","","","","","19","","",""
"revaluation","307","1374875","0.0-4.0-2.1-0.60","spark_pilot_2","7300","5","11","Male","","false","","","","","[1234.800000011921,304]","./assets/img/ocean/memory/34.jpg","[""ArrowDown"",""ArrowRight""]","value training","ocean","30","{""ArrowUp,ArrowLeft"":23,""ArrowUp,ArrowRight"":10,""ArrowDown,ArrowLeft"":8,""ArrowDown,ArrowRight"":30}","true","ArrowDown,ArrowRight","false","","","revaluation","2","20","","",""
"html-keyboard-response","308","1375377","0.0-4.0-2.1-1.60","spark_pilot_2","7300","5","11","Male","","","","","","","null","<div style=""font-size:60px;"">+</div>","null","fixation","","","","","","","","","","","21","","",""
