"trial_type","trial_index","time_elapsed","internal_node_id","task_version","subject_id","assigned_condition","age","gender","success","timeout","failed_images","failed_audio","failed_video","browser_interaction","rt","stimulus","response","task_part","environment","score","rewardMap","correct","fullState","isCatch","numberMissed","duration","condition","order","trial_num","key_press","ground_truth","bonus"
"pavlovia","0","2555","0.0-0.0","spark_pilot_2","9134","2","23","Male","","","","","","","","","","","","","","","","","","","","","","","",""
"preload","1","47494","0.0-1.0","spark_pilot_2","9134","2","23","Male","true","false","[]","[]","[]","[{""event"":""fullscreenenter"",""trial"":2,""time"":58105}]","","","","","","","","","","","","","","","","","",""
"fullscreen","2","59072","0.0-2.0","spark_pilot_2","9134","2","23","Male","true","","","","","","","","","","","","","","","","","","","","","","",""
"audio-button-response","3","62773","0.0-3.0-0.0-0.0","spark_pilot_2","9134","2","23","Male","","","","","","","3149","./assets/audio/audiotest/turtle.mp3","2","audio_test","","","","","","","","","","","","","",""
"learning-instructions","4","71610","0.0-3.0-1.0-0.0","spark_pilot_2","9134","2","23","Male","","","","","","","1791.5","<p> Welcome! Please remember to stay in fullscreen mode and don't click away from the experiment. </p>","","instructions","","","","","","","","","","","","","",""
"learning-instructions","5","82555","0.0-3.0-1.0-0.1","spark_pilot_2","9134","2","23","Male","","","","","","","2453","<p> Today you will be playing a game to earn treasure. </p>
            <p> At the end of the experiment, you will earn a bonus based on how much treasure you find. </p>
            <img src='./assets/img/instructions/treasure.jpg' class='instructions-image'>","","instructions","","","","","","","","","","","","","",""
"learning-instructions","6","91844","0.0-3.0-1.0-0.2","spark_pilot_2","9134","2","23","Male","","","","","","","972.1999999992549","<p> Animals have hidden treasure in treasure chests. </p>
            <p> You need to first find an animal and then choose which of their treasure chests to search. </p>
            <img src='./assets/img/space/animals/cat.jpg' class='instructions-image'>","","instructions","","","","","","","","","","","","","",""
"learning-instructions","7","111456","0.0-3.0-1.0-0.3","spark_pilot_2","9134","2","23","Male","","","","","","","6364.400000002235","<p> In each round, you will search for treasure in a different place. In the real game, there will be two rounds. </p>
            <p> You will begin with a separate, practice round where you will search for treasure in outer space. </p>
            <img src='./assets/img/space/0.jpg' class='instructions-image'>","","instructions","","","","","","","","","","","","","",""
"learning-instructions","8","126010","0.0-3.0-1.0-0.4","spark_pilot_2","9134","2","23","Male","","","","","","","3057.7000000029802","<p> On every turn, you will see a picture of the place that you are in, but the specific image may be different each time. </p>
            <p> For example, both of these images mean you are in outer space. </p>
            <img src='./assets/img/instructions/outerspace.jpg' class='instructions-image'>","","instructions","","","","","","","","","","","","","",""
"learning-instructions","9","137426","0.0-3.0-1.0-0.5","spark_pilot_2","9134","2","23","Male","","","","","","","3524.5","<p> You need to decide which direction to travel in. </p>
            <p> You can choose between going <b>up or down</b> by using the arrow keys. </p>
            <img src='./assets/img/instructions/updown.jpg' class='instructions-image'>","","instructions","","","","","","","","","","","","","",""
"learning-instructions","10","156744","0.0-3.0-1.0-0.6","spark_pilot_2","9134","2","23","Male","","","","","","","10442.20000000298","<p> You will have <b>2 seconds</b> to make your choice. </p>
            <p> If you do not make a choice within 2 seconds, you will not find an animal or earn treasure. </p>
            <img src='./assets/img/instructions/2seconds.jpg' class='instructions-image'>","","instructions","","","","","","","","","","","","","",""
"learning-instructions","11","164761","0.0-3.0-1.0-0.7","spark_pilot_2","9134","2","23","Male","","","","","","","909.0999999977648","<p> Let’s try practicing that now! </p>
            <p> When you see a picture of the place you are in, press the <b>up</b> key to travel up. </p>
            <img src='./assets/img/instructions/pressUp.jpg' class='instructions-image'>","","instructions","","","","","","","","","","","","","",""
"revaluation","12","168823","0.0-3.0-2.0-0.0","spark_pilot_2","9134","2","23","Male","","true","","","","","[]","./assets/img/space/0.jpg","[]","first stage practice","space","-5","null","null","","false","","","","","","","",""
"html-keyboard-response","13","169331","0.0-3.0-2.0-1.0","spark_pilot_2","9134","2","23","Male","","","","","","","null","<div style=""font-size:60px;"">+</div>","null","fixation","","","","","","","","","","","","","",""
"revaluation","14","173351","0.0-3.0-2.0-0.1","spark_pilot_2","9134","2","23","Male","","false","","","","","[824.1000000014901]","./assets/img/space/1.jpg","[""ArrowUp""]","first stage practice","space","0","null","null","ArrowUp","false","","","","","","","",""
"html-keyboard-response","15","173859","0.0-3.0-2.0-1.1","spark_pilot_2","9134","2","23","Male","","","","","","","null","<div style=""font-size:60px;"">+</div>","null","fixation","","","","","","","","","","","","","",""
"revaluation","16","177883","0.0-3.0-2.0-0.2","spark_pilot_2","9134","2","23","Male","","false","","","","","[122.19999999925494]","./assets/img/space/2.jpg","[""ArrowUp""]","first stage practice","space","0","null","null","ArrowUp","false","","","","","","","",""
"html-keyboard-response","17","178385","0.0-3.0-2.0-1.2","spark_pilot_2","9134","2","23","Male","","","","","","","null","<div style=""font-size:60px;"">+</div>","null","fixation","","","","","","","","","","","","","",""
"learning-instructions","18","187082","0.0-3.0-3.0-0.0","spark_pilot_2","9134","2","23","Male","","","","","","","3950.60000000149","<p> Great job! Now try pressing the <b>down</b> key to travel down. </p>
            <img src='./assets/img/instructions/pressDown.jpg' class='instructions-image'>","","instructions","","","","","","","","","","","","","",""
"revaluation","19","191101","0.0-3.0-4.0-0.0","spark_pilot_2","9134","2","23","Male","","true","","","","","[]","./assets/img/space/3.jpg","[]","first stage practice","space","-5","null","null","","false","","","","","","","",""
"html-keyboard-response","20","191608","0.0-3.0-4.0-1.0","spark_pilot_2","9134","2","23","Male","","","","","","","null","<div style=""font-size:60px;"">+</div>","null","fixation","","","","","","","","","","","","","",""
"revaluation","21","195634","0.0-3.0-4.0-0.1","spark_pilot_2","9134","2","23","Male","","false","","","","","[5.5]","./assets/img/space/4.jpg","[""ArrowDown""]","first stage practice","space","0","null","null","ArrowDown","false","","","","","","","",""
"html-keyboard-response","22","196143","0.0-3.0-4.0-1.1","spark_pilot_2","9134","2","23","Male","","","","","","","null","<div style=""font-size:60px;"">+</div>","null","fixation","","","","","","","","","","","","","",""
"revaluation","23","200167","0.0-3.0-4.0-0.2","spark_pilot_2","9134","2","23","Male","","true","","","","","[]","./assets/img/space/5.jpg","[]","first stage practice","space","-5","null","null","","false","","","","","","","",""
"html-keyboard-response","24","200678","0.0-3.0-4.0-1.2","spark_pilot_2","9134","2","23","Male","","","","","","","null","<div style=""font-size:60px;"">+</div>","null","fixation","","","","","","","","","","","","","",""
"learning-instructions","25","213086","0.0-3.0-5.0-0.0","spark_pilot_2","9134","2","23","Male","","","","","","","2465","<p> The animals don’t move, so the animal in the upper part of a place will stay in the upper part of a place, and the animal in the lower part of a place will stay in the lower part of a place. </p>","","instructions","","","","","","","","","","","","","",""
"learning-instructions","26","224798","0.0-3.0-5.0-0.1","spark_pilot_2","9134","2","23","Male","","","","","","","2526.5","<p> Each animal has two treasure chests for you to choose from. </p>
            <p> The amount of treasure in each chest can range from <b> 0 to 40 pieces.</b></p>","","instructions","","","","","","","","","","","","","",""
"learning-instructions","27","238852","0.0-3.0-5.0-0.2","spark_pilot_2","9134","2","23","Male","","","","","","","2790","<p> You should decide which chest to search for treasure by using the <b>left</b> and <b>right</b> arrow keys. </p>
            <p><b> Pay attention to which animal is on the screen, as the animals have different treasure chests. </b></p>
            <img src='./assets/img/instructions/leftright.jpg' class='instructions-image'>","","instructions","","","","","","","","","","","","","",""
"learning-instructions","28","246631","0.0-3.0-5.0-0.3","spark_pilot_2","9134","2","23","Male","","","","","","","1360.199999999255","<p> Let’s try practicing that now. </p>
            <p> When you see an animal, choose which chest to search for treasure. </p>
            <img src='./assets/img/instructions/chooseChest.jpg' class='instructions-image'>","","instructions","","","","","","","","","","","","","",""
"revaluation","29","250669","0.0-3.0-6.0-0.0","spark_pilot_2","9134","2","23","Male","","false","","","","","[1059.199999999255]","./assets/img/space/animals/rabbit.jpg","[""ArrowRight""]","second stage practice","space","23","{""ArrowUp,ArrowLeft"":3,""ArrowUp,ArrowRight"":36,""ArrowDown,ArrowLeft"":15,""ArrowDown,ArrowRight"":23}","true","ArrowDown,ArrowRight","","","","","","","","",""
"html-keyboard-response","30","251176","0.0-3.0-6.0-1.0","spark_pilot_2","9134","2","23","Male","","","","","","","null","<div style=""font-size:60px;"">+</div>","null","fixation","","","","","","","","","","","","","",""
"revaluation","31","255201","0.0-3.0-6.0-0.1","spark_pilot_2","9134","2","23","Male","","false","","","","","[65.80000000074506]","./assets/img/space/animals/cat.jpg","[""ArrowRight""]","second stage practice","space","36","{""ArrowUp,ArrowLeft"":3,""ArrowUp,ArrowRight"":36,""ArrowDown,ArrowLeft"":15,""ArrowDown,ArrowRight"":23}","true","ArrowUp,ArrowRight","","","","","","","","",""
"html-keyboard-response","32","255708","0.0-3.0-6.0-1.1","spark_pilot_2","9134","2","23","Male","","","","","","","null","<div style=""font-size:60px;"">+</div>","null","fixation","","","","","","","","","","","","","",""
"revaluation","33","259730","0.0-3.0-6.0-0.2","spark_pilot_2","9134","2","23","Male","","false","","","","","[514.3000000007451]","./assets/img/space/animals/rabbit.jpg","[""ArrowLeft""]","second stage practice","space","15","{""ArrowUp,ArrowLeft"":3,""ArrowUp,ArrowRight"":36,""ArrowDown,ArrowLeft"":15,""ArrowDown,ArrowRight"":23}","false","ArrowDown,ArrowLeft","","","","","","","","",""
"html-keyboard-response","34","260244","0.0-3.0-6.0-1.2","spark_pilot_2","9134","2","23","Male","","","","","","","null","<div style=""font-size:60px;"">+</div>","null","fixation","","","","","","","","","","","","","",""
"revaluation","35","264273","0.0-3.0-6.0-0.3","spark_pilot_2","9134","2","23","Male","","false","","","","","[16.400000002235174]","./assets/img/space/animals/cat.jpg","[""ArrowRight""]","second stage practice","space","36","{""ArrowUp,ArrowLeft"":3,""ArrowUp,ArrowRight"":36,""ArrowDown,ArrowLeft"":15,""ArrowDown,ArrowRight"":23}","true","ArrowUp,ArrowRight","","","","","","","","",""
"html-keyboard-response","36","264777","0.0-3.0-6.0-1.3","spark_pilot_2","9134","2","23","Male","","","","","","","null","<div style=""font-size:60px;"">+</div>","null","fixation","","","","","","","","","","","","","",""
"learning-instructions","37","283137","0.0-3.0-7.0-0.0","spark_pilot_2","9134","2","23","Male","","","","","","","1447","<p> Great job. Now let’s try putting it together. </p>
            <p> On each turn, you will first see a picture to remind you of the place you are in, and you need to choose whether to go up or down. </p>
            <p> Then you will see an animal and choose which of its chests to search for treasure. </p>","","instructions","","","","","","","","","","","","","",""
"learning-instructions","38","293645","0.0-3.0-7.0-0.1","spark_pilot_2","9134","2","23","Male","","","","","","","2235.60000000149","<p> When you choose whether to go up or down, try to go to the animal with the chest with the most treasure. </p>
            <p> Try practicing that now! </p>","","instructions","","","","","","","","","","","","","",""
"revaluation","39","299682","0.0-3.0-8.0-0.0","spark_pilot_2","9134","2","23","Male","","true","","","","","[672.8000000007451]","./assets/img/space/6.jpg","[""ArrowDown""]","full practice","space","-5","{""ArrowUp,ArrowLeft"":3,""ArrowUp,ArrowRight"":36,""ArrowDown,ArrowLeft"":15,""ArrowDown,ArrowRight"":23}","false","ArrowDown","false","","","","","","","",""
"html-keyboard-response","40","300186","0.0-3.0-8.0-1.0","spark_pilot_2","9134","2","23","Male","","","","","","","null","<div style=""font-size:60px;"">+</div>","null","fixation","","","","","","","","","","","","","",""
"revaluation","41","306211","0.0-3.0-8.0-0.1","spark_pilot_2","9134","2","23","Male","","false","","","","","[598.3999999985099,21.600000001490116]","./assets/img/space/7.jpg","[""ArrowUp"",""ArrowRight""]","full practice","space","36","{""ArrowUp,ArrowLeft"":3,""ArrowUp,ArrowRight"":36,""ArrowDown,ArrowLeft"":15,""ArrowDown,ArrowRight"":23}","true","ArrowUp,ArrowRight","false","","","","","","","",""
"html-keyboard-response","42","306714","0.0-3.0-8.0-1.1","spark_pilot_2","9134","2","23","Male","","","","","","","null","<div style=""font-size:60px;"">+</div>","null","fixation","","","","","","","","","","","","","",""
"revaluation","43","312746","0.0-3.0-8.0-0.2","spark_pilot_2","9134","2","23","Male","","false","","","","","[238.10000000149012,436.5]","./assets/img/space/8.jpg","[""ArrowUp"",""ArrowRight""]","full practice","space","36","{""ArrowUp,ArrowLeft"":3,""ArrowUp,ArrowRight"":36,""ArrowDown,ArrowLeft"":15,""ArrowDown,ArrowRight"":23}","true","ArrowUp,ArrowRight","false","","","","","","","",""
"html-keyboard-response","44","313258","0.0-3.0-8.0-1.2","spark_pilot_2","9134","2","23","Male","","","","","","","null","<div style=""font-size:60px;"">+</div>","null","fixation","","","","","","","","","","","","","",""
"revaluation","45","319286","0.0-3.0-8.0-0.3","spark_pilot_2","9134","2","23","Male","","false","","","","","[605.5,289.69999999925494]","./assets/img/space/9.jpg","[""ArrowUp"",""ArrowRight""]","full practice","space","36","{""ArrowUp,ArrowLeft"":3,""ArrowUp,ArrowRight"":36,""ArrowDown,ArrowLeft"":15,""ArrowDown,ArrowRight"":23}","true","ArrowUp,ArrowRight","false","","","","","","","",""
"html-keyboard-response","46","319790","0.0-3.0-8.0-1.3","spark_pilot_2","9134","2","23","Male","","","","","","","null","<div style=""font-size:60px;"">+</div>","null","fixation","","","","","","","","","","","","","",""
"revaluation","47","325813","0.0-3.0-8.0-0.4","spark_pilot_2","9134","2","23","Male","","false","","","","","[276.3999999985099,120.70000000298023]","./assets/img/space/10.jpg","[""ArrowDown"",""ArrowRight""]","full practice","space","23","{""ArrowUp,ArrowLeft"":3,""ArrowUp,ArrowRight"":36,""ArrowDown,ArrowLeft"":15,""ArrowDown,ArrowRight"":23}","false","ArrowDown,ArrowRight","false","","","","","","","",""
"html-keyboard-response","48","326330","0.0-3.0-8.0-1.4","spark_pilot_2","9134","2","23","Male","","","","","","","null","<div style=""font-size:60px;"">+</div>","null","fixation","","","","","","","","","","","","","",""
"learning-instructions","49","339208","0.0-3.0-9.0-0.0","spark_pilot_2","9134","2","23","Male","","","","","","","1918.5","<p> One last thing: sometimes, you will see a robber. The robber can be anywhere in the picture. </p>
            <p> If you do not stop them, you will lose treasure. </p>
            <img src='./assets/img/instructions/robber.jpg' class='instructions-image'>","","instructions","","","","","","","","","","","","","",""
"learning-instructions","50","347544","0.0-3.0-9.0-0.1","spark_pilot_2","9134","2","23","Male","","","","","","","1115.3999999985099","<p> If you see the robber, you should <b>press the space bar</b> rather than using the arrow keys. </p>
            <p> Try practicing that now! </p>","","instructions","","","","","","","","","","","","","",""
"revaluation","51","351562","0.0-3.0-10.0-0.0","spark_pilot_2","9134","2","23","Male","","false","","","","","[578.8999999985099]","./assets/img/space/catch/0.jpg","[""ArrowDown""]","catch practice","space","-10","{""ArrowUp,ArrowLeft"":3,""ArrowUp,ArrowRight"":36,""ArrowDown,ArrowLeft"":15,""ArrowDown,ArrowRight"":23}","false","ArrowDown","true","","","","","","","",""
"html-keyboard-response","52","352072","0.0-3.0-10.0-1.0","spark_pilot_2","9134","2","23","Male","","","","","","","null","<div style=""font-size:60px;"">+</div>","null","fixation","","","","","","","","","","","","","",""
"revaluation","53","356093","0.0-3.0-10.0-0.1","spark_pilot_2","9134","2","23","Male","","true","","","","","[]","./assets/img/space/catch/1.jpg","[]","catch practice","space","-5","{""ArrowUp,ArrowLeft"":3,""ArrowUp,ArrowRight"":36,""ArrowDown,ArrowLeft"":15,""ArrowDown,ArrowRight"":23}","false","","true","","","","","","","",""
"html-keyboard-response","54","356604","0.0-3.0-10.0-1.1","spark_pilot_2","9134","2","23","Male","","","","","","","null","<div style=""font-size:60px;"">+</div>","null","fixation","","","","","","","","","","","","","",""
"revaluation","55","360631","0.0-3.0-10.0-0.2","spark_pilot_2","9134","2","23","Male","","false","","","","","[1158.8999999985099]","./assets/img/space/catch/2.jpg","[""ArrowUp""]","catch practice","space","-10","{""ArrowUp,ArrowLeft"":3,""ArrowUp,ArrowRight"":36,""ArrowDown,ArrowLeft"":15,""ArrowDown,ArrowRight"":23}","false","ArrowUp","true","","","","","","","",""
"html-keyboard-response","56","361138","0.0-3.0-10.0-1.2","spark_pilot_2","9134","2","23","Male","","","","","","","null","<div style=""font-size:60px;"">+</div>","null","fixation","","","","","","","","","","","","","",""
"learning-instructions","57","375350","0.0-3.0-11.0-0.0","spark_pilot_2","9134","2","23","Male","","","","","","","532.5","<p> After you explore a place to find treasure, it will be time to play a different game. </p>
            <p> During this game, red dots will appear on the screen and fall down slowly. </p>
            <p><b> You must click on them before they reach the bottom. </b></p>
            <img src='./assets/img/instructions/dotGame.jpg' class='instructions-image'>","","instructions","","","","","","","","","","","","","",""
"learning-instructions","58","381549","0.0-3.0-11.0-0.1","spark_pilot_2","9134","2","23","Male","","","","","","","510.0999999977648","<p> For every dot you click, you will earn additional treasure. </p>
            <p> Let’s try practicing that now. </p>","","instructions","","","","","","","","","","","","","",""
"revaluation","59","396570","0.0-3.0-12.0-0.0","spark_pilot_2","9134","2","23","Male","","","","","","","[87]","","","rest practice","","10","","","","","0","15000","","","","","",""
"learning-instructions","60","403968","0.0-3.0-13.0-0.0-0.0","spark_pilot_2","9134","2","23","Male","","","","","","","2049.89999999851","<p> Now, you will practice a shortened version of the game to get a sense of how it all fits together. </p>","","instructions","","","","","","","","","","","","","",""
"learning-instructions","61","407932","0.0-3.0-13.0-0.0-0.1","spark_pilot_2","9134","2","23","Male","","","","","","","772.8000000007451","<p>This time you are searching for treasure in outer space.</p>","","instructions","","","","","","","","","","","","","",""
"learning-instructions","62","424840","0.0-3.0-13.0-1.0-0.0","spark_pilot_2","9134","2","23","Male","","","","","","","2080.300000000745","<p> Remember, when you see a picture of the place, use the up and down keys to <b>find an animal</b>.</p>
            <p> When you encounter an animal, you should use the left and right keys to <b>select a treasure chest</b>.</p>
            <p> Don't forget to look out for the robber! </p>","","instructions","","","","","","","","","","","","","",""
"revaluation","63","428854","0.0-3.0-13.0-2.0-0.0","spark_pilot_2","9134","2","23","Male","","true","","","","","[]","./assets/img/space/11.jpg","[]","practice block","space","-5","{""ArrowUp,ArrowLeft"":3,""ArrowUp,ArrowRight"":36,""ArrowDown,ArrowLeft"":15,""ArrowDown,ArrowRight"":23}","false","","false","","","","","","","",""
"html-keyboard-response","64","429359","0.0-3.0-13.0-2.0-1.0","spark_pilot_2","9134","2","23","Male","","","","","","","null","<div style=""font-size:60px;"">+</div>","null","fixation","","","","","","","","","","","","","",""
"revaluation","65","435407","0.0-3.0-13.0-2.0-0.1","spark_pilot_2","9134","2","23","Male","","false","","","","","[545.3000000007451,254.89999999850988]","./assets/img/space/12.jpg","[""ArrowUp"",""ArrowRight""]","practice block","space","36","{""ArrowUp,ArrowLeft"":3,""ArrowUp,ArrowRight"":36,""ArrowDown,ArrowLeft"":15,""ArrowDown,ArrowRight"":23}","true","ArrowUp,ArrowRight","false","","","","","","","",""
"html-keyboard-response","66","435913","0.0-3.0-13.0-2.0-1.1","spark_pilot_2","9134","2","23","Male","","","","","","","null","<div style=""font-size:60px;"">+</div>","null","fixation","","","","","","","","","","","","","",""
"revaluation","67","441956","0.0-3.0-13.0-2.0-0.2","spark_pilot_2","9134","2","23","Male","","false","","","","","[884.3999999985099,173]","./assets/img/space/13.jpg","[""ArrowDown"",""ArrowLeft""]","practice block","space","15","{""ArrowUp,ArrowLeft"":3,""ArrowUp,ArrowRight"":36,""ArrowDown,ArrowLeft"":15,""ArrowDown,ArrowRight"":23}","false","ArrowDown,ArrowLeft","false","","","","","","","",""
"html-keyboard-response","68","442458","0.0-3.0-13.0-2.0-1.2","spark_pilot_2","9134","2","23","Male","","","","","","","null","<div style=""font-size:60px;"">+</div>","null","fixation","","","","","","","","","","","","","",""
"revaluation","69","448481","0.0-3.0-13.0-2.0-0.3","spark_pilot_2","9134","2","23","Male","","false","","","","","[688.3999999985099,288.0999999977648]","./assets/img/space/14.jpg","[""ArrowUp"",""ArrowLeft""]","practice block","space","3","{""ArrowUp,ArrowLeft"":3,""ArrowUp,ArrowRight"":36,""ArrowDown,ArrowLeft"":15,""ArrowDown,ArrowRight"":23}","false","ArrowUp,ArrowLeft","false","","","","","","","",""
"html-keyboard-response","70","448994","0.0-3.0-13.0-2.0-1.3","spark_pilot_2","9134","2","23","Male","","","","","","","null","<div style=""font-size:60px;"">+</div>","null","fixation","","","","","","","","","","","","","",""
"revaluation","71","455022","0.0-3.0-13.0-2.0-0.4","spark_pilot_2","9134","2","23","Male","","false","","","","","[423.9000000022352,119.30000000074506]","./assets/img/space/11.jpg","[""ArrowDown"",""ArrowRight""]","practice block","space","23","{""ArrowUp,ArrowLeft"":3,""ArrowUp,ArrowRight"":36,""ArrowDown,ArrowLeft"":15,""ArrowDown,ArrowRight"":23}","false","ArrowDown,ArrowRight","false","","","","","","","",""
"html-keyboard-response","72","455536","0.0-3.0-13.0-2.0-1.4","spark_pilot_2","9134","2","23","Male","","","","","","","null","<div style=""font-size:60px;"">+</div>","null","fixation","","","","","","","","","","","","","",""
"revaluation","73","461558","0.0-3.0-13.0-2.0-0.5","spark_pilot_2","9134","2","23","Male","","false","","","","","[1084.2000000029802,1171.3999999985099]","./assets/img/space/12.jpg","[""ArrowUp"",""ArrowRight""]","practice block","space","36","{""ArrowUp,ArrowLeft"":3,""ArrowUp,ArrowRight"":36,""ArrowDown,ArrowLeft"":15,""ArrowDown,ArrowRight"":23}","true","ArrowUp,ArrowRight","false","","","","","","","",""
"html-keyboard-response","74","462066","0.0-3.0-13.0-2.0-1.5","spark_pilot_2","9134","2","23","Male","","","","","","","null","<div style=""font-size:60px;"">+</div>","null","fixation","","","","","","","","","","","","","",""
"revaluation","75","468089","0.0-3.0-13.0-2.0-0.6","spark_pilot_2","9134","2","23","Male","","false","","","","","[742,145.69999999925494]","./assets/img/space/13.jpg","[""ArrowDown"",""ArrowLeft""]","practice block","space","15","{""ArrowUp,ArrowLeft"":3,""ArrowUp,ArrowRight"":36,""ArrowDown,ArrowLeft"":15,""ArrowDown,ArrowRight"":23}","false","ArrowDown,ArrowLeft","false","","","","","","","",""
"html-keyboard-response","76","468599","0.0-3.0-13.0-2.0-1.6","spark_pilot_2","9134","2","23","Male","","","","","","","null","<div style=""font-size:60px;"">+</div>","null","fixation","","","","","","","","","","","","","",""
"revaluation","77","474637","0.0-3.0-13.0-2.0-0.7","spark_pilot_2","9134","2","23","Male","","false","","","","","[182.69999999925494,116.19999999925494]","./assets/img/space/14.jpg","[""ArrowDown"",""ArrowRight""]","practice block","space","23","{""ArrowUp,ArrowLeft"":3,""ArrowUp,ArrowRight"":36,""ArrowDown,ArrowLeft"":15,""ArrowDown,ArrowRight"":23}","false","ArrowDown,ArrowRight","false","","","","","","","",""
"html-keyboard-response","78","475143","0.0-3.0-13.0-2.0-1.7","spark_pilot_2","9134","2","23","Male","","","","","","","null","<div style=""font-size:60px;"">+</div>","null","fixation","","","","","","","","","","","","","",""
"revaluation","79","479161","0.0-3.0-13.0-2.0-0.8","spark_pilot_2","9134","2","23","Male","","false","","","","","[321.5]","./assets/img/space/catch/3.jpg","[""ArrowUp""]","practice block","space","-10","{""ArrowUp,ArrowLeft"":3,""ArrowUp,ArrowRight"":36,""ArrowDown,ArrowLeft"":15,""ArrowDown,ArrowRight"":23}","false","ArrowUp","true","","","","","","","",""
"html-keyboard-response","80","479672","0.0-3.0-13.0-2.0-1.8","spark_pilot_2","9134","2","23","Male","","","","","","","null","<div style=""font-size:60px;"">+</div>","null","fixation","","","","","","","","","","","","","",""
"learning-instructions","81","494290","0.0-3.0-13.0-3.0-0.0","spark_pilot_2","9134","2","23","Male","","","","","","","1207.0999999977648","<p> Now, you will travel with a friend who will choose whether you go up or down first. </p>
            <p> On these turns, you will just see the animal that they found. You will still get to choose which chest to search for treasure.</p>","","instructions","","","","","","","","","","","","","",""
"revaluation","82","498310","0.0-3.0-13.0-4.0-0.0","spark_pilot_2","9134","2","23","Male","","false","","","","","[665]","./assets/img/space/animals/cat.jpg","[""ArrowRight""]","practice block","space","36","{""ArrowUp,ArrowLeft"":3,""ArrowUp,ArrowRight"":36,""ArrowDown,ArrowLeft"":15,""ArrowDown,ArrowRight"":23}","true","ArrowUp,ArrowRight","","","","","","","","",""
"html-keyboard-response","83","498814","0.0-3.0-13.0-4.0-1.0","spark_pilot_2","9134","2","23","Male","","","","","","","null","<div style=""font-size:60px;"">+</div>","null","fixation","","","","","","","","","","","","","",""
"revaluation","84","502845","0.0-3.0-13.0-4.0-0.1","spark_pilot_2","9134","2","23","Male","","false","","","","","[726.6999999992549]","./assets/img/space/animals/rabbit.jpg","[""ArrowRight""]","practice block","space","23","{""ArrowUp,ArrowLeft"":3,""ArrowUp,ArrowRight"":36,""ArrowDown,ArrowLeft"":15,""ArrowDown,ArrowRight"":23}","true","ArrowDown,ArrowRight","","","","","","","","",""
"html-keyboard-response","85","503352","0.0-3.0-13.0-4.0-1.1","spark_pilot_2","9134","2","23","Male","","","","","","","null","<div style=""font-size:60px;"">+</div>","null","fixation","","","","","","","","","","","","","",""
"revaluation","86","507365","0.0-3.0-13.0-4.0-0.2","spark_pilot_2","9134","2","23","Male","","false","","","","","[923.0999999977648]","./assets/img/space/animals/rabbit.jpg","[""ArrowRight""]","practice block","space","23","{""ArrowUp,ArrowLeft"":3,""ArrowUp,ArrowRight"":36,""ArrowDown,ArrowLeft"":15,""ArrowDown,ArrowRight"":23}","true","ArrowDown,ArrowRight","","","","","","","","",""
"html-keyboard-response","87","507868","0.0-3.0-13.0-4.0-1.2","spark_pilot_2","9134","2","23","Male","","","","","","","null","<div style=""font-size:60px;"">+</div>","null","fixation","","","","","","","","","","","","","",""
"revaluation","88","511878","0.0-3.0-13.0-4.0-0.3","spark_pilot_2","9134","2","23","Male","","false","","","","","[1282.0999999977648]","./assets/img/space/animals/cat.jpg","[""ArrowRight""]","practice block","space","36","{""ArrowUp,ArrowLeft"":3,""ArrowUp,ArrowRight"":36,""ArrowDown,ArrowLeft"":15,""ArrowDown,ArrowRight"":23}","true","ArrowUp,ArrowRight","","","","","","","","",""
"html-keyboard-response","89","512390","0.0-3.0-13.0-4.0-1.3","spark_pilot_2","9134","2","23","Male","","","","","","","null","<div style=""font-size:60px;"">+</div>","null","fixation","","","","","","","","","","","","","",""
"learning-instructions","90","521412","0.0-3.0-13.0-5.0-0.0","spark_pilot_2","9134","2","23","Male","","","","","","","1616.5","<p> Time to play the dot game! </p>
            <p> For 15 seconds, click the red dots on the following screen as they appear. </p>","","instructions","","","","","","","","","","","","","",""
"revaluation","91","536420","0.0-3.0-13.0-6.0-0.0","spark_pilot_2","9134","2","23","Male","","","","","","","[92,111]","","","rest practice","","20","","","","","0","15000","","","","","",""
"learning-instructions","92","544117","0.0-3.0-13.0-7.0-0.0","spark_pilot_2","9134","2","23","Male","","","","","","","1521.2000000029802","<p> You have almost finished this part of the game! </p>
            <p> We are going to ask you to make a few more choices. </p>","","instructions","","","","","","","","","","","","","",""
"learning-instructions","93","559570","0.0-3.0-13.0-7.0-0.1","spark_pilot_2","9134","2","23","Male","","","","","","","1385.5999999977648","<p> First, you need to decide whether to go up or down. When you see each picture, use the arrow keys to make your choice. </p>
            <p><b>You will not see which animal you found, but try to get to the one that will give you the most treasure.</b></p>","","instructions","","","","","","","","","","","","","",""
"revaluation","94","560868","0.0-3.0-13.0-8.0","spark_pilot_2","9134","2","23","Male","","false","","","","","[1292.0999999977648]","./assets/img/space/15.jpg","[""ArrowDown""]","practice block","space","0","{""ArrowUp,ArrowLeft"":3,""ArrowUp,ArrowRight"":36,""ArrowDown,ArrowLeft"":15,""ArrowDown,ArrowRight"":23}","false","ArrowDown","false","","","","","","","",""
"html-keyboard-response","95","561375","0.0-3.0-13.0-9.0","spark_pilot_2","9134","2","23","Male","","","","","","","null","<div style=""font-size:60px;"">+</div>","null","fixation","","","","","","","","","","","","","",""
"learning-instructions","96","575241","0.0-3.0-13.0-10.0-0.0","spark_pilot_2","9134","2","23","Male","","","","","","","2415.900000002235","<p> Now you will see the animals again and can search their chests for treasure. </p>
            <p> This time, you will not see how much treasure you earned, but you will earn more bonus money for making better choices. </p>","","instructions","","","","","","","","","","","","","",""
"revaluation","97","575897","0.0-3.0-13.0-11.0-0.0","spark_pilot_2","9134","2","23","Male","","false","","","","","[652]","./assets/img/space/animals/cat.jpg","[""ArrowRight""]","practice block","space","0","{""ArrowUp,ArrowLeft"":3,""ArrowUp,ArrowRight"":36,""ArrowDown,ArrowLeft"":15,""ArrowDown,ArrowRight"":23}","true","ArrowUp,ArrowRight","","","","","","","","",""
"html-keyboard-response","98","576401","0.0-3.0-13.0-11.0-1.0","spark_pilot_2","9134","2","23","Male","","","","","","","null","<div style=""font-size:60px;"">+</div>","null","fixation","","","","","","","","","","","","","",""
"revaluation","99","576852","0.0-3.0-13.0-11.0-0.1","spark_pilot_2","9134","2","23","Male","","false","","","","","[445.3999999985099]","./assets/img/space/animals/rabbit.jpg","[""ArrowRight""]","practice block","space","0","{""ArrowUp,ArrowLeft"":3,""ArrowUp,ArrowRight"":36,""ArrowDown,ArrowLeft"":15,""ArrowDown,ArrowRight"":23}","true","ArrowDown,ArrowRight","","","","","","","","",""
"html-keyboard-response","100","577356","0.0-3.0-13.0-11.0-1.1","spark_pilot_2","9134","2","23","Male","","","","","","","null","<div style=""font-size:60px;"">+</div>","null","fixation","","","","","","","","","","","","","",""
"learning-instructions","101","584235","0.0-3.0-14.0-0.0","spark_pilot_2","9134","2","23","Male","","","","","","","2270.60000000149","<p> Before you start, we're going to ask you a few questions about how the game works. </p>","","instructions","","","","","","","","","","","","","",""
"comp-q","102","594570","0.0-3.0-15.0-0.0-0.0","spark_pilot_2","9134","2","23","Male","","","","","","","4699.099999997765","<p> <b> True or False? </b> </p>
            <p> There can be 50 pieces of treasure in a given animal's chest. </p>","0","comp_question","","","","false","","","","","","","","","",""
"comp-q","103","604770","0.0-3.0-15.0-0.0-1.0","spark_pilot_2","9134","2","23","Male","","","","","","","3625.39999999851","<p> <b>Incorrect.</b> The amount of treasure in each chest can range from 0 to 40 pieces. </p>","0","comp_answer","","","","","","","","","","","","","",""
"comp-q","104","613090","0.0-3.0-15.0-0.1-0.1","spark_pilot_2","9134","2","23","Male","","","","","","","2755.5","<p> <b> True or False? </b> </p>
            <p> There can be 50 pieces of treasure in a given animal's chest. </p>","1","comp_question","","","","true","","","","","","","","","",""
"comp-q","105","623929","0.0-3.0-15.0-0.1-1.1","spark_pilot_2","9134","2","23","Male","","","","","","","4177.699999999255","<p> <b> That's right! </b> The amount of treasure in each chest can range from 0 to 40 pieces. </p>","0","comp_answer","","","","","","","","","","","","","",""
"comp-q","106","633302","0.0-3.0-15.0-0.2-0.2","spark_pilot_2","9134","2","23","Male","","","","","","","2199.60000000149","<p> <b> True or False? </b> </p><p> In this game, all animals have the same amount of treasure in their left and right chests. </p>","0","comp_question","","","","false","","","","","","","","","",""
"comp-q","107","640916","0.0-3.0-15.0-0.2-1.2","spark_pilot_2","9134","2","23","Male","","","","","","","2233.699999999255","<p> <b>Incorrect.</b> Animals have different amounts of treasure in their treasure chests. </p>","0","comp_answer","","","","","","","","","","","","","",""
"comp-q","108","649840","0.0-3.0-15.0-0.3-0.3","spark_pilot_2","9134","2","23","Male","","","","","","","1836.1000000014901","<p> <b> True or False? </b> </p><p> In this game, all animals have the same amount of treasure in their left and right chests. </p>","1","comp_question","","","","true","","","","","","","","","",""
"comp-q","109","657258","0.0-3.0-15.0-0.3-1.3","spark_pilot_2","9134","2","23","Male","","","","","","","2145.2999999970198","<p> <b> That's right! </b> Animals have different amounts of treasure in their treasure chests. </p>","0","comp_answer","","","","","","","","","","","","","",""
"comp-q","110","665338","0.0-3.0-15.0-0.4-0.4","spark_pilot_2","9134","2","23","Male","","","","","","","2185.099999997765","<p> <b> True or False? </b> </p><p> The same animal will always be there if you go up in the same place. </p>","1","comp_question","","","","false","","","","","","","","","",""
"comp-q","111","674989","0.0-3.0-15.0-0.4-1.4","spark_pilot_2","9134","2","23","Male","","","","","","","3307","<p> <b>Incorrect.</b> One animal lives in the upper part and one lives in the lower part of every place. </p>","0","comp_answer","","","","","","","","","","","","","",""
"comp-q","112","682070","0.0-3.0-15.0-0.5-0.5","spark_pilot_2","9134","2","23","Male","","","","","","","1247.199999999255","<p> <b> True or False? </b> </p><p> The same animal will always be there if you go up in the same place. </p>","0","comp_question","","","","true","","","","","","","","","",""
"comp-q","113","693262","0.0-3.0-15.0-0.5-1.5","spark_pilot_2","9134","2","23","Male","","","","","","","4700.39999999851","<p> <b> That's right! </b> One animal lives in the upper part and one lives in the lower part of every place. </p>","0","comp_answer","","","","","","","","","","","","","",""
"comp-q","114","699831","0.0-3.0-15.0-0.6-0.6","spark_pilot_2","9134","2","23","Male","","","","","","","999.5","<p> <b> True or False? </b> </p><p> If you see a different picture, it means you are in a new place. </p>","0","comp_question","","","","false","","","","","","","","","",""
"comp-q","115","714496","0.0-3.0-15.0-0.6-1.6","spark_pilot_2","9134","2","23","Male","","","","","","","3506","<p> <b>Incorrect.</b> Lots of different images may show the same place. For example,  you may see three different images that all remind you that you are in outer space. </p>","0","comp_answer","","","","","","","","","","","","","",""
"comp-q","116","722655","0.0-3.0-15.0-0.7-0.7","spark_pilot_2","9134","2","23","Male","","","","","","","2663.199999999255","<p> <b> True or False? </b> </p><p> If you see a different picture, it means you are in a new place. </p>","1","comp_question","","","","true","","","","","","","","","",""
"comp-q","117","735471","0.0-3.0-15.0-0.7-1.7","spark_pilot_2","9134","2","23","Male","","","","","","","1508.5","<p> <b> That's right! </b> Lots of different images may show the same place. For example,  you may see three different images that all remind you that you are in outer space. </p>","0","comp_answer","","","","","","","","","","","","","",""
"learning-instructions","118","752544","0.0-3.0-16.0-0.0","spark_pilot_2","9134","2","23","Male","","","","","","","7149.900000002235","<p> Good job. Remember to do your best because the amount of treasure you earn will be converted into bonus money. </p>
            <p> It’s time to start the real game! </p>","","instructions","","","","","","","","","","","","","",""
"learning-instructions","119","761439","0.0-4.0-0.0-0.0","spark_pilot_2","9134","2","23","Male","","","","","","","6164.900000002235","<p> This time you are searching for treasure in the <b>ocean</b>.</p>","","instructions","","","","","","","","","","","","","",""
"learning-instructions","120","813735","0.0-4.0-0.0-0.1","spark_pilot_2","9134","2","23","Male","","","","","","","34899.70000000298","<p><b>New</b> animals with <b>new</b> treasure chests live here. You need to explore to discover where the animal with the best treasure chest is.</p>
                    <p> Like before, once you figure out which animal has the chest with the most treasure, you should try to get to that animal and select that chest! </p>","","instructions","","","","","","","","","","","","","",""
"learning-instructions","121","833100","0.0-4.0-1.0-0.0","spark_pilot_2","9134","2","23","Male","","","","","","","4646.599999997765","<p> Remember, when you see a picture of the place, use the up and down keys to <b>find an animal</b>.</p>
            <p> When you encounter an animal, you should use the left and right keys to <b>select a treasure chest</b>.</p>
            <p> Don't forget to look out for the robber! </p>","","instructions","","","","","","","","","","","","","",""
"revaluation","122","839146","0.0-4.0-2.0-0.0","spark_pilot_2","9134","2","23","Male","","false","","","","","[1215.4000000022352,827.1999999992549]","./assets/img/ocean/memory/24.jpg","[""ArrowUp"",""ArrowLeft""]","value training","ocean","23","{""ArrowUp,ArrowLeft"":23,""ArrowUp,ArrowRight"":10,""ArrowDown,ArrowLeft"":8,""ArrowDown,ArrowRight"":30}","false","ArrowUp,ArrowLeft","false","","","revaluation","1","0","","",""
"html-keyboard-response","123","839665","0.0-4.0-2.0-1.0","spark_pilot_2","9134","2","23","Male","","","","","","","null","<div style=""font-size:60px;"">+</div>","null","fixation","","","","","","","","","","","1","","",""
"revaluation","124","845688","0.0-4.0-2.0-0.1","spark_pilot_2","9134","2","23","Male","","false","","","","","[261,458.69999999925494]","./assets/img/ocean/memory/0.jpg","[""ArrowDown"",""ArrowRight""]","value training","ocean","30","{""ArrowUp,ArrowLeft"":23,""ArrowUp,ArrowRight"":10,""ArrowDown,ArrowLeft"":8,""ArrowDown,ArrowRight"":30}","true","ArrowDown,ArrowRight","false","","","revaluation","1","2","","",""
"html-keyboard-response","125","846202","0.0-4.0-2.0-1.1","spark_pilot_2","9134","2","23","Male","","","","","","","null","<div style=""font-size:60px;"">+</div>","null","fixation","","","","","","","","","","","3","","",""
"revaluation","126","852237","0.0-4.0-2.0-0.2","spark_pilot_2","9134","2","23","Male","","false","","","","","[433.5,511]","./assets/img/ocean/memory/30.jpg","[""ArrowUp"",""ArrowRight""]","value training","ocean","10","{""ArrowUp,ArrowLeft"":23,""ArrowUp,ArrowRight"":10,""ArrowDown,ArrowLeft"":8,""ArrowDown,ArrowRight"":30}","false","ArrowUp,ArrowRight","false","","","revaluation","1","4","","",""
"html-keyboard-response","127","852739","0.0-4.0-2.0-1.2","spark_pilot_2","9134","2","23","Male","","","","","","","null","<div style=""font-size:60px;"">+</div>","null","fixation","","","","","","","","","","","5","","",""
"revaluation","128","858760","0.0-4.0-2.0-0.3","spark_pilot_2","9134","2","23","Male","","false","","","","","[458.3999999985099,961.6999999992549]","./assets/img/ocean/memory/33.jpg","[""ArrowUp"",""ArrowRight""]","value training","ocean","10","{""ArrowUp,ArrowLeft"":23,""ArrowUp,ArrowRight"":10,""ArrowDown,ArrowLeft"":8,""ArrowDown,ArrowRight"":30}","false","ArrowUp,ArrowRight","false","","","revaluation","1","6","","",""
"html-keyboard-response","129","859265","0.0-4.0-2.0-1.3","spark_pilot_2","9134","2","23","Male","","","","","","","null","<div style=""font-size:60px;"">+</div>","null","fixation","","","","","","","","","","","7","","",""
"revaluation","130","865299","0.0-4.0-2.0-0.4","spark_pilot_2","9134","2","23","Male","","false","","","","","[857.3000000007451,1244.300000000745]","./assets/img/ocean/memory/35.jpg","[""ArrowUp"",""ArrowRight""]","value training","ocean","10","{""ArrowUp,ArrowLeft"":23,""ArrowUp,ArrowRight"":10,""ArrowDown,ArrowLeft"":8,""ArrowDown,ArrowRight"":30}","false","ArrowUp,ArrowRight","false","","","revaluation","1","8","","",""
"html-keyboard-response","131","865814","0.0-4.0-2.0-1.4","spark_pilot_2","9134","2","23","Male","","","","","","","null","<div style=""font-size:60px;"">+</div>","null","fixation","","","","","","","","","","","9","","",""
"revaluation","132","871838","0.0-4.0-2.0-0.5","spark_pilot_2","9134","2","23","Male","","false","","","","","[974.3999999985099,1833.5]","./assets/img/ocean/memory/39.jpg","[""ArrowDown"",""ArrowRight""]","value training","ocean","30","{""ArrowUp,ArrowLeft"":23,""ArrowUp,ArrowRight"":10,""ArrowDown,ArrowLeft"":8,""ArrowDown,ArrowRight"":30}","true","ArrowDown,ArrowRight","false","","","revaluation","1","10","","",""
"html-keyboard-response","133","872343","0.0-4.0-2.0-1.5","spark_pilot_2","9134","2","23","Male","","","","","","","null","<div style=""font-size:60px;"">+</div>","null","fixation","","","","","","","","","","","11","","",""
"revaluation","134","876369","0.0-4.0-2.0-0.6","spark_pilot_2","9134","2","23","Male","","true","","","","","[]","./assets/img/ocean/memory/38.jpg","[]","value training","ocean","-5","{""ArrowUp,ArrowLeft"":23,""ArrowUp,ArrowRight"":10,""ArrowDown,ArrowLeft"":8,""ArrowDown,ArrowRight"":30}","false","","false","","","revaluation","1","12","","",""
"html-keyboard-response","135","876876","0.0-4.0-2.0-1.6","spark_pilot_2","9134","2","23","Male","","","","","","","null","<div style=""font-size:60px;"">+</div>","null","fixation","","","","","","","","","","","13","","",""
"revaluation","136","882896","0.0-4.0-2.0-0.7","spark_pilot_2","9134","2","23","Male","","true","","","","","[194]","./assets/img/ocean/memory/8.jpg","[""ArrowDown""]","value training","ocean","-5","{""ArrowUp,ArrowLeft"":23,""ArrowUp,ArrowRight"":10,""ArrowDown,ArrowLeft"":8,""ArrowDown,ArrowRight"":30}","false","ArrowDown","false","","","revaluation","1","14","","",""
"html-keyboard-response","137","883402","0.0-4.0-2.0-1.7","spark_pilot_2","9134","2","23","Male","","","","","","","null","<div style=""font-size:60px;"">+</div>","null","fixation","","","","","","","","","","","15","","",""
"revaluation","138","889431","0.0-4.0-2.0-0.8","spark_pilot_2","9134","2","23","Male","","false","","","","","[353.5,818.3000000007451]","./assets/img/ocean/memory/36.jpg","[""ArrowDown"",""ArrowRight""]","value training","ocean","30","{""ArrowUp,ArrowLeft"":23,""ArrowUp,ArrowRight"":10,""ArrowDown,ArrowLeft"":8,""ArrowDown,ArrowRight"":30}","true","ArrowDown,ArrowRight","false","","","revaluation","1","16","","",""
"html-keyboard-response","139","889940","0.0-4.0-2.0-1.8","spark_pilot_2","9134","2","23","Male","","","","","","","null","<div style=""font-size:60px;"">+</div>","null","fixation","","","","","","","","","","","17","","",""
"revaluation","140","895968","0.0-4.0-2.0-0.9","spark_pilot_2","9134","2","23","Male","","false","","","","","[579,1162.300000000745]","./assets/img/ocean/memory/5.jpg","[""ArrowUp"",""ArrowRight""]","value training","ocean","10","{""ArrowUp,ArrowLeft"":23,""ArrowUp,ArrowRight"":10,""ArrowDown,ArrowLeft"":8,""ArrowDown,ArrowRight"":30}","false","ArrowUp,ArrowRight","false","","","revaluation","1","18","","",""
"html-keyboard-response","141","896473","0.0-4.0-2.0-1.9","spark_pilot_2","9134","2","23","Male","","","","","","","null","<div style=""font-size:60px;"">+</div>","null","fixation","","","","","","","","","","","19","","",""
"revaluation","142","902487","0.0-4.0-2.0-0.10","spark_pilot_2","9134","2","23","Male","","false","","","","","[747.8000000007451,844.4000000022352]","./assets/img/ocean/memory/17.jpg","[""ArrowDown"",""ArrowRight""]","value training","ocean","30","{""ArrowUp,ArrowLeft"":23,""ArrowUp,ArrowRight"":10,""ArrowDown,ArrowLeft"":8,""ArrowDown,ArrowRight"":30}","true","ArrowDown,ArrowRight","false","","","revaluation","1","20","","",""
"html-keyboard-response","143","902992","0.0-4.0-2.0-1.10","spark_pilot_2","9134","2","23","Male","","","","","","","null","<div style=""font-size:60px;"">+</div>","null","fixation","","","","","","","","","","","21","","",""
"revaluation","144","909008","0.0-4.0-2.0-0.11","spark_pilot_2","9134","2","23","Male","","false","","","","","[1247.4000000022352,1350.199999999255]","./assets/img/ocean/memory/38.jpg","[""ArrowUp"",""ArrowLeft""]","value training","ocean","23","{""ArrowUp,ArrowLeft"":23,""ArrowUp,ArrowRight"":10,""ArrowDown,ArrowLeft"":8,""ArrowDown,ArrowRight"":30}","false","ArrowUp,ArrowLeft","false","","","revaluation","1","22","","",""
"html-keyboard-response","145","909516","0.0-4.0-2.0-1.11","spark_pilot_2","9134","2","23","Male","","","","","","","null","<div style=""font-size:60px;"">+</div>","null","fixation","","","","","","","","","","","23","","",""
"revaluation","146","915543","0.0-4.0-2.0-0.12","spark_pilot_2","9134","2","23","Male","","false","","","","","[977.8999999985099,1240.7999999970198]","./assets/img/ocean/memory/23.jpg","[""ArrowUp"",""ArrowRight""]","value training","ocean","10","{""ArrowUp,ArrowLeft"":23,""ArrowUp,ArrowRight"":10,""ArrowDown,ArrowLeft"":8,""ArrowDown,ArrowRight"":30}","false","ArrowUp,ArrowRight","false","","","revaluation","1","24","","",""
"html-keyboard-response","147","916051","0.0-4.0-2.0-1.12","spark_pilot_2","9134","2","23","Male","","","","","","","null","<div style=""font-size:60px;"">+</div>","null","fixation","","","","","","","","","","","25","","",""
"revaluation","148","920085","0.0-4.0-2.0-0.13","spark_pilot_2","9134","2","23","Male","","false","","","","","[1004.2000000029802]","./assets/img/ocean/catch/5.jpg","[""ArrowUp""]","value training","ocean","-10","{""ArrowUp,ArrowLeft"":23,""ArrowUp,ArrowRight"":10,""ArrowDown,ArrowLeft"":8,""ArrowDown,ArrowRight"":30}","false","ArrowUp","true","","","revaluation","1","26","","",""
"html-keyboard-response","149","920587","0.0-4.0-2.0-1.13","spark_pilot_2","9134","2","23","Male","","","","","","","null","<div style=""font-size:60px;"">+</div>","null","fixation","","","","","","","","","","","27","","",""
"revaluation","150","926611","0.0-4.0-2.0-0.14","spark_pilot_2","9134","2","23","Male","","false","","","","","[1488.2000000029802,1065.800000000745]","./assets/img/ocean/memory/8.jpg","[""ArrowUp"",""ArrowLeft""]","value training","ocean","23","{""ArrowUp,ArrowLeft"":23,""ArrowUp,ArrowRight"":10,""ArrowDown,ArrowLeft"":8,""ArrowDown,ArrowRight"":30}","false","ArrowUp,ArrowLeft","false","","","revaluation","1","28","","",""
"html-keyboard-response","151","927116","0.0-4.0-2.0-1.14","spark_pilot_2","9134","2","23","Male","","","","","","","null","<div style=""font-size:60px;"">+</div>","null","fixation","","","","","","","","","","","29","","",""
"revaluation","152","933141","0.0-4.0-2.0-0.15","spark_pilot_2","9134","2","23","Male","","false","","","","","[1338.699999999255,870.8999999985099]","./assets/img/ocean/memory/19.jpg","[""ArrowUp"",""ArrowLeft""]","value training","ocean","23","{""ArrowUp,ArrowLeft"":23,""ArrowUp,ArrowRight"":10,""ArrowDown,ArrowLeft"":8,""ArrowDown,ArrowRight"":30}","false","ArrowUp,ArrowLeft","false","","","revaluation","1","30","","",""
"html-keyboard-response","153","933650","0.0-4.0-2.0-1.15","spark_pilot_2","9134","2","23","Male","","","","","","","null","<div style=""font-size:60px;"">+</div>","null","fixation","","","","","","","","","","","31","","",""
"revaluation","154","939667","0.0-4.0-2.0-0.16","spark_pilot_2","9134","2","23","Male","","false","","","","","[1010.2000000029802,692.5999999977648]","./assets/img/ocean/memory/39.jpg","[""ArrowUp"",""ArrowRight""]","value training","ocean","10","{""ArrowUp,ArrowLeft"":23,""ArrowUp,ArrowRight"":10,""ArrowDown,ArrowLeft"":8,""ArrowDown,ArrowRight"":30}","false","ArrowUp,ArrowRight","false","","","revaluation","1","32","","",""
"html-keyboard-response","155","940175","0.0-4.0-2.0-1.16","spark_pilot_2","9134","2","23","Male","","","","","","","null","<div style=""font-size:60px;"">+</div>","null","fixation","","","","","","","","","","","33","","",""
"revaluation","156","946198","0.0-4.0-2.0-0.17","spark_pilot_2","9134","2","23","Male","","false","","","","","[718.1999999992549,714.1000000014901]","./assets/img/ocean/memory/26.jpg","[""ArrowUp"",""ArrowLeft""]","value training","ocean","23","{""ArrowUp,ArrowLeft"":23,""ArrowUp,ArrowRight"":10,""ArrowDown,ArrowLeft"":8,""ArrowDown,ArrowRight"":30}","false","ArrowUp,ArrowLeft","false","","","revaluation","1","34","","",""
"html-keyboard-response","157","946708","0.0-4.0-2.0-1.17","spark_pilot_2","9134","2","23","Male","","","","","","","null","<div style=""font-size:60px;"">+</div>","null","fixation","","","","","","","","","","","35","","",""
"revaluation","158","952732","0.0-4.0-2.0-0.18","spark_pilot_2","9134","2","23","Male","","false","","","","","[1187.699999999255,612.3000000007451]","./assets/img/ocean/memory/36.jpg","[""ArrowDown"",""ArrowRight""]","value training","ocean","30","{""ArrowUp,ArrowLeft"":23,""ArrowUp,ArrowRight"":10,""ArrowDown,ArrowLeft"":8,""ArrowDown,ArrowRight"":30}","true","ArrowDown,ArrowRight","false","","","revaluation","1","36","","",""
"html-keyboard-response","159","953242","0.0-4.0-2.0-1.18","spark_pilot_2","9134","2","23","Male","","","","","","","null","<div style=""font-size:60px;"">+</div>","null","fixation","","","","","","","","","","","37","","",""
"revaluation","160","959260","0.0-4.0-2.0-0.19","spark_pilot_2","9134","2","23","Male","","false","","","","","[601.9000000022352,768.1999999992549]","./assets/img/ocean/memory/30.jpg","[""ArrowUp"",""ArrowLeft""]","value training","ocean","23","{""ArrowUp,ArrowLeft"":23,""ArrowUp,ArrowRight"":10,""ArrowDown,ArrowLeft"":8,""ArrowDown,ArrowRight"":30}","false","ArrowUp,ArrowLeft","false","","","revaluation","1","38","","",""
"html-keyboard-response","161","959769","0.0-4.0-2.0-1.19","spark_pilot_2","9134","2","23","Male","","","","","","","null","<div style=""font-size:60px;"">+</div>","null","fixation","","","","","","","","","","","39","","",""
"revaluation","162","963784","0.0-4.0-2.0-0.20","spark_pilot_2","9134","2","23","Male","","true","","","","","[]","./assets/img/ocean/catch/3.jpg","[]","value training","ocean","-5","{""ArrowUp,ArrowLeft"":23,""ArrowUp,ArrowRight"":10,""ArrowDown,ArrowLeft"":8,""ArrowDown,ArrowRight"":30}","false","","true","","","revaluation","1","40","","",""
"html-keyboard-response","163","964298","0.0-4.0-2.0-1.20","spark_pilot_2","9134","2","23","Male","","","","","","","null","<div style=""font-size:60px;"">+</div>","null","fixation","","","","","","","","","","","41","","",""
"revaluation","164","970323","0.0-4.0-2.0-0.21","spark_pilot_2","9134","2","23","Male","","false","","","","","[854.3000000007451,335.79999999701977]","./assets/img/ocean/memory/1.jpg","[""ArrowUp"",""ArrowRight""]","value training","ocean","10","{""ArrowUp,ArrowLeft"":23,""ArrowUp,ArrowRight"":10,""ArrowDown,ArrowLeft"":8,""ArrowDown,ArrowRight"":30}","false","ArrowUp,ArrowRight","false","","","revaluation","1","42","","",""
"html-keyboard-response","165","970830","0.0-4.0-2.0-1.21","spark_pilot_2","9134","2","23","Male","","","","","","","null","<div style=""font-size:60px;"">+</div>","null","fixation","","","","","","","","","","","43","","",""
"revaluation","166","976858","0.0-4.0-2.0-0.22","spark_pilot_2","9134","2","23","Male","","false","","","","","[603.5,716.8000000007451]","./assets/img/ocean/memory/19.jpg","[""ArrowUp"",""ArrowLeft""]","value training","ocean","23","{""ArrowUp,ArrowLeft"":23,""ArrowUp,ArrowRight"":10,""ArrowDown,ArrowLeft"":8,""ArrowDown,ArrowRight"":30}","false","ArrowUp,ArrowLeft","false","","","revaluation","1","44","","",""
"html-keyboard-response","167","977369","0.0-4.0-2.0-1.22","spark_pilot_2","9134","2","23","Male","","","","","","","null","<div style=""font-size:60px;"">+</div>","null","fixation","","","","","","","","","","","45","","",""
"revaluation","168","983404","0.0-4.0-2.0-0.23","spark_pilot_2","9134","2","23","Male","","false","","","","","[875.5,1125.1000000014901]","./assets/img/ocean/memory/17.jpg","[""ArrowDown"",""ArrowRight""]","value training","ocean","30","{""ArrowUp,ArrowLeft"":23,""ArrowUp,ArrowRight"":10,""ArrowDown,ArrowLeft"":8,""ArrowDown,ArrowRight"":30}","true","ArrowDown,ArrowRight","false","","","revaluation","1","46","","",""
"html-keyboard-response","169","983911","0.0-4.0-2.0-1.23","spark_pilot_2","9134","2","23","Male","","","","","","","null","<div style=""font-size:60px;"">+</div>","null","fixation","","","","","","","","","","","47","","",""
"revaluation","170","989934","0.0-4.0-2.0-0.24","spark_pilot_2","9134","2","23","Male","","false","","","","","[1271.699999999255,578.3999999985099]","./assets/img/ocean/memory/1.jpg","[""ArrowDown"",""ArrowRight""]","value training","ocean","30","{""ArrowUp,ArrowLeft"":23,""ArrowUp,ArrowRight"":10,""ArrowDown,ArrowLeft"":8,""ArrowDown,ArrowRight"":30}","true","ArrowDown,ArrowRight","false","","","revaluation","1","48","","",""
"html-keyboard-response","171","990442","0.0-4.0-2.0-1.24","spark_pilot_2","9134","2","23","Male","","","","","","","null","<div style=""font-size:60px;"">+</div>","null","fixation","","","","","","","","","","","49","","",""
"revaluation","172","996463","0.0-4.0-2.0-0.25","spark_pilot_2","9134","2","23","Male","","false","","","","","[879.5999999977648,881.1999999992549]","./assets/img/ocean/memory/11.jpg","[""ArrowUp"",""ArrowLeft""]","value training","ocean","23","{""ArrowUp,ArrowLeft"":23,""ArrowUp,ArrowRight"":10,""ArrowDown,ArrowLeft"":8,""ArrowDown,ArrowRight"":30}","false","ArrowUp,ArrowLeft","false","","","revaluation","1","50","","",""
"html-keyboard-response","173","996979","0.0-4.0-2.0-1.25","spark_pilot_2","9134","2","23","Male","","","","","","","null","<div style=""font-size:60px;"">+</div>","null","fixation","","","","","","","","","","","51","","",""
"revaluation","174","1003000","0.0-4.0-2.0-0.26","spark_pilot_2","9134","2","23","Male","","false","","","","","[677.1999999992549,472.69999999925494]","./assets/img/ocean/memory/28.jpg","[""ArrowUp"",""ArrowRight""]","value training","ocean","10","{""ArrowUp,ArrowLeft"":23,""ArrowUp,ArrowRight"":10,""ArrowDown,ArrowLeft"":8,""ArrowDown,ArrowRight"":30}","false","ArrowUp,ArrowRight","false","","","revaluation","1","52","","",""
"html-keyboard-response","175","1003501","0.0-4.0-2.0-1.26","spark_pilot_2","9134","2","23","Male","","","","","","","null","<div style=""font-size:60px;"">+</div>","null","fixation","","","","","","","","","","","53","","",""
"revaluation","176","1009525","0.0-4.0-2.0-0.27","spark_pilot_2","9134","2","23","Male","","false","","","","","[969.1999999992549,678.1999999992549]","./assets/img/ocean/memory/33.jpg","[""ArrowDown"",""ArrowRight""]","value training","ocean","30","{""ArrowUp,ArrowLeft"":23,""ArrowUp,ArrowRight"":10,""ArrowDown,ArrowLeft"":8,""ArrowDown,ArrowRight"":30}","true","ArrowDown,ArrowRight","false","","","revaluation","1","54","","",""
"html-keyboard-response","177","1010028","0.0-4.0-2.0-1.27","spark_pilot_2","9134","2","23","Male","","","","","","","null","<div style=""font-size:60px;"">+</div>","null","fixation","","","","","","","","","","","55","","",""
"revaluation","178","1016039","0.0-4.0-2.0-0.28","spark_pilot_2","9134","2","23","Male","","false","","","","","[806.5999999977648,1110.300000000745]","./assets/img/ocean/memory/18.jpg","[""ArrowUp"",""ArrowLeft""]","value training","ocean","23","{""ArrowUp,ArrowLeft"":23,""ArrowUp,ArrowRight"":10,""ArrowDown,ArrowLeft"":8,""ArrowDown,ArrowRight"":30}","false","ArrowUp,ArrowLeft","false","","","revaluation","1","56","","",""
"html-keyboard-response","179","1016548","0.0-4.0-2.0-1.28","spark_pilot_2","9134","2","23","Male","","","","","","","null","<div style=""font-size:60px;"">+</div>","null","fixation","","","","","","","","","","","57","","",""
"revaluation","180","1022574","0.0-4.0-2.0-0.29","spark_pilot_2","9134","2","23","Male","","false","","","","","[545.3000000007451,1607.300000000745]","./assets/img/ocean/memory/2.jpg","[""ArrowUp"",""ArrowLeft""]","value training","ocean","23","{""ArrowUp,ArrowLeft"":23,""ArrowUp,ArrowRight"":10,""ArrowDown,ArrowLeft"":8,""ArrowDown,ArrowRight"":30}","false","ArrowUp,ArrowLeft","false","","","revaluation","1","58","","",""
"html-keyboard-response","181","1023087","0.0-4.0-2.0-1.29","spark_pilot_2","9134","2","23","Male","","","","","","","null","<div style=""font-size:60px;"">+</div>","null","fixation","","","","","","","","","","","59","","",""
"revaluation","182","1029109","0.0-4.0-2.0-0.30","spark_pilot_2","9134","2","23","Male","","false","","","","","[1254.6000000014901,1042.1000000014901]","./assets/img/ocean/memory/29.jpg","[""ArrowUp"",""ArrowLeft""]","value training","ocean","23","{""ArrowUp,ArrowLeft"":23,""ArrowUp,ArrowRight"":10,""ArrowDown,ArrowLeft"":8,""ArrowDown,ArrowRight"":30}","false","ArrowUp,ArrowLeft","false","","","revaluation","1","60","","",""
"html-keyboard-response","183","1029618","0.0-4.0-2.0-1.30","spark_pilot_2","9134","2","23","Male","","","","","","","null","<div style=""font-size:60px;"">+</div>","null","fixation","","","","","","","","","","","61","","",""
"revaluation","184","1033633","0.0-4.0-2.0-0.31","spark_pilot_2","9134","2","23","Male","","false","","","","","[1907.1000000014901]","./assets/img/ocean/catch/1.jpg","[""ArrowDown""]","value training","ocean","-10","{""ArrowUp,ArrowLeft"":23,""ArrowUp,ArrowRight"":10,""ArrowDown,ArrowLeft"":8,""ArrowDown,ArrowRight"":30}","false","ArrowDown","true","","","revaluation","1","62","","",""
"html-keyboard-response","185","1034136","0.0-4.0-2.0-1.31","spark_pilot_2","9134","2","23","Male","","","","","","","null","<div style=""font-size:60px;"">+</div>","null","fixation","","","","","","","","","","","63","","",""
"revaluation","186","1038149","0.0-4.0-2.0-0.32","spark_pilot_2","9134","2","23","Male","","true","","","","","[]","./assets/img/ocean/catch/7.jpg","[]","value training","ocean","-5","{""ArrowUp,ArrowLeft"":23,""ArrowUp,ArrowRight"":10,""ArrowDown,ArrowLeft"":8,""ArrowDown,ArrowRight"":30}","false","","true","","","revaluation","1","64","","",""
"html-keyboard-response","187","1038664","0.0-4.0-2.0-1.32","spark_pilot_2","9134","2","23","Male","","","","","","","null","<div style=""font-size:60px;"">+</div>","null","fixation","","","","","","","","","","","65","","",""
"revaluation","188","1042682","0.0-4.0-2.0-0.33","spark_pilot_2","9134","2","23","Male","","false","","","","","[1056.5999999977648]","./assets/img/ocean/catch/2.jpg","[""spaceBar""]","value training","ocean","0","{""ArrowUp,ArrowLeft"":23,""ArrowUp,ArrowRight"":10,""ArrowDown,ArrowLeft"":8,""ArrowDown,ArrowRight"":30}","true","spaceBar","true","","","revaluation","1","66","","",""
"html-keyboard-response","189","1043191","0.0-4.0-2.0-1.33","spark_pilot_2","9134","2","23","Male","","","","","","","null","<div style=""font-size:60px;"">+</div>","null","fixation","","","","","","","","","","","67","","",""
"revaluation","190","1049222","0.0-4.0-2.0-0.34","spark_pilot_2","9134","2","23","Male","","false","","","","","[844.0999999977648,453.1000000014901]","./assets/img/ocean/memory/27.jpg","[""ArrowDown"",""ArrowRight""]","value training","ocean","30","{""ArrowUp,ArrowLeft"":23,""ArrowUp,ArrowRight"":10,""ArrowDown,ArrowLeft"":8,""ArrowDown,ArrowRight"":30}","true","ArrowDown,ArrowRight","false","","","revaluation","1","68","","",""
"html-keyboard-response","191","1049729","0.0-4.0-2.0-1.34","spark_pilot_2","9134","2","23","Male","","","","","","","null","<div style=""font-size:60px;"">+</div>","null","fixation","","","","","","","","","","","69","","",""
"revaluation","192","1053735","0.0-4.0-2.0-0.35","spark_pilot_2","9134","2","23","Male","","false","","","","","[1382.699999999255]","./assets/img/ocean/catch/0.jpg","[""spaceBar""]","value training","ocean","0","{""ArrowUp,ArrowLeft"":23,""ArrowUp,ArrowRight"":10,""ArrowDown,ArrowLeft"":8,""ArrowDown,ArrowRight"":30}","true","spaceBar","true","","","revaluation","1","70","","",""
"html-keyboard-response","193","1054245","0.0-4.0-2.0-1.35","spark_pilot_2","9134","2","23","Male","","","","","","","null","<div style=""font-size:60px;"">+</div>","null","fixation","","","","","","","","","","","71","","",""
"revaluation","194","1060274","0.0-4.0-2.0-0.36","spark_pilot_2","9134","2","23","Male","","false","","","","","[1250.300000000745,1212.2000000029802]","./assets/img/ocean/memory/2.jpg","[""ArrowDown"",""ArrowRight""]","value training","ocean","30","{""ArrowUp,ArrowLeft"":23,""ArrowUp,ArrowRight"":10,""ArrowDown,ArrowLeft"":8,""ArrowDown,ArrowRight"":30}","true","ArrowDown,ArrowRight","false","","","revaluation","1","72","","",""
"html-keyboard-response","195","1060783","0.0-4.0-2.0-1.36","spark_pilot_2","9134","2","23","Male","","","","","","","null","<div style=""font-size:60px;"">+</div>","null","fixation","","","","","","","","","","","73","","",""
"revaluation","196","1066806","0.0-4.0-2.0-0.37","spark_pilot_2","9134","2","23","Male","","false","","","","","[995.8999999985099,437.30000000074506]","./assets/img/ocean/memory/0.jpg","[""ArrowDown"",""ArrowRight""]","value training","ocean","30","{""ArrowUp,ArrowLeft"":23,""ArrowUp,ArrowRight"":10,""ArrowDown,ArrowLeft"":8,""ArrowDown,ArrowRight"":30}","true","ArrowDown,ArrowRight","false","","","revaluation","1","74","","",""
"html-keyboard-response","197","1067322","0.0-4.0-2.0-1.37","spark_pilot_2","9134","2","23","Male","","","","","","","null","<div style=""font-size:60px;"">+</div>","null","fixation","","","","","","","","","","","75","","",""
"revaluation","198","1071342","0.0-4.0-2.0-0.38","spark_pilot_2","9134","2","23","Male","","false","","","","","[1175.5]","./assets/img/ocean/catch/4.jpg","[""spaceBar""]","value training","ocean","0","{""ArrowUp,ArrowLeft"":23,""ArrowUp,ArrowRight"":10,""ArrowDown,ArrowLeft"":8,""ArrowDown,ArrowRight"":30}","true","spaceBar","true","","","revaluation","1","76","","",""
"html-keyboard-response","199","1071845","0.0-4.0-2.0-1.38","spark_pilot_2","9134","2","23","Male","","","","","","","null","<div style=""font-size:60px;"">+</div>","null","fixation","","","","","","","","","","","77","","",""
"revaluation","200","1077877","0.0-4.0-2.0-0.39","spark_pilot_2","9134","2","23","Male","","false","","","","","[726.1999999992549,867]","./assets/img/ocean/memory/29.jpg","[""ArrowUp"",""ArrowRight""]","value training","ocean","10","{""ArrowUp,ArrowLeft"":23,""ArrowUp,ArrowRight"":10,""ArrowDown,ArrowLeft"":8,""ArrowDown,ArrowRight"":30}","false","ArrowUp,ArrowRight","false","","","revaluation","1","78","","",""
"html-keyboard-response","201","1078385","0.0-4.0-2.0-1.39","spark_pilot_2","9134","2","23","Male","","","","","","","null","<div style=""font-size:60px;"">+</div>","null","fixation","","","","","","","","","","","79","","",""
"revaluation","202","1084414","0.0-4.0-2.0-0.40","spark_pilot_2","9134","2","23","Male","","false","","","","","[1286.5999999977648,1098.300000000745]","./assets/img/ocean/memory/11.jpg","[""ArrowUp"",""ArrowLeft""]","value training","ocean","23","{""ArrowUp,ArrowLeft"":23,""ArrowUp,ArrowRight"":10,""ArrowDown,ArrowLeft"":8,""ArrowDown,ArrowRight"":30}","false","ArrowUp,ArrowLeft","false","","","revaluation","1","80","","",""
"html-keyboard-response","203","1084921","0.0-4.0-2.0-1.40","spark_pilot_2","9134","2","23","Male","","","","","","","null","<div style=""font-size:60px;"">+</div>","null","fixation","","","","","","","","","","","81","","",""
"revaluation","204","1090949","0.0-4.0-2.0-0.41","spark_pilot_2","9134","2","23","Male","","false","","","","","[612.4000000022352,1158.800000000745]","./assets/img/ocean/memory/26.jpg","[""ArrowUp"",""ArrowLeft""]","value training","ocean","23","{""ArrowUp,ArrowLeft"":23,""ArrowUp,ArrowRight"":10,""ArrowDown,ArrowLeft"":8,""ArrowDown,ArrowRight"":30}","false","ArrowUp,ArrowLeft","false","","","revaluation","1","82","","",""
"html-keyboard-response","205","1091465","0.0-4.0-2.0-1.41","spark_pilot_2","9134","2","23","Male","","","","","","","null","<div style=""font-size:60px;"">+</div>","null","fixation","","","","","","","","","","","83","","",""
"revaluation","206","1097495","0.0-4.0-2.0-0.42","spark_pilot_2","9134","2","23","Male","","false","","","","","[936.5,446.3999999985099]","./assets/img/ocean/memory/24.jpg","[""ArrowUp"",""ArrowRight""]","value training","ocean","10","{""ArrowUp,ArrowLeft"":23,""ArrowUp,ArrowRight"":10,""ArrowDown,ArrowLeft"":8,""ArrowDown,ArrowRight"":30}","false","ArrowUp,ArrowRight","false","","","revaluation","1","84","","",""
"html-keyboard-response","207","1098011","0.0-4.0-2.0-1.42","spark_pilot_2","9134","2","23","Male","","","","","","","null","<div style=""font-size:60px;"">+</div>","null","fixation","","","","","","","","","","","85","","",""
"revaluation","208","1104035","0.0-4.0-2.0-0.43","spark_pilot_2","9134","2","23","Male","","false","","","","","[599,460.30000000074506]","./assets/img/ocean/memory/35.jpg","[""ArrowUp"",""ArrowLeft""]","value training","ocean","23","{""ArrowUp,ArrowLeft"":23,""ArrowUp,ArrowRight"":10,""ArrowDown,ArrowLeft"":8,""ArrowDown,ArrowRight"":30}","false","ArrowUp,ArrowLeft","false","","","revaluation","1","86","","",""
"html-keyboard-response","209","1104542","0.0-4.0-2.0-1.43","spark_pilot_2","9134","2","23","Male","","","","","","","null","<div style=""font-size:60px;"">+</div>","null","fixation","","","","","","","","","","","87","","",""
"revaluation","210","1110568","0.0-4.0-2.0-0.44","spark_pilot_2","9134","2","23","Male","","false","","","","","[519.1999999992549,770.1999999992549]","./assets/img/ocean/memory/5.jpg","[""ArrowUp"",""ArrowLeft""]","value training","ocean","23","{""ArrowUp,ArrowLeft"":23,""ArrowUp,ArrowRight"":10,""ArrowDown,ArrowLeft"":8,""ArrowDown,ArrowRight"":30}","false","ArrowUp,ArrowLeft","false","","","revaluation","1","88","","",""
"html-keyboard-response","211","1111075","0.0-4.0-2.0-1.44","spark_pilot_2","9134","2","23","Male","","","","","","","null","<div style=""font-size:60px;"">+</div>","null","fixation","","","","","","","","","","","89","","",""
"revaluation","212","1117096","0.0-4.0-2.0-0.45","spark_pilot_2","9134","2","23","Male","","false","","","","","[1214.6000000014901,769.8999999985099]","./assets/img/ocean/memory/28.jpg","[""ArrowUp"",""ArrowLeft""]","value training","ocean","23","{""ArrowUp,ArrowLeft"":23,""ArrowUp,ArrowRight"":10,""ArrowDown,ArrowLeft"":8,""ArrowDown,ArrowRight"":30}","false","ArrowUp,ArrowLeft","false","","","revaluation","1","90","","",""
"html-keyboard-response","213","1117605","0.0-4.0-2.0-1.45","spark_pilot_2","9134","2","23","Male","","","","","","","null","<div style=""font-size:60px;"">+</div>","null","fixation","","","","","","","","","","","91","","",""
"revaluation","214","1123631","0.0-4.0-2.0-0.46","spark_pilot_2","9134","2","23","Male","","false","","","","","[931.3000000007451,768.1999999992549]","./assets/img/ocean/memory/23.jpg","[""ArrowDown"",""ArrowRight""]","value training","ocean","30","{""ArrowUp,ArrowLeft"":23,""ArrowUp,ArrowRight"":10,""ArrowDown,ArrowLeft"":8,""ArrowDown,ArrowRight"":30}","true","ArrowDown,ArrowRight","false","","","revaluation","1","92","","",""
"html-keyboard-response","215","1124136","0.0-4.0-2.0-1.46","spark_pilot_2","9134","2","23","Male","","","","","","","null","<div style=""font-size:60px;"">+</div>","null","fixation","","","","","","","","","","","93","","",""
"revaluation","216","1128152","0.0-4.0-2.0-0.47","spark_pilot_2","9134","2","23","Male","","false","","","","","[1220.8999999985099]","./assets/img/ocean/catch/6.jpg","[""spaceBar""]","value training","ocean","0","{""ArrowUp,ArrowLeft"":23,""ArrowUp,ArrowRight"":10,""ArrowDown,ArrowLeft"":8,""ArrowDown,ArrowRight"":30}","true","spaceBar","true","","","revaluation","1","94","","",""
"html-keyboard-response","217","1128659","0.0-4.0-2.0-1.47","spark_pilot_2","9134","2","23","Male","","","","","","","null","<div style=""font-size:60px;"">+</div>","null","fixation","","","","","","","","","","","95","","",""
"revaluation","218","1134685","0.0-4.0-2.0-0.48","spark_pilot_2","9134","2","23","Male","","false","","","","","[1133.1000000014901,1106.9000000022352]","./assets/img/ocean/memory/27.jpg","[""ArrowDown"",""ArrowRight""]","value training","ocean","30","{""ArrowUp,ArrowLeft"":23,""ArrowUp,ArrowRight"":10,""ArrowDown,ArrowLeft"":8,""ArrowDown,ArrowRight"":30}","true","ArrowDown,ArrowRight","false","","","revaluation","1","96","","",""
"html-keyboard-response","219","1135191","0.0-4.0-2.0-1.48","spark_pilot_2","9134","2","23","Male","","","","","","","null","<div style=""font-size:60px;"">+</div>","null","fixation","","","","","","","","","","","97","","",""
"revaluation","220","1141209","0.0-4.0-2.0-0.49","spark_pilot_2","9134","2","23","Male","","false","","","","","[1042,733.8999999985099]","./assets/img/ocean/memory/18.jpg","[""ArrowUp"",""ArrowLeft""]","value training","ocean","23","{""ArrowUp,ArrowLeft"":23,""ArrowUp,ArrowRight"":10,""ArrowDown,ArrowLeft"":8,""ArrowDown,ArrowRight"":30}","false","ArrowUp,ArrowLeft","false","","","revaluation","1","98","","",""
"html-keyboard-response","221","1141713","0.0-4.0-2.0-1.49","spark_pilot_2","9134","2","23","Male","","","","","","","null","<div style=""font-size:60px;"">+</div>","null","fixation","","","","","","","","","","","99","","",""
"learning-instructions","222","1157134","0.0-4.0-3.0-0.0","spark_pilot_2","9134","2","23","Male","","","","","","","2061.39999999851","<p> Now, you will travel with a friend who will choose whether you go up or down first. </p>
            <p> On these turns, you will just see the animal that they found. You will still get to choose which chest to search for treasure.</p>","","instructions","","","","","","","","","","","","","",""
"revaluation","223","1161155","0.0-4.0-4.0-0.0","spark_pilot_2","9134","2","23","Male","","false","","","","","[1759.5]","./assets/img/ocean/animals/octopus.jpg","[""ArrowLeft""]","revaluation","ocean","27","{""ArrowUp,ArrowLeft"":27,""ArrowUp,ArrowRight"":15,""ArrowDown,ArrowLeft"":21,""ArrowDown,ArrowRight"":7}","true","ArrowUp,ArrowLeft","","","","revaluation","1","0","","",""
"html-keyboard-response","224","1161676","0.0-4.0-4.0-1.0","spark_pilot_2","9134","2","23","Male","","","","","","","null","<div style=""font-size:60px;"">+</div>","null","fixation","","","","","","","","","","","1","","",""
"revaluation","225","1165706","0.0-4.0-4.0-0.1","spark_pilot_2","9134","2","23","Male","","false","","","","","[569.5]","./assets/img/ocean/animals/seahorse.jpg","[""ArrowRight""]","revaluation","ocean","7","{""ArrowUp,ArrowLeft"":27,""ArrowUp,ArrowRight"":15,""ArrowDown,ArrowLeft"":21,""ArrowDown,ArrowRight"":7}","false","ArrowDown,ArrowRight","","","","revaluation","1","2","","",""
"html-keyboard-response","226","1166219","0.0-4.0-4.0-1.1","spark_pilot_2","9134","2","23","Male","","","","","","","null","<div style=""font-size:60px;"">+</div>","null","fixation","","","","","","","","","","","3","","",""
"revaluation","227","1170238","0.0-4.0-4.0-0.2","spark_pilot_2","9134","2","23","Male","","false","","","","","[922.9000000022352]","./assets/img/ocean/animals/octopus.jpg","[""ArrowLeft""]","revaluation","ocean","27","{""ArrowUp,ArrowLeft"":27,""ArrowUp,ArrowRight"":15,""ArrowDown,ArrowLeft"":21,""ArrowDown,ArrowRight"":7}","true","ArrowUp,ArrowLeft","","","","revaluation","1","4","","",""
"html-keyboard-response","228","1170743","0.0-4.0-4.0-1.2","spark_pilot_2","9134","2","23","Male","","","","","","","null","<div style=""font-size:60px;"">+</div>","null","fixation","","","","","","","","","","","5","","",""
"revaluation","229","1174763","0.0-4.0-4.0-0.3","spark_pilot_2","9134","2","23","Male","","true","","","","","[]","./assets/img/ocean/animals/octopus.jpg","[]","revaluation","ocean","-5","{""ArrowUp,ArrowLeft"":27,""ArrowUp,ArrowRight"":15,""ArrowDown,ArrowLeft"":21,""ArrowDown,ArrowRight"":7}","false","ArrowUp","","","","revaluation","1","6","","",""
"html-keyboard-response","230","1175267","0.0-4.0-4.0-1.3","spark_pilot_2","9134","2","23","Male","","","","","","","null","<div style=""font-size:60px;"">+</div>","null","fixation","","","","","","","","","","","7","","",""
"revaluation","231","1179288","0.0-4.0-4.0-0.4","spark_pilot_2","9134","2","23","Male","","false","","","","","[610.2999999970198]","./assets/img/ocean/animals/seahorse.jpg","[""ArrowRight""]","revaluation","ocean","7","{""ArrowUp,ArrowLeft"":27,""ArrowUp,ArrowRight"":15,""ArrowDown,ArrowLeft"":21,""ArrowDown,ArrowRight"":7}","false","ArrowDown,ArrowRight","","","","revaluation","1","8","","",""
"html-keyboard-response","232","1179792","0.0-4.0-4.0-1.4","spark_pilot_2","9134","2","23","Male","","","","","","","null","<div style=""font-size:60px;"">+</div>","null","fixation","","","","","","","","","","","9","","",""
"revaluation","233","1183821","0.0-4.0-4.0-0.5","spark_pilot_2","9134","2","23","Male","","false","","","","","[967.5]","./assets/img/ocean/animals/seahorse.jpg","[""ArrowLeft""]","revaluation","ocean","21","{""ArrowUp,ArrowLeft"":27,""ArrowUp,ArrowRight"":15,""ArrowDown,ArrowLeft"":21,""ArrowDown,ArrowRight"":7}","true","ArrowDown,ArrowLeft","","","","revaluation","1","10","","",""
"html-keyboard-response","234","1184327","0.0-4.0-4.0-1.5","spark_pilot_2","9134","2","23","Male","","","","","","","null","<div style=""font-size:60px;"">+</div>","null","fixation","","","","","","","","","","","11","","",""
"revaluation","235","1188341","0.0-4.0-4.0-0.6","spark_pilot_2","9134","2","23","Male","","false","","","","","[870.4000000022352]","./assets/img/ocean/animals/octopus.jpg","[""ArrowLeft""]","revaluation","ocean","27","{""ArrowUp,ArrowLeft"":27,""ArrowUp,ArrowRight"":15,""ArrowDown,ArrowLeft"":21,""ArrowDown,ArrowRight"":7}","true","ArrowUp,ArrowLeft","","","","revaluation","1","12","","",""
"html-keyboard-response","236","1188847","0.0-4.0-4.0-1.6","spark_pilot_2","9134","2","23","Male","","","","","","","null","<div style=""font-size:60px;"">+</div>","null","fixation","","","","","","","","","","","13","","",""
"revaluation","237","1192863","0.0-4.0-4.0-0.7","spark_pilot_2","9134","2","23","Male","","false","","","","","[676.8999999985099]","./assets/img/ocean/animals/octopus.jpg","[""ArrowLeft""]","revaluation","ocean","27","{""ArrowUp,ArrowLeft"":27,""ArrowUp,ArrowRight"":15,""ArrowDown,ArrowLeft"":21,""ArrowDown,ArrowRight"":7}","true","ArrowUp,ArrowLeft","","","","revaluation","1","14","","",""
"html-keyboard-response","238","1193371","0.0-4.0-4.0-1.7","spark_pilot_2","9134","2","23","Male","","","","","","","null","<div style=""font-size:60px;"">+</div>","null","fixation","","","","","","","","","","","15","","",""
"revaluation","239","1197384","0.0-4.0-4.0-0.8","spark_pilot_2","9134","2","23","Male","","false","","","","","[819.3000000007451]","./assets/img/ocean/animals/seahorse.jpg","[""ArrowLeft""]","revaluation","ocean","21","{""ArrowUp,ArrowLeft"":27,""ArrowUp,ArrowRight"":15,""ArrowDown,ArrowLeft"":21,""ArrowDown,ArrowRight"":7}","true","ArrowDown,ArrowLeft","","","","revaluation","1","16","","",""
"html-keyboard-response","240","1197886","0.0-4.0-4.0-1.8","spark_pilot_2","9134","2","23","Male","","","","","","","null","<div style=""font-size:60px;"">+</div>","null","fixation","","","","","","","","","","","17","","",""
"revaluation","241","1201903","0.0-4.0-4.0-0.9","spark_pilot_2","9134","2","23","Male","","false","","","","","[1365.5]","./assets/img/ocean/animals/seahorse.jpg","[""ArrowLeft""]","revaluation","ocean","21","{""ArrowUp,ArrowLeft"":27,""ArrowUp,ArrowRight"":15,""ArrowDown,ArrowLeft"":21,""ArrowDown,ArrowRight"":7}","true","ArrowDown,ArrowLeft","","","","revaluation","1","18","","",""
"html-keyboard-response","242","1202409","0.0-4.0-4.0-1.9","spark_pilot_2","9134","2","23","Male","","","","","","","null","<div style=""font-size:60px;"">+</div>","null","fixation","","","","","","","","","","","19","","",""
"revaluation","243","1206424","0.0-4.0-4.0-0.10","spark_pilot_2","9134","2","23","Male","","false","","","","","[261.5]","./assets/img/ocean/animals/seahorse.jpg","[""ArrowLeft""]","revaluation","ocean","21","{""ArrowUp,ArrowLeft"":27,""ArrowUp,ArrowRight"":15,""ArrowDown,ArrowLeft"":21,""ArrowDown,ArrowRight"":7}","true","ArrowDown,ArrowLeft","","","","revaluation","1","20","","",""
"html-keyboard-response","244","1206933","0.0-4.0-4.0-1.10","spark_pilot_2","9134","2","23","Male","","","","","","","null","<div style=""font-size:60px;"">+</div>","null","fixation","","","","","","","","","","","21","","",""
"revaluation","245","1210954","0.0-4.0-4.0-0.11","spark_pilot_2","9134","2","23","Male","","false","","","","","[327.1000000014901]","./assets/img/ocean/animals/seahorse.jpg","[""ArrowLeft""]","revaluation","ocean","21","{""ArrowUp,ArrowLeft"":27,""ArrowUp,ArrowRight"":15,""ArrowDown,ArrowLeft"":21,""ArrowDown,ArrowRight"":7}","true","ArrowDown,ArrowLeft","","","","revaluation","1","22","","",""
"html-keyboard-response","246","1211456","0.0-4.0-4.0-1.11","spark_pilot_2","9134","2","23","Male","","","","","","","null","<div style=""font-size:60px;"">+</div>","null","fixation","","","","","","","","","","","23","","",""
"revaluation","247","1215471","0.0-4.0-4.0-0.12","spark_pilot_2","9134","2","23","Male","","false","","","","","[698.5]","./assets/img/ocean/animals/octopus.jpg","[""ArrowLeft""]","revaluation","ocean","27","{""ArrowUp,ArrowLeft"":27,""ArrowUp,ArrowRight"":15,""ArrowDown,ArrowLeft"":21,""ArrowDown,ArrowRight"":7}","true","ArrowUp,ArrowLeft","","","","revaluation","1","24","","",""
"html-keyboard-response","248","1215988","0.0-4.0-4.0-1.12","spark_pilot_2","9134","2","23","Male","","","","","","","null","<div style=""font-size:60px;"">+</div>","null","fixation","","","","","","","","","","","25","","",""
"revaluation","249","1220003","0.0-4.0-4.0-0.13","spark_pilot_2","9134","2","23","Male","","false","","","","","[694]","./assets/img/ocean/animals/seahorse.jpg","[""ArrowLeft""]","revaluation","ocean","21","{""ArrowUp,ArrowLeft"":27,""ArrowUp,ArrowRight"":15,""ArrowDown,ArrowLeft"":21,""ArrowDown,ArrowRight"":7}","true","ArrowDown,ArrowLeft","","","","revaluation","1","26","","",""
"html-keyboard-response","250","1220510","0.0-4.0-4.0-1.13","spark_pilot_2","9134","2","23","Male","","","","","","","null","<div style=""font-size:60px;"">+</div>","null","fixation","","","","","","","","","","","27","","",""
"revaluation","251","1224520","0.0-4.0-4.0-0.14","spark_pilot_2","9134","2","23","Male","","true","","","","","[]","./assets/img/ocean/animals/octopus.jpg","[]","revaluation","ocean","-5","{""ArrowUp,ArrowLeft"":27,""ArrowUp,ArrowRight"":15,""ArrowDown,ArrowLeft"":21,""ArrowDown,ArrowRight"":7}","false","ArrowUp","","","","revaluation","1","28","","",""
"html-keyboard-response","252","1225023","0.0-4.0-4.0-1.14","spark_pilot_2","9134","2","23","Male","","","","","","","null","<div style=""font-size:60px;"">+</div>","null","fixation","","","","","","","","","","","29","","",""
"revaluation","253","1229041","0.0-4.0-4.0-0.15","spark_pilot_2","9134","2","23","Male","","false","","","","","[82]","./assets/img/ocean/animals/seahorse.jpg","[""ArrowLeft""]","revaluation","ocean","21","{""ArrowUp,ArrowLeft"":27,""ArrowUp,ArrowRight"":15,""ArrowDown,ArrowLeft"":21,""ArrowDown,ArrowRight"":7}","true","ArrowDown,ArrowLeft","","","","revaluation","1","30","","",""
"html-keyboard-response","254","1229548","0.0-4.0-4.0-1.15","spark_pilot_2","9134","2","23","Male","","","","","","","null","<div style=""font-size:60px;"">+</div>","null","fixation","","","","","","","","","","","31","","",""
"revaluation","255","1233567","0.0-4.0-4.0-0.16","spark_pilot_2","9134","2","23","Male","","false","","","","","[349.19999999925494]","./assets/img/ocean/animals/octopus.jpg","[""ArrowLeft""]","revaluation","ocean","27","{""ArrowUp,ArrowLeft"":27,""ArrowUp,ArrowRight"":15,""ArrowDown,ArrowLeft"":21,""ArrowDown,ArrowRight"":7}","true","ArrowUp,ArrowLeft","","","","revaluation","1","32","","",""
"html-keyboard-response","256","1234071","0.0-4.0-4.0-1.16","spark_pilot_2","9134","2","23","Male","","","","","","","null","<div style=""font-size:60px;"">+</div>","null","fixation","","","","","","","","","","","33","","",""
"revaluation","257","1238082","0.0-4.0-4.0-0.17","spark_pilot_2","9134","2","23","Male","","false","","","","","[1493.0999999977648]","./assets/img/ocean/animals/octopus.jpg","[""ArrowLeft""]","revaluation","ocean","27","{""ArrowUp,ArrowLeft"":27,""ArrowUp,ArrowRight"":15,""ArrowDown,ArrowLeft"":21,""ArrowDown,ArrowRight"":7}","true","ArrowUp,ArrowLeft","","","","revaluation","1","34","","",""
"html-keyboard-response","258","1238588","0.0-4.0-4.0-1.17","spark_pilot_2","9134","2","23","Male","","","","","","","null","<div style=""font-size:60px;"">+</div>","null","fixation","","","","","","","","","","","35","","",""
"learning-instructions","259","1342456","0.0-4.0-5.0-0.0","spark_pilot_2","9134","2","23","Male","","","","","","","91994.80000000075","<p> Time to play the dot game! </p>
            <p> For one minute, click the red dots on the following screen as they appear. </p>
            <p><b> Don't look away, as you will earn bonus for clicking dots</b>. </p>","","instructions","","","","","","","","","","","","","",""
"revaluation","260","1402462","0.0-4.0-6.0-0.0","spark_pilot_2","9134","2","23","Male","","","","","","","[97,124,180,231,136,208]","","","rest","","60","","","","","0","60000","","","","","",""
"learning-instructions","261","1413353","0.0-4.0-7.0-0.0","spark_pilot_2","9134","2","23","Male","","","","","","","4300.199999999255","<p> You have almost finished this part of the game! </p>
            <p> We are going to ask you to make a few more choices. </p>","","instructions","","","","","","","","","","","","","",""
"learning-instructions","262","1429562","0.0-4.0-7.0-0.1","spark_pilot_2","9134","2","23","Male","","","","","","","2238.699999999255","<p> First, you need to decide whether to go up or down. When you see each picture, use the arrow keys to make your choice. </p>
            <p><b>You will not see which animal you found, but try to get to the one that will give you the most treasure.</b></p>","","instructions","","","","","","","","","","","","","",""
"revaluation","263","1430731","0.0-4.0-8.0-0.0","spark_pilot_2","9134","2","23","Male","","false","","","","","[1165.3999999985099]","./assets/img/ocean/test/3.jpg","[""ArrowDown""]","first stage test","ocean","0","{""ArrowUp,ArrowLeft"":27,""ArrowUp,ArrowRight"":15,""ArrowDown,ArrowLeft"":21,""ArrowDown,ArrowRight"":7}","false","ArrowDown","false","","","revaluation","1","","","",""
"html-keyboard-response","264","1431236","0.0-4.0-8.0-1.0","spark_pilot_2","9134","2","23","Male","","","","","","","null","<div style=""font-size:60px;"">+</div>","null","fixation","","","","","","","","","","","","","",""
"revaluation","265","1431820","0.0-4.0-8.0-0.1","spark_pilot_2","9134","2","23","Male","","false","","","","","[578.8000000007451]","./assets/img/ocean/test/0.jpg","[""ArrowUp""]","first stage test","ocean","0","{""ArrowUp,ArrowLeft"":27,""ArrowUp,ArrowRight"":15,""ArrowDown,ArrowLeft"":21,""ArrowDown,ArrowRight"":7}","true","ArrowUp","false","","","revaluation","1","","","",""
"html-keyboard-response","266","1432327","0.0-4.0-8.0-1.1","spark_pilot_2","9134","2","23","Male","","","","","","","null","<div style=""font-size:60px;"">+</div>","null","fixation","","","","","","","","","","","","","",""
"revaluation","267","1432646","0.0-4.0-8.0-0.2","spark_pilot_2","9134","2","23","Male","","false","","","","","[314.30000000074506]","./assets/img/ocean/test/1.jpg","[""ArrowUp""]","first stage test","ocean","0","{""ArrowUp,ArrowLeft"":27,""ArrowUp,ArrowRight"":15,""ArrowDown,ArrowLeft"":21,""ArrowDown,ArrowRight"":7}","true","ArrowUp","false","","","revaluation","1","","","",""
"html-keyboard-response","268","1433162","0.0-4.0-8.0-1.2","spark_pilot_2","9134","2","23","Male","","","","","","","null","<div style=""font-size:60px;"">+</div>","null","fixation","","","","","","","","","","","","","",""
"revaluation","269","1433381","0.0-4.0-8.0-0.3","spark_pilot_2","9134","2","23","Male","","false","","","","","[215.10000000149012]","./assets/img/ocean/test/2.jpg","[""ArrowUp""]","first stage test","ocean","0","{""ArrowUp,ArrowLeft"":27,""ArrowUp,ArrowRight"":15,""ArrowDown,ArrowLeft"":21,""ArrowDown,ArrowRight"":7}","true","ArrowUp","false","","","revaluation","1","","","",""
"html-keyboard-response","270","1433893","0.0-4.0-8.0-1.3","spark_pilot_2","9134","2","23","Male","","","","","","","null","<div style=""font-size:60px;"">+</div>","null","fixation","","","","","","","","","","","","","",""
"learning-instructions","271","1447167","0.0-4.0-9.0-0.0","spark_pilot_2","9134","2","23","Male","","","","","","","1924.7000000029802","<p> Now you will see the animals again and can search their chests for treasure. </p>
            <p> This time, you will not see how much treasure you earned, but you will earn more bonus money for making better choices. </p>","","instructions","","","","","","","","","","","","","",""
"revaluation","272","1448843","0.0-4.0-10.0-0.0","spark_pilot_2","9134","2","23","Male","","false","","","","","[1671.3999999985099]","./assets/img/ocean/animals/octopus.jpg","[""ArrowRight""]","second stage test","ocean","0","{""ArrowUp,ArrowLeft"":27,""ArrowUp,ArrowRight"":15,""ArrowDown,ArrowLeft"":21,""ArrowDown,ArrowRight"":7}","false","ArrowUp,ArrowRight","","","","revaluation","1","","","",""
"html-keyboard-response","273","1449357","0.0-4.0-10.0-1.0","spark_pilot_2","9134","2","23","Male","","","","","","","null","<div style=""font-size:60px;"">+</div>","null","fixation","","","","","","","","","","","","","",""
"revaluation","274","1449835","0.0-4.0-10.0-0.1","spark_pilot_2","9134","2","23","Male","","false","","","","","[473.0999999977648]","./assets/img/ocean/animals/octopus.jpg","[""ArrowLeft""]","second stage test","ocean","0","{""ArrowUp,ArrowLeft"":27,""ArrowUp,ArrowRight"":15,""ArrowDown,ArrowLeft"":21,""ArrowDown,ArrowRight"":7}","true","ArrowUp,ArrowLeft","","","","revaluation","1","","","",""
"html-keyboard-response","275","1450336","0.0-4.0-10.0-1.1","spark_pilot_2","9134","2","23","Male","","","","","","","null","<div style=""font-size:60px;"">+</div>","null","fixation","","","","","","","","","","","","","",""
"revaluation","276","1450705","0.0-4.0-10.0-0.2","spark_pilot_2","9134","2","23","Male","","false","","","","","[363.5]","./assets/img/ocean/animals/octopus.jpg","[""ArrowLeft""]","second stage test","ocean","0","{""ArrowUp,ArrowLeft"":27,""ArrowUp,ArrowRight"":15,""ArrowDown,ArrowLeft"":21,""ArrowDown,ArrowRight"":7}","true","ArrowUp,ArrowLeft","","","","revaluation","1","","","",""
"html-keyboard-response","277","1451216","0.0-4.0-10.0-1.2","spark_pilot_2","9134","2","23","Male","","","","","","","null","<div style=""font-size:60px;"">+</div>","null","fixation","","","","","","","","","","","","","",""
"revaluation","278","1451492","0.0-4.0-10.0-0.3","spark_pilot_2","9134","2","23","Male","","false","","","","","[270.80000000074506]","./assets/img/ocean/animals/octopus.jpg","[""ArrowLeft""]","second stage test","ocean","0","{""ArrowUp,ArrowLeft"":27,""ArrowUp,ArrowRight"":15,""ArrowDown,ArrowLeft"":21,""ArrowDown,ArrowRight"":7}","true","ArrowUp,ArrowLeft","","","","revaluation","1","","","",""
"html-keyboard-response","279","1452003","0.0-4.0-10.0-1.3","spark_pilot_2","9134","2","23","Male","","","","","","","null","<div style=""font-size:60px;"">+</div>","null","fixation","","","","","","","","","","","","","",""
"revaluation","280","1452282","0.0-4.0-10.0-0.4","spark_pilot_2","9134","2","23","Male","","false","","","","","[274.5]","./assets/img/ocean/animals/seahorse.jpg","[""ArrowLeft""]","second stage test","ocean","0","{""ArrowUp,ArrowLeft"":27,""ArrowUp,ArrowRight"":15,""ArrowDown,ArrowLeft"":21,""ArrowDown,ArrowRight"":7}","true","ArrowDown,ArrowLeft","","","","revaluation","1","","","",""
"html-keyboard-response","281","1452790","0.0-4.0-10.0-1.4","spark_pilot_2","9134","2","23","Male","","","","","","","null","<div style=""font-size:60px;"">+</div>","null","fixation","","","","","","","","","","","","","",""
"revaluation","282","1453226","0.0-4.0-10.0-0.5","spark_pilot_2","9134","2","23","Male","","false","","","","","[430.30000000074506]","./assets/img/ocean/animals/seahorse.jpg","[""ArrowLeft""]","second stage test","ocean","0","{""ArrowUp,ArrowLeft"":27,""ArrowUp,ArrowRight"":15,""ArrowDown,ArrowLeft"":21,""ArrowDown,ArrowRight"":7}","true","ArrowDown,ArrowLeft","","","","revaluation","1","","","",""
"html-keyboard-response","283","1453736","0.0-4.0-10.0-1.5","spark_pilot_2","9134","2","23","Male","","","","","","","null","<div style=""font-size:60px;"">+</div>","null","fixation","","","","","","","","","","","","","",""
"revaluation","284","1453968","0.0-4.0-10.0-0.6","spark_pilot_2","9134","2","23","Male","","false","","","","","[229.60000000149012]","./assets/img/ocean/animals/seahorse.jpg","[""ArrowRight""]","second stage test","ocean","0","{""ArrowUp,ArrowLeft"":27,""ArrowUp,ArrowRight"":15,""ArrowDown,ArrowLeft"":21,""ArrowDown,ArrowRight"":7}","false","ArrowDown,ArrowRight","","","","revaluation","1","","","",""
"html-keyboard-response","285","1454471","0.0-4.0-10.0-1.6","spark_pilot_2","9134","2","23","Male","","","","","","","null","<div style=""font-size:60px;"">+</div>","null","fixation","","","","","","","","","","","","","",""
"revaluation","286","1454755","0.0-4.0-10.0-0.7","spark_pilot_2","9134","2","23","Male","","false","","","","","[280.5]","./assets/img/ocean/animals/seahorse.jpg","[""ArrowRight""]","second stage test","ocean","0","{""ArrowUp,ArrowLeft"":27,""ArrowUp,ArrowRight"":15,""ArrowDown,ArrowLeft"":21,""ArrowDown,ArrowRight"":7}","false","ArrowDown,ArrowRight","","","","revaluation","1","","","",""
"html-keyboard-response","287","1455263","0.0-4.0-10.0-1.7","spark_pilot_2","9134","2","23","Male","","","","","","","null","<div style=""font-size:60px;"">+</div>","null","fixation","","","","","","","","","","","","","",""
"learning-instructions","288","1460771","0.0-4.0-0.1-0.2","spark_pilot_2","9134","2","23","Male","","","","","","","2718.60000000149","<p> This time you are searching for treasure in the <b>canyon</b>.</p>","","instructions","","","","","","","","","","","","","",""
"learning-instructions","289","1482470","0.0-4.0-0.1-0.3","spark_pilot_2","9134","2","23","Male","","","","","","","4439.60000000149","<p><b>New</b> animals with <b>new</b> treasure chests live here. You need to explore to discover where the animal with the best treasure chest is.</p>
                    <p> Like before, once you figure out which animal has the chest with the most treasure, you should try to get to that animal and select that chest! </p>","","instructions","","","","","","","","","","","","","",""
"learning-instructions","290","1497716","0.0-4.0-1.1-0.1","spark_pilot_2","9134","2","23","Male","","","","","","","515.6000000014901","<p> Remember, when you see a picture of the place, use the up and down keys to <b>find an animal</b>.</p>
            <p> When you encounter an animal, you should use the left and right keys to <b>select a treasure chest</b>.</p>
            <p> Don't forget to look out for the robber! </p>","","instructions","","","","","","","","","","","","","",""
"revaluation","291","1503747","0.0-4.0-2.1-0.50","spark_pilot_2","9134","2","23","Male","","false","","","","","[1658.300000000745,937.5]","./assets/img/canyon/memory/30.jpg","[""ArrowDown"",""ArrowLeft""]","value training","canyon","5","{""ArrowUp,ArrowLeft"":26,""ArrowUp,ArrowRight"":10,""ArrowDown,ArrowLeft"":5,""ArrowDown,ArrowRight"":17}","false","ArrowDown,ArrowLeft","false","","","original","2","0","","",""
"html-keyboard-response","292","1504252","0.0-4.0-2.1-1.50","spark_pilot_2","9134","2","23","Male","","","","","","","null","<div style=""font-size:60px;"">+</div>","null","fixation","","","","","","","","","","","1","","",""
"revaluation","293","1508277","0.0-4.0-2.1-0.51","spark_pilot_2","9134","2","23","Male","","false","","","","","[1270.9000000022352]","./assets/img/canyon/catch/5.jpg","[""spaceBar""]","value training","canyon","0","{""ArrowUp,ArrowLeft"":26,""ArrowUp,ArrowRight"":10,""ArrowDown,ArrowLeft"":5,""ArrowDown,ArrowRight"":17}","true","spaceBar","true","","","original","2","2","","",""
"html-keyboard-response","294","1508793","0.0-4.0-2.1-1.51","spark_pilot_2","9134","2","23","Male","","","","","","","null","<div style=""font-size:60px;"">+</div>","null","fixation","","","","","","","","","","","3","","",""
"revaluation","295","1514832","0.0-4.0-2.1-0.52","spark_pilot_2","9134","2","23","Male","","false","","","","","[1133.199999999255,673.0999999977648]","./assets/img/canyon/memory/18.jpg","[""ArrowDown"",""ArrowRight""]","value training","canyon","17","{""ArrowUp,ArrowLeft"":26,""ArrowUp,ArrowRight"":10,""ArrowDown,ArrowLeft"":5,""ArrowDown,ArrowRight"":17}","false","ArrowDown,ArrowRight","false","","","original","2","4","","",""
"html-keyboard-response","296","1515348","0.0-4.0-2.1-1.52","spark_pilot_2","9134","2","23","Male","","","","","","","null","<div style=""font-size:60px;"">+</div>","null","fixation","","","","","","","","","","","5","","",""
"revaluation","297","1521388","0.0-4.0-2.1-0.53","spark_pilot_2","9134","2","23","Male","","false","","","","","[815.1999999992549,397.1000000014901]","./assets/img/canyon/memory/26.jpg","[""ArrowDown"",""ArrowRight""]","value training","canyon","17","{""ArrowUp,ArrowLeft"":26,""ArrowUp,ArrowRight"":10,""ArrowDown,ArrowLeft"":5,""ArrowDown,ArrowRight"":17}","false","ArrowDown,ArrowRight","false","","","original","2","6","","",""
"html-keyboard-response","298","1521904","0.0-4.0-2.1-1.53","spark_pilot_2","9134","2","23","Male","","","","","","","null","<div style=""font-size:60px;"">+</div>","null","fixation","","","","","","","","","","","7","","",""
"revaluation","299","1525917","0.0-4.0-2.1-0.54","spark_pilot_2","9134","2","23","Male","","false","","","","","[974.8999999985099]","./assets/img/canyon/catch/0.jpg","[""spaceBar""]","value training","canyon","0","{""ArrowUp,ArrowLeft"":26,""ArrowUp,ArrowRight"":10,""ArrowDown,ArrowLeft"":5,""ArrowDown,ArrowRight"":17}","true","spaceBar","true","","","original","2","8","","",""
"html-keyboard-response","300","1526433","0.0-4.0-2.1-1.54","spark_pilot_2","9134","2","23","Male","","","","","","","null","<div style=""font-size:60px;"">+</div>","null","fixation","","","","","","","","","","","9","","",""
"revaluation","301","1532454","0.0-4.0-2.1-0.55","spark_pilot_2","9134","2","23","Male","","false","","","","","[597.5,555.0999999977648]","./assets/img/canyon/memory/8.jpg","[""ArrowDown"",""ArrowRight""]","value training","canyon","17","{""ArrowUp,ArrowLeft"":26,""ArrowUp,ArrowRight"":10,""ArrowDown,ArrowLeft"":5,""ArrowDown,ArrowRight"":17}","false","ArrowDown,ArrowRight","false","","","original","2","10","","",""
"html-keyboard-response","302","1532967","0.0-4.0-2.1-1.55","spark_pilot_2","9134","2","23","Male","","","","","","","null","<div style=""font-size:60px;"">+</div>","null","fixation","","","","","","","","","","","11","","",""
"revaluation","303","1538990","0.0-4.0-2.1-0.56","spark_pilot_2","9134","2","23","Male","","false","","","","","[531.1999999992549,440]","./assets/img/canyon/memory/27.jpg","[""ArrowDown"",""ArrowRight""]","value training","canyon","17","{""ArrowUp,ArrowLeft"":26,""ArrowUp,ArrowRight"":10,""ArrowDown,ArrowLeft"":5,""ArrowDown,ArrowRight"":17}","false","ArrowDown,ArrowRight","false","","","original","2","12","","",""
"html-keyboard-response","304","1539495","0.0-4.0-2.1-1.56","spark_pilot_2","9134","2","23","Male","","","","","","","null","<div style=""font-size:60px;"">+</div>","null","fixation","","","","","","","","","","","13","","",""
"revaluation","305","1545510","0.0-4.0-2.1-0.57","spark_pilot_2","9134","2","23","Male","","false","","","","","[769.6999999992549,409.30000000074506]","./assets/img/canyon/memory/11.jpg","[""ArrowDown"",""ArrowRight""]","value training","canyon","17","{""ArrowUp,ArrowLeft"":26,""ArrowUp,ArrowRight"":10,""ArrowDown,ArrowLeft"":5,""ArrowDown,ArrowRight"":17}","false","ArrowDown,ArrowRight","false","","","original","2","14","","",""
"html-keyboard-response","306","1546018","0.0-4.0-2.1-1.57","spark_pilot_2","9134","2","23","Male","","","","","","","null","<div style=""font-size:60px;"">+</div>","null","fixation","","","","","","","","","","","15","","",""
"revaluation","307","1552046","0.0-4.0-2.1-0.58","spark_pilot_2","9134","2","23","Male","","false","","","","","[748.1000000014901,292.5]","./assets/img/canyon/memory/2.jpg","[""ArrowDown"",""ArrowRight""]","value training","canyon","17","{""ArrowUp,ArrowLeft"":26,""ArrowUp,ArrowRight"":10,""ArrowDown,ArrowLeft"":5,""ArrowDown,ArrowRight"":17}","false","ArrowDown,ArrowRight","false","","","original","2","16","","",""
"html-keyboard-response","308","1552556","0.0-4.0-2.1-1.58","spark_pilot_2","9134","2","23","Male","","","","","","","null","<div style=""font-size:60px;"">+</div>","null","fixation","","","","","","","","","","","17","","",""
"revaluation","309","1558598","0.0-4.0-2.1-0.59","spark_pilot_2","9134","2","23","Male","","false","","","","","[1422.6000000014901,865]","./assets/img/canyon/memory/18.jpg","[""ArrowDown"",""ArrowRight""]","value training","canyon","17","{""ArrowUp,ArrowLeft"":26,""ArrowUp,ArrowRight"":10,""ArrowDown,ArrowLeft"":5,""ArrowDown,ArrowRight"":17}","false","ArrowDown,ArrowRight","false","","","original","2","18","","",""
