"trial_type","trial_index","time_elapsed","internal_node_id","task_version","subject_id","assigned_condition","age","gender","browser_interaction","success","timeout","failed_images","failed_audio","failed_video","rt","stimulus","response","task_part","environment","score","rewardMap","correct","fullState","isCatch","numberMissed","duration","condition","order","trial_num","key_press","ground_truth","bonus"
"pavlovia","0","989","0.0-0.0","spark_pilot_2","7446","4","19","Male","[{""event"":""blur"",""trial"":1,""time"":8206},{""event"":""focus"",""trial"":1,""time"":9360},{""event"":""fullscreenenter"",""trial"":2,""time"":14462}]","","","","","","","","","","","","","","","","","","","","","","",""
"preload","1","12781","0.0-1.0","spark_pilot_2","7446","4","19","Male","[{""event"":""blur"",""trial"":1,""time"":8206},{""event"":""focus"",""trial"":1,""time"":9360},{""event"":""fullscreenenter"",""trial"":2,""time"":14462}]","true","false","[]","[]","[]","","","","","","","","","","","","","","","","","",""
"fullscreen","2","15458","0.0-2.0","spark_pilot_2","7446","4","19","Male","","true","","","","","","","","","","","","","","","","","","","","","",""
"audio-button-response","3","17179","0.0-3.0-0.0-0.0","spark_pilot_2","7446","4","19","Male","","","","","","","1712","./assets/audio/audiotest/turtle.mp3","2","audio_test","","","","","","","","","","","","","",""
"learning-instructions","4","25792","0.0-3.0-1.0-0.0","spark_pilot_2","7446","4","19","Male","","","","","","","1636.3999999910593","<p> Welcome! Please remember to stay in fullscreen mode and don't click away from the experiment. </p>","","instructions","","","","","","","","","","","","","",""
"learning-instructions","5","35877","0.0-3.0-1.0-0.1","spark_pilot_2","7446","4","19","Male","","","","","","","1674","<p> Today you will be playing a game to earn treasure. </p>
            <p> At the end of the experiment, you will earn a bonus based on how much treasure you find. </p>
            <img src='./assets/img/instructions/treasure.jpg' class='instructions-image'>","","instructions","","","","","","","","","","","","","",""
"learning-instructions","6","45586","0.0-3.0-1.0-0.2","spark_pilot_2","7446","4","19","Male","","","","","","","1447","<p> Animals have hidden treasure in treasure chests. </p>
            <p> You need to first find an animal and then choose which of their treasure chests to search. </p>
            <img src='./assets/img/space/animals/cat.jpg' class='instructions-image'>","","instructions","","","","","","","","","","","","","",""
"learning-instructions","7","59146","0.0-3.0-1.0-0.3","spark_pilot_2","7446","4","19","Male","","","","","","","414.3999999910593","<p> In each round, you will search for treasure in a different place. In the real game, there will be two rounds. </p>
            <p> You will begin with a separate, practice round where you will search for treasure in outer space. </p>
            <img src='./assets/img/space/0.jpg' class='instructions-image'>","","instructions","","","","","","","","","","","","","",""
"learning-instructions","8","71065","0.0-3.0-1.0-0.4","spark_pilot_2","7446","4","19","Male","","","","","","","516.2999999970198","<p> On every turn, you will see a picture of the place that you are in, but the specific image may be different each time. </p>
            <p> For example, both of these images mean you are in outer space. </p>
            <img src='./assets/img/instructions/outerspace.jpg' class='instructions-image'>","","instructions","","","","","","","","","","","","","",""
"learning-instructions","9","79686","0.0-3.0-1.0-0.5","spark_pilot_2","7446","4","19","Male","","","","","","","790.2000000029802","<p> You need to decide which direction to travel in. </p>
            <p> You can choose between going <b>up or down</b> by using the arrow keys. </p>
            <img src='./assets/img/instructions/updown.jpg' class='instructions-image'>","","instructions","","","","","","","","","","","","","",""
"learning-instructions","10","89050","0.0-3.0-1.0-0.6","spark_pilot_2","7446","4","19","Male","","","","","","","555.1000000089407","<p> You will have <b>2 seconds</b> to make your choice. </p>
            <p> If you do not make a choice within 2 seconds, you will not find an animal or earn treasure. </p>
            <img src='./assets/img/instructions/2seconds.jpg' class='instructions-image'>","","instructions","","","","","","","","","","","","","",""
"learning-instructions","11","96970","0.0-3.0-1.0-0.7","spark_pilot_2","7446","4","19","Male","","","","","","","885","<p> Let’s try practicing that now! </p>
            <p> When you see a picture of the place you are in, press the <b>up</b> key to travel up. </p>
            <img src='./assets/img/instructions/pressUp.jpg' class='instructions-image'>","","instructions","","","","","","","","","","","","","",""
"revaluation","12","100993","0.0-3.0-2.0-0.0","spark_pilot_2","7446","4","19","Male","","","false","","","","[582.7999999970198]","./assets/img/space/0.jpg","[""ArrowUp""]","first stage practice","space","0","null","null","ArrowUp","false","","","","","","","",""
"html-keyboard-response","13","101495","0.0-3.0-2.0-1.0","spark_pilot_2","7446","4","19","Male","","","","","","","null","<div style=""font-size:60px;"">+</div>","null","fixation","","","","","","","","","","","","","",""
"revaluation","14","105516","0.0-3.0-2.0-0.1","spark_pilot_2","7446","4","19","Male","","","true","","","","[]","./assets/img/space/1.jpg","[]","first stage practice","space","-5","null","null","","false","","","","","","","",""
"html-keyboard-response","15","106027","0.0-3.0-2.0-1.1","spark_pilot_2","7446","4","19","Male","","","","","","","null","<div style=""font-size:60px;"">+</div>","null","fixation","","","","","","","","","","","","","",""
"revaluation","16","110052","0.0-3.0-2.0-0.2","spark_pilot_2","7446","4","19","Male","","","false","","","","[9.099999994039536]","./assets/img/space/2.jpg","[""ArrowUp""]","first stage practice","space","0","null","null","ArrowUp","false","","","","","","","",""
"html-keyboard-response","17","110561","0.0-3.0-2.0-1.2","spark_pilot_2","7446","4","19","Male","","","","","","","null","<div style=""font-size:60px;"">+</div>","null","fixation","","","","","","","","","","","","","",""
"learning-instructions","18","116820","0.0-3.0-3.0-0.0","spark_pilot_2","7446","4","19","Male","","","","","","","1552.2999999970198","<p> Great job! Now try pressing the <b>down</b> key to travel down. </p>
            <img src='./assets/img/instructions/pressDown.jpg' class='instructions-image'>","","instructions","","","","","","","","","","","","","",""
"revaluation","19","120833","0.0-3.0-4.0-0.0","spark_pilot_2","7446","4","19","Male","","","false","","","","[318.70000000298023]","./assets/img/space/3.jpg","[""ArrowDown""]","first stage practice","space","0","null","null","ArrowDown","false","","","","","","","",""
"html-keyboard-response","20","121345","0.0-3.0-4.0-1.0","spark_pilot_2","7446","4","19","Male","","","","","","","null","<div style=""font-size:60px;"">+</div>","null","fixation","","","","","","","","","","","","","",""
"revaluation","21","125363","0.0-3.0-4.0-0.1","spark_pilot_2","7446","4","19","Male","","","false","","","","[244.30000001192093]","./assets/img/space/4.jpg","[""ArrowDown""]","first stage practice","space","0","null","null","ArrowDown","false","","","","","","","",""
"html-keyboard-response","22","125874","0.0-3.0-4.0-1.1","spark_pilot_2","7446","4","19","Male","","","","","","","null","<div style=""font-size:60px;"">+</div>","null","fixation","","","","","","","","","","","","","",""
"revaluation","23","129899","0.0-3.0-4.0-0.2","spark_pilot_2","7446","4","19","Male","","","false","","","","[654.9000000059605]","./assets/img/space/5.jpg","[""ArrowDown""]","first stage practice","space","0","null","null","ArrowDown","false","","","","","","","",""
"html-keyboard-response","24","130410","0.0-3.0-4.0-1.2","spark_pilot_2","7446","4","19","Male","","","","","","","null","<div style=""font-size:60px;"">+</div>","null","fixation","","","","","","","","","","","","","",""
"learning-instructions","25","140921","0.0-3.0-5.0-0.0","spark_pilot_2","7446","4","19","Male","","","","","","","657.5","<p> The animals don’t move, so the animal in the upper part of a place will stay in the upper part of a place, and the animal in the lower part of a place will stay in the lower part of a place. </p>","","instructions","","","","","","","","","","","","","",""
"learning-instructions","26","150725","0.0-3.0-5.0-0.1","spark_pilot_2","7446","4","19","Male","","","","","","","675.6000000089407","<p> Each animal has two treasure chests for you to choose from. </p>
            <p> The amount of treasure in each chest can range from <b> 0 to 40 pieces.</b></p>","","instructions","","","","","","","","","","","","","",""
"learning-instructions","27","162358","0.0-3.0-5.0-0.2","spark_pilot_2","7446","4","19","Male","","","","","","","452.1000000089407","<p> You should decide which chest to search for treasure by using the <b>left</b> and <b>right</b> arrow keys. </p>
            <p><b> Pay attention to which animal is on the screen, as the animals have different treasure chests. </b></p>
            <img src='./assets/img/instructions/leftright.jpg' class='instructions-image'>","","instructions","","","","","","","","","","","","","",""
"learning-instructions","28","169197","0.0-3.0-5.0-0.3","spark_pilot_2","7446","4","19","Male","","","","","","","475.6000000089407","<p> Let’s try practicing that now. </p>
            <p> When you see an animal, choose which chest to search for treasure. </p>
            <img src='./assets/img/instructions/chooseChest.jpg' class='instructions-image'>","","instructions","","","","","","","","","","","","","",""
"revaluation","29","173218","0.0-3.0-6.0-0.0","spark_pilot_2","7446","4","19","Male","","","false","","","","[838]","./assets/img/space/animals/cat.jpg","[""ArrowLeft""]","second stage practice","space","3","{""ArrowUp,ArrowLeft"":3,""ArrowUp,ArrowRight"":36,""ArrowDown,ArrowLeft"":15,""ArrowDown,ArrowRight"":23}","false","ArrowUp,ArrowLeft","","","","","","","","",""
"html-keyboard-response","30","173725","0.0-3.0-6.0-1.0","spark_pilot_2","7446","4","19","Male","","","","","","","null","<div style=""font-size:60px;"">+</div>","null","fixation","","","","","","","","","","","","","",""
"revaluation","31","177745","0.0-3.0-6.0-0.1","spark_pilot_2","7446","4","19","Male","","","false","","","","[593.5]","./assets/img/space/animals/rabbit.jpg","[""ArrowLeft""]","second stage practice","space","15","{""ArrowUp,ArrowLeft"":3,""ArrowUp,ArrowRight"":36,""ArrowDown,ArrowLeft"":15,""ArrowDown,ArrowRight"":23}","false","ArrowDown,ArrowLeft","","","","","","","","",""
"html-keyboard-response","32","178253","0.0-3.0-6.0-1.1","spark_pilot_2","7446","4","19","Male","","","","","","","null","<div style=""font-size:60px;"">+</div>","null","fixation","","","","","","","","","","","","","",""
"revaluation","33","182273","0.0-3.0-6.0-0.2","spark_pilot_2","7446","4","19","Male","","","false","","","","[186.40000000596046]","./assets/img/space/animals/rabbit.jpg","[""ArrowLeft""]","second stage practice","space","15","{""ArrowUp,ArrowLeft"":3,""ArrowUp,ArrowRight"":36,""ArrowDown,ArrowLeft"":15,""ArrowDown,ArrowRight"":23}","false","ArrowDown,ArrowLeft","","","","","","","","",""
"html-keyboard-response","34","182784","0.0-3.0-6.0-1.2","spark_pilot_2","7446","4","19","Male","","","","","","","null","<div style=""font-size:60px;"">+</div>","null","fixation","","","","","","","","","","","","","",""
"revaluation","35","186807","0.0-3.0-6.0-0.3","spark_pilot_2","7446","4","19","Male","","","false","","","","[416.40000000596046]","./assets/img/space/animals/cat.jpg","[""ArrowRight""]","second stage practice","space","36","{""ArrowUp,ArrowLeft"":3,""ArrowUp,ArrowRight"":36,""ArrowDown,ArrowLeft"":15,""ArrowDown,ArrowRight"":23}","true","ArrowUp,ArrowRight","","","","","","","","",""
"html-keyboard-response","36","187319","0.0-3.0-6.0-1.3","spark_pilot_2","7446","4","19","Male","","","","","","","null","<div style=""font-size:60px;"">+</div>","null","fixation","","","","","","","","","","","","","",""
"learning-instructions","37","204682","0.0-3.0-7.0-0.0","spark_pilot_2","7446","4","19","Male","","","","","","","548.7000000029802","<p> Great job. Now let’s try putting it together. </p>
            <p> On each turn, you will first see a picture to remind you of the place you are in, and you need to choose whether to go up or down. </p>
            <p> Then you will see an animal and choose which of its chests to search for treasure. </p>","","instructions","","","","","","","","","","","","","",""
"learning-instructions","38","213339","0.0-3.0-7.0-0.1","spark_pilot_2","7446","4","19","Male","","","","","","","401.3999999910593","<p> When you choose whether to go up or down, try to go to the animal with the chest with the most treasure. </p>
            <p> Try practicing that now! </p>","","instructions","","","","","","","","","","","","","",""
"revaluation","39","219364","0.0-3.0-8.0-0.0","spark_pilot_2","7446","4","19","Male","","","false","","","","[498.90000000596046,326.29999999701977]","./assets/img/space/6.jpg","[""ArrowUp"",""ArrowRight""]","full practice","space","36","{""ArrowUp,ArrowLeft"":3,""ArrowUp,ArrowRight"":36,""ArrowDown,ArrowLeft"":15,""ArrowDown,ArrowRight"":23}","true","ArrowUp,ArrowRight","false","","","","","","","",""
"html-keyboard-response","40","219867","0.0-3.0-8.0-1.0","spark_pilot_2","7446","4","19","Male","","","","","","","null","<div style=""font-size:60px;"">+</div>","null","fixation","","","","","","","","","","","","","",""
"revaluation","41","225896","0.0-3.0-8.0-0.1","spark_pilot_2","7446","4","19","Male","","","false","","","","[433,314.1000000089407]","./assets/img/space/7.jpg","[""ArrowUp"",""ArrowRight""]","full practice","space","36","{""ArrowUp,ArrowLeft"":3,""ArrowUp,ArrowRight"":36,""ArrowDown,ArrowLeft"":15,""ArrowDown,ArrowRight"":23}","true","ArrowUp,ArrowRight","false","","","","","","","",""
"html-keyboard-response","42","226407","0.0-3.0-8.0-1.1","spark_pilot_2","7446","4","19","Male","","","","","","","null","<div style=""font-size:60px;"">+</div>","null","fixation","","","","","","","","","","","","","",""
"revaluation","43","232439","0.0-3.0-8.0-0.2","spark_pilot_2","7446","4","19","Male","","","false","","","","[168.1000000089407,369]","./assets/img/space/8.jpg","[""ArrowUp"",""ArrowRight""]","full practice","space","36","{""ArrowUp,ArrowLeft"":3,""ArrowUp,ArrowRight"":36,""ArrowDown,ArrowLeft"":15,""ArrowDown,ArrowRight"":23}","true","ArrowUp,ArrowRight","false","","","","","","","",""
"html-keyboard-response","44","232951","0.0-3.0-8.0-1.2","spark_pilot_2","7446","4","19","Male","","","","","","","null","<div style=""font-size:60px;"">+</div>","null","fixation","","","","","","","","","","","","","",""
"revaluation","45","238979","0.0-3.0-8.0-0.3","spark_pilot_2","7446","4","19","Male","","","false","","","","[132.5,160.70000000298023]","./assets/img/space/9.jpg","[""ArrowUp"",""ArrowRight""]","full practice","space","36","{""ArrowUp,ArrowLeft"":3,""ArrowUp,ArrowRight"":36,""ArrowDown,ArrowLeft"":15,""ArrowDown,ArrowRight"":23}","true","ArrowUp,ArrowRight","false","","","","","","","",""
"html-keyboard-response","46","239482","0.0-3.0-8.0-1.3","spark_pilot_2","7446","4","19","Male","","","","","","","null","<div style=""font-size:60px;"">+</div>","null","fixation","","","","","","","","","","","","","",""
"revaluation","47","245508","0.0-3.0-8.0-0.4","spark_pilot_2","7446","4","19","Male","","","false","","","","[125.20000000298023,265.70000000298023]","./assets/img/space/10.jpg","[""ArrowUp"",""ArrowRight""]","full practice","space","36","{""ArrowUp,ArrowLeft"":3,""ArrowUp,ArrowRight"":36,""ArrowDown,ArrowLeft"":15,""ArrowDown,ArrowRight"":23}","true","ArrowUp,ArrowRight","false","","","","","","","",""
"html-keyboard-response","48","246020","0.0-3.0-8.0-1.4","spark_pilot_2","7446","4","19","Male","","","","","","","null","<div style=""font-size:60px;"">+</div>","null","fixation","","","","","","","","","","","","","",""
"learning-instructions","49","257713","0.0-3.0-9.0-0.0","spark_pilot_2","7446","4","19","Male","","","","","","","1298.5","<p> One last thing: sometimes, you will see a robber. The robber can be anywhere in the picture. </p>
            <p> If you do not stop them, you will lose treasure. </p>
            <img src='./assets/img/instructions/robber.jpg' class='instructions-image'>","","instructions","","","","","","","","","","","","","",""
"learning-instructions","50","265076","0.0-3.0-9.0-0.1","spark_pilot_2","7446","4","19","Male","","","","","","","198.29999999701977","<p> If you see the robber, you should <b>press the space bar</b> rather than using the arrow keys. </p>
            <p> Try practicing that now! </p>","","instructions","","","","","","","","","","","","","",""
"revaluation","51","269090","0.0-3.0-10.0-0.0","spark_pilot_2","7446","4","19","Male","","","false","","","","[1293.2000000029802]","./assets/img/space/catch/0.jpg","[""spaceBar""]","catch practice","space","0","{""ArrowUp,ArrowLeft"":3,""ArrowUp,ArrowRight"":36,""ArrowDown,ArrowLeft"":15,""ArrowDown,ArrowRight"":23}","true","spaceBar","true","","","","","","","",""
"html-keyboard-response","52","269596","0.0-3.0-10.0-1.0","spark_pilot_2","7446","4","19","Male","","","","","","","null","<div style=""font-size:60px;"">+</div>","null","fixation","","","","","","","","","","","","","",""
"revaluation","53","273614","0.0-3.0-10.0-0.1","spark_pilot_2","7446","4","19","Male","","","false","","","","[573.1000000089407]","./assets/img/space/catch/1.jpg","[""spaceBar""]","catch practice","space","0","{""ArrowUp,ArrowLeft"":3,""ArrowUp,ArrowRight"":36,""ArrowDown,ArrowLeft"":15,""ArrowDown,ArrowRight"":23}","true","spaceBar","true","","","","","","","",""
"html-keyboard-response","54","274126","0.0-3.0-10.0-1.1","spark_pilot_2","7446","4","19","Male","","","","","","","null","<div style=""font-size:60px;"">+</div>","null","fixation","","","","","","","","","","","","","",""
"revaluation","55","278150","0.0-3.0-10.0-0.2","spark_pilot_2","7446","4","19","Male","","","false","","","","[504.5]","./assets/img/space/catch/2.jpg","[""spaceBar""]","catch practice","space","0","{""ArrowUp,ArrowLeft"":3,""ArrowUp,ArrowRight"":36,""ArrowDown,ArrowLeft"":15,""ArrowDown,ArrowRight"":23}","true","spaceBar","true","","","","","","","",""
"html-keyboard-response","56","278662","0.0-3.0-10.0-1.2","spark_pilot_2","7446","4","19","Male","","","","","","","null","<div style=""font-size:60px;"">+</div>","null","fixation","","","","","","","","","","","","","",""
"learning-instructions","57","292934","0.0-3.0-11.0-0.0","spark_pilot_2","7446","4","19","Male","","","","","","","686.2999999970198","<p> After you explore a place to find treasure, it will be time to play a different game. </p>
            <p> During this game, red dots will appear on the screen and fall down slowly. </p>
            <p><b> You must click on them before they reach the bottom. </b></p>
            <img src='./assets/img/instructions/dotGame.jpg' class='instructions-image'>","","instructions","","","","","","","","","","","","","",""
"learning-instructions","58","299101","0.0-3.0-11.0-0.1","spark_pilot_2","7446","4","19","Male","","","","","","","496.3999999910593","<p> For every dot you click, you will earn additional treasure. </p>
            <p> Let’s try practicing that now. </p>","","instructions","","","","","","","","","","","","","",""
"revaluation","59","314115","0.0-3.0-12.0-0.0","spark_pilot_2","7446","4","19","Male","","","","","","","[76,71]","","","rest practice","","20","","","","","0","15000","","","","","",""
"learning-instructions","60","320704","0.0-3.0-13.0-0.0-0.0","spark_pilot_2","7446","4","19","Male","","","","","","","1284","<p> Now, you will practice a shortened version of the game to get a sense of how it all fits together. </p>","","instructions","","","","","","","","","","","","","",""
"learning-instructions","61","324392","0.0-3.0-13.0-0.0-0.1","spark_pilot_2","7446","4","19","Male","","","","","","","497.59999999403954","<p>This time you are searching for treasure in outer space.</p>","","instructions","","","","","","","","","","","","","",""
"learning-instructions","62","339760","0.0-3.0-13.0-1.0-0.0","spark_pilot_2","7446","4","19","Male","","","","","","","601.5999999940395","<p> Remember, when you see a picture of the place, use the up and down keys to <b>find an animal</b>.</p>
            <p> When you encounter an animal, you should use the left and right keys to <b>select a treasure chest</b>.</p>
            <p> Don't forget to look out for the robber! </p>","","instructions","","","","","","","","","","","","","",""
"revaluation","63","345786","0.0-3.0-13.0-2.0-0.0","spark_pilot_2","7446","4","19","Male","","","false","","","","[739,357.09999999403954]","./assets/img/space/11.jpg","[""ArrowUp"",""ArrowRight""]","practice block","space","36","{""ArrowUp,ArrowLeft"":3,""ArrowUp,ArrowRight"":36,""ArrowDown,ArrowLeft"":15,""ArrowDown,ArrowRight"":23}","true","ArrowUp,ArrowRight","false","","","","","","","",""
"html-keyboard-response","64","346297","0.0-3.0-13.0-2.0-1.0","spark_pilot_2","7446","4","19","Male","","","","","","","null","<div style=""font-size:60px;"">+</div>","null","fixation","","","","","","","","","","","","","",""
"revaluation","65","352319","0.0-3.0-13.0-2.0-0.1","spark_pilot_2","7446","4","19","Male","","","false","","","","[747.1000000089407,370.79999999701977]","./assets/img/space/12.jpg","[""ArrowUp"",""ArrowRight""]","practice block","space","36","{""ArrowUp,ArrowLeft"":3,""ArrowUp,ArrowRight"":36,""ArrowDown,ArrowLeft"":15,""ArrowDown,ArrowRight"":23}","true","ArrowUp,ArrowRight","false","","","","","","","",""
"html-keyboard-response","66","352824","0.0-3.0-13.0-2.0-1.1","spark_pilot_2","7446","4","19","Male","","","","","","","null","<div style=""font-size:60px;"">+</div>","null","fixation","","","","","","","","","","","","","",""
"revaluation","67","358848","0.0-3.0-13.0-2.0-0.2","spark_pilot_2","7446","4","19","Male","","","false","","","","[498.5,333.5]","./assets/img/space/13.jpg","[""ArrowUp"",""ArrowRight""]","practice block","space","36","{""ArrowUp,ArrowLeft"":3,""ArrowUp,ArrowRight"":36,""ArrowDown,ArrowLeft"":15,""ArrowDown,ArrowRight"":23}","true","ArrowUp,ArrowRight","false","","","","","","","",""
"html-keyboard-response","68","359352","0.0-3.0-13.0-2.0-1.2","spark_pilot_2","7446","4","19","Male","","","","","","","null","<div style=""font-size:60px;"">+</div>","null","fixation","","","","","","","","","","","","","",""
"revaluation","69","365379","0.0-3.0-13.0-2.0-0.3","spark_pilot_2","7446","4","19","Male","","","false","","","","[633.4000000059605,346.20000000298023]","./assets/img/space/14.jpg","[""ArrowUp"",""ArrowRight""]","practice block","space","36","{""ArrowUp,ArrowLeft"":3,""ArrowUp,ArrowRight"":36,""ArrowDown,ArrowLeft"":15,""ArrowDown,ArrowRight"":23}","true","ArrowUp,ArrowRight","false","","","","","","","",""
"html-keyboard-response","70","365886","0.0-3.0-13.0-2.0-1.3","spark_pilot_2","7446","4","19","Male","","","","","","","null","<div style=""font-size:60px;"">+</div>","null","fixation","","","","","","","","","","","","","",""
"revaluation","71","371915","0.0-3.0-13.0-2.0-0.4","spark_pilot_2","7446","4","19","Male","","","false","","","","[700,302.5]","./assets/img/space/11.jpg","[""ArrowUp"",""ArrowRight""]","practice block","space","36","{""ArrowUp,ArrowLeft"":3,""ArrowUp,ArrowRight"":36,""ArrowDown,ArrowLeft"":15,""ArrowDown,ArrowRight"":23}","true","ArrowUp,ArrowRight","false","","","","","","","",""
"html-keyboard-response","72","372426","0.0-3.0-13.0-2.0-1.4","spark_pilot_2","7446","4","19","Male","","","","","","","null","<div style=""font-size:60px;"">+</div>","null","fixation","","","","","","","","","","","","","",""
"revaluation","73","378458","0.0-3.0-13.0-2.0-0.5","spark_pilot_2","7446","4","19","Male","","","false","","","","[764.2000000029802,341.90000000596046]","./assets/img/space/12.jpg","[""ArrowUp"",""ArrowRight""]","practice block","space","36","{""ArrowUp,ArrowLeft"":3,""ArrowUp,ArrowRight"":36,""ArrowDown,ArrowLeft"":15,""ArrowDown,ArrowRight"":23}","true","ArrowUp,ArrowRight","false","","","","","","","",""
"html-keyboard-response","74","378970","0.0-3.0-13.0-2.0-1.5","spark_pilot_2","7446","4","19","Male","","","","","","","null","<div style=""font-size:60px;"">+</div>","null","fixation","","","","","","","","","","","","","",""
"revaluation","75","385002","0.0-3.0-13.0-2.0-0.6","spark_pilot_2","7446","4","19","Male","","","false","","","","[503.29999999701977,461.40000000596046]","./assets/img/space/13.jpg","[""ArrowUp"",""ArrowRight""]","practice block","space","36","{""ArrowUp,ArrowLeft"":3,""ArrowUp,ArrowRight"":36,""ArrowDown,ArrowLeft"":15,""ArrowDown,ArrowRight"":23}","true","ArrowUp,ArrowRight","false","","","","","","","",""
"html-keyboard-response","76","385513","0.0-3.0-13.0-2.0-1.6","spark_pilot_2","7446","4","19","Male","","","","","","","null","<div style=""font-size:60px;"">+</div>","null","fixation","","","","","","","","","","","","","",""
"revaluation","77","391546","0.0-3.0-13.0-2.0-0.7","spark_pilot_2","7446","4","19","Male","","","false","","","","[615.8999999910593,300.29999999701977]","./assets/img/space/14.jpg","[""ArrowUp"",""ArrowRight""]","practice block","space","36","{""ArrowUp,ArrowLeft"":3,""ArrowUp,ArrowRight"":36,""ArrowDown,ArrowLeft"":15,""ArrowDown,ArrowRight"":23}","true","ArrowUp,ArrowRight","false","","","","","","","",""
"html-keyboard-response","78","392057","0.0-3.0-13.0-2.0-1.7","spark_pilot_2","7446","4","19","Male","","","","","","","null","<div style=""font-size:60px;"">+</div>","null","fixation","","","","","","","","","","","","","",""
"revaluation","79","396079","0.0-3.0-13.0-2.0-0.8","spark_pilot_2","7446","4","19","Male","","","false","","","","[811.2000000029802]","./assets/img/space/catch/3.jpg","[""spaceBar""]","practice block","space","0","{""ArrowUp,ArrowLeft"":3,""ArrowUp,ArrowRight"":36,""ArrowDown,ArrowLeft"":15,""ArrowDown,ArrowRight"":23}","true","spaceBar","true","","","","","","","",""
"html-keyboard-response","80","396585","0.0-3.0-13.0-2.0-1.8","spark_pilot_2","7446","4","19","Male","","","","","","","null","<div style=""font-size:60px;"">+</div>","null","fixation","","","","","","","","","","","","","",""
"learning-instructions","81","410256","0.0-3.0-13.0-3.0-0.0","spark_pilot_2","7446","4","19","Male","","","","","","","527.2000000029802","<p> Now, you will travel with a friend who will choose whether you go up or down first. </p>
            <p> On these turns, you will just see the animal that they found. You will still get to choose which chest to search for treasure.</p>","","instructions","","","","","","","","","","","","","",""
"revaluation","82","414269","0.0-3.0-13.0-4.0-0.0","spark_pilot_2","7446","4","19","Male","","","false","","","","[655.4000000059605]","./assets/img/space/animals/rabbit.jpg","[""ArrowRight""]","practice block","space","23","{""ArrowUp,ArrowLeft"":3,""ArrowUp,ArrowRight"":36,""ArrowDown,ArrowLeft"":15,""ArrowDown,ArrowRight"":23}","true","ArrowDown,ArrowRight","","","","","","","","",""
"html-keyboard-response","83","414773","0.0-3.0-13.0-4.0-1.0","spark_pilot_2","7446","4","19","Male","","","","","","","null","<div style=""font-size:60px;"">+</div>","null","fixation","","","","","","","","","","","","","",""
"revaluation","84","418791","0.0-3.0-13.0-4.0-0.1","spark_pilot_2","7446","4","19","Male","","","false","","","","[409.19999998807907]","./assets/img/space/animals/cat.jpg","[""ArrowRight""]","practice block","space","36","{""ArrowUp,ArrowLeft"":3,""ArrowUp,ArrowRight"":36,""ArrowDown,ArrowLeft"":15,""ArrowDown,ArrowRight"":23}","true","ArrowUp,ArrowRight","","","","","","","","",""
"html-keyboard-response","85","419304","0.0-3.0-13.0-4.0-1.1","spark_pilot_2","7446","4","19","Male","","","","","","","null","<div style=""font-size:60px;"">+</div>","null","fixation","","","","","","","","","","","","","",""
"revaluation","86","423329","0.0-3.0-13.0-4.0-0.2","spark_pilot_2","7446","4","19","Male","","","false","","","","[511.59999999403954]","./assets/img/space/animals/rabbit.jpg","[""ArrowLeft""]","practice block","space","15","{""ArrowUp,ArrowLeft"":3,""ArrowUp,ArrowRight"":36,""ArrowDown,ArrowLeft"":15,""ArrowDown,ArrowRight"":23}","false","ArrowDown,ArrowLeft","","","","","","","","",""
"html-keyboard-response","87","423837","0.0-3.0-13.0-4.0-1.2","spark_pilot_2","7446","4","19","Male","","","","","","","null","<div style=""font-size:60px;"">+</div>","null","fixation","","","","","","","","","","","","","",""
"revaluation","88","427857","0.0-3.0-13.0-4.0-0.3","spark_pilot_2","7446","4","19","Male","","","false","","","","[291.30000001192093]","./assets/img/space/animals/cat.jpg","[""ArrowRight""]","practice block","space","36","{""ArrowUp,ArrowLeft"":3,""ArrowUp,ArrowRight"":36,""ArrowDown,ArrowLeft"":15,""ArrowDown,ArrowRight"":23}","true","ArrowUp,ArrowRight","","","","","","","","",""
"html-keyboard-response","89","428369","0.0-3.0-13.0-4.0-1.3","spark_pilot_2","7446","4","19","Male","","","","","","","null","<div style=""font-size:60px;"">+</div>","null","fixation","","","","","","","","","","","","","",""
"learning-instructions","90","436355","0.0-3.0-13.0-5.0-0.0","spark_pilot_2","7446","4","19","Male","","","","","","","616.8000000119209","<p> Time to play the dot game! </p>
            <p> For 15 seconds, click the red dots on the following screen as they appear. </p>","","instructions","","","","","","","","","","","","","",""
"revaluation","91","451360","0.0-3.0-13.0-6.0-0.0","spark_pilot_2","7446","4","19","Male","","","","","","","[80]","","","rest practice","","10","","","","","0","15000","","","","","",""
"learning-instructions","92","458230","0.0-3.0-13.0-7.0-0.0","spark_pilot_2","7446","4","19","Male","","","","","","","748.5","<p> You have almost finished this part of the game! </p>
            <p> We are going to ask you to make a few more choices. </p>","","instructions","","","","","","","","","","","","","",""
"learning-instructions","93","472792","0.0-3.0-13.0-7.0-0.1","spark_pilot_2","7446","4","19","Male","","","","","","","552.8999999910593","<p> First, you need to decide whether to go up or down. When you see each picture, use the arrow keys to make your choice. </p>
            <p><b>You will not see which animal you found, but try to get to the one that will give you the most treasure.</b></p>","","instructions","","","","","","","","","","","","","",""
"revaluation","94","473604","0.0-3.0-13.0-8.0","spark_pilot_2","7446","4","19","Male","","","false","","","","[808.6999999880791]","./assets/img/space/15.jpg","[""ArrowUp""]","practice block","space","0","{""ArrowUp,ArrowLeft"":3,""ArrowUp,ArrowRight"":36,""ArrowDown,ArrowLeft"":15,""ArrowDown,ArrowRight"":23}","true","ArrowUp","false","","","","","","","",""
"html-keyboard-response","95","474108","0.0-3.0-13.0-9.0","spark_pilot_2","7446","4","19","Male","","","","","","","null","<div style=""font-size:60px;"">+</div>","null","fixation","","","","","","","","","","","","","",""
"learning-instructions","96","486617","0.0-3.0-13.0-10.0-0.0","spark_pilot_2","7446","4","19","Male","","","","","","","1130.7000000029802","<p> Now you will see the animals again and can search their chests for treasure. </p>
            <p> This time, you will not see how much treasure you earned, but you will earn more bonus money for making better choices. </p>","","instructions","","","","","","","","","","","","","",""
"revaluation","97","487001","0.0-3.0-13.0-11.0-0.0","spark_pilot_2","7446","4","19","Male","","","false","","","","[381.29999999701977]","./assets/img/space/animals/cat.jpg","[""ArrowRight""]","practice block","space","0","{""ArrowUp,ArrowLeft"":3,""ArrowUp,ArrowRight"":36,""ArrowDown,ArrowLeft"":15,""ArrowDown,ArrowRight"":23}","true","ArrowUp,ArrowRight","","","","","","","","",""
"html-keyboard-response","98","487506","0.0-3.0-13.0-11.0-1.0","spark_pilot_2","7446","4","19","Male","","","","","","","null","<div style=""font-size:60px;"">+</div>","null","fixation","","","","","","","","","","","","","",""
"revaluation","99","488111","0.0-3.0-13.0-11.0-0.1","spark_pilot_2","7446","4","19","Male","","","false","","","","[600.5]","./assets/img/space/animals/rabbit.jpg","[""ArrowRight""]","practice block","space","0","{""ArrowUp,ArrowLeft"":3,""ArrowUp,ArrowRight"":36,""ArrowDown,ArrowLeft"":15,""ArrowDown,ArrowRight"":23}","true","ArrowDown,ArrowRight","","","","","","","","",""
"html-keyboard-response","100","488621","0.0-3.0-13.0-11.0-1.1","spark_pilot_2","7446","4","19","Male","","","","","","","null","<div style=""font-size:60px;"">+</div>","null","fixation","","","","","","","","","","","","","",""
"learning-instructions","101","493662","0.0-3.0-14.0-0.0","spark_pilot_2","7446","4","19","Male","","","","","","","464.1000000089407","<p> Before you start, we're going to ask you a few questions about how the game works. </p>","","instructions","","","","","","","","","","","","","",""
"comp-q","102","500995","0.0-3.0-15.0-0.0-0.0","spark_pilot_2","7446","4","19","Male","","","","","","","1745.5","<p> <b> True or False? </b> </p>
            <p> There can be 50 pieces of treasure in a given animal's chest. </p>","1","comp_question","","","","true","","","","","","","","","",""
"comp-q","103","508688","0.0-3.0-15.0-0.0-1.0","spark_pilot_2","7446","4","19","Male","","","","","","","1037.5999999940395","<p> <b> That's right! </b> The amount of treasure in each chest can range from 0 to 40 pieces. </p>","0","comp_answer","","","","","","","","","","","","","",""
"comp-q","104","516502","0.0-3.0-15.0-0.1-0.1","spark_pilot_2","7446","4","19","Male","","","","","","","697.0999999940395","<p> <b> True or False? </b> </p><p> In this game, all animals have the same amount of treasure in their left and right chests. </p>","1","comp_question","","","","true","","","","","","","","","",""
"comp-q","105","522615","0.0-3.0-15.0-0.1-1.1","spark_pilot_2","7446","4","19","Male","","","","","","","884.0999999940395","<p> <b> That's right! </b> Animals have different amounts of treasure in their treasure chests. </p>","0","comp_answer","","","","","","","","","","","","","",""
"comp-q","106","528995","0.0-3.0-15.0-0.2-0.2","spark_pilot_2","7446","4","19","Male","","","","","","","539.2000000029802","<p> <b> True or False? </b> </p><p> The same animal will always be there if you go up in the same place. </p>","0","comp_question","","","","true","","","","","","","","","",""
"comp-q","107","536335","0.0-3.0-15.0-0.2-1.2","spark_pilot_2","7446","4","19","Male","","","","","","","898","<p> <b> That's right! </b> One animal lives in the upper part and one lives in the lower part of every place. </p>","0","comp_answer","","","","","","","","","","","","","",""
"comp-q","108","542358","0.0-3.0-15.0-0.3-0.3","spark_pilot_2","7446","4","19","Male","","","","","","","500.59999999403954","<p> <b> True or False? </b> </p><p> If you see a different picture, it means you are in a new place. </p>","1","comp_question","","","","true","","","","","","","","","",""
"comp-q","109","554308","0.0-3.0-15.0-0.3-1.3","spark_pilot_2","7446","4","19","Male","","","","","","","723","<p> <b> That's right! </b> Lots of different images may show the same place. For example,  you may see three different images that all remind you that you are in outer space. </p>","0","comp_answer","","","","","","","","","","","","","",""
"learning-instructions","110","565357","0.0-3.0-16.0-0.0","spark_pilot_2","7446","4","19","Male","","","","","","","1195.5999999940395","<p> Good job. Remember to do your best because the amount of treasure you earn will be converted into bonus money. </p>
            <p> It’s time to start the real game! </p>","","instructions","","","","","","","","","","","","","",""
"learning-instructions","111","569139","0.0-4.0-0.0-0.0","spark_pilot_2","7446","4","19","Male","","","","","","","1073.7000000029802","<p> This time you are searching for treasure in the <b>ocean</b>.</p>","","instructions","","","","","","","","","","","","","",""
"learning-instructions","112","587377","0.0-4.0-0.0-0.1","spark_pilot_2","7446","4","19","Male","","","","","","","944.6000000089407","<p><b>New</b> animals with <b>new</b> treasure chests live here. You need to explore to discover where the animal with the best treasure chest is.</p>
                    <p> Like before, once you figure out which animal has the chest with the most treasure, you should try to get to that animal and select that chest! </p>","","instructions","","","","","","","","","","","","","",""
"learning-instructions","113","602676","0.0-4.0-1.0-0.0","spark_pilot_2","7446","4","19","Male","","","","","","","569.5","<p> Remember, when you see a picture of the place, use the up and down keys to <b>find an animal</b>.</p>
            <p> When you encounter an animal, you should use the left and right keys to <b>select a treasure chest</b>.</p>
            <p> Don't forget to look out for the robber! </p>","","instructions","","","","","","","","","","","","","",""
"revaluation","114","608703","0.0-4.0-2.0-0.0","spark_pilot_2","7446","4","19","Male","","","false","","","","[720.7000000029802,634.2000000029802]","./assets/img/ocean/memory/8.jpg","[""ArrowUp"",""ArrowRight""]","value training","ocean","10","{""ArrowUp,ArrowLeft"":26,""ArrowUp,ArrowRight"":10,""ArrowDown,ArrowLeft"":5,""ArrowDown,ArrowRight"":17}","false","ArrowUp,ArrowRight","false","","","revaluation","1","0","","",""
"html-keyboard-response","115","609217","0.0-4.0-2.0-1.0","spark_pilot_2","7446","4","19","Male","","","","","","","null","<div style=""font-size:60px;"">+</div>","null","fixation","","","","","","","","","","","1","","",""
"revaluation","116","615239","0.0-4.0-2.0-0.1","spark_pilot_2","7446","4","19","Male","","","false","","","","[669.2000000029802,322.29999999701977]","./assets/img/ocean/memory/33.jpg","[""ArrowUp"",""ArrowLeft""]","value training","ocean","26","{""ArrowUp,ArrowLeft"":26,""ArrowUp,ArrowRight"":10,""ArrowDown,ArrowLeft"":5,""ArrowDown,ArrowRight"":17}","true","ArrowUp,ArrowLeft","false","","","revaluation","1","2","","",""
"html-keyboard-response","117","615743","0.0-4.0-2.0-1.1","spark_pilot_2","7446","4","19","Male","","","","","","","null","<div style=""font-size:60px;"">+</div>","null","fixation","","","","","","","","","","","3","","",""
"revaluation","118","619763","0.0-4.0-2.0-0.2","spark_pilot_2","7446","4","19","Male","","","false","","","","[420]","./assets/img/ocean/catch/6.jpg","[""ArrowDown""]","value training","ocean","-10","{""ArrowUp,ArrowLeft"":26,""ArrowUp,ArrowRight"":10,""ArrowDown,ArrowLeft"":5,""ArrowDown,ArrowRight"":17}","false","ArrowDown","true","","","revaluation","1","4","","",""
"html-keyboard-response","119","620275","0.0-4.0-2.0-1.2","spark_pilot_2","7446","4","19","Male","","","","","","","null","<div style=""font-size:60px;"">+</div>","null","fixation","","","","","","","","","","","5","","",""
"revaluation","120","626302","0.0-4.0-2.0-0.3","spark_pilot_2","7446","4","19","Male","","","false","","","","[703.5,397.5]","./assets/img/ocean/memory/40.jpg","[""ArrowDown"",""ArrowLeft""]","value training","ocean","5","{""ArrowUp,ArrowLeft"":26,""ArrowUp,ArrowRight"":10,""ArrowDown,ArrowLeft"":5,""ArrowDown,ArrowRight"":17}","false","ArrowDown,ArrowLeft","false","","","revaluation","1","6","","",""
"html-keyboard-response","121","626806","0.0-4.0-2.0-1.3","spark_pilot_2","7446","4","19","Male","","","","","","","null","<div style=""font-size:60px;"">+</div>","null","fixation","","","","","","","","","","","7","","",""
"revaluation","122","632831","0.0-4.0-2.0-0.4","spark_pilot_2","7446","4","19","Male","","","false","","","","[644,320.8999999910593]","./assets/img/ocean/memory/11.jpg","[""ArrowDown"",""ArrowRight""]","value training","ocean","17","{""ArrowUp,ArrowLeft"":26,""ArrowUp,ArrowRight"":10,""ArrowDown,ArrowLeft"":5,""ArrowDown,ArrowRight"":17}","false","ArrowDown,ArrowRight","false","","","revaluation","1","8","","",""
"html-keyboard-response","123","633337","0.0-4.0-2.0-1.4","spark_pilot_2","7446","4","19","Male","","","","","","","null","<div style=""font-size:60px;"">+</div>","null","fixation","","","","","","","","","","","9","","",""
"revaluation","124","639370","0.0-4.0-2.0-0.5","spark_pilot_2","7446","4","19","Male","","","false","","","","[484.1000000089407,327.70000000298023]","./assets/img/ocean/memory/36.jpg","[""ArrowUp"",""ArrowLeft""]","value training","ocean","26","{""ArrowUp,ArrowLeft"":26,""ArrowUp,ArrowRight"":10,""ArrowDown,ArrowLeft"":5,""ArrowDown,ArrowRight"":17}","true","ArrowUp,ArrowLeft","false","","","revaluation","1","10","","",""
"html-keyboard-response","125","639881","0.0-4.0-2.0-1.5","spark_pilot_2","7446","4","19","Male","","","","","","","null","<div style=""font-size:60px;"">+</div>","null","fixation","","","","","","","","","","","11","","",""
"revaluation","126","645913","0.0-4.0-2.0-0.6","spark_pilot_2","7446","4","19","Male","","","false","","","","[625.2000000029802,485.90000000596046]","./assets/img/ocean/memory/11.jpg","[""ArrowUp"",""ArrowLeft""]","value training","ocean","26","{""ArrowUp,ArrowLeft"":26,""ArrowUp,ArrowRight"":10,""ArrowDown,ArrowLeft"":5,""ArrowDown,ArrowRight"":17}","true","ArrowUp,ArrowLeft","false","","","revaluation","1","12","","",""
"html-keyboard-response","127","646425","0.0-4.0-2.0-1.6","spark_pilot_2","7446","4","19","Male","","","","","","","null","<div style=""font-size:60px;"">+</div>","null","fixation","","","","","","","","","","","13","","",""
"revaluation","128","650446","0.0-4.0-2.0-0.7","spark_pilot_2","7446","4","19","Male","","","false","","","","[904.5999999940395]","./assets/img/ocean/catch/4.jpg","[""spaceBar""]","value training","ocean","0","{""ArrowUp,ArrowLeft"":26,""ArrowUp,ArrowRight"":10,""ArrowDown,ArrowLeft"":5,""ArrowDown,ArrowRight"":17}","true","spaceBar","true","","","revaluation","1","14","","",""
"html-keyboard-response","129","650953","0.0-4.0-2.0-1.7","spark_pilot_2","7446","4","19","Male","","","","","","","null","<div style=""font-size:60px;"">+</div>","null","fixation","","","","","","","","","","","15","","",""
"revaluation","130","656985","0.0-4.0-2.0-0.8","spark_pilot_2","7446","4","19","Male","","","false","","","","[703.2000000029802,309.09999999403954]","./assets/img/ocean/memory/5.jpg","[""ArrowUp"",""ArrowLeft""]","value training","ocean","26","{""ArrowUp,ArrowLeft"":26,""ArrowUp,ArrowRight"":10,""ArrowDown,ArrowLeft"":5,""ArrowDown,ArrowRight"":17}","true","ArrowUp,ArrowLeft","false","","","revaluation","1","16","","",""
"html-keyboard-response","131","657497","0.0-4.0-2.0-1.8","spark_pilot_2","7446","4","19","Male","","","","","","","null","<div style=""font-size:60px;"">+</div>","null","fixation","","","","","","","","","","","17","","",""
"revaluation","132","663518","0.0-4.0-2.0-0.9","spark_pilot_2","7446","4","19","Male","","","false","","","","[551.2999999970198,389.29999999701977]","./assets/img/ocean/memory/2.jpg","[""ArrowUp"",""ArrowLeft""]","value training","ocean","26","{""ArrowUp,ArrowLeft"":26,""ArrowUp,ArrowRight"":10,""ArrowDown,ArrowLeft"":5,""ArrowDown,ArrowRight"":17}","true","ArrowUp,ArrowLeft","false","","","revaluation","1","18","","",""
"html-keyboard-response","133","664024","0.0-4.0-2.0-1.9","spark_pilot_2","7446","4","19","Male","","","","","","","null","<div style=""font-size:60px;"">+</div>","null","fixation","","","","","","","","","","","19","","",""
"revaluation","134","668046","0.0-4.0-2.0-0.10","spark_pilot_2","7446","4","19","Male","","","false","","","","[703.2000000029802]","./assets/img/ocean/catch/1.jpg","[""spaceBar""]","value training","ocean","0","{""ArrowUp,ArrowLeft"":26,""ArrowUp,ArrowRight"":10,""ArrowDown,ArrowLeft"":5,""ArrowDown,ArrowRight"":17}","true","spaceBar","true","","","revaluation","1","20","","",""
"html-keyboard-response","135","668552","0.0-4.0-2.0-1.10","spark_pilot_2","7446","4","19","Male","","","","","","","null","<div style=""font-size:60px;"">+</div>","null","fixation","","","","","","","","","","","21","","",""
"revaluation","136","674585","0.0-4.0-2.0-0.11","spark_pilot_2","7446","4","19","Male","","","false","","","","[409.40000000596046,410.59999999403954]","./assets/img/ocean/memory/3.jpg","[""ArrowUp"",""ArrowLeft""]","value training","ocean","26","{""ArrowUp,ArrowLeft"":26,""ArrowUp,ArrowRight"":10,""ArrowDown,ArrowLeft"":5,""ArrowDown,ArrowRight"":17}","true","ArrowUp,ArrowLeft","false","","","revaluation","1","22","","",""
"html-keyboard-response","137","675096","0.0-4.0-2.0-1.11","spark_pilot_2","7446","4","19","Male","","","","","","","null","<div style=""font-size:60px;"">+</div>","null","fixation","","","","","","","","","","","23","","",""
"revaluation","138","679120","0.0-4.0-2.0-0.12","spark_pilot_2","7446","4","19","Male","","","false","","","","[695.4000000059605]","./assets/img/ocean/catch/0.jpg","[""spaceBar""]","value training","ocean","0","{""ArrowUp,ArrowLeft"":26,""ArrowUp,ArrowRight"":10,""ArrowDown,ArrowLeft"":5,""ArrowDown,ArrowRight"":17}","true","spaceBar","true","","","revaluation","1","24","","",""
"html-keyboard-response","139","679629","0.0-4.0-2.0-1.12","spark_pilot_2","7446","4","19","Male","","","","","","","null","<div style=""font-size:60px;"">+</div>","null","fixation","","","","","","","","","","","25","","",""
"revaluation","140","685656","0.0-4.0-2.0-0.13","spark_pilot_2","7446","4","19","Male","","","false","","","","[903.7000000029802,349.09999999403954]","./assets/img/ocean/memory/10.jpg","[""ArrowUp"",""ArrowLeft""]","value training","ocean","26","{""ArrowUp,ArrowLeft"":26,""ArrowUp,ArrowRight"":10,""ArrowDown,ArrowLeft"":5,""ArrowDown,ArrowRight"":17}","true","ArrowUp,ArrowLeft","false","","","revaluation","1","26","","",""
"html-keyboard-response","141","686168","0.0-4.0-2.0-1.13","spark_pilot_2","7446","4","19","Male","","","","","","","null","<div style=""font-size:60px;"">+</div>","null","fixation","","","","","","","","","","","27","","",""
"revaluation","142","692200","0.0-4.0-2.0-0.14","spark_pilot_2","7446","4","19","Male","","","false","","","","[635,511.29999999701977]","./assets/img/ocean/memory/33.jpg","[""ArrowUp"",""ArrowLeft""]","value training","ocean","26","{""ArrowUp,ArrowLeft"":26,""ArrowUp,ArrowRight"":10,""ArrowDown,ArrowLeft"":5,""ArrowDown,ArrowRight"":17}","true","ArrowUp,ArrowLeft","false","","","revaluation","1","28","","",""
"html-keyboard-response","143","692712","0.0-4.0-2.0-1.14","spark_pilot_2","7446","4","19","Male","","","","","","","null","<div style=""font-size:60px;"">+</div>","null","fixation","","","","","","","","","","","29","","",""
"revaluation","144","698744","0.0-4.0-2.0-0.15","spark_pilot_2","7446","4","19","Male","","","false","","","","[532.2000000029802,380]","./assets/img/ocean/memory/27.jpg","[""ArrowUp"",""ArrowLeft""]","value training","ocean","26","{""ArrowUp,ArrowLeft"":26,""ArrowUp,ArrowRight"":10,""ArrowDown,ArrowLeft"":5,""ArrowDown,ArrowRight"":17}","true","ArrowUp,ArrowLeft","false","","","revaluation","1","30","","",""
"html-keyboard-response","145","699255","0.0-4.0-2.0-1.15","spark_pilot_2","7446","4","19","Male","","","","","","","null","<div style=""font-size:60px;"">+</div>","null","fixation","","","","","","","","","","","31","","",""
"revaluation","146","705288","0.0-4.0-2.0-0.16","spark_pilot_2","7446","4","19","Male","","","false","","","","[499.1000000089407,297.20000000298023]","./assets/img/ocean/memory/16.jpg","[""ArrowUp"",""ArrowLeft""]","value training","ocean","26","{""ArrowUp,ArrowLeft"":26,""ArrowUp,ArrowRight"":10,""ArrowDown,ArrowLeft"":5,""ArrowDown,ArrowRight"":17}","true","ArrowUp,ArrowLeft","false","","","revaluation","1","32","","",""
"html-keyboard-response","147","705799","0.0-4.0-2.0-1.16","spark_pilot_2","7446","4","19","Male","","","","","","","null","<div style=""font-size:60px;"">+</div>","null","fixation","","","","","","","","","","","33","","",""
"revaluation","148","711821","0.0-4.0-2.0-0.17","spark_pilot_2","7446","4","19","Male","","","false","","","","[626.5,311.19999998807907]","./assets/img/ocean/memory/1.jpg","[""ArrowUp"",""ArrowLeft""]","value training","ocean","26","{""ArrowUp,ArrowLeft"":26,""ArrowUp,ArrowRight"":10,""ArrowDown,ArrowLeft"":5,""ArrowDown,ArrowRight"":17}","true","ArrowUp,ArrowLeft","false","","","revaluation","1","34","","",""
"html-keyboard-response","149","712327","0.0-4.0-2.0-1.17","spark_pilot_2","7446","4","19","Male","","","","","","","null","<div style=""font-size:60px;"">+</div>","null","fixation","","","","","","","","","","","35","","",""
"revaluation","150","718359","0.0-4.0-2.0-0.18","spark_pilot_2","7446","4","19","Male","","","false","","","","[589.1000000089407,327.6000000089407]","./assets/img/ocean/memory/12.jpg","[""ArrowUp"",""ArrowLeft""]","value training","ocean","26","{""ArrowUp,ArrowLeft"":26,""ArrowUp,ArrowRight"":10,""ArrowDown,ArrowLeft"":5,""ArrowDown,ArrowRight"":17}","true","ArrowUp,ArrowLeft","false","","","revaluation","1","36","","",""
"html-keyboard-response","151","718871","0.0-4.0-2.0-1.18","spark_pilot_2","7446","4","19","Male","","","","","","","null","<div style=""font-size:60px;"">+</div>","null","fixation","","","","","","","","","","","37","","",""
"revaluation","152","724903","0.0-4.0-2.0-0.19","spark_pilot_2","7446","4","19","Male","","","false","","","","[491.30000001192093,332.79999999701977]","./assets/img/ocean/memory/4.jpg","[""ArrowUp"",""ArrowLeft""]","value training","ocean","26","{""ArrowUp,ArrowLeft"":26,""ArrowUp,ArrowRight"":10,""ArrowDown,ArrowLeft"":5,""ArrowDown,ArrowRight"":17}","true","ArrowUp,ArrowLeft","false","","","revaluation","1","38","","",""
"html-keyboard-response","153","725414","0.0-4.0-2.0-1.19","spark_pilot_2","7446","4","19","Male","","","","","","","null","<div style=""font-size:60px;"">+</div>","null","fixation","","","","","","","","","","","39","","",""
"revaluation","154","729436","0.0-4.0-2.0-0.20","spark_pilot_2","7446","4","19","Male","","","false","","","","[591.9000000059605]","./assets/img/ocean/catch/3.jpg","[""spaceBar""]","value training","ocean","0","{""ArrowUp,ArrowLeft"":26,""ArrowUp,ArrowRight"":10,""ArrowDown,ArrowLeft"":5,""ArrowDown,ArrowRight"":17}","true","spaceBar","true","","","revaluation","1","40","","",""
"html-keyboard-response","155","729942","0.0-4.0-2.0-1.20","spark_pilot_2","7446","4","19","Male","","","","","","","null","<div style=""font-size:60px;"">+</div>","null","fixation","","","","","","","","","","","41","","",""
"revaluation","156","735975","0.0-4.0-2.0-0.21","spark_pilot_2","7446","4","19","Male","","","false","","","","[574.5,360.5]","./assets/img/ocean/memory/40.jpg","[""ArrowUp"",""ArrowLeft""]","value training","ocean","26","{""ArrowUp,ArrowLeft"":26,""ArrowUp,ArrowRight"":10,""ArrowDown,ArrowLeft"":5,""ArrowDown,ArrowRight"":17}","true","ArrowUp,ArrowLeft","false","","","revaluation","1","42","","",""
"html-keyboard-response","157","736486","0.0-4.0-2.0-1.21","spark_pilot_2","7446","4","19","Male","","","","","","","null","<div style=""font-size:60px;"">+</div>","null","fixation","","","","","","","","","","","43","","",""
"revaluation","158","740508","0.0-4.0-2.0-0.22","spark_pilot_2","7446","4","19","Male","","","false","","","","[754.2999999970198]","./assets/img/ocean/catch/2.jpg","[""spaceBar""]","value training","ocean","0","{""ArrowUp,ArrowLeft"":26,""ArrowUp,ArrowRight"":10,""ArrowDown,ArrowLeft"":5,""ArrowDown,ArrowRight"":17}","true","spaceBar","true","","","revaluation","1","44","","",""
"html-keyboard-response","159","741014","0.0-4.0-2.0-1.22","spark_pilot_2","7446","4","19","Male","","","","","","","null","<div style=""font-size:60px;"">+</div>","null","fixation","","","","","","","","","","","45","","",""
"revaluation","160","747046","0.0-4.0-2.0-0.23","spark_pilot_2","7446","4","19","Male","","","false","","","","[743.1000000089407,352.8999999910593]","./assets/img/ocean/memory/39.jpg","[""ArrowUp"",""ArrowLeft""]","value training","ocean","26","{""ArrowUp,ArrowLeft"":26,""ArrowUp,ArrowRight"":10,""ArrowDown,ArrowLeft"":5,""ArrowDown,ArrowRight"":17}","true","ArrowUp,ArrowLeft","false","","","revaluation","1","46","","",""
"html-keyboard-response","161","747558","0.0-4.0-2.0-1.23","spark_pilot_2","7446","4","19","Male","","","","","","","null","<div style=""font-size:60px;"">+</div>","null","fixation","","","","","","","","","","","47","","",""
"revaluation","162","753582","0.0-4.0-2.0-0.24","spark_pilot_2","7446","4","19","Male","","","false","","","","[844.6000000089407,355]","./assets/img/ocean/memory/16.jpg","[""ArrowUp"",""ArrowLeft""]","value training","ocean","26","{""ArrowUp,ArrowLeft"":26,""ArrowUp,ArrowRight"":10,""ArrowDown,ArrowLeft"":5,""ArrowDown,ArrowRight"":17}","true","ArrowUp,ArrowLeft","false","","","revaluation","1","48","","",""
"html-keyboard-response","163","754091","0.0-4.0-2.0-1.24","spark_pilot_2","7446","4","19","Male","","","","","","","null","<div style=""font-size:60px;"">+</div>","null","fixation","","","","","","","","","","","49","","",""
"revaluation","164","760118","0.0-4.0-2.0-0.25","spark_pilot_2","7446","4","19","Male","","","false","","","","[488,254.20000000298023]","./assets/img/ocean/memory/4.jpg","[""ArrowUp"",""ArrowLeft""]","value training","ocean","26","{""ArrowUp,ArrowLeft"":26,""ArrowUp,ArrowRight"":10,""ArrowDown,ArrowLeft"":5,""ArrowDown,ArrowRight"":17}","true","ArrowUp,ArrowLeft","false","","","revaluation","1","50","","",""
"html-keyboard-response","165","760629","0.0-4.0-2.0-1.25","spark_pilot_2","7446","4","19","Male","","","","","","","null","<div style=""font-size:60px;"">+</div>","null","fixation","","","","","","","","","","","51","","",""
"revaluation","166","766651","0.0-4.0-2.0-0.26","spark_pilot_2","7446","4","19","Male","","","false","","","","[818.8999999910593,775.7000000029802]","./assets/img/ocean/memory/27.jpg","[""ArrowUp"",""ArrowLeft""]","value training","ocean","26","{""ArrowUp,ArrowLeft"":26,""ArrowUp,ArrowRight"":10,""ArrowDown,ArrowLeft"":5,""ArrowDown,ArrowRight"":17}","true","ArrowUp,ArrowLeft","false","","","revaluation","1","52","","",""
"html-keyboard-response","167","767157","0.0-4.0-2.0-1.26","spark_pilot_2","7446","4","19","Male","","","","","","","null","<div style=""font-size:60px;"">+</div>","null","fixation","","","","","","","","","","","53","","",""
"revaluation","168","771179","0.0-4.0-2.0-0.27","spark_pilot_2","7446","4","19","Male","","","false","","","","[628.3999999910593]","./assets/img/ocean/catch/5.jpg","[""ArrowUp""]","value training","ocean","-10","{""ArrowUp,ArrowLeft"":26,""ArrowUp,ArrowRight"":10,""ArrowDown,ArrowLeft"":5,""ArrowDown,ArrowRight"":17}","false","ArrowUp","true","","","revaluation","1","54","","",""
"html-keyboard-response","169","771685","0.0-4.0-2.0-1.27","spark_pilot_2","7446","4","19","Male","","","","","","","null","<div style=""font-size:60px;"">+</div>","null","fixation","","","","","","","","","","","55","","",""
"revaluation","170","777717","0.0-4.0-2.0-0.28","spark_pilot_2","7446","4","19","Male","","","false","","","","[476.5,364.69999998807907]","./assets/img/ocean/memory/3.jpg","[""ArrowUp"",""ArrowLeft""]","value training","ocean","26","{""ArrowUp,ArrowLeft"":26,""ArrowUp,ArrowRight"":10,""ArrowDown,ArrowLeft"":5,""ArrowDown,ArrowRight"":17}","true","ArrowUp,ArrowLeft","false","","","revaluation","1","56","","",""
"html-keyboard-response","171","778229","0.0-4.0-2.0-1.28","spark_pilot_2","7446","4","19","Male","","","","","","","null","<div style=""font-size:60px;"">+</div>","null","fixation","","","","","","","","","","","57","","",""
"revaluation","172","784261","0.0-4.0-2.0-0.29","spark_pilot_2","7446","4","19","Male","","","false","","","","[797.5999999940395,393.69999998807907]","./assets/img/ocean/memory/19.jpg","[""ArrowUp"",""ArrowLeft""]","value training","ocean","26","{""ArrowUp,ArrowLeft"":26,""ArrowUp,ArrowRight"":10,""ArrowDown,ArrowLeft"":5,""ArrowDown,ArrowRight"":17}","true","ArrowUp,ArrowLeft","false","","","revaluation","1","58","","",""
"html-keyboard-response","173","784773","0.0-4.0-2.0-1.29","spark_pilot_2","7446","4","19","Male","","","","","","","null","<div style=""font-size:60px;"">+</div>","null","fixation","","","","","","","","","","","59","","",""
"revaluation","174","790805","0.0-4.0-2.0-0.30","spark_pilot_2","7446","4","19","Male","","","false","","","","[465.40000000596046,453.09999999403954]","./assets/img/ocean/memory/36.jpg","[""ArrowUp"",""ArrowLeft""]","value training","ocean","26","{""ArrowUp,ArrowLeft"":26,""ArrowUp,ArrowRight"":10,""ArrowDown,ArrowLeft"":5,""ArrowDown,ArrowRight"":17}","true","ArrowUp,ArrowLeft","false","","","revaluation","1","60","","",""
"html-keyboard-response","175","791316","0.0-4.0-2.0-1.30","spark_pilot_2","7446","4","19","Male","","","","","","","null","<div style=""font-size:60px;"">+</div>","null","fixation","","","","","","","","","","","61","","",""
"revaluation","176","797349","0.0-4.0-2.0-0.31","spark_pilot_2","7446","4","19","Male","","","false","","","","[611.5999999940395,559.1999999880791]","./assets/img/ocean/memory/35.jpg","[""ArrowUp"",""ArrowLeft""]","value training","ocean","26","{""ArrowUp,ArrowLeft"":26,""ArrowUp,ArrowRight"":10,""ArrowDown,ArrowLeft"":5,""ArrowDown,ArrowRight"":17}","true","ArrowUp,ArrowLeft","false","","","revaluation","1","62","","",""
"html-keyboard-response","177","797860","0.0-4.0-2.0-1.31","spark_pilot_2","7446","4","19","Male","","","","","","","null","<div style=""font-size:60px;"">+</div>","null","fixation","","","","","","","","","","","63","","",""
"revaluation","178","803893","0.0-4.0-2.0-0.32","spark_pilot_2","7446","4","19","Male","","","false","","","","[567.8000000119209,412.5]","./assets/img/ocean/memory/2.jpg","[""ArrowUp"",""ArrowLeft""]","value training","ocean","26","{""ArrowUp,ArrowLeft"":26,""ArrowUp,ArrowRight"":10,""ArrowDown,ArrowLeft"":5,""ArrowDown,ArrowRight"":17}","true","ArrowUp,ArrowLeft","false","","","revaluation","1","64","","",""
"html-keyboard-response","179","804404","0.0-4.0-2.0-1.32","spark_pilot_2","7446","4","19","Male","","","","","","","null","<div style=""font-size:60px;"">+</div>","null","fixation","","","","","","","","","","","65","","",""
"revaluation","180","810436","0.0-4.0-2.0-0.33","spark_pilot_2","7446","4","19","Male","","","false","","","","[490.5,508.29999999701977]","./assets/img/ocean/memory/35.jpg","[""ArrowUp"",""ArrowLeft""]","value training","ocean","26","{""ArrowUp,ArrowLeft"":26,""ArrowUp,ArrowRight"":10,""ArrowDown,ArrowLeft"":5,""ArrowDown,ArrowRight"":17}","true","ArrowUp,ArrowLeft","false","","","revaluation","1","66","","",""
"html-keyboard-response","181","810948","0.0-4.0-2.0-1.33","spark_pilot_2","7446","4","19","Male","","","","","","","null","<div style=""font-size:60px;"">+</div>","null","fixation","","","","","","","","","","","67","","",""
"revaluation","182","816980","0.0-4.0-2.0-0.34","spark_pilot_2","7446","4","19","Male","","","false","","","","[519,449.79999999701977]","./assets/img/ocean/memory/10.jpg","[""ArrowUp"",""ArrowLeft""]","value training","ocean","26","{""ArrowUp,ArrowLeft"":26,""ArrowUp,ArrowRight"":10,""ArrowDown,ArrowLeft"":5,""ArrowDown,ArrowRight"":17}","true","ArrowUp,ArrowLeft","false","","","revaluation","1","68","","",""
"html-keyboard-response","183","817492","0.0-4.0-2.0-1.34","spark_pilot_2","7446","4","19","Male","","","","","","","null","<div style=""font-size:60px;"">+</div>","null","fixation","","","","","","","","","","","69","","",""
"revaluation","184","823524","0.0-4.0-2.0-0.35","spark_pilot_2","7446","4","19","Male","","","false","","","","[578.7000000029802,495.70000000298023]","./assets/img/ocean/memory/13.jpg","[""ArrowUp"",""ArrowLeft""]","value training","ocean","26","{""ArrowUp,ArrowLeft"":26,""ArrowUp,ArrowRight"":10,""ArrowDown,ArrowLeft"":5,""ArrowDown,ArrowRight"":17}","true","ArrowUp,ArrowLeft","false","","","revaluation","1","70","","",""
"html-keyboard-response","185","824035","0.0-4.0-2.0-1.35","spark_pilot_2","7446","4","19","Male","","","","","","","null","<div style=""font-size:60px;"">+</div>","null","fixation","","","","","","","","","","","71","","",""
"revaluation","186","828057","0.0-4.0-2.0-0.36","spark_pilot_2","7446","4","19","Male","","","false","","","","[694.4000000059605]","./assets/img/ocean/catch/7.jpg","[""ArrowUp""]","value training","ocean","-10","{""ArrowUp,ArrowLeft"":26,""ArrowUp,ArrowRight"":10,""ArrowDown,ArrowLeft"":5,""ArrowDown,ArrowRight"":17}","false","ArrowUp","true","","","revaluation","1","72","","",""
"html-keyboard-response","187","828563","0.0-4.0-2.0-1.36","spark_pilot_2","7446","4","19","Male","","","","","","","null","<div style=""font-size:60px;"">+</div>","null","fixation","","","","","","","","","","","73","","",""
"revaluation","188","834596","0.0-4.0-2.0-0.37","spark_pilot_2","7446","4","19","Male","","","false","","","","[669,403.90000000596046]","./assets/img/ocean/memory/13.jpg","[""ArrowUp"",""ArrowLeft""]","value training","ocean","26","{""ArrowUp,ArrowLeft"":26,""ArrowUp,ArrowRight"":10,""ArrowDown,ArrowLeft"":5,""ArrowDown,ArrowRight"":17}","true","ArrowUp,ArrowLeft","false","","","revaluation","1","74","","",""
"html-keyboard-response","189","835107","0.0-4.0-2.0-1.37","spark_pilot_2","7446","4","19","Male","","","","","","","null","<div style=""font-size:60px;"">+</div>","null","fixation","","","","","","","","","","","75","","",""
"revaluation","190","841139","0.0-4.0-2.0-0.38","spark_pilot_2","7446","4","19","Male","","","false","","","","[602.2000000029802,330.90000000596046]","./assets/img/ocean/memory/18.jpg","[""ArrowUp"",""ArrowLeft""]","value training","ocean","26","{""ArrowUp,ArrowLeft"":26,""ArrowUp,ArrowRight"":10,""ArrowDown,ArrowLeft"":5,""ArrowDown,ArrowRight"":17}","true","ArrowUp,ArrowLeft","false","","","revaluation","1","76","","",""
"html-keyboard-response","191","841651","0.0-4.0-2.0-1.38","spark_pilot_2","7446","4","19","Male","","","","","","","null","<div style=""font-size:60px;"">+</div>","null","fixation","","","","","","","","","","","77","","",""
"revaluation","192","847674","0.0-4.0-2.0-0.39","spark_pilot_2","7446","4","19","Male","","","false","","","","[961.2999999970198,486.29999999701977]","./assets/img/ocean/memory/19.jpg","[""ArrowUp"",""ArrowLeft""]","value training","ocean","26","{""ArrowUp,ArrowLeft"":26,""ArrowUp,ArrowRight"":10,""ArrowDown,ArrowLeft"":5,""ArrowDown,ArrowRight"":17}","true","ArrowUp,ArrowLeft","false","","","revaluation","1","78","","",""
"html-keyboard-response","193","848184","0.0-4.0-2.0-1.39","spark_pilot_2","7446","4","19","Male","","","","","","","null","<div style=""font-size:60px;"">+</div>","null","fixation","","","","","","","","","","","79","","",""
"revaluation","194","854211","0.0-4.0-2.0-0.40","spark_pilot_2","7446","4","19","Male","","","false","","","","[476.5,365]","./assets/img/ocean/memory/9.jpg","[""ArrowUp"",""ArrowLeft""]","value training","ocean","26","{""ArrowUp,ArrowLeft"":26,""ArrowUp,ArrowRight"":10,""ArrowDown,ArrowLeft"":5,""ArrowDown,ArrowRight"":17}","true","ArrowUp,ArrowLeft","false","","","revaluation","1","80","","",""
"html-keyboard-response","195","854722","0.0-4.0-2.0-1.40","spark_pilot_2","7446","4","19","Male","","","","","","","null","<div style=""font-size:60px;"">+</div>","null","fixation","","","","","","","","","","","81","","",""
"revaluation","196","860744","0.0-4.0-2.0-0.41","spark_pilot_2","7446","4","19","Male","","","false","","","","[647.6000000089407,407.70000000298023]","./assets/img/ocean/memory/5.jpg","[""ArrowUp"",""ArrowLeft""]","value training","ocean","26","{""ArrowUp,ArrowLeft"":26,""ArrowUp,ArrowRight"":10,""ArrowDown,ArrowLeft"":5,""ArrowDown,ArrowRight"":17}","true","ArrowUp,ArrowLeft","false","","","revaluation","1","82","","",""
"html-keyboard-response","197","861250","0.0-4.0-2.0-1.41","spark_pilot_2","7446","4","19","Male","","","","","","","null","<div style=""font-size:60px;"">+</div>","null","fixation","","","","","","","","","","","83","","",""
"revaluation","198","867283","0.0-4.0-2.0-0.42","spark_pilot_2","7446","4","19","Male","","","false","","","","[639,410]","./assets/img/ocean/memory/18.jpg","[""ArrowUp"",""ArrowLeft""]","value training","ocean","26","{""ArrowUp,ArrowLeft"":26,""ArrowUp,ArrowRight"":10,""ArrowDown,ArrowLeft"":5,""ArrowDown,ArrowRight"":17}","true","ArrowUp,ArrowLeft","false","","","revaluation","1","84","","",""
"html-keyboard-response","199","867794","0.0-4.0-2.0-1.42","spark_pilot_2","7446","4","19","Male","","","","","","","null","<div style=""font-size:60px;"">+</div>","null","fixation","","","","","","","","","","","85","","",""
"revaluation","200","873826","0.0-4.0-2.0-0.43","spark_pilot_2","7446","4","19","Male","","","false","","","","[614.5,460]","./assets/img/ocean/memory/39.jpg","[""ArrowUp"",""ArrowLeft""]","value training","ocean","26","{""ArrowUp,ArrowLeft"":26,""ArrowUp,ArrowRight"":10,""ArrowDown,ArrowLeft"":5,""ArrowDown,ArrowRight"":17}","true","ArrowUp,ArrowLeft","false","","","revaluation","1","86","","",""
"html-keyboard-response","201","874338","0.0-4.0-2.0-1.43","spark_pilot_2","7446","4","19","Male","","","","","","","null","<div style=""font-size:60px;"">+</div>","null","fixation","","","","","","","","","","","87","","",""
"revaluation","202","880370","0.0-4.0-2.0-0.44","spark_pilot_2","7446","4","19","Male","","","false","","","","[1012.3000000119209,412]","./assets/img/ocean/memory/15.jpg","[""ArrowUp"",""ArrowLeft""]","value training","ocean","26","{""ArrowUp,ArrowLeft"":26,""ArrowUp,ArrowRight"":10,""ArrowDown,ArrowLeft"":5,""ArrowDown,ArrowRight"":17}","true","ArrowUp,ArrowLeft","false","","","revaluation","1","88","","",""
"html-keyboard-response","203","880881","0.0-4.0-2.0-1.44","spark_pilot_2","7446","4","19","Male","","","","","","","null","<div style=""font-size:60px;"">+</div>","null","fixation","","","","","","","","","","","89","","",""
"revaluation","204","886914","0.0-4.0-2.0-0.45","spark_pilot_2","7446","4","19","Male","","","false","","","","[619.4000000059605,455.69999998807907]","./assets/img/ocean/memory/12.jpg","[""ArrowUp"",""ArrowLeft""]","value training","ocean","26","{""ArrowUp,ArrowLeft"":26,""ArrowUp,ArrowRight"":10,""ArrowDown,ArrowLeft"":5,""ArrowDown,ArrowRight"":17}","true","ArrowUp,ArrowLeft","false","","","revaluation","1","90","","",""
"html-keyboard-response","205","887425","0.0-4.0-2.0-1.45","spark_pilot_2","7446","4","19","Male","","","","","","","null","<div style=""font-size:60px;"">+</div>","null","fixation","","","","","","","","","","","91","","",""
"revaluation","206","893457","0.0-4.0-2.0-0.46","spark_pilot_2","7446","4","19","Male","","","false","","","","[891.9000000059605,393.3999999910593]","./assets/img/ocean/memory/15.jpg","[""ArrowUp"",""ArrowLeft""]","value training","ocean","26","{""ArrowUp,ArrowLeft"":26,""ArrowUp,ArrowRight"":10,""ArrowDown,ArrowLeft"":5,""ArrowDown,ArrowRight"":17}","true","ArrowUp,ArrowLeft","false","","","revaluation","1","92","","",""
"html-keyboard-response","207","893969","0.0-4.0-2.0-1.46","spark_pilot_2","7446","4","19","Male","","","","","","","null","<div style=""font-size:60px;"">+</div>","null","fixation","","","","","","","","","","","93","","",""
"revaluation","208","900002","0.0-4.0-2.0-0.47","spark_pilot_2","7446","4","19","Male","","","false","","","","[637.5,312.69999998807907]","./assets/img/ocean/memory/8.jpg","[""ArrowUp"",""ArrowLeft""]","value training","ocean","26","{""ArrowUp,ArrowLeft"":26,""ArrowUp,ArrowRight"":10,""ArrowDown,ArrowLeft"":5,""ArrowDown,ArrowRight"":17}","true","ArrowUp,ArrowLeft","false","","","revaluation","1","94","","",""
"html-keyboard-response","209","900513","0.0-4.0-2.0-1.47","spark_pilot_2","7446","4","19","Male","","","","","","","null","<div style=""font-size:60px;"">+</div>","null","fixation","","","","","","","","","","","95","","",""
"revaluation","210","906545","0.0-4.0-2.0-0.48","spark_pilot_2","7446","4","19","Male","","","false","","","","[593.1000000089407,287.6000000089407]","./assets/img/ocean/memory/1.jpg","[""ArrowUp"",""ArrowLeft""]","value training","ocean","26","{""ArrowUp,ArrowLeft"":26,""ArrowUp,ArrowRight"":10,""ArrowDown,ArrowLeft"":5,""ArrowDown,ArrowRight"":17}","true","ArrowUp,ArrowLeft","false","","","revaluation","1","96","","",""
"html-keyboard-response","211","907057","0.0-4.0-2.0-1.48","spark_pilot_2","7446","4","19","Male","","","","","","","null","<div style=""font-size:60px;"">+</div>","null","fixation","","","","","","","","","","","97","","",""
"revaluation","212","913089","0.0-4.0-2.0-0.49","spark_pilot_2","7446","4","19","Male","","","false","","","","[540.7000000029802,438.09999999403954]","./assets/img/ocean/memory/9.jpg","[""ArrowUp"",""ArrowLeft""]","value training","ocean","26","{""ArrowUp,ArrowLeft"":26,""ArrowUp,ArrowRight"":10,""ArrowDown,ArrowLeft"":5,""ArrowDown,ArrowRight"":17}","true","ArrowUp,ArrowLeft","false","","","revaluation","1","98","","",""
"html-keyboard-response","213","913600","0.0-4.0-2.0-1.49","spark_pilot_2","7446","4","19","Male","","","","","","","null","<div style=""font-size:60px;"">+</div>","null","fixation","","","","","","","","","","","99","","",""
"learning-instructions","214","927626","0.0-4.0-3.0-0.0","spark_pilot_2","7446","4","19","Male","","","","","","","616.2000000029802","<p> Now, you will travel with a friend who will choose whether you go up or down first. </p>
            <p> On these turns, you will just see the animal that they found. You will still get to choose which chest to search for treasure.</p>","","instructions","","","","","","","","","","","","","",""
"revaluation","215","931646","0.0-4.0-4.0-0.0","spark_pilot_2","7446","4","19","Male","","","false","","","","[1141.0999999940395]","./assets/img/ocean/animals/octopus.jpg","[""ArrowLeft""]","revaluation","ocean","2","{""ArrowUp,ArrowLeft"":2,""ArrowUp,ArrowRight"":11,""ArrowDown,ArrowLeft"":8,""ArrowDown,ArrowRight"":27}","false","ArrowUp,ArrowLeft","","","","revaluation","1","0","","",""
"html-keyboard-response","216","932156","0.0-4.0-4.0-1.0","spark_pilot_2","7446","4","19","Male","","","","","","","null","<div style=""font-size:60px;"">+</div>","null","fixation","","","","","","","","","","","1","","",""
"revaluation","217","936177","0.0-4.0-4.0-0.1","spark_pilot_2","7446","4","19","Male","","","false","","","","[601.6000000089407]","./assets/img/ocean/animals/seahorse.jpg","[""ArrowRight""]","revaluation","ocean","27","{""ArrowUp,ArrowLeft"":2,""ArrowUp,ArrowRight"":11,""ArrowDown,ArrowLeft"":8,""ArrowDown,ArrowRight"":27}","true","ArrowDown,ArrowRight","","","","revaluation","1","2","","",""
"html-keyboard-response","218","936684","0.0-4.0-4.0-1.1","spark_pilot_2","7446","4","19","Male","","","","","","","null","<div style=""font-size:60px;"">+</div>","null","fixation","","","","","","","","","","","3","","",""
"revaluation","219","940701","0.0-4.0-4.0-0.2","spark_pilot_2","7446","4","19","Male","","","false","","","","[771]","./assets/img/ocean/animals/octopus.jpg","[""ArrowRight""]","revaluation","ocean","11","{""ArrowUp,ArrowLeft"":2,""ArrowUp,ArrowRight"":11,""ArrowDown,ArrowLeft"":8,""ArrowDown,ArrowRight"":27}","true","ArrowUp,ArrowRight","","","","revaluation","1","4","","",""
"html-keyboard-response","220","941209","0.0-4.0-4.0-1.2","spark_pilot_2","7446","4","19","Male","","","","","","","null","<div style=""font-size:60px;"">+</div>","null","fixation","","","","","","","","","","","5","","",""
"revaluation","221","945228","0.0-4.0-4.0-0.3","spark_pilot_2","7446","4","19","Male","","","false","","","","[757.7999999970198]","./assets/img/ocean/animals/seahorse.jpg","[""ArrowLeft""]","revaluation","ocean","8","{""ArrowUp,ArrowLeft"":2,""ArrowUp,ArrowRight"":11,""ArrowDown,ArrowLeft"":8,""ArrowDown,ArrowRight"":27}","false","ArrowDown,ArrowLeft","","","","revaluation","1","6","","",""
"html-keyboard-response","222","945732","0.0-4.0-4.0-1.3","spark_pilot_2","7446","4","19","Male","","","","","","","null","<div style=""font-size:60px;"">+</div>","null","fixation","","","","","","","","","","","7","","",""
"revaluation","223","949745","0.0-4.0-4.0-0.4","spark_pilot_2","7446","4","19","Male","","","false","","","","[285.09999999403954]","./assets/img/ocean/animals/octopus.jpg","[""ArrowRight""]","revaluation","ocean","11","{""ArrowUp,ArrowLeft"":2,""ArrowUp,ArrowRight"":11,""ArrowDown,ArrowLeft"":8,""ArrowDown,ArrowRight"":27}","true","ArrowUp,ArrowRight","","","","revaluation","1","8","","",""
"html-keyboard-response","224","950255","0.0-4.0-4.0-1.4","spark_pilot_2","7446","4","19","Male","","","","","","","null","<div style=""font-size:60px;"">+</div>","null","fixation","","","","","","","","","","","9","","",""
"revaluation","225","954270","0.0-4.0-4.0-0.5","spark_pilot_2","7446","4","19","Male","","","false","","","","[119.5]","./assets/img/ocean/animals/octopus.jpg","[""ArrowRight""]","revaluation","ocean","11","{""ArrowUp,ArrowLeft"":2,""ArrowUp,ArrowRight"":11,""ArrowDown,ArrowLeft"":8,""ArrowDown,ArrowRight"":27}","true","ArrowUp,ArrowRight","","","","revaluation","1","10","","",""
"html-keyboard-response","226","954784","0.0-4.0-4.0-1.5","spark_pilot_2","7446","4","19","Male","","","","","","","null","<div style=""font-size:60px;"">+</div>","null","fixation","","","","","","","","","","","11","","",""
"revaluation","227","958806","0.0-4.0-4.0-0.6","spark_pilot_2","7446","4","19","Male","","","false","","","","[282]","./assets/img/ocean/animals/octopus.jpg","[""ArrowRight""]","revaluation","ocean","11","{""ArrowUp,ArrowLeft"":2,""ArrowUp,ArrowRight"":11,""ArrowDown,ArrowLeft"":8,""ArrowDown,ArrowRight"":27}","true","ArrowUp,ArrowRight","","","","revaluation","1","12","","",""
"html-keyboard-response","228","959317","0.0-4.0-4.0-1.6","spark_pilot_2","7446","4","19","Male","","","","","","","null","<div style=""font-size:60px;"">+</div>","null","fixation","","","","","","","","","","","13","","",""
"revaluation","229","963333","0.0-4.0-4.0-0.7","spark_pilot_2","7446","4","19","Male","","","false","","","","[261.09999999403954]","./assets/img/ocean/animals/seahorse.jpg","[""ArrowRight""]","revaluation","ocean","27","{""ArrowUp,ArrowLeft"":2,""ArrowUp,ArrowRight"":11,""ArrowDown,ArrowLeft"":8,""ArrowDown,ArrowRight"":27}","true","ArrowDown,ArrowRight","","","","revaluation","1","14","","",""
"html-keyboard-response","230","963839","0.0-4.0-4.0-1.7","spark_pilot_2","7446","4","19","Male","","","","","","","null","<div style=""font-size:60px;"">+</div>","null","fixation","","","","","","","","","","","15","","",""
"revaluation","231","967861","0.0-4.0-4.0-0.8","spark_pilot_2","7446","4","19","Male","","","false","","","","[404.8999999910593]","./assets/img/ocean/animals/seahorse.jpg","[""ArrowRight""]","revaluation","ocean","27","{""ArrowUp,ArrowLeft"":2,""ArrowUp,ArrowRight"":11,""ArrowDown,ArrowLeft"":8,""ArrowDown,ArrowRight"":27}","true","ArrowDown,ArrowRight","","","","revaluation","1","16","","",""
"html-keyboard-response","232","968364","0.0-4.0-4.0-1.8","spark_pilot_2","7446","4","19","Male","","","","","","","null","<div style=""font-size:60px;"">+</div>","null","fixation","","","","","","","","","","","17","","",""
"revaluation","233","972383","0.0-4.0-4.0-0.9","spark_pilot_2","7446","4","19","Male","","","false","","","","[224]","./assets/img/ocean/animals/seahorse.jpg","[""ArrowRight""]","revaluation","ocean","27","{""ArrowUp,ArrowLeft"":2,""ArrowUp,ArrowRight"":11,""ArrowDown,ArrowLeft"":8,""ArrowDown,ArrowRight"":27}","true","ArrowDown,ArrowRight","","","","revaluation","1","18","","",""
"html-keyboard-response","234","972895","0.0-4.0-4.0-1.9","spark_pilot_2","7446","4","19","Male","","","","","","","null","<div style=""font-size:60px;"">+</div>","null","fixation","","","","","","","","","","","19","","",""
"revaluation","235","976916","0.0-4.0-4.0-0.10","spark_pilot_2","7446","4","19","Male","","","false","","","","[420.8999999910593]","./assets/img/ocean/animals/octopus.jpg","[""ArrowLeft""]","revaluation","ocean","2","{""ArrowUp,ArrowLeft"":2,""ArrowUp,ArrowRight"":11,""ArrowDown,ArrowLeft"":8,""ArrowDown,ArrowRight"":27}","false","ArrowUp,ArrowLeft","","","","revaluation","1","20","","",""
"html-keyboard-response","236","977423","0.0-4.0-4.0-1.10","spark_pilot_2","7446","4","19","Male","","","","","","","null","<div style=""font-size:60px;"">+</div>","null","fixation","","","","","","","","","","","21","","",""
"revaluation","237","981444","0.0-4.0-4.0-0.11","spark_pilot_2","7446","4","19","Male","","","false","","","","[197.5]","./assets/img/ocean/animals/octopus.jpg","[""ArrowRight""]","revaluation","ocean","11","{""ArrowUp,ArrowLeft"":2,""ArrowUp,ArrowRight"":11,""ArrowDown,ArrowLeft"":8,""ArrowDown,ArrowRight"":27}","true","ArrowUp,ArrowRight","","","","revaluation","1","22","","",""
"html-keyboard-response","238","981950","0.0-4.0-4.0-1.11","spark_pilot_2","7446","4","19","Male","","","","","","","null","<div style=""font-size:60px;"">+</div>","null","fixation","","","","","","","","","","","23","","",""
"revaluation","239","985972","0.0-4.0-4.0-0.12","spark_pilot_2","7446","4","19","Male","","","false","","","","[86.5]","./assets/img/ocean/animals/seahorse.jpg","[""ArrowRight""]","revaluation","ocean","27","{""ArrowUp,ArrowLeft"":2,""ArrowUp,ArrowRight"":11,""ArrowDown,ArrowLeft"":8,""ArrowDown,ArrowRight"":27}","true","ArrowDown,ArrowRight","","","","revaluation","1","24","","",""
"html-keyboard-response","240","986478","0.0-4.0-4.0-1.12","spark_pilot_2","7446","4","19","Male","","","","","","","null","<div style=""font-size:60px;"">+</div>","null","fixation","","","","","","","","","","","25","","",""
"revaluation","241","990500","0.0-4.0-4.0-0.13","spark_pilot_2","7446","4","19","Male","","","false","","","","[99.5]","./assets/img/ocean/animals/octopus.jpg","[""ArrowRight""]","revaluation","ocean","11","{""ArrowUp,ArrowLeft"":2,""ArrowUp,ArrowRight"":11,""ArrowDown,ArrowLeft"":8,""ArrowDown,ArrowRight"":27}","true","ArrowUp,ArrowRight","","","","revaluation","1","26","","",""
"html-keyboard-response","242","991002","0.0-4.0-4.0-1.13","spark_pilot_2","7446","4","19","Male","","","","","","","null","<div style=""font-size:60px;"">+</div>","null","fixation","","","","","","","","","","","27","","",""
"revaluation","243","995023","0.0-4.0-4.0-0.14","spark_pilot_2","7446","4","19","Male","","","false","","","","[241.70000000298023]","./assets/img/ocean/animals/seahorse.jpg","[""ArrowRight""]","revaluation","ocean","27","{""ArrowUp,ArrowLeft"":2,""ArrowUp,ArrowRight"":11,""ArrowDown,ArrowLeft"":8,""ArrowDown,ArrowRight"":27}","true","ArrowDown,ArrowRight","","","","revaluation","1","28","","",""
"html-keyboard-response","244","995534","0.0-4.0-4.0-1.14","spark_pilot_2","7446","4","19","Male","","","","","","","null","<div style=""font-size:60px;"">+</div>","null","fixation","","","","","","","","","","","29","","",""
"revaluation","245","999556","0.0-4.0-4.0-0.15","spark_pilot_2","7446","4","19","Male","","","false","","","","[190.6000000089407]","./assets/img/ocean/animals/octopus.jpg","[""ArrowRight""]","revaluation","ocean","11","{""ArrowUp,ArrowLeft"":2,""ArrowUp,ArrowRight"":11,""ArrowDown,ArrowLeft"":8,""ArrowDown,ArrowRight"":27}","true","ArrowUp,ArrowRight","","","","revaluation","1","30","","",""
"html-keyboard-response","246","1000062","0.0-4.0-4.0-1.15","spark_pilot_2","7446","4","19","Male","","","","","","","null","<div style=""font-size:60px;"">+</div>","null","fixation","","","","","","","","","","","31","","",""
"revaluation","247","1004084","0.0-4.0-4.0-0.16","spark_pilot_2","7446","4","19","Male","","","false","","","","[98.79999999701977]","./assets/img/ocean/animals/seahorse.jpg","[""ArrowRight""]","revaluation","ocean","27","{""ArrowUp,ArrowLeft"":2,""ArrowUp,ArrowRight"":11,""ArrowDown,ArrowLeft"":8,""ArrowDown,ArrowRight"":27}","true","ArrowDown,ArrowRight","","","","revaluation","1","32","","",""
"html-keyboard-response","248","1004590","0.0-4.0-4.0-1.16","spark_pilot_2","7446","4","19","Male","","","","","","","null","<div style=""font-size:60px;"">+</div>","null","fixation","","","","","","","","","","","33","","",""
"revaluation","249","1008606","0.0-4.0-4.0-0.17","spark_pilot_2","7446","4","19","Male","","","false","","","","[189.79999999701977]","./assets/img/ocean/animals/seahorse.jpg","[""ArrowRight""]","revaluation","ocean","27","{""ArrowUp,ArrowLeft"":2,""ArrowUp,ArrowRight"":11,""ArrowDown,ArrowLeft"":8,""ArrowDown,ArrowRight"":27}","true","ArrowDown,ArrowRight","","","","revaluation","1","34","","",""
"html-keyboard-response","250","1009118","0.0-4.0-4.0-1.17","spark_pilot_2","7446","4","19","Male","","","","","","","null","<div style=""font-size:60px;"">+</div>","null","fixation","","","","","","","","","","","35","","",""
"learning-instructions","251","1021675","0.0-4.0-5.0-0.0","spark_pilot_2","7446","4","19","Male","","","","","","","748.4000000059605","<p> Time to play the dot game! </p>
            <p> For one minute, click the red dots on the following screen as they appear. </p>
            <p><b> Don't look away, as you will earn bonus for clicking dots</b>. </p>","","instructions","","","","","","","","","","","","","",""
"revaluation","252","1081684","0.0-4.0-6.0-0.0","spark_pilot_2","7446","4","19","Male","","","","","","","[75,75,75,95,55,55,63]","","","rest","","70","","","","","0","60000","","","","","",""
"learning-instructions","253","1089092","0.0-4.0-7.0-0.0","spark_pilot_2","7446","4","19","Male","","","","","","","1061.4000000059605","<p> You have almost finished this part of the game! </p>
            <p> We are going to ask you to make a few more choices. </p>","","instructions","","","","","","","","","","","","","",""
"learning-instructions","254","1103461","0.0-4.0-7.0-0.1","spark_pilot_2","7446","4","19","Male","","","","","","","396.5","<p> First, you need to decide whether to go up or down. When you see each picture, use the arrow keys to make your choice. </p>
            <p><b>You will not see which animal you found, but try to get to the one that will give you the most treasure.</b></p>","","instructions","","","","","","","","","","","","","",""
"revaluation","255","1103959","0.0-4.0-8.0-0.0","spark_pilot_2","7446","4","19","Male","","","false","","","","[494.29999999701977]","./assets/img/ocean/test/2.jpg","[""ArrowUp""]","first stage test","ocean","0","{""ArrowUp,ArrowLeft"":2,""ArrowUp,ArrowRight"":11,""ArrowDown,ArrowLeft"":8,""ArrowDown,ArrowRight"":27}","false","ArrowUp","false","","","revaluation","1","","","",""
"html-keyboard-response","256","1104464","0.0-4.0-8.0-1.0","spark_pilot_2","7446","4","19","Male","","","","","","","null","<div style=""font-size:60px;"">+</div>","null","fixation","","","","","","","","","","","","","",""
"revaluation","257","1104748","0.0-4.0-8.0-0.1","spark_pilot_2","7446","4","19","Male","","","false","","","","[280.20000000298023]","./assets/img/ocean/test/3.jpg","[""ArrowUp""]","first stage test","ocean","0","{""ArrowUp,ArrowLeft"":2,""ArrowUp,ArrowRight"":11,""ArrowDown,ArrowLeft"":8,""ArrowDown,ArrowRight"":27}","false","ArrowUp","false","","","revaluation","1","","","",""
"html-keyboard-response","258","1105259","0.0-4.0-8.0-1.1","spark_pilot_2","7446","4","19","Male","","","","","","","null","<div style=""font-size:60px;"">+</div>","null","fixation","","","","","","","","","","","","","",""
"revaluation","259","1105490","0.0-4.0-8.0-0.2","spark_pilot_2","7446","4","19","Male","","","false","","","","[226.59999999403954]","./assets/img/ocean/test/0.jpg","[""ArrowUp""]","first stage test","ocean","0","{""ArrowUp,ArrowLeft"":2,""ArrowUp,ArrowRight"":11,""ArrowDown,ArrowLeft"":8,""ArrowDown,ArrowRight"":27}","false","ArrowUp","false","","","revaluation","1","","","",""
"html-keyboard-response","260","1105995","0.0-4.0-8.0-1.2","spark_pilot_2","7446","4","19","Male","","","","","","","null","<div style=""font-size:60px;"">+</div>","null","fixation","","","","","","","","","","","","","",""
"revaluation","261","1106287","0.0-4.0-8.0-0.3","spark_pilot_2","7446","4","19","Male","","","false","","","","[287]","./assets/img/ocean/test/1.jpg","[""ArrowUp""]","first stage test","ocean","0","{""ArrowUp,ArrowLeft"":2,""ArrowUp,ArrowRight"":11,""ArrowDown,ArrowLeft"":8,""ArrowDown,ArrowRight"":27}","false","ArrowUp","false","","","revaluation","1","","","",""
"html-keyboard-response","262","1106795","0.0-4.0-8.0-1.3","spark_pilot_2","7446","4","19","Male","","","","","","","null","<div style=""font-size:60px;"">+</div>","null","fixation","","","","","","","","","","","","","",""
"learning-instructions","263","1118709","0.0-4.0-9.0-0.0","spark_pilot_2","7446","4","19","Male","","","","","","","572.5","<p> Now you will see the animals again and can search their chests for treasure. </p>
            <p> This time, you will not see how much treasure you earned, but you will earn more bonus money for making better choices. </p>","","instructions","","","","","","","","","","","","","",""
"revaluation","264","1118990","0.0-4.0-10.0-0.0","spark_pilot_2","7446","4","19","Male","","","false","","","","[278.1000000089407]","./assets/img/ocean/animals/octopus.jpg","[""ArrowRight""]","second stage test","ocean","0","{""ArrowUp,ArrowLeft"":2,""ArrowUp,ArrowRight"":11,""ArrowDown,ArrowLeft"":8,""ArrowDown,ArrowRight"":27}","true","ArrowUp,ArrowRight","","","","revaluation","1","","","",""
"html-keyboard-response","265","1119499","0.0-4.0-10.0-1.0","spark_pilot_2","7446","4","19","Male","","","","","","","null","<div style=""font-size:60px;"">+</div>","null","fixation","","","","","","","","","","","","","",""
"revaluation","266","1119727","0.0-4.0-10.0-0.1","spark_pilot_2","7446","4","19","Male","","","false","","","","[223.59999999403954]","./assets/img/ocean/animals/octopus.jpg","[""ArrowRight""]","second stage test","ocean","0","{""ArrowUp,ArrowLeft"":2,""ArrowUp,ArrowRight"":11,""ArrowDown,ArrowLeft"":8,""ArrowDown,ArrowRight"":27}","true","ArrowUp,ArrowRight","","","","revaluation","1","","","",""
"html-keyboard-response","267","1120235","0.0-4.0-10.0-1.1","spark_pilot_2","7446","4","19","Male","","","","","","","null","<div style=""font-size:60px;"">+</div>","null","fixation","","","","","","","","","","","","","",""
"revaluation","268","1120352","0.0-4.0-10.0-0.2","spark_pilot_2","7446","4","19","Male","","","false","","","","[112.6000000089407]","./assets/img/ocean/animals/octopus.jpg","[""ArrowRight""]","second stage test","ocean","0","{""ArrowUp,ArrowLeft"":2,""ArrowUp,ArrowRight"":11,""ArrowDown,ArrowLeft"":8,""ArrowDown,ArrowRight"":27}","true","ArrowUp,ArrowRight","","","","revaluation","1","","","",""
"html-keyboard-response","269","1120856","0.0-4.0-10.0-1.2","spark_pilot_2","7446","4","19","Male","","","","","","","null","<div style=""font-size:60px;"">+</div>","null","fixation","","","","","","","","","","","","","",""
"revaluation","270","1121007","0.0-4.0-10.0-0.3","spark_pilot_2","7446","4","19","Male","","","false","","","","[146.20000000298023]","./assets/img/ocean/animals/octopus.jpg","[""ArrowRight""]","second stage test","ocean","0","{""ArrowUp,ArrowLeft"":2,""ArrowUp,ArrowRight"":11,""ArrowDown,ArrowLeft"":8,""ArrowDown,ArrowRight"":27}","true","ArrowUp,ArrowRight","","","","revaluation","1","","","",""
"html-keyboard-response","271","1121511","0.0-4.0-10.0-1.3","spark_pilot_2","7446","4","19","Male","","","","","","","null","<div style=""font-size:60px;"">+</div>","null","fixation","","","","","","","","","","","","","",""
"revaluation","272","1121845","0.0-4.0-10.0-0.4","spark_pilot_2","7446","4","19","Male","","","false","","","","[330.09999999403954]","./assets/img/ocean/animals/seahorse.jpg","[""ArrowRight""]","second stage test","ocean","0","{""ArrowUp,ArrowLeft"":2,""ArrowUp,ArrowRight"":11,""ArrowDown,ArrowLeft"":8,""ArrowDown,ArrowRight"":27}","true","ArrowDown,ArrowRight","","","","revaluation","1","","","",""
"html-keyboard-response","273","1122355","0.0-4.0-10.0-1.4","spark_pilot_2","7446","4","19","Male","","","","","","","null","<div style=""font-size:60px;"">+</div>","null","fixation","","","","","","","","","","","","","",""
"revaluation","274","1122525","0.0-4.0-10.0-0.5","spark_pilot_2","7446","4","19","Male","","","false","","","","[166.09999999403954]","./assets/img/ocean/animals/seahorse.jpg","[""ArrowRight""]","second stage test","ocean","0","{""ArrowUp,ArrowLeft"":2,""ArrowUp,ArrowRight"":11,""ArrowDown,ArrowLeft"":8,""ArrowDown,ArrowRight"":27}","true","ArrowDown,ArrowRight","","","","revaluation","1","","","",""
"html-keyboard-response","275","1123031","0.0-4.0-10.0-1.5","spark_pilot_2","7446","4","19","Male","","","","","","","null","<div style=""font-size:60px;"">+</div>","null","fixation","","","","","","","","","","","","","",""
"revaluation","276","1123319","0.0-4.0-10.0-0.6","spark_pilot_2","7446","4","19","Male","","","false","","","","[283.69999998807907]","./assets/img/ocean/animals/seahorse.jpg","[""ArrowRight""]","second stage test","ocean","0","{""ArrowUp,ArrowLeft"":2,""ArrowUp,ArrowRight"":11,""ArrowDown,ArrowLeft"":8,""ArrowDown,ArrowRight"":27}","true","ArrowDown,ArrowRight","","","","revaluation","1","","","",""
"html-keyboard-response","277","1123823","0.0-4.0-10.0-1.6","spark_pilot_2","7446","4","19","Male","","","","","","","null","<div style=""font-size:60px;"">+</div>","null","fixation","","","","","","","","","","","","","",""
"revaluation","278","1124117","0.0-4.0-10.0-0.7","spark_pilot_2","7446","4","19","Male","","","false","","","","[289.40000000596046]","./assets/img/ocean/animals/seahorse.jpg","[""ArrowRight""]","second stage test","ocean","0","{""ArrowUp,ArrowLeft"":2,""ArrowUp,ArrowRight"":11,""ArrowDown,ArrowLeft"":8,""ArrowDown,ArrowRight"":27}","true","ArrowDown,ArrowRight","","","","revaluation","1","","","",""
"html-keyboard-response","279","1124623","0.0-4.0-10.0-1.7","spark_pilot_2","7446","4","19","Male","","","","","","","null","<div style=""font-size:60px;"">+</div>","null","fixation","","","","","","","","","","","","","",""
"learning-instructions","280","1128100","0.0-4.0-0.1-0.2","spark_pilot_2","7446","4","19","Male","","","","","","","711.2000000029802","<p> This time you are searching for treasure in the <b>canyon</b>.</p>","","instructions","","","","","","","","","","","","","",""
"learning-instructions","281","1145838","0.0-4.0-0.1-0.3","spark_pilot_2","7446","4","19","Male","","","","","","","486.79999999701977","<p><b>New</b> animals with <b>new</b> treasure chests live here. You need to explore to discover where the animal with the best treasure chest is.</p>
                    <p> Like before, once you figure out which animal has the chest with the most treasure, you should try to get to that animal and select that chest! </p>","","instructions","","","","","","","","","","","","","",""
"learning-instructions","282","1161184","0.0-4.0-1.1-0.1","spark_pilot_2","7446","4","19","Male","","","","","","","617.2999999970198","<p> Remember, when you see a picture of the place, use the up and down keys to <b>find an animal</b>.</p>
            <p> When you encounter an animal, you should use the left and right keys to <b>select a treasure chest</b>.</p>
            <p> Don't forget to look out for the robber! </p>","","instructions","","","","","","","","","","","","","",""
"revaluation","283","1167210","0.0-4.0-2.1-0.50","spark_pilot_2","7446","4","19","Male","","","false","","","","[493.70000000298023,289.5]","./assets/img/canyon/memory/4.jpg","[""ArrowUp"",""ArrowRight""]","value training","canyon","10","{""ArrowUp,ArrowLeft"":23,""ArrowUp,ArrowRight"":10,""ArrowDown,ArrowLeft"":8,""ArrowDown,ArrowRight"":30}","false","ArrowUp,ArrowRight","false","","","original","2","0","","",""
"html-keyboard-response","284","1167722","0.0-4.0-2.1-1.50","spark_pilot_2","7446","4","19","Male","","","","","","","null","<div style=""font-size:60px;"">+</div>","null","fixation","","","","","","","","","","","1","","",""
"revaluation","285","1173754","0.0-4.0-2.1-0.51","spark_pilot_2","7446","4","19","Male","","","false","","","","[755.2999999970198,369.09999999403954]","./assets/img/canyon/memory/36.jpg","[""ArrowUp"",""ArrowLeft""]","value training","canyon","23","{""ArrowUp,ArrowLeft"":23,""ArrowUp,ArrowRight"":10,""ArrowDown,ArrowLeft"":8,""ArrowDown,ArrowRight"":30}","false","ArrowUp,ArrowLeft","false","","","original","2","2","","",""
"html-keyboard-response","286","1174265","0.0-4.0-2.1-1.51","spark_pilot_2","7446","4","19","Male","","","","","","","null","<div style=""font-size:60px;"">+</div>","null","fixation","","","","","","","","","","","3","","",""
"revaluation","287","1178286","0.0-4.0-2.1-0.52","spark_pilot_2","7446","4","19","Male","","","false","","","","[869.8999999910593]","./assets/img/canyon/catch/1.jpg","[""spaceBar""]","value training","canyon","0","{""ArrowUp,ArrowLeft"":23,""ArrowUp,ArrowRight"":10,""ArrowDown,ArrowLeft"":8,""ArrowDown,ArrowRight"":30}","true","spaceBar","true","","","original","2","4","","",""
"html-keyboard-response","288","1178789","0.0-4.0-2.1-1.52","spark_pilot_2","7446","4","19","Male","","","","","","","null","<div style=""font-size:60px;"">+</div>","null","fixation","","","","","","","","","","","5","","",""
"revaluation","289","1184817","0.0-4.0-2.1-0.53","spark_pilot_2","7446","4","19","Male","","","false","","","","[276.3999999910593,305.30000001192093]","./assets/img/canyon/memory/11.jpg","[""ArrowDown"",""ArrowLeft""]","value training","canyon","8","{""ArrowUp,ArrowLeft"":23,""ArrowUp,ArrowRight"":10,""ArrowDown,ArrowLeft"":8,""ArrowDown,ArrowRight"":30}","false","ArrowDown,ArrowLeft","false","","","original","2","6","","",""
"html-keyboard-response","290","1185329","0.0-4.0-2.1-1.53","spark_pilot_2","7446","4","19","Male","","","","","","","null","<div style=""font-size:60px;"">+</div>","null","fixation","","","","","","","","","","","7","","",""
"revaluation","291","1191361","0.0-4.0-2.1-0.54","spark_pilot_2","7446","4","19","Male","","","false","","","","[1242.5,417.79999999701977]","./assets/img/canyon/memory/4.jpg","[""ArrowDown"",""ArrowRight""]","value training","canyon","30","{""ArrowUp,ArrowLeft"":23,""ArrowUp,ArrowRight"":10,""ArrowDown,ArrowLeft"":8,""ArrowDown,ArrowRight"":30}","true","ArrowDown,ArrowRight","false","","","original","2","8","","",""
"html-keyboard-response","292","1191872","0.0-4.0-2.1-1.54","spark_pilot_2","7446","4","19","Male","","","","","","","null","<div style=""font-size:60px;"">+</div>","null","fixation","","","","","","","","","","","9","","",""
"revaluation","293","1197905","0.0-4.0-2.1-0.55","spark_pilot_2","7446","4","19","Male","","","false","","","","[572.2999999970198,163.3999999910593]","./assets/img/canyon/memory/3.jpg","[""ArrowDown"",""ArrowRight""]","value training","canyon","30","{""ArrowUp,ArrowLeft"":23,""ArrowUp,ArrowRight"":10,""ArrowDown,ArrowLeft"":8,""ArrowDown,ArrowRight"":30}","true","ArrowDown,ArrowRight","false","","","original","2","10","","",""
"html-keyboard-response","294","1198416","0.0-4.0-2.1-1.55","spark_pilot_2","7446","4","19","Male","","","","","","","null","<div style=""font-size:60px;"">+</div>","null","fixation","","","","","","","","","","","11","","",""
"revaluation","295","1204448","0.0-4.0-2.1-0.56","spark_pilot_2","7446","4","19","Male","","","false","","","","[525,382.29999999701977]","./assets/img/canyon/memory/10.jpg","[""ArrowDown"",""ArrowRight""]","value training","canyon","30","{""ArrowUp,ArrowLeft"":23,""ArrowUp,ArrowRight"":10,""ArrowDown,ArrowLeft"":8,""ArrowDown,ArrowRight"":30}","true","ArrowDown,ArrowRight","false","","","original","2","12","","",""
"html-keyboard-response","296","1204960","0.0-4.0-2.1-1.56","spark_pilot_2","7446","4","19","Male","","","","","","","null","<div style=""font-size:60px;"">+</div>","null","fixation","","","","","","","","","","","13","","",""
"revaluation","297","1210992","0.0-4.0-2.1-0.57","spark_pilot_2","7446","4","19","Male","","","false","","","","[420.79999999701977,271.29999999701977]","./assets/img/canyon/memory/13.jpg","[""ArrowDown"",""ArrowRight""]","value training","canyon","30","{""ArrowUp,ArrowLeft"":23,""ArrowUp,ArrowRight"":10,""ArrowDown,ArrowLeft"":8,""ArrowDown,ArrowRight"":30}","true","ArrowDown,ArrowRight","false","","","original","2","14","","",""
"html-keyboard-response","298","1211504","0.0-4.0-2.1-1.57","spark_pilot_2","7446","4","19","Male","","","","","","","null","<div style=""font-size:60px;"">+</div>","null","fixation","","","","","","","","","","","15","","",""
"revaluation","299","1217536","0.0-4.0-2.1-0.58","spark_pilot_2","7446","4","19","Male","","","false","","","","[332.90000000596046,1920]","./assets/img/canyon/memory/1.jpg","[""ArrowDown"",""ArrowRight""]","value training","canyon","30","{""ArrowUp,ArrowLeft"":23,""ArrowUp,ArrowRight"":10,""ArrowDown,ArrowLeft"":8,""ArrowDown,ArrowRight"":30}","true","ArrowDown,ArrowRight","false","","","original","2","16","","",""
"html-keyboard-response","300","1218047","0.0-4.0-2.1-1.58","spark_pilot_2","7446","4","19","Male","","","","","","","null","<div style=""font-size:60px;"">+</div>","null","fixation","","","","","","","","","","","17","","",""
"revaluation","301","1222069","0.0-4.0-2.1-0.59","spark_pilot_2","7446","4","19","Male","","","false","","","","[263.20000000298023]","./assets/img/canyon/catch/0.jpg","[""spaceBar""]","value training","canyon","0","{""ArrowUp,ArrowLeft"":23,""ArrowUp,ArrowRight"":10,""ArrowDown,ArrowLeft"":8,""ArrowDown,ArrowRight"":30}","true","spaceBar","true","","","original","2","18","","",""
"html-keyboard-response","302","1222575","0.0-4.0-2.1-1.59","spark_pilot_2","7446","4","19","Male","","","","","","","null","<div style=""font-size:60px;"">+</div>","null","fixation","","","","","","","","","","","19","","",""
"revaluation","303","1228608","0.0-4.0-2.1-0.60","spark_pilot_2","7446","4","19","Male","","","false","","","","[574.8999999910593,362.70000000298023]","./assets/img/canyon/memory/2.jpg","[""ArrowDown"",""ArrowRight""]","value training","canyon","30","{""ArrowUp,ArrowLeft"":23,""ArrowUp,ArrowRight"":10,""ArrowDown,ArrowLeft"":8,""ArrowDown,ArrowRight"":30}","true","ArrowDown,ArrowRight","false","","","original","2","20","","",""
"html-keyboard-response","304","1229119","0.0-4.0-2.1-1.60","spark_pilot_2","7446","4","19","Male","","","","","","","null","<div style=""font-size:60px;"">+</div>","null","fixation","","","","","","","","","","","21","","",""
"revaluation","305","1235151","0.0-4.0-2.1-0.61","spark_pilot_2","7446","4","19","Male","","","false","","","","[454.20000000298023,306.29999999701977]","./assets/img/canyon/memory/10.jpg","[""ArrowDown"",""ArrowRight""]","value training","canyon","30","{""ArrowUp,ArrowLeft"":23,""ArrowUp,ArrowRight"":10,""ArrowDown,ArrowLeft"":8,""ArrowDown,ArrowRight"":30}","true","ArrowDown,ArrowRight","false","","","original","2","22","","",""
"html-keyboard-response","306","1235663","0.0-4.0-2.1-1.61","spark_pilot_2","7446","4","19","Male","","","","","","","null","<div style=""font-size:60px;"">+</div>","null","fixation","","","","","","","","","","","23","","",""
"revaluation","307","1241695","0.0-4.0-2.1-0.62","spark_pilot_2","7446","4","19","Male","","","false","","","","[410.6000000089407,379.79999999701977]","./assets/img/canyon/memory/39.jpg","[""ArrowDown"",""ArrowRight""]","value training","canyon","30","{""ArrowUp,ArrowLeft"":23,""ArrowUp,ArrowRight"":10,""ArrowDown,ArrowLeft"":8,""ArrowDown,ArrowRight"":30}","true","ArrowDown,ArrowRight","false","","","original","2","24","","",""
