"trial_type","trial_index","time_elapsed","internal_node_id","task_version","subject_id","assigned_condition","age","gender","success","timeout","failed_images","failed_audio","failed_video","browser_interaction","rt","stimulus","response","task_part","environment","score","rewardMap","correct","fullState","isCatch","numberMissed","duration","condition","order","trial_num","key_press","ground_truth","bonus"
"pavlovia","0","1773","0.0-0.0","spark_pilot_2","9633","1","7","Female","","","","","","","","","","","","","","","","","","","","","","","",""
"preload","1","15304","0.0-1.0","spark_pilot_2","9633","1","7","Female","true","false","[]","[]","[]","[{""event"":""fullscreenenter"",""trial"":2,""time"":20722}]","","","","","","","","","","","","","","","","","",""
"fullscreen","2","21713","0.0-2.0","spark_pilot_2","9633","1","7","Female","true","","","","","","","","","","","","","","","","","","","","","","",""
"audio-button-response","3","29094","0.0-3.0-0.0-0.0","spark_pilot_2","9633","1","7","Female","","","","","","","7262","./assets/audio/audiotest/turtle.mp3","2","audio_test","","","","","","","","","","","","","",""
"learning-instructions","4","38734","0.0-3.0-1.0-0.0","spark_pilot_2","9633","1","7","Female","","","","","","","2650.5999999940395","<p> Welcome! Please remember to stay in fullscreen mode and don't click away from the experiment. </p>","","instructions","","","","","","","","","","","","","",""
"learning-instructions","5","48245","0.0-3.0-1.0-0.1","spark_pilot_2","9633","1","7","Female","","","","","","","1080.5","<p> Today you will be playing a game to earn treasure. </p>
            <p> At the end of the experiment, you will earn a bonus based on how much treasure you find. </p>
            <img src='./assets/img/instructions/treasure.jpg' class='instructions-image'>","","instructions","","","","","","","","","","","","","",""
"learning-instructions","6","57667","0.0-3.0-1.0-0.2","spark_pilot_2","9633","1","7","Female","","","","","","","1145.2000000029802","<p> Animals have hidden treasure in treasure chests. </p>
            <p> You need to first find an animal and then choose which of their treasure chests to search. </p>
            <img src='./assets/img/space/animals/cat.jpg' class='instructions-image'>","","instructions","","","","","","","","","","","","","",""
"learning-instructions","7","73438","0.0-3.0-1.0-0.3","spark_pilot_2","9633","1","7","Female","","","","","","","2589.0999999940395","<p> In each round, you will search for treasure in a different place. In the real game, there will be two rounds. </p>
            <p> You will begin with a separate, practice round where you will search for treasure in outer space. </p>
            <img src='./assets/img/space/0.jpg' class='instructions-image'>","","instructions","","","","","","","","","","","","","",""
"learning-instructions","8","85987","0.0-3.0-1.0-0.4","spark_pilot_2","9633","1","7","Female","","","","","","","1090.7999999970198","<p> On every turn, you will see a picture of the place that you are in, but the specific image may be different each time. </p>
            <p> For example, both of these images mean you are in outer space. </p>
            <img src='./assets/img/instructions/outerspace.jpg' class='instructions-image'>","","instructions","","","","","","","","","","","","","",""
"learning-instructions","9","95191","0.0-3.0-1.0-0.5","spark_pilot_2","9633","1","7","Female","","","","","","","1354.5","<p> You need to decide which direction to travel in. </p>
            <p> You can choose between going <b>up or down</b> by using the arrow keys. </p>
            <img src='./assets/img/instructions/updown.jpg' class='instructions-image'>","","instructions","","","","","","","","","","","","","",""
"learning-instructions","10","105333","0.0-3.0-1.0-0.6","spark_pilot_2","9633","1","7","Female","","","","","","","1315","<p> You will have <b>2 seconds</b> to make your choice. </p>
            <p> If you do not make a choice within 2 seconds, you will not find an animal or earn treasure. </p>
            <img src='./assets/img/instructions/2seconds.jpg' class='instructions-image'>","","instructions","","","","","","","","","","","","","",""
"learning-instructions","11","115220","0.0-3.0-1.0-0.7","spark_pilot_2","9633","1","7","Female","","","","","","","2836.8999999910593","<p> Let’s try practicing that now! </p>
            <p> When you see a picture of the place you are in, press the <b>up</b> key to travel up. </p>
            <img src='./assets/img/instructions/pressUp.jpg' class='instructions-image'>","","instructions","","","","","","","","","","","","","",""
"revaluation","12","119238","0.0-3.0-2.0-0.0","spark_pilot_2","9633","1","7","Female","","false","","","","","[1626.5]","./assets/img/space/0.jpg","[""ArrowUp""]","first stage practice","space","0","null","null","ArrowUp","false","","","","","","","",""
"html-keyboard-response","13","119743","0.0-3.0-2.0-1.0","spark_pilot_2","9633","1","7","Female","","","","","","","null","<div style=""font-size:60px;"">+</div>","null","fixation","","","","","","","","","","","","","",""
"revaluation","14","123759","0.0-3.0-2.0-0.1","spark_pilot_2","9633","1","7","Female","","true","","","","","[]","./assets/img/space/1.jpg","[]","first stage practice","space","-5","null","null","","false","","","","","","","",""
"html-keyboard-response","15","124264","0.0-3.0-2.0-1.1","spark_pilot_2","9633","1","7","Female","","","","","","","null","<div style=""font-size:60px;"">+</div>","null","fixation","","","","","","","","","","","","","",""
"revaluation","16","128282","0.0-3.0-2.0-0.2","spark_pilot_2","9633","1","7","Female","","false","","","","","[246]","./assets/img/space/2.jpg","[""ArrowUp""]","first stage practice","space","0","null","null","ArrowUp","false","","","","","","","",""
"html-keyboard-response","17","128792","0.0-3.0-2.0-1.2","spark_pilot_2","9633","1","7","Female","","","","","","","null","<div style=""font-size:60px;"">+</div>","null","fixation","","","","","","","","","","","","","",""
"learning-instructions","18","136334","0.0-3.0-3.0-0.0","spark_pilot_2","9633","1","7","Female","","","","","","","2827.2999999970198","<p> Great job! Now try pressing the <b>down</b> key to travel down. </p>
            <img src='./assets/img/instructions/pressDown.jpg' class='instructions-image'>","","instructions","","","","","","","","","","","","","",""
"revaluation","19","140342","0.0-3.0-4.0-0.0","spark_pilot_2","9633","1","7","Female","","false","","","","","[917.5]","./assets/img/space/3.jpg","[""ArrowDown""]","first stage practice","space","0","null","null","ArrowDown","false","","","","","","","",""
"html-keyboard-response","20","140846","0.0-3.0-4.0-1.0","spark_pilot_2","9633","1","7","Female","","","","","","","null","<div style=""font-size:60px;"">+</div>","null","fixation","","","","","","","","","","","","","",""
"revaluation","21","144866","0.0-3.0-4.0-0.1","spark_pilot_2","9633","1","7","Female","","false","","","","","[1131.5]","./assets/img/space/4.jpg","[""ArrowDown""]","first stage practice","space","0","null","null","ArrowDown","false","","","","","","","",""
"html-keyboard-response","22","145372","0.0-3.0-4.0-1.1","spark_pilot_2","9633","1","7","Female","","","","","","","null","<div style=""font-size:60px;"">+</div>","null","fixation","","","","","","","","","","","","","",""
"revaluation","23","149383","0.0-3.0-4.0-0.2","spark_pilot_2","9633","1","7","Female","","false","","","","","[1872.0999999940395]","./assets/img/space/5.jpg","[""ArrowDown""]","first stage practice","space","0","null","null","ArrowDown","false","","","","","","","",""
"html-keyboard-response","24","149884","0.0-3.0-4.0-1.2","spark_pilot_2","9633","1","7","Female","","","","","","","null","<div style=""font-size:60px;"">+</div>","null","fixation","","","","","","","","","","","","","",""
"learning-instructions","25","162689","0.0-3.0-5.0-0.0","spark_pilot_2","9633","1","7","Female","","","","","","","2927.1000000089407","<p> The animals don’t move, so the animal in the upper part of a place will stay in the upper part of a place, and the animal in the lower part of a place will stay in the lower part of a place. </p>","","instructions","","","","","","","","","","","","","",""
"learning-instructions","26","173497","0.0-3.0-5.0-0.1","spark_pilot_2","9633","1","7","Female","","","","","","","1654.9000000059605","<p> Each animal has two treasure chests for you to choose from. </p>
            <p> The amount of treasure in each chest can range from <b> 0 to 40 pieces.</b></p>","","instructions","","","","","","","","","","","","","",""
"learning-instructions","27","187814","0.0-3.0-5.0-0.2","spark_pilot_2","9633","1","7","Female","","","","","","","3102.800000011921","<p> You should decide which chest to search for treasure by using the <b>left</b> and <b>right</b> arrow keys. </p>
            <p><b> Pay attention to which animal is on the screen, as the animals have different treasure chests. </b></p>
            <img src='./assets/img/instructions/leftright.jpg' class='instructions-image'>","","instructions","","","","","","","","","","","","","",""
"learning-instructions","28","196920","0.0-3.0-5.0-0.3","spark_pilot_2","9633","1","7","Female","","","","","","","2723.2999999970198","<p> Let’s try practicing that now. </p>
            <p> When you see an animal, choose which chest to search for treasure. </p>
            <img src='./assets/img/instructions/chooseChest.jpg' class='instructions-image'>","","instructions","","","","","","","","","","","","","",""
"revaluation","29","200938","0.0-3.0-6.0-0.0","spark_pilot_2","9633","1","7","Female","","false","","","","","[1047.699999988079]","./assets/img/space/animals/rabbit.jpg","[""ArrowLeft""]","second stage practice","space","15","{""ArrowUp,ArrowLeft"":3,""ArrowUp,ArrowRight"":36,""ArrowDown,ArrowLeft"":15,""ArrowDown,ArrowRight"":23}","false","ArrowDown,ArrowLeft","","","","","","","","",""
"html-keyboard-response","30","201446","0.0-3.0-6.0-1.0","spark_pilot_2","9633","1","7","Female","","","","","","","null","<div style=""font-size:60px;"">+</div>","null","fixation","","","","","","","","","","","","","",""
"revaluation","31","205463","0.0-3.0-6.0-0.1","spark_pilot_2","9633","1","7","Female","","false","","","","","[536.6000000089407]","./assets/img/space/animals/cat.jpg","[""ArrowLeft""]","second stage practice","space","3","{""ArrowUp,ArrowLeft"":3,""ArrowUp,ArrowRight"":36,""ArrowDown,ArrowLeft"":15,""ArrowDown,ArrowRight"":23}","false","ArrowUp,ArrowLeft","","","","","","","","",""
"html-keyboard-response","32","205968","0.0-3.0-6.0-1.1","spark_pilot_2","9633","1","7","Female","","","","","","","null","<div style=""font-size:60px;"">+</div>","null","fixation","","","","","","","","","","","","","",""
"revaluation","33","209984","0.0-3.0-6.0-0.2","spark_pilot_2","9633","1","7","Female","","false","","","","","[532]","./assets/img/space/animals/rabbit.jpg","[""ArrowRight""]","second stage practice","space","23","{""ArrowUp,ArrowLeft"":3,""ArrowUp,ArrowRight"":36,""ArrowDown,ArrowLeft"":15,""ArrowDown,ArrowRight"":23}","true","ArrowDown,ArrowRight","","","","","","","","",""
"html-keyboard-response","34","210496","0.0-3.0-6.0-1.2","spark_pilot_2","9633","1","7","Female","","","","","","","null","<div style=""font-size:60px;"">+</div>","null","fixation","","","","","","","","","","","","","",""
"revaluation","35","214513","0.0-3.0-6.0-0.3","spark_pilot_2","9633","1","7","Female","","false","","","","","[551.5]","./assets/img/space/animals/cat.jpg","[""ArrowRight""]","second stage practice","space","36","{""ArrowUp,ArrowLeft"":3,""ArrowUp,ArrowRight"":36,""ArrowDown,ArrowLeft"":15,""ArrowDown,ArrowRight"":23}","true","ArrowUp,ArrowRight","","","","","","","","",""
"html-keyboard-response","36","215021","0.0-3.0-6.0-1.3","spark_pilot_2","9633","1","7","Female","","","","","","","null","<div style=""font-size:60px;"">+</div>","null","fixation","","","","","","","","","","","","","",""
"learning-instructions","37","233084","0.0-3.0-7.0-0.0","spark_pilot_2","9633","1","7","Female","","","","","","","1213.7999999970198","<p> Great job. Now let’s try putting it together. </p>
            <p> On each turn, you will first see a picture to remind you of the place you are in, and you need to choose whether to go up or down. </p>
            <p> Then you will see an animal and choose which of its chests to search for treasure. </p>","","instructions","","","","","","","","","","","","","",""
"learning-instructions","38","242495","0.0-3.0-7.0-0.1","spark_pilot_2","9633","1","7","Female","","","","","","","1133.7999999970198","<p> When you choose whether to go up or down, try to go to the animal with the chest with the most treasure. </p>
            <p> Try practicing that now! </p>","","instructions","","","","","","","","","","","","","",""
"revaluation","39","248519","0.0-3.0-8.0-0.0","spark_pilot_2","9633","1","7","Female","","false","","","","","[860.1999999880791,1143.4000000059605]","./assets/img/space/6.jpg","[""ArrowUp"",""ArrowLeft""]","full practice","space","3","{""ArrowUp,ArrowLeft"":3,""ArrowUp,ArrowRight"":36,""ArrowDown,ArrowLeft"":15,""ArrowDown,ArrowRight"":23}","false","ArrowUp,ArrowLeft","false","","","","","","","",""
"html-keyboard-response","40","249028","0.0-3.0-8.0-1.0","spark_pilot_2","9633","1","7","Female","","","","","","","null","<div style=""font-size:60px;"">+</div>","null","fixation","","","","","","","","","","","","","",""
"revaluation","41","253046","0.0-3.0-8.0-0.1","spark_pilot_2","9633","1","7","Female","","true","","","","","[]","./assets/img/space/7.jpg","[]","full practice","space","-5","{""ArrowUp,ArrowLeft"":3,""ArrowUp,ArrowRight"":36,""ArrowDown,ArrowLeft"":15,""ArrowDown,ArrowRight"":23}","false","","false","","","","","","","",""
"html-keyboard-response","42","253551","0.0-3.0-8.0-1.1","spark_pilot_2","9633","1","7","Female","","","","","","","null","<div style=""font-size:60px;"">+</div>","null","fixation","","","","","","","","","","","","","",""
"revaluation","43","259572","0.0-3.0-8.0-0.2","spark_pilot_2","9633","1","7","Female","","false","","","","","[993.3999999910593,627.1000000089407]","./assets/img/space/8.jpg","[""ArrowDown"",""ArrowRight""]","full practice","space","23","{""ArrowUp,ArrowLeft"":3,""ArrowUp,ArrowRight"":36,""ArrowDown,ArrowLeft"":15,""ArrowDown,ArrowRight"":23}","false","ArrowDown,ArrowRight","false","","","","","","","",""
"html-keyboard-response","44","260076","0.0-3.0-8.0-1.2","spark_pilot_2","9633","1","7","Female","","","","","","","null","<div style=""font-size:60px;"">+</div>","null","fixation","","","","","","","","","","","","","",""
"revaluation","45","266102","0.0-3.0-8.0-0.3","spark_pilot_2","9633","1","7","Female","","false","","","","","[1927.7999999970198,545.0999999940395]","./assets/img/space/9.jpg","[""ArrowUp"",""ArrowRight""]","full practice","space","36","{""ArrowUp,ArrowLeft"":3,""ArrowUp,ArrowRight"":36,""ArrowDown,ArrowLeft"":15,""ArrowDown,ArrowRight"":23}","true","ArrowUp,ArrowRight","false","","","","","","","",""
"html-keyboard-response","46","266604","0.0-3.0-8.0-1.3","spark_pilot_2","9633","1","7","Female","","","","","","","null","<div style=""font-size:60px;"">+</div>","null","fixation","","","","","","","","","","","","","",""
"revaluation","47","272628","0.0-3.0-8.0-0.4","spark_pilot_2","9633","1","7","Female","","false","","","","","[1266.4000000059605,1049.7999999970198]","./assets/img/space/10.jpg","[""ArrowUp"",""ArrowRight""]","full practice","space","36","{""ArrowUp,ArrowLeft"":3,""ArrowUp,ArrowRight"":36,""ArrowDown,ArrowLeft"":15,""ArrowDown,ArrowRight"":23}","true","ArrowUp,ArrowRight","false","","","","","","","",""
"html-keyboard-response","48","273132","0.0-3.0-8.0-1.4","spark_pilot_2","9633","1","7","Female","","","","","","","null","<div style=""font-size:60px;"">+</div>","null","fixation","","","","","","","","","","","","","",""
"learning-instructions","49","285196","0.0-3.0-9.0-0.0","spark_pilot_2","9633","1","7","Female","","","","","","","1728.7000000029802","<p> One last thing: sometimes, you will see a robber. The robber can be anywhere in the picture. </p>
            <p> If you do not stop them, you will lose treasure. </p>
            <img src='./assets/img/instructions/robber.jpg' class='instructions-image'>","","instructions","","","","","","","","","","","","","",""
"learning-instructions","50","293546","0.0-3.0-9.0-0.1","spark_pilot_2","9633","1","7","Female","","","","","","","1168.0999999940395","<p> If you see the robber, you should <b>press the space bar</b> rather than using the arrow keys. </p>
            <p> Try practicing that now! </p>","","instructions","","","","","","","","","","","","","",""
"revaluation","51","297567","0.0-3.0-10.0-0.0","spark_pilot_2","9633","1","7","Female","","false","","","","","[1666.2999999970198]","./assets/img/space/catch/0.jpg","[""spaceBar""]","catch practice","space","0","{""ArrowUp,ArrowLeft"":3,""ArrowUp,ArrowRight"":36,""ArrowDown,ArrowLeft"":15,""ArrowDown,ArrowRight"":23}","true","spaceBar","true","","","","","","","",""
"html-keyboard-response","52","298077","0.0-3.0-10.0-1.0","spark_pilot_2","9633","1","7","Female","","","","","","","null","<div style=""font-size:60px;"">+</div>","null","fixation","","","","","","","","","","","","","",""
"revaluation","53","302095","0.0-3.0-10.0-0.1","spark_pilot_2","9633","1","7","Female","","false","","","","","[493.5]","./assets/img/space/catch/1.jpg","[""spaceBar""]","catch practice","space","0","{""ArrowUp,ArrowLeft"":3,""ArrowUp,ArrowRight"":36,""ArrowDown,ArrowLeft"":15,""ArrowDown,ArrowRight"":23}","true","spaceBar","true","","","","","","","",""
"html-keyboard-response","54","302605","0.0-3.0-10.0-1.1","spark_pilot_2","9633","1","7","Female","","","","","","","null","<div style=""font-size:60px;"">+</div>","null","fixation","","","","","","","","","","","","","",""
"revaluation","55","306623","0.0-3.0-10.0-0.2","spark_pilot_2","9633","1","7","Female","","false","","","","","[557.2999999970198]","./assets/img/space/catch/2.jpg","[""spaceBar""]","catch practice","space","0","{""ArrowUp,ArrowLeft"":3,""ArrowUp,ArrowRight"":36,""ArrowDown,ArrowLeft"":15,""ArrowDown,ArrowRight"":23}","true","spaceBar","true","","","","","","","",""
"html-keyboard-response","56","307133","0.0-3.0-10.0-1.2","spark_pilot_2","9633","1","7","Female","","","","","","","null","<div style=""font-size:60px;"">+</div>","null","fixation","","","","","","","","","","","","","",""
"learning-instructions","57","323368","0.0-3.0-11.0-0.0","spark_pilot_2","9633","1","7","Female","","","","","","","2482.5","<p> After you explore a place to find treasure, it will be time to play a different game. </p>
            <p> During this game, red dots will appear on the screen and fall down slowly. </p>
            <p><b> You must click on them before they reach the bottom. </b></p>
            <img src='./assets/img/instructions/dotGame.jpg' class='instructions-image'>","","instructions","","","","","","","","","","","","","",""
"learning-instructions","58","330327","0.0-3.0-11.0-0.1","spark_pilot_2","9633","1","7","Female","","","","","","","1262.4000000059605","<p> For every dot you click, you will earn additional treasure. </p>
            <p> Let’s try practicing that now. </p>","","instructions","","","","","","","","","","","","","",""
"revaluation","59","345336","0.0-3.0-12.0-0.0","spark_pilot_2","9633","1","7","Female","","","","","","","[73,124]","","","rest practice","","20","","","","","0","15000","","","","","",""
"learning-instructions","60","352861","0.0-3.0-13.0-0.0-0.0","spark_pilot_2","9633","1","7","Female","","","","","","","2289","<p> Now, you will practice a shortened version of the game to get a sense of how it all fits together. </p>","","instructions","","","","","","","","","","","","","",""
"learning-instructions","61","357781","0.0-3.0-13.0-0.0-0.1","spark_pilot_2","9633","1","7","Female","","","","","","","1724.2000000029802","<p>This time you are searching for treasure in outer space.</p>","","instructions","","","","","","","","","","","","","",""
"learning-instructions","62","375029","0.0-3.0-13.0-1.0-0.0","spark_pilot_2","9633","1","7","Female","","","","","","","2445.8999999910593","<p> Remember, when you see a picture of the place, use the up and down keys to <b>find an animal</b>.</p>
            <p> When you encounter an animal, you should use the left and right keys to <b>select a treasure chest</b>.</p>
            <p> Don't forget to look out for the robber! </p>","","instructions","","","","","","","","","","","","","",""
"revaluation","63","379044","0.0-3.0-13.0-2.0-0.0","spark_pilot_2","9633","1","7","Female","","true","","","","","[]","./assets/img/space/11.jpg","[]","practice block","space","-5","{""ArrowUp,ArrowLeft"":3,""ArrowUp,ArrowRight"":36,""ArrowDown,ArrowLeft"":15,""ArrowDown,ArrowRight"":23}","false","","false","","","","","","","",""
"html-keyboard-response","64","379546","0.0-3.0-13.0-2.0-1.0","spark_pilot_2","9633","1","7","Female","","","","","","","null","<div style=""font-size:60px;"">+</div>","null","fixation","","","","","","","","","","","","","",""
"revaluation","65","385569","0.0-3.0-13.0-2.0-0.1","spark_pilot_2","9633","1","7","Female","","false","","","","","[716,600.0999999940395]","./assets/img/space/12.jpg","[""ArrowDown"",""ArrowRight""]","practice block","space","23","{""ArrowUp,ArrowLeft"":3,""ArrowUp,ArrowRight"":36,""ArrowDown,ArrowLeft"":15,""ArrowDown,ArrowRight"":23}","false","ArrowDown,ArrowRight","false","","","","","","","",""
"html-keyboard-response","66","386074","0.0-3.0-13.0-2.0-1.1","spark_pilot_2","9633","1","7","Female","","","","","","","null","<div style=""font-size:60px;"">+</div>","null","fixation","","","","","","","","","","","","","",""
"revaluation","67","390091","0.0-3.0-13.0-2.0-0.2","spark_pilot_2","9633","1","7","Female","","true","","","","","[]","./assets/img/space/13.jpg","[]","practice block","space","-5","{""ArrowUp,ArrowLeft"":3,""ArrowUp,ArrowRight"":36,""ArrowDown,ArrowLeft"":15,""ArrowDown,ArrowRight"":23}","false","","false","","","","","","","",""
"html-keyboard-response","68","390596","0.0-3.0-13.0-2.0-1.2","spark_pilot_2","9633","1","7","Female","","","","","","","null","<div style=""font-size:60px;"">+</div>","null","fixation","","","","","","","","","","","","","",""
"revaluation","69","396622","0.0-3.0-13.0-2.0-0.3","spark_pilot_2","9633","1","7","Female","","false","","","","","[718.5,560.2999999970198]","./assets/img/space/14.jpg","[""ArrowUp"",""ArrowRight""]","practice block","space","36","{""ArrowUp,ArrowLeft"":3,""ArrowUp,ArrowRight"":36,""ArrowDown,ArrowLeft"":15,""ArrowDown,ArrowRight"":23}","true","ArrowUp,ArrowRight","false","","","","","","","",""
"html-keyboard-response","70","397132","0.0-3.0-13.0-2.0-1.3","spark_pilot_2","9633","1","7","Female","","","","","","","null","<div style=""font-size:60px;"">+</div>","null","fixation","","","","","","","","","","","","","",""
"revaluation","71","403160","0.0-3.0-13.0-2.0-0.4","spark_pilot_2","9633","1","7","Female","","false","","","","","[948.0999999940395,677.2999999970198]","./assets/img/space/11.jpg","[""ArrowDown"",""ArrowRight""]","practice block","space","23","{""ArrowUp,ArrowLeft"":3,""ArrowUp,ArrowRight"":36,""ArrowDown,ArrowLeft"":15,""ArrowDown,ArrowRight"":23}","false","ArrowDown,ArrowRight","false","","","","","","","",""
"html-keyboard-response","72","403669","0.0-3.0-13.0-2.0-1.4","spark_pilot_2","9633","1","7","Female","","","","","","","null","<div style=""font-size:60px;"">+</div>","null","fixation","","","","","","","","","","","","","",""
"revaluation","73","409705","0.0-3.0-13.0-2.0-0.5","spark_pilot_2","9633","1","7","Female","","false","","","","","[1662,445.70000000298023]","./assets/img/space/12.jpg","[""ArrowUp"",""ArrowRight""]","practice block","space","36","{""ArrowUp,ArrowLeft"":3,""ArrowUp,ArrowRight"":36,""ArrowDown,ArrowLeft"":15,""ArrowDown,ArrowRight"":23}","true","ArrowUp,ArrowRight","false","","","","","","","",""
"html-keyboard-response","74","410216","0.0-3.0-13.0-2.0-1.5","spark_pilot_2","9633","1","7","Female","","","","","","","null","<div style=""font-size:60px;"">+</div>","null","fixation","","","","","","","","","","","","","",""
"revaluation","75","416249","0.0-3.0-13.0-2.0-0.6","spark_pilot_2","9633","1","7","Female","","false","","","","","[1553.4000000059605,1002.6000000089407]","./assets/img/space/13.jpg","[""ArrowDown"",""ArrowRight""]","practice block","space","23","{""ArrowUp,ArrowLeft"":3,""ArrowUp,ArrowRight"":36,""ArrowDown,ArrowLeft"":15,""ArrowDown,ArrowRight"":23}","false","ArrowDown,ArrowRight","false","","","","","","","",""
"html-keyboard-response","76","416760","0.0-3.0-13.0-2.0-1.6","spark_pilot_2","9633","1","7","Female","","","","","","","null","<div style=""font-size:60px;"">+</div>","null","fixation","","","","","","","","","","","","","",""
"revaluation","77","422790","0.0-3.0-13.0-2.0-0.7","spark_pilot_2","9633","1","7","Female","","false","","","","","[664.1000000089407,697.5999999940395]","./assets/img/space/14.jpg","[""ArrowUp"",""ArrowRight""]","practice block","space","36","{""ArrowUp,ArrowLeft"":3,""ArrowUp,ArrowRight"":36,""ArrowDown,ArrowLeft"":15,""ArrowDown,ArrowRight"":23}","true","ArrowUp,ArrowRight","false","","","","","","","",""
"html-keyboard-response","78","423301","0.0-3.0-13.0-2.0-1.7","spark_pilot_2","9633","1","7","Female","","","","","","","null","<div style=""font-size:60px;"">+</div>","null","fixation","","","","","","","","","","","","","",""
"revaluation","79","427320","0.0-3.0-13.0-2.0-0.8","spark_pilot_2","9633","1","7","Female","","false","","","","","[1474.2000000029802]","./assets/img/space/catch/3.jpg","[""spaceBar""]","practice block","space","0","{""ArrowUp,ArrowLeft"":3,""ArrowUp,ArrowRight"":36,""ArrowDown,ArrowLeft"":15,""ArrowDown,ArrowRight"":23}","true","spaceBar","true","","","","","","","",""
"html-keyboard-response","80","427831","0.0-3.0-13.0-2.0-1.8","spark_pilot_2","9633","1","7","Female","","","","","","","null","<div style=""font-size:60px;"">+</div>","null","fixation","","","","","","","","","","","","","",""
"learning-instructions","81","443207","0.0-3.0-13.0-3.0-0.0","spark_pilot_2","9633","1","7","Female","","","","","","","2419.8999999910593","<p> Now, you will travel with a friend who will choose whether you go up or down first. </p>
            <p> On these turns, you will just see the animal that they found. You will still get to choose which chest to search for treasure.</p>","","instructions","","","","","","","","","","","","","",""
"revaluation","82","447227","0.0-3.0-13.0-4.0-0.0","spark_pilot_2","9633","1","7","Female","","false","","","","","[1802.5999999940395]","./assets/img/space/animals/cat.jpg","[""ArrowRight""]","practice block","space","36","{""ArrowUp,ArrowLeft"":3,""ArrowUp,ArrowRight"":36,""ArrowDown,ArrowLeft"":15,""ArrowDown,ArrowRight"":23}","true","ArrowUp,ArrowRight","","","","","","","","",""
"html-keyboard-response","83","447730","0.0-3.0-13.0-4.0-1.0","spark_pilot_2","9633","1","7","Female","","","","","","","null","<div style=""font-size:60px;"">+</div>","null","fixation","","","","","","","","","","","","","",""
"revaluation","84","451747","0.0-3.0-13.0-4.0-0.1","spark_pilot_2","9633","1","7","Female","","false","","","","","[576]","./assets/img/space/animals/rabbit.jpg","[""ArrowRight""]","practice block","space","23","{""ArrowUp,ArrowLeft"":3,""ArrowUp,ArrowRight"":36,""ArrowDown,ArrowLeft"":15,""ArrowDown,ArrowRight"":23}","true","ArrowDown,ArrowRight","","","","","","","","",""
"html-keyboard-response","85","452250","0.0-3.0-13.0-4.0-1.1","spark_pilot_2","9633","1","7","Female","","","","","","","null","<div style=""font-size:60px;"">+</div>","null","fixation","","","","","","","","","","","","","",""
"revaluation","86","456268","0.0-3.0-13.0-4.0-0.2","spark_pilot_2","9633","1","7","Female","","false","","","","","[619.5999999940395]","./assets/img/space/animals/cat.jpg","[""ArrowRight""]","practice block","space","36","{""ArrowUp,ArrowLeft"":3,""ArrowUp,ArrowRight"":36,""ArrowDown,ArrowLeft"":15,""ArrowDown,ArrowRight"":23}","true","ArrowUp,ArrowRight","","","","","","","","",""
"html-keyboard-response","87","456775","0.0-3.0-13.0-4.0-1.2","spark_pilot_2","9633","1","7","Female","","","","","","","null","<div style=""font-size:60px;"">+</div>","null","fixation","","","","","","","","","","","","","",""
"revaluation","88","460787","0.0-3.0-13.0-4.0-0.3","spark_pilot_2","9633","1","7","Female","","false","","","","","[679.6999999880791]","./assets/img/space/animals/rabbit.jpg","[""ArrowLeft""]","practice block","space","15","{""ArrowUp,ArrowLeft"":3,""ArrowUp,ArrowRight"":36,""ArrowDown,ArrowLeft"":15,""ArrowDown,ArrowRight"":23}","false","ArrowDown,ArrowLeft","","","","","","","","",""
"html-keyboard-response","89","461291","0.0-3.0-13.0-4.0-1.3","spark_pilot_2","9633","1","7","Female","","","","","","","null","<div style=""font-size:60px;"">+</div>","null","fixation","","","","","","","","","","","","","",""
"learning-instructions","90","470784","0.0-3.0-13.0-5.0-0.0","spark_pilot_2","9633","1","7","Female","","","","","","","2107.4000000059605","<p> Time to play the dot game! </p>
            <p> For 15 seconds, click the red dots on the following screen as they appear. </p>","","instructions","","","","","","","","","","","","","",""
"revaluation","91","485789","0.0-3.0-13.0-6.0-0.0","spark_pilot_2","9633","1","7","Female","","","","","","","[105]","","","rest practice","","10","","","","","0","15000","","","","","",""
"learning-instructions","92","494797","0.0-3.0-13.0-7.0-0.0","spark_pilot_2","9633","1","7","Female","","","","","","","2871.3999999910593","<p> You have almost finished this part of the game! </p>
            <p> We are going to ask you to make a few more choices. </p>","","instructions","","","","","","","","","","","","","",""
"learning-instructions","93","511940","0.0-3.0-13.0-7.0-0.1","spark_pilot_2","9633","1","7","Female","","","","","","","3098.5999999940395","<p> First, you need to decide whether to go up or down. When you see each picture, use the arrow keys to make your choice. </p>
            <p><b>You will not see which animal you found, but try to get to the one that will give you the most treasure.</b></p>","","instructions","","","","","","","","","","","","","",""
"revaluation","94","513150","0.0-3.0-13.0-8.0","spark_pilot_2","9633","1","7","Female","","false","","","","","[1208.1000000089407]","./assets/img/space/15.jpg","[""ArrowUp""]","practice block","space","0","{""ArrowUp,ArrowLeft"":3,""ArrowUp,ArrowRight"":36,""ArrowDown,ArrowLeft"":15,""ArrowDown,ArrowRight"":23}","true","ArrowUp","false","","","","","","","",""
"html-keyboard-response","95","513653","0.0-3.0-13.0-9.0","spark_pilot_2","9633","1","7","Female","","","","","","","null","<div style=""font-size:60px;"">+</div>","null","fixation","","","","","","","","","","","","","",""
"learning-instructions","96","530018","0.0-3.0-13.0-10.0-0.0","spark_pilot_2","9633","1","7","Female","","","","","","","4962.5999999940395","<p> Now you will see the animals again and can search their chests for treasure. </p>
            <p> This time, you will not see how much treasure you earned, but you will earn more bonus money for making better choices. </p>","","instructions","","","","","","","","","","","","","",""
"revaluation","97","531119","0.0-3.0-13.0-11.0-0.0","spark_pilot_2","9633","1","7","Female","","false","","","","","[1100]","./assets/img/space/animals/cat.jpg","[""ArrowRight""]","practice block","space","0","{""ArrowUp,ArrowLeft"":3,""ArrowUp,ArrowRight"":36,""ArrowDown,ArrowLeft"":15,""ArrowDown,ArrowRight"":23}","true","ArrowUp,ArrowRight","","","","","","","","",""
"html-keyboard-response","98","531631","0.0-3.0-13.0-11.0-1.0","spark_pilot_2","9633","1","7","Female","","","","","","","null","<div style=""font-size:60px;"">+</div>","null","fixation","","","","","","","","","","","","","",""
"revaluation","99","532328","0.0-3.0-13.0-11.0-0.1","spark_pilot_2","9633","1","7","Female","","false","","","","","[694]","./assets/img/space/animals/rabbit.jpg","[""ArrowRight""]","practice block","space","0","{""ArrowUp,ArrowLeft"":3,""ArrowUp,ArrowRight"":36,""ArrowDown,ArrowLeft"":15,""ArrowDown,ArrowRight"":23}","true","ArrowDown,ArrowRight","","","","","","","","",""
"html-keyboard-response","100","532839","0.0-3.0-13.0-11.0-1.1","spark_pilot_2","9633","1","7","Female","","","","","","","null","<div style=""font-size:60px;"">+</div>","null","fixation","","","","","","","","","","","","","",""
"learning-instructions","101","539448","0.0-3.0-14.0-0.0","spark_pilot_2","9633","1","7","Female","","","","","","","2022.1000000089407","<p> Before you start, we're going to ask you a few questions about how the game works. </p>","","instructions","","","","","","","","","","","","","",""
"comp-q","102","547432","0.0-3.0-15.0-0.0-0.0","spark_pilot_2","9633","1","7","Female","","","","","","","2386.2000000029802","<p> <b> True or False? </b> </p>
            <p> There can be 50 pieces of treasure in a given animal's chest. </p>","1","comp_question","","","","true","","","","","","","","","",""
"comp-q","103","555688","0.0-3.0-15.0-0.0-1.0","spark_pilot_2","9633","1","7","Female","","","","","","","1573.5999999940395","<p> <b> That's right! </b> The amount of treasure in each chest can range from 0 to 40 pieces. </p>","0","comp_answer","","","","","","","","","","","","","",""
"comp-q","104","565067","0.0-3.0-15.0-0.1-0.1","spark_pilot_2","9633","1","7","Female","","","","","","","2244.7000000029802","<p> <b> True or False? </b> </p><p> In this game, all animals have the same amount of treasure in their left and right chests. </p>","1","comp_question","","","","true","","","","","","","","","",""
"comp-q","105","571965","0.0-3.0-15.0-0.1-1.1","spark_pilot_2","9633","1","7","Female","","","","","","","1654.6000000089407","<p> <b> That's right! </b> Animals have different amounts of treasure in their treasure chests. </p>","0","comp_answer","","","","","","","","","","","","","",""
"comp-q","106","582395","0.0-3.0-15.0-0.2-0.2","spark_pilot_2","9633","1","7","Female","","","","","","","4572.79999999702","<p> <b> True or False? </b> </p><p> The same animal will always be there if you go up in the same place. </p>","0","comp_question","","","","true","","","","","","","","","",""
"comp-q","107","591348","0.0-3.0-15.0-0.2-1.2","spark_pilot_2","9633","1","7","Female","","","","","","","2495.7000000029802","<p> <b> That's right! </b> One animal lives in the upper part and one lives in the lower part of every place. </p>","0","comp_answer","","","","","","","","","","","","","",""
"comp-q","108","599046","0.0-3.0-15.0-0.3-0.3","spark_pilot_2","9633","1","7","Female","","","","","","","2165.0999999940395","<p> <b> True or False? </b> </p><p> If you see a different picture, it means you are in a new place. </p>","0","comp_question","","","","false","","","","","","","","","",""
"comp-q","109","612484","0.0-3.0-15.0-0.3-1.3","spark_pilot_2","9633","1","7","Female","","","","","","","2315.4000000059605","<p> <b>Incorrect.</b> Lots of different images may show the same place. For example,  you may see three different images that all remind you that you are in outer space. </p>","0","comp_answer","","","","","","","","","","","","","",""
"comp-q","110","619290","0.0-3.0-15.0-0.4-0.4","spark_pilot_2","9633","1","7","Female","","","","","","","1302.2999999970198","<p> <b> True or False? </b> </p><p> If you see a different picture, it means you are in a new place. </p>","1","comp_question","","","","true","","","","","","","","","",""
"comp-q","111","632562","0.0-3.0-15.0-0.4-1.4","spark_pilot_2","9633","1","7","Female","","","","","","","1907.9000000059605","<p> <b> That's right! </b> Lots of different images may show the same place. For example,  you may see three different images that all remind you that you are in outer space. </p>","0","comp_answer","","","","","","","","","","","","","",""
"learning-instructions","112","646810","0.0-3.0-16.0-0.0","spark_pilot_2","9633","1","7","Female","","","","","","","4371.79999999702","<p> Good job. Remember to do your best because the amount of treasure you earn will be converted into bonus money. </p>
            <p> It’s time to start the real game! </p>","","instructions","","","","","","","","","","","","","",""
"learning-instructions","113","651658","0.0-4.0-0.0-0.0","spark_pilot_2","9633","1","7","Female","","","","","","","2137.3999999910593","<p> This time you are searching for treasure in the <b>ocean</b>.</p>","","instructions","","","","","","","","","","","","","",""
"learning-instructions","114","673804","0.0-4.0-0.0-0.1","spark_pilot_2","9633","1","7","Female","","","","","","","4808","<p><b>New</b> animals with <b>new</b> treasure chests live here. You need to explore to discover where the animal with the best treasure chest is.</p>
                    <p> Like before, once you figure out which animal has the chest with the most treasure, you should try to get to that animal and select that chest! </p>","","instructions","","","","","","","","","","","","","",""
"learning-instructions","115","689828","0.0-4.0-1.0-0.0","spark_pilot_2","9633","1","7","Female","","","","","","","1292.5","<p> Remember, when you see a picture of the place, use the up and down keys to <b>find an animal</b>.</p>
            <p> When you encounter an animal, you should use the left and right keys to <b>select a treasure chest</b>.</p>
            <p> Don't forget to look out for the robber! </p>","","instructions","","","","","","","","","","","","","",""
"revaluation","116","693847","0.0-4.0-2.0-0.0","spark_pilot_2","9633","1","7","Female","","true","","","","","[]","./assets/img/ocean/memory/2.jpg","[]","value training","ocean","-5","{""ArrowUp,ArrowLeft"":26,""ArrowUp,ArrowRight"":10,""ArrowDown,ArrowLeft"":5,""ArrowDown,ArrowRight"":17}","false","","false","","","original","1","0","","",""
"html-keyboard-response","117","694358","0.0-4.0-2.0-1.0","spark_pilot_2","9633","1","7","Female","","","","","","","null","<div style=""font-size:60px;"">+</div>","null","fixation","","","","","","","","","","","1","","",""
"revaluation","118","700383","0.0-4.0-2.0-0.1","spark_pilot_2","9633","1","7","Female","","false","","","","","[521.7999999970198,875.3999999910593]","./assets/img/ocean/memory/0.jpg","[""ArrowUp"",""ArrowRight""]","value training","ocean","10","{""ArrowUp,ArrowLeft"":26,""ArrowUp,ArrowRight"":10,""ArrowDown,ArrowLeft"":5,""ArrowDown,ArrowRight"":17}","false","ArrowUp,ArrowRight","false","","","original","1","2","","",""
"html-keyboard-response","119","700894","0.0-4.0-2.0-1.1","spark_pilot_2","9633","1","7","Female","","","","","","","null","<div style=""font-size:60px;"">+</div>","null","fixation","","","","","","","","","","","3","","",""
"revaluation","120","706920","0.0-4.0-2.0-0.2","spark_pilot_2","9633","1","7","Female","","false","","","","","[794.2999999970198,883.9000000059605]","./assets/img/ocean/memory/27.jpg","[""ArrowUp"",""ArrowLeft""]","value training","ocean","26","{""ArrowUp,ArrowLeft"":26,""ArrowUp,ArrowRight"":10,""ArrowDown,ArrowLeft"":5,""ArrowDown,ArrowRight"":17}","true","ArrowUp,ArrowLeft","false","","","original","1","4","","",""
"html-keyboard-response","121","707429","0.0-4.0-2.0-1.2","spark_pilot_2","9633","1","7","Female","","","","","","","null","<div style=""font-size:60px;"">+</div>","null","fixation","","","","","","","","","","","5","","",""
"revaluation","122","713456","0.0-4.0-2.0-0.3","spark_pilot_2","9633","1","7","Female","","false","","","","","[822.1000000089407,1670.4000000059605]","./assets/img/ocean/memory/18.jpg","[""ArrowDown"",""ArrowLeft""]","value training","ocean","5","{""ArrowUp,ArrowLeft"":26,""ArrowUp,ArrowRight"":10,""ArrowDown,ArrowLeft"":5,""ArrowDown,ArrowRight"":17}","false","ArrowDown,ArrowLeft","false","","","original","1","6","","",""
"html-keyboard-response","123","713965","0.0-4.0-2.0-1.3","spark_pilot_2","9633","1","7","Female","","","","","","","null","<div style=""font-size:60px;"">+</div>","null","fixation","","","","","","","","","","","7","","",""
"revaluation","124","717984","0.0-4.0-2.0-0.4","spark_pilot_2","9633","1","7","Female","","false","","","","","[694.6999999880791]","./assets/img/ocean/catch/3.jpg","[""ArrowDown""]","value training","ocean","-10","{""ArrowUp,ArrowLeft"":26,""ArrowUp,ArrowRight"":10,""ArrowDown,ArrowLeft"":5,""ArrowDown,ArrowRight"":17}","false","ArrowDown","true","","","original","1","8","","",""
"html-keyboard-response","125","718495","0.0-4.0-2.0-1.4","spark_pilot_2","9633","1","7","Female","","","","","","","null","<div style=""font-size:60px;"">+</div>","null","fixation","","","","","","","","","","","9","","",""
"revaluation","126","724516","0.0-4.0-2.0-0.5","spark_pilot_2","9633","1","7","Female","","false","","","","","[792.6000000089407,1025.2000000029802]","./assets/img/ocean/memory/22.jpg","[""ArrowDown"",""ArrowRight""]","value training","ocean","17","{""ArrowUp,ArrowLeft"":26,""ArrowUp,ArrowRight"":10,""ArrowDown,ArrowLeft"":5,""ArrowDown,ArrowRight"":17}","false","ArrowDown,ArrowRight","false","","","original","1","10","","",""
"html-keyboard-response","127","725021","0.0-4.0-2.0-1.5","spark_pilot_2","9633","1","7","Female","","","","","","","null","<div style=""font-size:60px;"">+</div>","null","fixation","","","","","","","","","","","11","","",""
"revaluation","128","729038","0.0-4.0-2.0-0.6","spark_pilot_2","9633","1","7","Female","","true","","","","","[]","./assets/img/ocean/memory/27.jpg","[]","value training","ocean","-5","{""ArrowUp,ArrowLeft"":26,""ArrowUp,ArrowRight"":10,""ArrowDown,ArrowLeft"":5,""ArrowDown,ArrowRight"":17}","false","","false","","","original","1","12","","",""
"html-keyboard-response","129","729543","0.0-4.0-2.0-1.6","spark_pilot_2","9633","1","7","Female","","","","","","","null","<div style=""font-size:60px;"">+</div>","null","fixation","","","","","","","","","","","13","","",""
"revaluation","130","733561","0.0-4.0-2.0-0.7","spark_pilot_2","9633","1","7","Female","","true","","","","","[]","./assets/img/ocean/memory/0.jpg","[]","value training","ocean","-5","{""ArrowUp,ArrowLeft"":26,""ArrowUp,ArrowRight"":10,""ArrowDown,ArrowLeft"":5,""ArrowDown,ArrowRight"":17}","false","","false","","","original","1","14","","",""
"html-keyboard-response","131","734071","0.0-4.0-2.0-1.7","spark_pilot_2","9633","1","7","Female","","","","","","","null","<div style=""font-size:60px;"">+</div>","null","fixation","","","","","","","","","","","15","","",""
"revaluation","132","740097","0.0-4.0-2.0-0.8","spark_pilot_2","9633","1","7","Female","","false","","","","","[604.2000000029802,1142]","./assets/img/ocean/memory/17.jpg","[""ArrowUp"",""ArrowRight""]","value training","ocean","10","{""ArrowUp,ArrowLeft"":26,""ArrowUp,ArrowRight"":10,""ArrowDown,ArrowLeft"":5,""ArrowDown,ArrowRight"":17}","false","ArrowUp,ArrowRight","false","","","original","1","16","","",""
"html-keyboard-response","133","740608","0.0-4.0-2.0-1.8","spark_pilot_2","9633","1","7","Female","","","","","","","null","<div style=""font-size:60px;"">+</div>","null","fixation","","","","","","","","","","","17","","",""
"revaluation","134","746633","0.0-4.0-2.0-0.9","spark_pilot_2","9633","1","7","Female","","false","","","","","[1674.5,829.2000000029802]","./assets/img/ocean/memory/16.jpg","[""ArrowUp"",""ArrowLeft""]","value training","ocean","26","{""ArrowUp,ArrowLeft"":26,""ArrowUp,ArrowRight"":10,""ArrowDown,ArrowLeft"":5,""ArrowDown,ArrowRight"":17}","true","ArrowUp,ArrowLeft","false","","","original","1","18","","",""
"html-keyboard-response","135","747144","0.0-4.0-2.0-1.9","spark_pilot_2","9633","1","7","Female","","","","","","","null","<div style=""font-size:60px;"">+</div>","null","fixation","","","","","","","","","","","19","","",""
"revaluation","136","753164","0.0-4.0-2.0-0.10","spark_pilot_2","9633","1","7","Female","","false","","","","","[643.1000000089407,940.8999999910593]","./assets/img/ocean/memory/2.jpg","[""ArrowDown"",""ArrowRight""]","value training","ocean","17","{""ArrowUp,ArrowLeft"":26,""ArrowUp,ArrowRight"":10,""ArrowDown,ArrowLeft"":5,""ArrowDown,ArrowRight"":17}","false","ArrowDown,ArrowRight","false","","","original","1","20","","",""
"html-keyboard-response","137","753669","0.0-4.0-2.0-1.10","spark_pilot_2","9633","1","7","Female","","","","","","","null","<div style=""font-size:60px;"">+</div>","null","fixation","","","","","","","","","","","21","","",""
"revaluation","138","759695","0.0-4.0-2.0-0.11","spark_pilot_2","9633","1","7","Female","","true","","","","","[1100.3999999910593]","./assets/img/ocean/memory/32.jpg","[""ArrowDown""]","value training","ocean","-5","{""ArrowUp,ArrowLeft"":26,""ArrowUp,ArrowRight"":10,""ArrowDown,ArrowLeft"":5,""ArrowDown,ArrowRight"":17}","false","ArrowDown","false","","","original","1","22","","",""
"html-keyboard-response","139","760199","0.0-4.0-2.0-1.11","spark_pilot_2","9633","1","7","Female","","","","","","","null","<div style=""font-size:60px;"">+</div>","null","fixation","","","","","","","","","","","23","","",""
"revaluation","140","764217","0.0-4.0-2.0-0.12","spark_pilot_2","9633","1","7","Female","","false","","","","","[909.0999999940395]","./assets/img/ocean/catch/7.jpg","[""ArrowDown""]","value training","ocean","-10","{""ArrowUp,ArrowLeft"":26,""ArrowUp,ArrowRight"":10,""ArrowDown,ArrowLeft"":5,""ArrowDown,ArrowRight"":17}","false","ArrowDown","true","","","original","1","24","","",""
"html-keyboard-response","141","764727","0.0-4.0-2.0-1.12","spark_pilot_2","9633","1","7","Female","","","","","","","null","<div style=""font-size:60px;"">+</div>","null","fixation","","","","","","","","","","","25","","",""
"revaluation","142","770753","0.0-4.0-2.0-0.13","spark_pilot_2","9633","1","7","Female","","false","","","","","[957.2999999970198,886.5]","./assets/img/ocean/memory/30.jpg","[""ArrowDown"",""ArrowLeft""]","value training","ocean","5","{""ArrowUp,ArrowLeft"":26,""ArrowUp,ArrowRight"":10,""ArrowDown,ArrowLeft"":5,""ArrowDown,ArrowRight"":17}","false","ArrowDown,ArrowLeft","false","","","original","1","26","","",""
"html-keyboard-response","143","771264","0.0-4.0-2.0-1.13","spark_pilot_2","9633","1","7","Female","","","","","","","null","<div style=""font-size:60px;"">+</div>","null","fixation","","","","","","","","","","","27","","",""
"revaluation","144","775281","0.0-4.0-2.0-0.14","spark_pilot_2","9633","1","7","Female","","true","","","","","[]","./assets/img/ocean/memory/35.jpg","[]","value training","ocean","-5","{""ArrowUp,ArrowLeft"":26,""ArrowUp,ArrowRight"":10,""ArrowDown,ArrowLeft"":5,""ArrowDown,ArrowRight"":17}","false","","false","","","original","1","28","","",""
"html-keyboard-response","145","775792","0.0-4.0-2.0-1.14","spark_pilot_2","9633","1","7","Female","","","","","","","null","<div style=""font-size:60px;"">+</div>","null","fixation","","","","","","","","","","","29","","",""
"revaluation","146","781817","0.0-4.0-2.0-0.15","spark_pilot_2","9633","1","7","Female","","false","","","","","[753.5,611]","./assets/img/ocean/memory/38.jpg","[""ArrowDown"",""ArrowRight""]","value training","ocean","17","{""ArrowUp,ArrowLeft"":26,""ArrowUp,ArrowRight"":10,""ArrowDown,ArrowLeft"":5,""ArrowDown,ArrowRight"":17}","false","ArrowDown,ArrowRight","false","","","original","1","30","","",""
"html-keyboard-response","147","782328","0.0-4.0-2.0-1.15","spark_pilot_2","9633","1","7","Female","","","","","","","null","<div style=""font-size:60px;"">+</div>","null","fixation","","","","","","","","","","","31","","",""
"revaluation","148","788348","0.0-4.0-2.0-0.16","spark_pilot_2","9633","1","7","Female","","false","","","","","[1798.300000011921,1888.0999999940395]","./assets/img/ocean/memory/35.jpg","[""ArrowUp"",""ArrowLeft""]","value training","ocean","26","{""ArrowUp,ArrowLeft"":26,""ArrowUp,ArrowRight"":10,""ArrowDown,ArrowLeft"":5,""ArrowDown,ArrowRight"":17}","true","ArrowUp,ArrowLeft","false","","","original","1","32","","",""
"html-keyboard-response","149","788855","0.0-4.0-2.0-1.16","spark_pilot_2","9633","1","7","Female","","","","","","","null","<div style=""font-size:60px;"">+</div>","null","fixation","","","","","","","","","","","33","","",""
"revaluation","150","794868","0.0-4.0-2.0-0.17","spark_pilot_2","9633","1","7","Female","","false","","","","","[728.0999999940395,139.40000000596046]","./assets/img/ocean/memory/17.jpg","[""ArrowUp"",""ArrowLeft""]","value training","ocean","26","{""ArrowUp,ArrowLeft"":26,""ArrowUp,ArrowRight"":10,""ArrowDown,ArrowLeft"":5,""ArrowDown,ArrowRight"":17}","true","ArrowUp,ArrowLeft","false","","","original","1","34","","",""
"html-keyboard-response","151","795372","0.0-4.0-2.0-1.17","spark_pilot_2","9633","1","7","Female","","","","","","","null","<div style=""font-size:60px;"">+</div>","null","fixation","","","","","","","","","","","35","","",""
"revaluation","152","801398","0.0-4.0-2.0-0.18","spark_pilot_2","9633","1","7","Female","","false","","","","","[644.7999999970198,735.7000000029802]","./assets/img/ocean/memory/40.jpg","[""ArrowUp"",""ArrowLeft""]","value training","ocean","26","{""ArrowUp,ArrowLeft"":26,""ArrowUp,ArrowRight"":10,""ArrowDown,ArrowLeft"":5,""ArrowDown,ArrowRight"":17}","true","ArrowUp,ArrowLeft","false","","","original","1","36","","",""
"html-keyboard-response","153","801903","0.0-4.0-2.0-1.18","spark_pilot_2","9633","1","7","Female","","","","","","","null","<div style=""font-size:60px;"">+</div>","null","fixation","","","","","","","","","","","37","","",""
"revaluation","154","805920","0.0-4.0-2.0-0.19","spark_pilot_2","9633","1","7","Female","","false","","","","","[1059.2000000029802]","./assets/img/ocean/catch/2.jpg","[""ArrowUp""]","value training","ocean","-10","{""ArrowUp,ArrowLeft"":26,""ArrowUp,ArrowRight"":10,""ArrowDown,ArrowLeft"":5,""ArrowDown,ArrowRight"":17}","false","ArrowUp","true","","","original","1","38","","",""
"html-keyboard-response","155","806431","0.0-4.0-2.0-1.19","spark_pilot_2","9633","1","7","Female","","","","","","","null","<div style=""font-size:60px;"">+</div>","null","fixation","","","","","","","","","","","39","","",""
"revaluation","156","812456","0.0-4.0-2.0-0.20","spark_pilot_2","9633","1","7","Female","","false","","","","","[1587.3999999910593,726.7000000029802]","./assets/img/ocean/memory/24.jpg","[""ArrowUp"",""ArrowLeft""]","value training","ocean","26","{""ArrowUp,ArrowLeft"":26,""ArrowUp,ArrowRight"":10,""ArrowDown,ArrowLeft"":5,""ArrowDown,ArrowRight"":17}","true","ArrowUp,ArrowLeft","false","","","original","1","40","","",""
"html-keyboard-response","157","812967","0.0-4.0-2.0-1.20","spark_pilot_2","9633","1","7","Female","","","","","","","null","<div style=""font-size:60px;"">+</div>","null","fixation","","","","","","","","","","","41","","",""
"revaluation","158","818993","0.0-4.0-2.0-0.21","spark_pilot_2","9633","1","7","Female","","false","","","","","[1353.7999999970198,955.5]","./assets/img/ocean/memory/33.jpg","[""ArrowUp"",""ArrowLeft""]","value training","ocean","26","{""ArrowUp,ArrowLeft"":26,""ArrowUp,ArrowRight"":10,""ArrowDown,ArrowLeft"":5,""ArrowDown,ArrowRight"":17}","true","ArrowUp,ArrowLeft","false","","","original","1","42","","",""
"html-keyboard-response","159","819504","0.0-4.0-2.0-1.21","spark_pilot_2","9633","1","7","Female","","","","","","","null","<div style=""font-size:60px;"">+</div>","null","fixation","","","","","","","","","","","43","","",""
"revaluation","160","825529","0.0-4.0-2.0-0.22","spark_pilot_2","9633","1","7","Female","","false","","","","","[712.3000000119209,1393.300000011921]","./assets/img/ocean/memory/11.jpg","[""ArrowUp"",""ArrowLeft""]","value training","ocean","26","{""ArrowUp,ArrowLeft"":26,""ArrowUp,ArrowRight"":10,""ArrowDown,ArrowLeft"":5,""ArrowDown,ArrowRight"":17}","true","ArrowUp,ArrowLeft","false","","","original","1","44","","",""
"html-keyboard-response","161","826040","0.0-4.0-2.0-1.22","spark_pilot_2","9633","1","7","Female","","","","","","","null","<div style=""font-size:60px;"">+</div>","null","fixation","","","","","","","","","","","45","","",""
"revaluation","162","832066","0.0-4.0-2.0-0.23","spark_pilot_2","9633","1","7","Female","","false","","","","","[1400.4000000059605,626]","./assets/img/ocean/memory/15.jpg","[""ArrowUp"",""ArrowLeft""]","value training","ocean","26","{""ArrowUp,ArrowLeft"":26,""ArrowUp,ArrowRight"":10,""ArrowDown,ArrowLeft"":5,""ArrowDown,ArrowRight"":17}","true","ArrowUp,ArrowLeft","false","","","original","1","46","","",""
"html-keyboard-response","163","832575","0.0-4.0-2.0-1.23","spark_pilot_2","9633","1","7","Female","","","","","","","null","<div style=""font-size:60px;"">+</div>","null","fixation","","","","","","","","","","","47","","",""
"revaluation","164","838596","0.0-4.0-2.0-0.24","spark_pilot_2","9633","1","7","Female","","false","","","","","[810.0999999940395,826.1999999880791]","./assets/img/ocean/memory/40.jpg","[""ArrowUp"",""ArrowLeft""]","value training","ocean","26","{""ArrowUp,ArrowLeft"":26,""ArrowUp,ArrowRight"":10,""ArrowDown,ArrowLeft"":5,""ArrowDown,ArrowRight"":17}","true","ArrowUp,ArrowLeft","false","","","original","1","48","","",""
"html-keyboard-response","165","839101","0.0-4.0-2.0-1.24","spark_pilot_2","9633","1","7","Female","","","","","","","null","<div style=""font-size:60px;"">+</div>","null","fixation","","","","","","","","","","","49","","",""
"revaluation","166","845127","0.0-4.0-2.0-0.25","spark_pilot_2","9633","1","7","Female","","false","","","","","[1307.9000000059605,907.8999999910593]","./assets/img/ocean/memory/6.jpg","[""ArrowUp"",""ArrowLeft""]","value training","ocean","26","{""ArrowUp,ArrowLeft"":26,""ArrowUp,ArrowRight"":10,""ArrowDown,ArrowLeft"":5,""ArrowDown,ArrowRight"":17}","true","ArrowUp,ArrowLeft","false","","","original","1","50","","",""
"html-keyboard-response","167","845632","0.0-4.0-2.0-1.25","spark_pilot_2","9633","1","7","Female","","","","","","","null","<div style=""font-size:60px;"">+</div>","null","fixation","","","","","","","","","","","51","","",""
"revaluation","168","849649","0.0-4.0-2.0-0.26","spark_pilot_2","9633","1","7","Female","","false","","","","","[820.5]","./assets/img/ocean/catch/0.jpg","[""spaceBar""]","value training","ocean","0","{""ArrowUp,ArrowLeft"":26,""ArrowUp,ArrowRight"":10,""ArrowDown,ArrowLeft"":5,""ArrowDown,ArrowRight"":17}","true","spaceBar","true","","","original","1","52","","",""
"html-keyboard-response","169","850160","0.0-4.0-2.0-1.26","spark_pilot_2","9633","1","7","Female","","","","","","","null","<div style=""font-size:60px;"">+</div>","null","fixation","","","","","","","","","","","53","","",""
"revaluation","170","854177","0.0-4.0-2.0-0.27","spark_pilot_2","9633","1","7","Female","","false","","","","","[1044.2000000029802]","./assets/img/ocean/catch/5.jpg","[""spaceBar""]","value training","ocean","0","{""ArrowUp,ArrowLeft"":26,""ArrowUp,ArrowRight"":10,""ArrowDown,ArrowLeft"":5,""ArrowDown,ArrowRight"":17}","true","spaceBar","true","","","original","1","54","","",""
"html-keyboard-response","171","854688","0.0-4.0-2.0-1.27","spark_pilot_2","9633","1","7","Female","","","","","","","null","<div style=""font-size:60px;"">+</div>","null","fixation","","","","","","","","","","","55","","",""
"revaluation","172","860713","0.0-4.0-2.0-0.28","spark_pilot_2","9633","1","7","Female","","false","","","","","[1188.5,566.7000000029802]","./assets/img/ocean/memory/31.jpg","[""ArrowUp"",""ArrowLeft""]","value training","ocean","26","{""ArrowUp,ArrowLeft"":26,""ArrowUp,ArrowRight"":10,""ArrowDown,ArrowLeft"":5,""ArrowDown,ArrowRight"":17}","true","ArrowUp,ArrowLeft","false","","","original","1","56","","",""
"html-keyboard-response","173","861224","0.0-4.0-2.0-1.28","spark_pilot_2","9633","1","7","Female","","","","","","","null","<div style=""font-size:60px;"">+</div>","null","fixation","","","","","","","","","","","57","","",""
"revaluation","174","865241","0.0-4.0-2.0-0.29","spark_pilot_2","9633","1","7","Female","","false","","","","","[755.6000000089407]","./assets/img/ocean/catch/4.jpg","[""spaceBar""]","value training","ocean","0","{""ArrowUp,ArrowLeft"":26,""ArrowUp,ArrowRight"":10,""ArrowDown,ArrowLeft"":5,""ArrowDown,ArrowRight"":17}","true","spaceBar","true","","","original","1","58","","",""
"html-keyboard-response","175","865752","0.0-4.0-2.0-1.29","spark_pilot_2","9633","1","7","Female","","","","","","","null","<div style=""font-size:60px;"">+</div>","null","fixation","","","","","","","","","","","59","","",""
"revaluation","176","869769","0.0-4.0-2.0-0.30","spark_pilot_2","9633","1","7","Female","","true","","","","","[]","./assets/img/ocean/memory/32.jpg","[]","value training","ocean","-5","{""ArrowUp,ArrowLeft"":26,""ArrowUp,ArrowRight"":10,""ArrowDown,ArrowLeft"":5,""ArrowDown,ArrowRight"":17}","false","","false","","","original","1","60","","",""
"html-keyboard-response","177","870280","0.0-4.0-2.0-1.30","spark_pilot_2","9633","1","7","Female","","","","","","","null","<div style=""font-size:60px;"">+</div>","null","fixation","","","","","","","","","","","61","","",""
"revaluation","178","876306","0.0-4.0-2.0-0.31","spark_pilot_2","9633","1","7","Female","","false","","","","","[865,514.7999999970198]","./assets/img/ocean/memory/6.jpg","[""ArrowUp"",""ArrowLeft""]","value training","ocean","26","{""ArrowUp,ArrowLeft"":26,""ArrowUp,ArrowRight"":10,""ArrowDown,ArrowLeft"":5,""ArrowDown,ArrowRight"":17}","true","ArrowUp,ArrowLeft","false","","","original","1","62","","",""
"html-keyboard-response","179","876816","0.0-4.0-2.0-1.31","spark_pilot_2","9633","1","7","Female","","","","","","","null","<div style=""font-size:60px;"">+</div>","null","fixation","","","","","","","","","","","63","","",""
"revaluation","180","882842","0.0-4.0-2.0-0.32","spark_pilot_2","9633","1","7","Female","","false","","","","","[590.8000000119209,1049.7000000029802]","./assets/img/ocean/memory/33.jpg","[""ArrowUp"",""ArrowLeft""]","value training","ocean","26","{""ArrowUp,ArrowLeft"":26,""ArrowUp,ArrowRight"":10,""ArrowDown,ArrowLeft"":5,""ArrowDown,ArrowRight"":17}","true","ArrowUp,ArrowLeft","false","","","original","1","64","","",""
"html-keyboard-response","181","883353","0.0-4.0-2.0-1.32","spark_pilot_2","9633","1","7","Female","","","","","","","null","<div style=""font-size:60px;"">+</div>","null","fixation","","","","","","","","","","","65","","",""
"revaluation","182","889373","0.0-4.0-2.0-0.33","spark_pilot_2","9633","1","7","Female","","false","","","","","[1304.2000000029802,1937.7000000029802]","./assets/img/ocean/memory/34.jpg","[""ArrowUp"",""ArrowLeft""]","value training","ocean","26","{""ArrowUp,ArrowLeft"":26,""ArrowUp,ArrowRight"":10,""ArrowDown,ArrowLeft"":5,""ArrowDown,ArrowRight"":17}","true","ArrowUp,ArrowLeft","false","","","original","1","66","","",""
"html-keyboard-response","183","889878","0.0-4.0-2.0-1.33","spark_pilot_2","9633","1","7","Female","","","","","","","null","<div style=""font-size:60px;"">+</div>","null","fixation","","","","","","","","","","","67","","",""
"revaluation","184","895903","0.0-4.0-2.0-0.34","spark_pilot_2","9633","1","7","Female","","false","","","","","[1818.7000000029802,891.7000000029802]","./assets/img/ocean/memory/24.jpg","[""ArrowUp"",""ArrowLeft""]","value training","ocean","26","{""ArrowUp,ArrowLeft"":26,""ArrowUp,ArrowRight"":10,""ArrowDown,ArrowLeft"":5,""ArrowDown,ArrowRight"":17}","true","ArrowUp,ArrowLeft","false","","","original","1","68","","",""
"html-keyboard-response","185","896408","0.0-4.0-2.0-1.34","spark_pilot_2","9633","1","7","Female","","","","","","","null","<div style=""font-size:60px;"">+</div>","null","fixation","","","","","","","","","","","69","","",""
"revaluation","186","902434","0.0-4.0-2.0-0.35","spark_pilot_2","9633","1","7","Female","","false","","","","","[1867.5,956.5999999940395]","./assets/img/ocean/memory/31.jpg","[""ArrowUp"",""ArrowLeft""]","value training","ocean","26","{""ArrowUp,ArrowLeft"":26,""ArrowUp,ArrowRight"":10,""ArrowDown,ArrowLeft"":5,""ArrowDown,ArrowRight"":17}","true","ArrowUp,ArrowLeft","false","","","original","1","70","","",""
"html-keyboard-response","187","902945","0.0-4.0-2.0-1.35","spark_pilot_2","9633","1","7","Female","","","","","","","null","<div style=""font-size:60px;"">+</div>","null","fixation","","","","","","","","","","","71","","",""
"revaluation","188","908965","0.0-4.0-2.0-0.36","spark_pilot_2","9633","1","7","Female","","false","","","","","[686.9000000059605,657]","./assets/img/ocean/memory/34.jpg","[""ArrowUp"",""ArrowLeft""]","value training","ocean","26","{""ArrowUp,ArrowLeft"":26,""ArrowUp,ArrowRight"":10,""ArrowDown,ArrowLeft"":5,""ArrowDown,ArrowRight"":17}","true","ArrowUp,ArrowLeft","false","","","original","1","72","","",""
"html-keyboard-response","189","909470","0.0-4.0-2.0-1.36","spark_pilot_2","9633","1","7","Female","","","","","","","null","<div style=""font-size:60px;"">+</div>","null","fixation","","","","","","","","","","","73","","",""
"revaluation","190","915495","0.0-4.0-2.0-0.37","spark_pilot_2","9633","1","7","Female","","false","","","","","[1294.9000000059605,686.8999999910593]","./assets/img/ocean/memory/11.jpg","[""ArrowUp"",""ArrowLeft""]","value training","ocean","26","{""ArrowUp,ArrowLeft"":26,""ArrowUp,ArrowRight"":10,""ArrowDown,ArrowLeft"":5,""ArrowDown,ArrowRight"":17}","true","ArrowUp,ArrowLeft","false","","","original","1","74","","",""
"html-keyboard-response","191","916000","0.0-4.0-2.0-1.37","spark_pilot_2","9633","1","7","Female","","","","","","","null","<div style=""font-size:60px;"">+</div>","null","fixation","","","","","","","","","","","75","","",""
"revaluation","192","922021","0.0-4.0-2.0-0.38","spark_pilot_2","9633","1","7","Female","","false","","","","","[1144.3999999910593,610.5]","./assets/img/ocean/memory/36.jpg","[""ArrowUp"",""ArrowLeft""]","value training","ocean","26","{""ArrowUp,ArrowLeft"":26,""ArrowUp,ArrowRight"":10,""ArrowDown,ArrowLeft"":5,""ArrowDown,ArrowRight"":17}","true","ArrowUp,ArrowLeft","false","","","original","1","76","","",""
"html-keyboard-response","193","922525","0.0-4.0-2.0-1.38","spark_pilot_2","9633","1","7","Female","","","","","","","null","<div style=""font-size:60px;"">+</div>","null","fixation","","","","","","","","","","","77","","",""
"revaluation","194","928551","0.0-4.0-2.0-0.39","spark_pilot_2","9633","1","7","Female","","false","","","","","[788.1000000089407,701.8000000119209]","./assets/img/ocean/memory/18.jpg","[""ArrowUp"",""ArrowLeft""]","value training","ocean","26","{""ArrowUp,ArrowLeft"":26,""ArrowUp,ArrowRight"":10,""ArrowDown,ArrowLeft"":5,""ArrowDown,ArrowRight"":17}","true","ArrowUp,ArrowLeft","false","","","original","1","78","","",""
"html-keyboard-response","195","929054","0.0-4.0-2.0-1.39","spark_pilot_2","9633","1","7","Female","","","","","","","null","<div style=""font-size:60px;"">+</div>","null","fixation","","","","","","","","","","","79","","",""
"revaluation","196","933073","0.0-4.0-2.0-0.40","spark_pilot_2","9633","1","7","Female","","false","","","","","[1288.2999999970198]","./assets/img/ocean/catch/6.jpg","[""spaceBar""]","value training","ocean","0","{""ArrowUp,ArrowLeft"":26,""ArrowUp,ArrowRight"":10,""ArrowDown,ArrowLeft"":5,""ArrowDown,ArrowRight"":17}","true","spaceBar","true","","","original","1","80","","",""
"html-keyboard-response","197","933583","0.0-4.0-2.0-1.40","spark_pilot_2","9633","1","7","Female","","","","","","","null","<div style=""font-size:60px;"">+</div>","null","fixation","","","","","","","","","","","81","","",""
"revaluation","198","939610","0.0-4.0-2.0-0.41","spark_pilot_2","9633","1","7","Female","","false","","","","","[1222.2999999970198,760.2999999970198]","./assets/img/ocean/memory/5.jpg","[""ArrowUp"",""ArrowLeft""]","value training","ocean","26","{""ArrowUp,ArrowLeft"":26,""ArrowUp,ArrowRight"":10,""ArrowDown,ArrowLeft"":5,""ArrowDown,ArrowRight"":17}","true","ArrowUp,ArrowLeft","false","","","original","1","82","","",""
"html-keyboard-response","199","940120","0.0-4.0-2.0-1.41","spark_pilot_2","9633","1","7","Female","","","","","","","null","<div style=""font-size:60px;"">+</div>","null","fixation","","","","","","","","","","","83","","",""
"revaluation","200","946146","0.0-4.0-2.0-0.42","spark_pilot_2","9633","1","7","Female","","false","","","","","[1146,956.1000000089407]","./assets/img/ocean/memory/15.jpg","[""ArrowUp"",""ArrowLeft""]","value training","ocean","26","{""ArrowUp,ArrowLeft"":26,""ArrowUp,ArrowRight"":10,""ArrowDown,ArrowLeft"":5,""ArrowDown,ArrowRight"":17}","true","ArrowUp,ArrowLeft","false","","","original","1","84","","",""
"html-keyboard-response","201","946656","0.0-4.0-2.0-1.42","spark_pilot_2","9633","1","7","Female","","","","","","","null","<div style=""font-size:60px;"">+</div>","null","fixation","","","","","","","","","","","85","","",""
"revaluation","202","952677","0.0-4.0-2.0-0.43","spark_pilot_2","9633","1","7","Female","","false","","","","","[1441.5,827.5999999940395]","./assets/img/ocean/memory/22.jpg","[""ArrowUp"",""ArrowLeft""]","value training","ocean","26","{""ArrowUp,ArrowLeft"":26,""ArrowUp,ArrowRight"":10,""ArrowDown,ArrowLeft"":5,""ArrowDown,ArrowRight"":17}","true","ArrowUp,ArrowLeft","false","","","original","1","86","","",""
"html-keyboard-response","203","953181","0.0-4.0-2.0-1.43","spark_pilot_2","9633","1","7","Female","","","","","","","null","<div style=""font-size:60px;"">+</div>","null","fixation","","","","","","","","","","","87","","",""
"revaluation","204","959207","0.0-4.0-2.0-0.44","spark_pilot_2","9633","1","7","Female","","false","","","","","[1193.1000000089407,882.2999999970198]","./assets/img/ocean/memory/30.jpg","[""ArrowUp"",""ArrowLeft""]","value training","ocean","26","{""ArrowUp,ArrowLeft"":26,""ArrowUp,ArrowRight"":10,""ArrowDown,ArrowLeft"":5,""ArrowDown,ArrowRight"":17}","true","ArrowUp,ArrowLeft","false","","","original","1","88","","",""
"html-keyboard-response","205","959712","0.0-4.0-2.0-1.44","spark_pilot_2","9633","1","7","Female","","","","","","","null","<div style=""font-size:60px;"">+</div>","null","fixation","","","","","","","","","","","89","","",""
"revaluation","206","965738","0.0-4.0-2.0-0.45","spark_pilot_2","9633","1","7","Female","","false","","","","","[1571.2999999970198,876]","./assets/img/ocean/memory/5.jpg","[""ArrowUp"",""ArrowLeft""]","value training","ocean","26","{""ArrowUp,ArrowLeft"":26,""ArrowUp,ArrowRight"":10,""ArrowDown,ArrowLeft"":5,""ArrowDown,ArrowRight"":17}","true","ArrowUp,ArrowLeft","false","","","original","1","90","","",""
"html-keyboard-response","207","966248","0.0-4.0-2.0-1.45","spark_pilot_2","9633","1","7","Female","","","","","","","null","<div style=""font-size:60px;"">+</div>","null","fixation","","","","","","","","","","","91","","",""
"revaluation","208","972270","0.0-4.0-2.0-0.46","spark_pilot_2","9633","1","7","Female","","false","","","","","[1037.5,696]","./assets/img/ocean/memory/16.jpg","[""ArrowUp"",""ArrowLeft""]","value training","ocean","26","{""ArrowUp,ArrowLeft"":26,""ArrowUp,ArrowRight"":10,""ArrowDown,ArrowLeft"":5,""ArrowDown,ArrowRight"":17}","true","ArrowUp,ArrowLeft","false","","","original","1","92","","",""
"html-keyboard-response","209","972773","0.0-4.0-2.0-1.46","spark_pilot_2","9633","1","7","Female","","","","","","","null","<div style=""font-size:60px;"">+</div>","null","fixation","","","","","","","","","","","93","","",""
"revaluation","210","978799","0.0-4.0-2.0-0.47","spark_pilot_2","9633","1","7","Female","","false","","","","","[1159.7000000029802,1298.7000000029802]","./assets/img/ocean/memory/38.jpg","[""ArrowDown"",""ArrowRight""]","value training","ocean","17","{""ArrowUp,ArrowLeft"":26,""ArrowUp,ArrowRight"":10,""ArrowDown,ArrowLeft"":5,""ArrowDown,ArrowRight"":17}","false","ArrowDown,ArrowRight","false","","","original","1","94","","",""
"html-keyboard-response","211","979304","0.0-4.0-2.0-1.47","spark_pilot_2","9633","1","7","Female","","","","","","","null","<div style=""font-size:60px;"">+</div>","null","fixation","","","","","","","","","","","95","","",""
"revaluation","212","983321","0.0-4.0-2.0-0.48","spark_pilot_2","9633","1","7","Female","","false","","","","","[1248.9000000059605]","./assets/img/ocean/catch/1.jpg","[""spaceBar""]","value training","ocean","0","{""ArrowUp,ArrowLeft"":26,""ArrowUp,ArrowRight"":10,""ArrowDown,ArrowLeft"":5,""ArrowDown,ArrowRight"":17}","true","spaceBar","true","","","original","1","96","","",""
"html-keyboard-response","213","983832","0.0-4.0-2.0-1.48","spark_pilot_2","9633","1","7","Female","","","","","","","null","<div style=""font-size:60px;"">+</div>","null","fixation","","","","","","","","","","","97","","",""
"revaluation","214","989858","0.0-4.0-2.0-0.49","spark_pilot_2","9633","1","7","Female","","false","","","","","[1864.3999999910593,1153.7000000029802]","./assets/img/ocean/memory/36.jpg","[""ArrowDown"",""ArrowRight""]","value training","ocean","17","{""ArrowUp,ArrowLeft"":26,""ArrowUp,ArrowRight"":10,""ArrowDown,ArrowLeft"":5,""ArrowDown,ArrowRight"":17}","false","ArrowDown,ArrowRight","false","","","original","1","98","","",""
"html-keyboard-response","215","990368","0.0-4.0-2.0-1.49","spark_pilot_2","9633","1","7","Female","","","","","","","null","<div style=""font-size:60px;"">+</div>","null","fixation","","","","","","","","","","","99","","",""
"learning-instructions","216","1011314","0.0-4.0-3.0-0.0","spark_pilot_2","9633","1","7","Female","","","","","","","7955.70000000298","<p> Now, you will travel with a friend who will choose whether you go up or down first. </p>
            <p> On these turns, you will just see the animal that they found. You will still get to choose which chest to search for treasure.</p>","","instructions","","","","","","","","","","","","","",""
"revaluation","217","1015326","0.0-4.0-4.0-0.0","spark_pilot_2","9633","1","7","Female","","false","","","","","[1351.5]","./assets/img/ocean/animals/seahorse.jpg","[""ArrowRight""]","revaluation","ocean","17","{""ArrowUp,ArrowLeft"":26,""ArrowUp,ArrowRight"":10,""ArrowDown,ArrowLeft"":5,""ArrowDown,ArrowRight"":17}","true","ArrowDown,ArrowRight","","","","original","1","0","","",""
"html-keyboard-response","218","1015838","0.0-4.0-4.0-1.0","spark_pilot_2","9633","1","7","Female","","","","","","","null","<div style=""font-size:60px;"">+</div>","null","fixation","","","","","","","","","","","1","","",""
"revaluation","219","1019855","0.0-4.0-4.0-0.1","spark_pilot_2","9633","1","7","Female","","false","","","","","[702.7999999970198]","./assets/img/ocean/animals/octopus.jpg","[""ArrowLeft""]","revaluation","ocean","26","{""ArrowUp,ArrowLeft"":26,""ArrowUp,ArrowRight"":10,""ArrowDown,ArrowLeft"":5,""ArrowDown,ArrowRight"":17}","true","ArrowUp,ArrowLeft","","","","original","1","2","","",""
"html-keyboard-response","220","1020360","0.0-4.0-4.0-1.1","spark_pilot_2","9633","1","7","Female","","","","","","","null","<div style=""font-size:60px;"">+</div>","null","fixation","","","","","","","","","","","3","","",""
"revaluation","221","1024378","0.0-4.0-4.0-0.2","spark_pilot_2","9633","1","7","Female","","false","","","","","[688.1000000089407]","./assets/img/ocean/animals/seahorse.jpg","[""ArrowRight""]","revaluation","ocean","17","{""ArrowUp,ArrowLeft"":26,""ArrowUp,ArrowRight"":10,""ArrowDown,ArrowLeft"":5,""ArrowDown,ArrowRight"":17}","true","ArrowDown,ArrowRight","","","","original","1","4","","",""
"html-keyboard-response","222","1024886","0.0-4.0-4.0-1.2","spark_pilot_2","9633","1","7","Female","","","","","","","null","<div style=""font-size:60px;"">+</div>","null","fixation","","","","","","","","","","","5","","",""
"revaluation","223","1028906","0.0-4.0-4.0-0.3","spark_pilot_2","9633","1","7","Female","","false","","","","","[1418.7999999970198]","./assets/img/ocean/animals/seahorse.jpg","[""ArrowLeft""]","revaluation","ocean","5","{""ArrowUp,ArrowLeft"":26,""ArrowUp,ArrowRight"":10,""ArrowDown,ArrowLeft"":5,""ArrowDown,ArrowRight"":17}","false","ArrowDown,ArrowLeft","","","","original","1","6","","",""
"html-keyboard-response","224","1029416","0.0-4.0-4.0-1.3","spark_pilot_2","9633","1","7","Female","","","","","","","null","<div style=""font-size:60px;"">+</div>","null","fixation","","","","","","","","","","","7","","",""
"revaluation","225","1033429","0.0-4.0-4.0-0.4","spark_pilot_2","9633","1","7","Female","","false","","","","","[736]","./assets/img/ocean/animals/seahorse.jpg","[""ArrowRight""]","revaluation","ocean","17","{""ArrowUp,ArrowLeft"":26,""ArrowUp,ArrowRight"":10,""ArrowDown,ArrowLeft"":5,""ArrowDown,ArrowRight"":17}","true","ArrowDown,ArrowRight","","","","original","1","8","","",""
"html-keyboard-response","226","1033934","0.0-4.0-4.0-1.4","spark_pilot_2","9633","1","7","Female","","","","","","","null","<div style=""font-size:60px;"">+</div>","null","fixation","","","","","","","","","","","9","","",""
"revaluation","227","1037951","0.0-4.0-4.0-0.5","spark_pilot_2","9633","1","7","Female","","false","","","","","[1217.7999999970198]","./assets/img/ocean/animals/seahorse.jpg","[""ArrowLeft""]","revaluation","ocean","5","{""ArrowUp,ArrowLeft"":26,""ArrowUp,ArrowRight"":10,""ArrowDown,ArrowLeft"":5,""ArrowDown,ArrowRight"":17}","false","ArrowDown,ArrowLeft","","","","original","1","10","","",""
"html-keyboard-response","228","1038456","0.0-4.0-4.0-1.5","spark_pilot_2","9633","1","7","Female","","","","","","","null","<div style=""font-size:60px;"">+</div>","null","fixation","","","","","","","","","","","11","","",""
"revaluation","229","1042473","0.0-4.0-4.0-0.6","spark_pilot_2","9633","1","7","Female","","false","","","","","[1183.800000011921]","./assets/img/ocean/animals/octopus.jpg","[""ArrowLeft""]","revaluation","ocean","26","{""ArrowUp,ArrowLeft"":26,""ArrowUp,ArrowRight"":10,""ArrowDown,ArrowLeft"":5,""ArrowDown,ArrowRight"":17}","true","ArrowUp,ArrowLeft","","","","original","1","12","","",""
"html-keyboard-response","230","1042984","0.0-4.0-4.0-1.6","spark_pilot_2","9633","1","7","Female","","","","","","","null","<div style=""font-size:60px;"">+</div>","null","fixation","","","","","","","","","","","13","","",""
"revaluation","231","1047001","0.0-4.0-4.0-0.7","spark_pilot_2","9633","1","7","Female","","false","","","","","[776]","./assets/img/ocean/animals/seahorse.jpg","[""ArrowRight""]","revaluation","ocean","17","{""ArrowUp,ArrowLeft"":26,""ArrowUp,ArrowRight"":10,""ArrowDown,ArrowLeft"":5,""ArrowDown,ArrowRight"":17}","true","ArrowDown,ArrowRight","","","","original","1","14","","",""
"html-keyboard-response","232","1047512","0.0-4.0-4.0-1.7","spark_pilot_2","9633","1","7","Female","","","","","","","null","<div style=""font-size:60px;"">+</div>","null","fixation","","","","","","","","","","","15","","",""
"revaluation","233","1051529","0.0-4.0-4.0-0.8","spark_pilot_2","9633","1","7","Female","","false","","","","","[764.0999999940395]","./assets/img/ocean/animals/octopus.jpg","[""ArrowLeft""]","revaluation","ocean","26","{""ArrowUp,ArrowLeft"":26,""ArrowUp,ArrowRight"":10,""ArrowDown,ArrowLeft"":5,""ArrowDown,ArrowRight"":17}","true","ArrowUp,ArrowLeft","","","","original","1","16","","",""
"html-keyboard-response","234","1052040","0.0-4.0-4.0-1.8","spark_pilot_2","9633","1","7","Female","","","","","","","null","<div style=""font-size:60px;"">+</div>","null","fixation","","","","","","","","","","","17","","",""
"revaluation","235","1056057","0.0-4.0-4.0-0.9","spark_pilot_2","9633","1","7","Female","","false","","","","","[803.8000000119209]","./assets/img/ocean/animals/seahorse.jpg","[""ArrowRight""]","revaluation","ocean","17","{""ArrowUp,ArrowLeft"":26,""ArrowUp,ArrowRight"":10,""ArrowDown,ArrowLeft"":5,""ArrowDown,ArrowRight"":17}","true","ArrowDown,ArrowRight","","","","original","1","18","","",""
"html-keyboard-response","236","1056568","0.0-4.0-4.0-1.9","spark_pilot_2","9633","1","7","Female","","","","","","","null","<div style=""font-size:60px;"">+</div>","null","fixation","","","","","","","","","","","19","","",""
"revaluation","237","1060585","0.0-4.0-4.0-0.10","spark_pilot_2","9633","1","7","Female","","false","","","","","[834.5]","./assets/img/ocean/animals/octopus.jpg","[""ArrowLeft""]","revaluation","ocean","26","{""ArrowUp,ArrowLeft"":26,""ArrowUp,ArrowRight"":10,""ArrowDown,ArrowLeft"":5,""ArrowDown,ArrowRight"":17}","true","ArrowUp,ArrowLeft","","","","original","1","20","","",""
"html-keyboard-response","238","1061096","0.0-4.0-4.0-1.10","spark_pilot_2","9633","1","7","Female","","","","","","","null","<div style=""font-size:60px;"">+</div>","null","fixation","","","","","","","","","","","21","","",""
"revaluation","239","1065113","0.0-4.0-4.0-0.11","spark_pilot_2","9633","1","7","Female","","false","","","","","[725.1000000089407]","./assets/img/ocean/animals/octopus.jpg","[""ArrowRight""]","revaluation","ocean","10","{""ArrowUp,ArrowLeft"":26,""ArrowUp,ArrowRight"":10,""ArrowDown,ArrowLeft"":5,""ArrowDown,ArrowRight"":17}","false","ArrowUp,ArrowRight","","","","original","1","22","","",""
"html-keyboard-response","240","1065623","0.0-4.0-4.0-1.11","spark_pilot_2","9633","1","7","Female","","","","","","","null","<div style=""font-size:60px;"">+</div>","null","fixation","","","","","","","","","","","23","","",""
"revaluation","241","1069641","0.0-4.0-4.0-0.12","spark_pilot_2","9633","1","7","Female","","false","","","","","[1237.1000000089407]","./assets/img/ocean/animals/seahorse.jpg","[""ArrowRight""]","revaluation","ocean","17","{""ArrowUp,ArrowLeft"":26,""ArrowUp,ArrowRight"":10,""ArrowDown,ArrowLeft"":5,""ArrowDown,ArrowRight"":17}","true","ArrowDown,ArrowRight","","","","original","1","24","","",""
"html-keyboard-response","242","1070151","0.0-4.0-4.0-1.12","spark_pilot_2","9633","1","7","Female","","","","","","","null","<div style=""font-size:60px;"">+</div>","null","fixation","","","","","","","","","","","25","","",""
"revaluation","243","1074169","0.0-4.0-4.0-0.13","spark_pilot_2","9633","1","7","Female","","false","","","","","[844.7000000029802]","./assets/img/ocean/animals/octopus.jpg","[""ArrowLeft""]","revaluation","ocean","26","{""ArrowUp,ArrowLeft"":26,""ArrowUp,ArrowRight"":10,""ArrowDown,ArrowLeft"":5,""ArrowDown,ArrowRight"":17}","true","ArrowUp,ArrowLeft","","","","original","1","26","","",""
"html-keyboard-response","244","1074679","0.0-4.0-4.0-1.13","spark_pilot_2","9633","1","7","Female","","","","","","","null","<div style=""font-size:60px;"">+</div>","null","fixation","","","","","","","","","","","27","","",""
"revaluation","245","1078697","0.0-4.0-4.0-0.14","spark_pilot_2","9633","1","7","Female","","false","","","","","[1156.7999999970198]","./assets/img/ocean/animals/octopus.jpg","[""ArrowLeft""]","revaluation","ocean","26","{""ArrowUp,ArrowLeft"":26,""ArrowUp,ArrowRight"":10,""ArrowDown,ArrowLeft"":5,""ArrowDown,ArrowRight"":17}","true","ArrowUp,ArrowLeft","","","","original","1","28","","",""
"html-keyboard-response","246","1079207","0.0-4.0-4.0-1.14","spark_pilot_2","9633","1","7","Female","","","","","","","null","<div style=""font-size:60px;"">+</div>","null","fixation","","","","","","","","","","","29","","",""
"revaluation","247","1083224","0.0-4.0-4.0-0.15","spark_pilot_2","9633","1","7","Female","","false","","","","","[1156.699999988079]","./assets/img/ocean/animals/octopus.jpg","[""ArrowLeft""]","revaluation","ocean","26","{""ArrowUp,ArrowLeft"":26,""ArrowUp,ArrowRight"":10,""ArrowDown,ArrowLeft"":5,""ArrowDown,ArrowRight"":17}","true","ArrowUp,ArrowLeft","","","","original","1","30","","",""
"html-keyboard-response","248","1083735","0.0-4.0-4.0-1.15","spark_pilot_2","9633","1","7","Female","","","","","","","null","<div style=""font-size:60px;"">+</div>","null","fixation","","","","","","","","","","","31","","",""
"revaluation","249","1087751","0.0-4.0-4.0-0.16","spark_pilot_2","9633","1","7","Female","","false","","","","","[1005.0999999940395]","./assets/img/ocean/animals/octopus.jpg","[""ArrowLeft""]","revaluation","ocean","26","{""ArrowUp,ArrowLeft"":26,""ArrowUp,ArrowRight"":10,""ArrowDown,ArrowLeft"":5,""ArrowDown,ArrowRight"":17}","true","ArrowUp,ArrowLeft","","","","original","1","32","","",""
"html-keyboard-response","250","1088257","0.0-4.0-4.0-1.16","spark_pilot_2","9633","1","7","Female","","","","","","","null","<div style=""font-size:60px;"">+</div>","null","fixation","","","","","","","","","","","33","","",""
"revaluation","251","1092275","0.0-4.0-4.0-0.17","spark_pilot_2","9633","1","7","Female","","true","","","","","[]","./assets/img/ocean/animals/seahorse.jpg","[]","revaluation","ocean","-5","{""ArrowUp,ArrowLeft"":26,""ArrowUp,ArrowRight"":10,""ArrowDown,ArrowLeft"":5,""ArrowDown,ArrowRight"":17}","false","ArrowDown","","","","original","1","34","","",""
"html-keyboard-response","252","1092785","0.0-4.0-4.0-1.17","spark_pilot_2","9633","1","7","Female","","","","","","","null","<div style=""font-size:60px;"">+</div>","null","fixation","","","","","","","","","","","35","","",""
"learning-instructions","253","1105624","0.0-4.0-5.0-0.0","spark_pilot_2","9633","1","7","Female","","","","","","","1222.2999999970198","<p> Time to play the dot game! </p>
            <p> For one minute, click the red dots on the following screen as they appear. </p>
            <p><b> Don't look away, as you will earn bonus for clicking dots</b>. </p>","","instructions","","","","","","","","","","","","","",""
"revaluation","254","1165629","0.0-4.0-6.0-0.0","spark_pilot_2","9633","1","7","Female","","","","","","","[101,79,97,105,99,95,76]","","","rest","","70","","","","","0","60000","","","","","",""
"learning-instructions","255","1174153","0.0-4.0-7.0-0.0","spark_pilot_2","9633","1","7","Female","","","","","","","2293.4000000059605","<p> You have almost finished this part of the game! </p>
            <p> We are going to ask you to make a few more choices. </p>","","instructions","","","","","","","","","","","","","",""
"learning-instructions","256","1189531","0.0-4.0-7.0-0.1","spark_pilot_2","9633","1","7","Female","","","","","","","1405.0999999940395","<p> First, you need to decide whether to go up or down. When you see each picture, use the arrow keys to make your choice. </p>
            <p><b>You will not see which animal you found, but try to get to the one that will give you the most treasure.</b></p>","","instructions","","","","","","","","","","","","","",""
"revaluation","257","1190689","0.0-4.0-8.0-0.0","spark_pilot_2","9633","1","7","Female","","false","","","","","[1157.4000000059605]","./assets/img/ocean/test/0.jpg","[""ArrowUp""]","first stage test","ocean","0","{""ArrowUp,ArrowLeft"":26,""ArrowUp,ArrowRight"":10,""ArrowDown,ArrowLeft"":5,""ArrowDown,ArrowRight"":17}","true","ArrowUp","false","","","original","1","","","",""
"html-keyboard-response","258","1191199","0.0-4.0-8.0-1.0","spark_pilot_2","9633","1","7","Female","","","","","","","null","<div style=""font-size:60px;"">+</div>","null","fixation","","","","","","","","","","","","","",""
"revaluation","259","1193232","0.0-4.0-8.0-0.1","spark_pilot_2","9633","1","7","Female","","false","","","","","[2030.8999999910593]","./assets/img/ocean/test/3.jpg","[""ArrowUp""]","first stage test","ocean","0","{""ArrowUp,ArrowLeft"":26,""ArrowUp,ArrowRight"":10,""ArrowDown,ArrowLeft"":5,""ArrowDown,ArrowRight"":17}","true","ArrowUp","false","","","original","1","","","",""
"html-keyboard-response","260","1193739","0.0-4.0-8.0-1.1","spark_pilot_2","9633","1","7","Female","","","","","","","null","<div style=""font-size:60px;"">+</div>","null","fixation","","","","","","","","","","","","","",""
"revaluation","261","1194873","0.0-4.0-8.0-0.2","spark_pilot_2","9633","1","7","Female","","false","","","","","[1131.9000000059605]","./assets/img/ocean/test/1.jpg","[""ArrowUp""]","first stage test","ocean","0","{""ArrowUp,ArrowLeft"":26,""ArrowUp,ArrowRight"":10,""ArrowDown,ArrowLeft"":5,""ArrowDown,ArrowRight"":17}","true","ArrowUp","false","","","original","1","","","",""
"html-keyboard-response","262","1195375","0.0-4.0-8.0-1.2","spark_pilot_2","9633","1","7","Female","","","","","","","null","<div style=""font-size:60px;"">+</div>","null","fixation","","","","","","","","","","","","","",""
"revaluation","263","1196033","0.0-4.0-8.0-0.3","spark_pilot_2","9633","1","7","Female","","false","","","","","[655.3000000119209]","./assets/img/ocean/test/2.jpg","[""ArrowUp""]","first stage test","ocean","0","{""ArrowUp,ArrowLeft"":26,""ArrowUp,ArrowRight"":10,""ArrowDown,ArrowLeft"":5,""ArrowDown,ArrowRight"":17}","true","ArrowUp","false","","","original","1","","","",""
"html-keyboard-response","264","1196536","0.0-4.0-8.0-1.3","spark_pilot_2","9633","1","7","Female","","","","","","","null","<div style=""font-size:60px;"">+</div>","null","fixation","","","","","","","","","","","","","",""
"learning-instructions","265","1210762","0.0-4.0-9.0-0.0","spark_pilot_2","9633","1","7","Female","","","","","","","2882.5999999940395","<p> Now you will see the animals again and can search their chests for treasure. </p>
            <p> This time, you will not see how much treasure you earned, but you will earn more bonus money for making better choices. </p>","","instructions","","","","","","","","","","","","","",""
"revaluation","266","1212566","0.0-4.0-10.0-0.0","spark_pilot_2","9633","1","7","Female","","false","","","","","[1802.6000000089407]","./assets/img/ocean/animals/octopus.jpg","[""ArrowLeft""]","second stage test","ocean","0","{""ArrowUp,ArrowLeft"":26,""ArrowUp,ArrowRight"":10,""ArrowDown,ArrowLeft"":5,""ArrowDown,ArrowRight"":17}","true","ArrowUp,ArrowLeft","","","","original","1","","","",""
"html-keyboard-response","267","1213075","0.0-4.0-10.0-1.0","spark_pilot_2","9633","1","7","Female","","","","","","","null","<div style=""font-size:60px;"">+</div>","null","fixation","","","","","","","","","","","","","",""
"revaluation","268","1213839","0.0-4.0-10.0-0.1","spark_pilot_2","9633","1","7","Female","","false","","","","","[761.5999999940395]","./assets/img/ocean/animals/octopus.jpg","[""ArrowLeft""]","second stage test","ocean","0","{""ArrowUp,ArrowLeft"":26,""ArrowUp,ArrowRight"":10,""ArrowDown,ArrowLeft"":5,""ArrowDown,ArrowRight"":17}","true","ArrowUp,ArrowLeft","","","","original","1","","","",""
"html-keyboard-response","269","1214346","0.0-4.0-10.0-1.1","spark_pilot_2","9633","1","7","Female","","","","","","","null","<div style=""font-size:60px;"">+</div>","null","fixation","","","","","","","","","","","","","",""
"revaluation","270","1214982","0.0-4.0-10.0-0.2","spark_pilot_2","9633","1","7","Female","","false","","","","","[633.3999999910593]","./assets/img/ocean/animals/octopus.jpg","[""ArrowLeft""]","second stage test","ocean","0","{""ArrowUp,ArrowLeft"":26,""ArrowUp,ArrowRight"":10,""ArrowDown,ArrowLeft"":5,""ArrowDown,ArrowRight"":17}","true","ArrowUp,ArrowLeft","","","","original","1","","","",""
"html-keyboard-response","271","1215490","0.0-4.0-10.0-1.2","spark_pilot_2","9633","1","7","Female","","","","","","","null","<div style=""font-size:60px;"">+</div>","null","fixation","","","","","","","","","","","","","",""
"revaluation","272","1216342","0.0-4.0-10.0-0.3","spark_pilot_2","9633","1","7","Female","","false","","","","","[850.2000000029802]","./assets/img/ocean/animals/octopus.jpg","[""ArrowLeft""]","second stage test","ocean","0","{""ArrowUp,ArrowLeft"":26,""ArrowUp,ArrowRight"":10,""ArrowDown,ArrowLeft"":5,""ArrowDown,ArrowRight"":17}","true","ArrowUp,ArrowLeft","","","","original","1","","","",""
"html-keyboard-response","273","1216848","0.0-4.0-10.0-1.3","spark_pilot_2","9633","1","7","Female","","","","","","","null","<div style=""font-size:60px;"">+</div>","null","fixation","","","","","","","","","","","","","",""
"revaluation","274","1218470","0.0-4.0-10.0-0.4","spark_pilot_2","9633","1","7","Female","","false","","","","","[1620.2999999970198]","./assets/img/ocean/animals/seahorse.jpg","[""ArrowRight""]","second stage test","ocean","0","{""ArrowUp,ArrowLeft"":26,""ArrowUp,ArrowRight"":10,""ArrowDown,ArrowLeft"":5,""ArrowDown,ArrowRight"":17}","true","ArrowDown,ArrowRight","","","","original","1","","","",""
"html-keyboard-response","275","1218979","0.0-4.0-10.0-1.4","spark_pilot_2","9633","1","7","Female","","","","","","","null","<div style=""font-size:60px;"">+</div>","null","fixation","","","","","","","","","","","","","",""
"revaluation","276","1219726","0.0-4.0-10.0-0.5","spark_pilot_2","9633","1","7","Female","","false","","","","","[745.6000000089407]","./assets/img/ocean/animals/seahorse.jpg","[""ArrowRight""]","second stage test","ocean","0","{""ArrowUp,ArrowLeft"":26,""ArrowUp,ArrowRight"":10,""ArrowDown,ArrowLeft"":5,""ArrowDown,ArrowRight"":17}","true","ArrowDown,ArrowRight","","","","original","1","","","",""
"html-keyboard-response","277","1220233","0.0-4.0-10.0-1.5","spark_pilot_2","9633","1","7","Female","","","","","","","null","<div style=""font-size:60px;"">+</div>","null","fixation","","","","","","","","","","","","","",""
"revaluation","278","1220765","0.0-4.0-10.0-0.6","spark_pilot_2","9633","1","7","Female","","false","","","","","[529.8999999910593]","./assets/img/ocean/animals/seahorse.jpg","[""ArrowRight""]","second stage test","ocean","0","{""ArrowUp,ArrowLeft"":26,""ArrowUp,ArrowRight"":10,""ArrowDown,ArrowLeft"":5,""ArrowDown,ArrowRight"":17}","true","ArrowDown,ArrowRight","","","","original","1","","","",""
"html-keyboard-response","279","1221271","0.0-4.0-10.0-1.6","spark_pilot_2","9633","1","7","Female","","","","","","","null","<div style=""font-size:60px;"">+</div>","null","fixation","","","","","","","","","","","","","",""
"revaluation","280","1221990","0.0-4.0-10.0-0.7","spark_pilot_2","9633","1","7","Female","","false","","","","","[717.2000000029802]","./assets/img/ocean/animals/seahorse.jpg","[""ArrowRight""]","second stage test","ocean","0","{""ArrowUp,ArrowLeft"":26,""ArrowUp,ArrowRight"":10,""ArrowDown,ArrowLeft"":5,""ArrowDown,ArrowRight"":17}","true","ArrowDown,ArrowRight","","","","original","1","","","",""
"html-keyboard-response","281","1222495","0.0-4.0-10.0-1.7","spark_pilot_2","9633","1","7","Female","","","","","","","null","<div style=""font-size:60px;"">+</div>","null","fixation","","","","","","","","","","","","","",""
"learning-instructions","282","1227103","0.0-4.0-0.1-0.2","spark_pilot_2","9633","1","7","Female","","","","","","","1837","<p> This time you are searching for treasure in the <b>canyon</b>.</p>","","instructions","","","","","","","","","","","","","",""
"learning-instructions","283","1245515","0.0-4.0-0.1-0.3","spark_pilot_2","9633","1","7","Female","","","","","","","1162","<p><b>New</b> animals with <b>new</b> treasure chests live here. You need to explore to discover where the animal with the best treasure chest is.</p>
                    <p> Like before, once you figure out which animal has the chest with the most treasure, you should try to get to that animal and select that chest! </p>","","instructions","","","","","","","","","","","","","",""
"learning-instructions","284","1266324","0.0-4.0-1.1-0.1","spark_pilot_2","9633","1","7","Female","","","","","","","6077.29999999702","<p> Remember, when you see a picture of the place, use the up and down keys to <b>find an animal</b>.</p>
            <p> When you encounter an animal, you should use the left and right keys to <b>select a treasure chest</b>.</p>
            <p> Don't forget to look out for the robber! </p>","","instructions","","","","","","","","","","","","","",""
"revaluation","285","1272350","0.0-4.0-2.1-0.50","spark_pilot_2","9633","1","7","Female","","false","","","","","[1615.2000000029802,1154.5]","./assets/img/canyon/memory/24.jpg","[""ArrowUp"",""ArrowRight""]","value training","canyon","10","{""ArrowUp,ArrowLeft"":23,""ArrowUp,ArrowRight"":10,""ArrowDown,ArrowLeft"":8,""ArrowDown,ArrowRight"":30}","false","ArrowUp,ArrowRight","false","","","revaluation","2","0","","",""
"html-keyboard-response","286","1272854","0.0-4.0-2.1-1.50","spark_pilot_2","9633","1","7","Female","","","","","","","null","<div style=""font-size:60px;"">+</div>","null","fixation","","","","","","","","","","","1","","",""
"revaluation","287","1278871","0.0-4.0-2.1-0.51","spark_pilot_2","9633","1","7","Female","","false","","","","","[808.7999999970198,697.2999999970198]","./assets/img/canyon/memory/27.jpg","[""ArrowUp"",""ArrowLeft""]","value training","canyon","23","{""ArrowUp,ArrowLeft"":23,""ArrowUp,ArrowRight"":10,""ArrowDown,ArrowLeft"":8,""ArrowDown,ArrowRight"":30}","false","ArrowUp,ArrowLeft","false","","","revaluation","2","2","","",""
"html-keyboard-response","288","1279376","0.0-4.0-2.1-1.51","spark_pilot_2","9633","1","7","Female","","","","","","","null","<div style=""font-size:60px;"">+</div>","null","fixation","","","","","","","","","","","3","","",""
"revaluation","289","1285399","0.0-4.0-2.1-0.52","spark_pilot_2","9633","1","7","Female","","false","","","","","[867.2000000029802,787.6999999880791]","./assets/img/canyon/memory/38.jpg","[""ArrowDown"",""ArrowRight""]","value training","canyon","30","{""ArrowUp,ArrowLeft"":23,""ArrowUp,ArrowRight"":10,""ArrowDown,ArrowLeft"":8,""ArrowDown,ArrowRight"":30}","true","ArrowDown,ArrowRight","false","","","revaluation","2","4","","",""
"html-keyboard-response","290","1285905","0.0-4.0-2.1-1.52","spark_pilot_2","9633","1","7","Female","","","","","","","null","<div style=""font-size:60px;"">+</div>","null","fixation","","","","","","","","","","","5","","",""
"revaluation","291","1291929","0.0-4.0-2.1-0.53","spark_pilot_2","9633","1","7","Female","","false","","","","","[516.1000000089407,846.6000000089407]","./assets/img/canyon/memory/24.jpg","[""ArrowDown"",""ArrowLeft""]","value training","canyon","8","{""ArrowUp,ArrowLeft"":23,""ArrowUp,ArrowRight"":10,""ArrowDown,ArrowLeft"":8,""ArrowDown,ArrowRight"":30}","false","ArrowDown,ArrowLeft","false","","","revaluation","2","6","","",""
"html-keyboard-response","292","1292431","0.0-4.0-2.1-1.53","spark_pilot_2","9633","1","7","Female","","","","","","","null","<div style=""font-size:60px;"">+</div>","null","fixation","","","","","","","","","","","7","","",""
"revaluation","293","1298457","0.0-4.0-2.1-0.54","spark_pilot_2","9633","1","7","Female","","false","","","","","[864.1999999880791,839.6000000089407]","./assets/img/canyon/memory/17.jpg","[""ArrowDown"",""ArrowRight""]","value training","canyon","30","{""ArrowUp,ArrowLeft"":23,""ArrowUp,ArrowRight"":10,""ArrowDown,ArrowLeft"":8,""ArrowDown,ArrowRight"":30}","true","ArrowDown,ArrowRight","false","","","revaluation","2","8","","",""
"html-keyboard-response","294","1298961","0.0-4.0-2.1-1.54","spark_pilot_2","9633","1","7","Female","","","","","","","null","<div style=""font-size:60px;"">+</div>","null","fixation","","","","","","","","","","","9","","",""
"revaluation","295","1302979","0.0-4.0-2.1-0.55","spark_pilot_2","9633","1","7","Female","","false","","","","","[1149.1000000089407]","./assets/img/canyon/catch/1.jpg","[""spaceBar""]","value training","canyon","0","{""ArrowUp,ArrowLeft"":23,""ArrowUp,ArrowRight"":10,""ArrowDown,ArrowLeft"":8,""ArrowDown,ArrowRight"":30}","true","spaceBar","true","","","revaluation","2","10","","",""
"html-keyboard-response","296","1303489","0.0-4.0-2.1-1.55","spark_pilot_2","9633","1","7","Female","","","","","","","null","<div style=""font-size:60px;"">+</div>","null","fixation","","","","","","","","","","","11","","",""
"revaluation","297","1309515","0.0-4.0-2.1-0.56","spark_pilot_2","9633","1","7","Female","","false","","","","","[1654.4000000059605,688.4000000059605]","./assets/img/canyon/memory/34.jpg","[""ArrowDown"",""ArrowRight""]","value training","canyon","30","{""ArrowUp,ArrowLeft"":23,""ArrowUp,ArrowRight"":10,""ArrowDown,ArrowLeft"":8,""ArrowDown,ArrowRight"":30}","true","ArrowDown,ArrowRight","false","","","revaluation","2","12","","",""
"html-keyboard-response","298","1310025","0.0-4.0-2.1-1.56","spark_pilot_2","9633","1","7","Female","","","","","","","null","<div style=""font-size:60px;"">+</div>","null","fixation","","","","","","","","","","","13","","",""
"revaluation","299","1314043","0.0-4.0-2.1-0.57","spark_pilot_2","9633","1","7","Female","","true","","","","","[]","./assets/img/canyon/memory/32.jpg","[]","value training","canyon","-5","{""ArrowUp,ArrowLeft"":23,""ArrowUp,ArrowRight"":10,""ArrowDown,ArrowLeft"":8,""ArrowDown,ArrowRight"":30}","false","","false","","","revaluation","2","14","","",""
"html-keyboard-response","300","1314554","0.0-4.0-2.1-1.57","spark_pilot_2","9633","1","7","Female","","","","","","","null","<div style=""font-size:60px;"">+</div>","null","fixation","","","","","","","","","","","15","","",""
"revaluation","301","1320577","0.0-4.0-2.1-0.58","spark_pilot_2","9633","1","7","Female","","false","","","","","[678,1382.7000000029802]","./assets/img/canyon/memory/16.jpg","[""ArrowDown"",""ArrowRight""]","value training","canyon","30","{""ArrowUp,ArrowLeft"":23,""ArrowUp,ArrowRight"":10,""ArrowDown,ArrowLeft"":8,""ArrowDown,ArrowRight"":30}","true","ArrowDown,ArrowRight","false","","","revaluation","2","16","","",""
"html-keyboard-response","302","1321078","0.0-4.0-2.1-1.58","spark_pilot_2","9633","1","7","Female","","","","","","","null","<div style=""font-size:60px;"">+</div>","null","fixation","","","","","","","","","","","17","","",""
"revaluation","303","1327104","0.0-4.0-2.1-0.59","spark_pilot_2","9633","1","7","Female","","false","","","","","[833.5,794.3999999910593]","./assets/img/canyon/memory/35.jpg","[""ArrowDown"",""ArrowRight""]","value training","canyon","30","{""ArrowUp,ArrowLeft"":23,""ArrowUp,ArrowRight"":10,""ArrowDown,ArrowLeft"":8,""ArrowDown,ArrowRight"":30}","true","ArrowDown,ArrowRight","false","","","revaluation","2","18","","",""
"html-keyboard-response","304","1327609","0.0-4.0-2.1-1.59","spark_pilot_2","9633","1","7","Female","","","","","","","null","<div style=""font-size:60px;"">+</div>","null","fixation","","","","","","","","","","","19","","",""
"revaluation","305","1331626","0.0-4.0-2.1-0.60","spark_pilot_2","9633","1","7","Female","","false","","","","","[1117.5]","./assets/img/canyon/catch/7.jpg","[""spaceBar""]","value training","canyon","0","{""ArrowUp,ArrowLeft"":23,""ArrowUp,ArrowRight"":10,""ArrowDown,ArrowLeft"":8,""ArrowDown,ArrowRight"":30}","true","spaceBar","true","","","revaluation","2","20","","",""
"html-keyboard-response","306","1332137","0.0-4.0-2.1-1.60","spark_pilot_2","9633","1","7","Female","","","","","","","null","<div style=""font-size:60px;"">+</div>","null","fixation","","","","","","","","","","","21","","",""
"revaluation","307","1336154","0.0-4.0-2.1-0.61","spark_pilot_2","9633","1","7","Female","","false","","","","","[858.2000000029802]","./assets/img/canyon/catch/6.jpg","[""spaceBar""]","value training","canyon","0","{""ArrowUp,ArrowLeft"":23,""ArrowUp,ArrowRight"":10,""ArrowDown,ArrowLeft"":8,""ArrowDown,ArrowRight"":30}","true","spaceBar","true","","","revaluation","2","22","","",""
"html-keyboard-response","308","1336665","0.0-4.0-2.1-1.61","spark_pilot_2","9633","1","7","Female","","","","","","","null","<div style=""font-size:60px;"">+</div>","null","fixation","","","","","","","","","","","23","","",""
"revaluation","309","1340681","0.0-4.0-2.1-0.62","spark_pilot_2","9633","1","7","Female","","false","","","","","[667.3999999910593]","./assets/img/canyon/catch/3.jpg","[""spaceBar""]","value training","canyon","0","{""ArrowUp,ArrowLeft"":23,""ArrowUp,ArrowRight"":10,""ArrowDown,ArrowLeft"":8,""ArrowDown,ArrowRight"":30}","true","spaceBar","true","","","revaluation","2","24","","",""
