"trial_type","trial_index","time_elapsed","internal_node_id","value","metadata","success","timeout","failed_images","failed_audio","failed_video","browser_interaction","low_quality","rt","stimulus","response","button_pressed","island_rt","island_response","boat_rt","boat_response","boat","reward","island_key","island","boat_key","reward_probabilities","responses","num_errors","view_history"
"pavlovia","0","3","0.0-0.0","","","","","","","","","","","","","","","","","","","","","","","","","",""
"call-function","1","4","0.0-1.0","","{""task_version"":""sailing_part1_v1"",""task_condition"":""good"",""boats"":[""B"",""A"",""C"",""D""],""boats_demo"":[""E"",""H"",""F"",""G""],""islands"":[""B"",""A""],""subject_id"":""14570"",""age"":""20"",""gender"":""Female""}","","","","","","","","","","","","","","","","","","","","","","","",""
"preload","2","1632","0.0-2.0","","","true","false","[]","[]","[]","[{""event"":""fullscreenenter"",""trial"":3,""time"":6612}]","false","","","","","","","","","","","","","","","","",""
"fullscreen","3","7605","0.0-3.0","","","true","","","","","","","","","","","","","","","","","","","","","","",""
"audio-keyboard-response","4","9405","0.0-4.0-0.0","","","","","","","","","","1744","audio/beep_loop.wav"," ","","","","","","","","","","","","","",""
"audio-test","5","21435","0.0-4.0-1.0","","","","","","","","","","null","audio/turtle.mp3","","3","","","","","","","","","","","","",""
"audio-test","6","23351","0.0-4.0-2.0","","","","","","","","","","null","audio/shark.mp3","","2","","","","","","","","","","","","",""
"sailing-instructions","7","52761","0.0-5.0-0.0-0.0","","","","","","","","","","","","","","null","null","null","null","null","null","","","","","","",""
"sailing-trial","8","57632","0.0-5.0-0.0-1.0-0.0","","","","false","","","","","","","","","","3748.7000000178814","","null","","null","null","arrowleft","0","null","null","","",""
"sailing-trial","9","59488","0.0-5.0-0.0-1.0-1.0","","","","false","","","","","","","","","","727.5999999940395","","null","","null","null","arrowright","1","null","null","","",""
"sailing-trial","10","63256","0.0-5.0-0.0-1.0-2.0","","","","false","","","","","","","","","","2644.300000011921","","null","","null","null","arrowright","1","null","null","","",""
"sailing-instructions","11","116858","0.0-5.0-0.0-2.0","","","","","","","","","","","","","","null","null","null","null","0","null","","","","","","",""
"sailing-trial","12","123031","0.0-5.0-0.0-3.0-0.0","","","","false","","","","","","","","","","null","","2364.399999976158","","2","1","null","null","arrowleft","[1,1,1,1]","","",""
"sailing-trial","13","126401","0.0-5.0-0.0-3.0-1.0","","","","false","","","","","","","","","","null","","700.9000000059605","","3","1","null","null","arrowright","[1,1,1,1]","","",""
"sailing-trial","14","130713","0.0-5.0-0.0-3.0-2.0","","","","false","","","","","","","","","","null","","1052.5999999940395","","3","0","null","null","arrowright","[0,0,0,0]","","",""
"sailing-instructions","15","138029","0.0-5.0-0.0-4.0","","","","","","","","","","","","","","null","null","null","null","null","null","","","","","","",""
"sailing-comprehension","16","159752","0.0-5.0-0.0-5.0","","","","","","","","","","13902.799999982119","","","","","","","","","","","","","","[""true"",""true"",""true"",""false""]","2",""
"sailing-instructions","17","187591","0.0-5.0-0.1-0.1","","","","","","","","","","","","","","null","null","null","null","null","null","","","","","","",""
"sailing-trial","18","190071","0.0-5.0-0.1-1.1-0.1","","","","false","","","","","","","","","","1347.1000000238419","","null","","null","null","arrowleft","0","null","null","","",""
"sailing-trial","19","191739","0.0-5.0-0.1-1.1-1.1","","","","false","","","","","","","","","","543.3000000119209","","null","","null","null","arrowright","1","null","null","","",""
"sailing-trial","20","193835","0.0-5.0-0.1-1.1-2.1","","","","false","","","","","","","","","","977.5999999940395","","null","","null","null","arrowleft","0","null","null","","",""
"sailing-instructions","21","236717","0.0-5.0-0.1-2.1","","","","","","","","","","","","","","null","null","null","null","0","null","","","","","","",""
"sailing-trial","22","242232","0.0-5.0-0.1-3.1-0.1","","","","false","","","","","","","","","","null","","1926.5","","2","1","null","null","arrowleft","[1,1,1,1]","","",""
"sailing-trial","23","245432","0.0-5.0-0.1-3.1-1.1","","","","false","","","","","","","","","","null","","821.7000000178814","","3","1","null","null","arrowright","[1,1,1,1]","","",""
"sailing-trial","24","249102","0.0-5.0-0.1-3.1-2.1","","","","false","","","","","","","","","","null","","838.4000000059605","","2","0","null","null","arrowleft","[0,0,0,0]","","",""
"sailing-instructions","25","256482","0.0-5.0-0.1-4.1","","","","","","","","","","","","","","null","null","null","null","null","null","","","","","","",""
"sailing-comprehension","26","264434","0.0-5.0-0.1-5.1","","","","","","","","","","6532.699999988079","","","","","","","","","","","","","","[""true"",""true"",""false"",""true""]","0",""
"sailing-instructions","27","357832","0.0-6.0-0.0-0.0","","","","","","","","","","","","","","null","null","null","null","null","null","","","","","","",""
"sailing-comprehension","28","367466","0.0-6.0-0.0-1.0","","","","","","","","","","8750.5","","","","","","","","","","","","","","[""true"",""false"",""true""]","0",""
"sailing-instructions","29","380945","0.0-7.0-0.0-0.0","","","","","","","","","","","","","","null","null","null","null","null","null","","","","","","",""
"sailing-trial","30","386813","0.0-7.0-0.0-1.0-0.0","","","","false","","","","","","","","","","null","","3121.7999999821186","","0","1","null","null","arrowup","[0.2,0.8,0.2,0.8]","","",""
"sailing-trial","31","390882","0.0-7.0-0.0-1.0-1.0","","","","false","","","","","","","","","","null","","1963.7000000178814","","1","1","null","null","arrowup","[0.2,0.8,0.2,0.8]","","",""
"sailing-trial","32","394200","0.0-7.0-0.0-1.0-2.0","","","","false","","","","","","","","","","null","","2100.4000000059605","","2","0","null","null","arrowup","[0.2,0.8,0.2,0.8]","","",""
"sailing-trial","33","396997","0.0-7.0-0.0-1.0-3.0","","","","false","","","","","","","","","","null","","908.1999999880791","","3","1","null","null","arrowup","[0.2,0.8,0.2,0.8]","","",""
"sailing-comprehension","34","411254","0.0-7.0-0.0-2.0","","","","","","","","","","11683","","","","","","","","","","","","","","[""true""]","1",""
"sailing-instructions","35","425428","0.0-7.0-0.1-0.1","","","","","","","","","","","","","","null","null","null","null","null","null","","","","","","",""
"sailing-trial","36","427545","0.0-7.0-0.1-1.1-0.1","","","","false","","","","","","","","","","null","","920.0999999940395","","0","0","null","null","arrowup","[0.2,0.8,0.2,0.8]","","",""
"sailing-trial","37","430882","0.0-7.0-0.1-1.1-1.1","","","","false","","","","","","","","","","null","","1338.199999988079","","1","1","null","null","arrowup","[0.2,0.8,0.2,0.8]","","",""
"sailing-trial","38","433082","0.0-7.0-0.1-1.1-2.1","","","","false","","","","","","","","","","null","","414.30000001192093","","2","1","null","null","arrowup","[0.2,0.8,0.2,0.8]","","",""
"sailing-trial","39","435282","0.0-7.0-0.1-1.1-3.1","","","","false","","","","","","","","","","null","","279.30000001192093","","3","1","null","null","arrowup","[0.2,0.8,0.2,0.8]","","",""
"sailing-comprehension","40","440158","0.0-7.0-0.1-2.1","","","","","","","","","","3648.7000000178814","","","","","","","","","","","","","","[""false""]","0",""
"sailing-instructions","41","454850","0.0-8.0-0.0-0.0","","","","","","","","","","","","","","null","null","null","null","null","null","","","","","","",""
"sailing-comprehension","42","461816","0.0-8.0-0.0-1.0","","","","","","","","","","5569.799999982119","","","","","","","","","","","","","","[""true""]","0",""
"sailing-instructions","43","496983","0.0-9.0-0.0-0.0","","","","","","","","","","","","","","null","null","null","null","null","null","","","","","","",""
"sailing-trial","44","505059","0.0-9.0-0.0-1.0-0.0","","","","false","","","","","","","","","","1750","","2083","","2","0","arrowright","1","arrowleft","[0.2,0.8,0.2,0.8]","","",""
"sailing-trial","45","510615","0.0-9.0-0.0-1.0-1.0","","","","false","","","","","","","","","","1380.3999999761581","","920.9000000059605","","3","1","arrowright","1","arrowright","[0.2,0.8,0.2,0.8]","","",""
"sailing-trial","46","513855","0.0-9.0-0.0-1.0-2.0","","","","false","","","","","","","","","","null","","1119.800000011921","","0","0","null","null","arrowup","[0.2,0.8,0.2,0.8]","","",""
"sailing-trial","47","519387","0.0-9.0-0.0-1.0-3.0","","","","false","","","","","","","","","","1348.5","","701.0999999940395","","0","0","arrowleft","0","arrowleft","[0.2,0.8,0.2,0.8]","","",""
"sailing-trial","48","522465","0.0-9.0-0.0-1.0-4.0","","","","false","","","","","","","","","","null","","1259.6000000238419","","3","1","null","null","arrowup","[0.2,0.8,0.2,0.8]","","",""
"sailing-trial","49","526780","0.0-9.0-0.0-1.0-5.0","","","","false","","","","","","","","","","686.7000000178814","","520.5999999940395","","3","1","arrowright","1","arrowright","[0.2,0.8,0.2,0.8]","","",""
"sailing-instructions","50","552250","0.0-10.0","","","","","","","","","","","","","","null","null","null","null","null","null","","","","","","",""
"sailing-trial","51","559875","0.0-11.0-0.0","","","","false","","","","","","","","","","3181.2999999821186","","344.40000000596046","","1","0","arrowleft","0","arrowright","[0.85,0.15,0.325,0.675]","","",""
"sailing-trial","52","563180","0.0-11.0-1.0","","","","false","","","","","","","","","","null","","1414.800000011921","","3","1","null","null","arrowup","[0.85,0.15,0.325,0.675]","","",""
"sailing-trial","53","567631","0.0-11.0-2.0","","","","false","","","","","","","","","","1037.4000000059605","","44.599999994039536","","2","1","arrowright","1","arrowleft","[0.85,0.15,0.325,0.675]","","",""
"sailing-trial","54","571686","0.0-11.0-3.0","","","","false","","","","","","","","","","null","","1094.5","","2","0","null","null","arrowup","[0.85,0.15,0.325,0.675]","","",""
"sailing-trial","55","575414","0.0-11.0-4.0","","","","false","","","","","","","","","","686.2999999821186","","253.09999999403954","","0","0","arrowleft","0","arrowleft","[0.85,0.15,0.325,0.675]","","",""
"sailing-trial","56","578463","0.0-11.0-5.0","","","","false","","","","","","","","","","null","","1102.2000000178814","","0","1","null","null","arrowup","[0.85,0.15,0.325,0.675]","","",""
"sailing-trial","57","583925","0.0-11.0-6.0","","","","false","","","","","","","","","","1125.0999999940395","","265.69999998807907","","1","0","arrowleft","0","arrowright","[0.85,0.15,0.325,0.675]","","",""
"sailing-trial","58","587975","0.0-11.0-7.0","","","","false","","","","","","","","","","null","","1773","","1","0","null","null","arrowup","[0.85,0.15,0.325,0.675]","","",""
"sailing-trial","59","593116","0.0-11.0-8.0","","","","false","","","","","","","","","","692.5","","741.1999999880791","","3","0","arrowright","1","arrowright","[0.85,0.15,0.325,0.675]","","",""
"sailing-trial","60","595720","0.0-11.0-9.0","","","","false","","","","","","","","","","null","","917.8000000119209","","1","0","null","null","arrowup","[0.85,0.15,0.325,0.675]","","",""
"sailing-trial","61","600355","0.0-11.0-10.0","","","","false","","","","","","","","","","769.9000000059605","","200.69999998807907","","2","0","arrowright","1","arrowleft","[0.85,0.15,0.325,0.675]","","",""
"sailing-trial","62","602772","0.0-11.0-11.0","","","","false","","","","","","","","","","null","","775.4000000059605","","0","0","null","null","arrowup","[0.85,0.15,0.325,0.675]","","",""
"sailing-trial","63","606470","0.0-11.0-12.0","","","","false","","","","","","","","","","579.7000000178814","","213.69999998807907","","0","0","arrowleft","0","arrowleft","[0.85,0.15,0.325,0.675]","","",""
"sailing-trial","64","609243","0.0-11.0-13.0","","","","false","","","","","","","","","","null","","896.6999999880791","","0","1","null","null","arrowup","[0.85,0.15,0.325,0.675]","","",""
"sailing-trial","65","613332","0.0-11.0-14.0","","","","false","","","","","","","","","","740.3000000119209","","366.7000000178814","","0","1","arrowleft","0","arrowleft","[0.85,0.15,0.325,0.675]","","",""
"sailing-trial","66","615838","0.0-11.0-15.0","","","","false","","","","","","","","","","null","","932.6999999880791","","2","0","null","null","arrowup","[0.85,0.15,0.325,0.675]","","",""
"sailing-trial","67","619829","0.0-11.0-16.0","","","","false","","","","","","","","","","923.9000000059605","","179.5","","1","1","arrowleft","0","arrowright","[0.675,0.325,0.15,0.85]","","",""
"sailing-trial","68","621359","0.0-11.0-17.0","","","","false","","","","","","","","","","null","","356.90000000596046","","2","0","null","null","arrowup","[0.675,0.325,0.15,0.85]","","",""
"sailing-trial","69","624984","0.0-11.0-18.0","","","","false","","","","","","","","","","472.7000000178814","","316.59999999403954","","2","0","arrowright","1","arrowleft","[0.675,0.325,0.15,0.85]","","",""
"sailing-trial","70","627377","0.0-11.0-19.0","","","","false","","","","","","","","","","null","","584","","0","1","null","null","arrowup","[0.675,0.325,0.15,0.85]","","",""
"sailing-trial","71","632399","0.0-11.0-20.0","","","","false","","","","","","","","","","1998.0999999940395","","166","","2","0","arrowright","1","arrowleft","[0.675,0.325,0.15,0.85]","","",""
"sailing-trial","72","634745","0.0-11.0-21.0","","","","false","","","","","","","","","","null","","497.7000000178814","","0","1","null","null","arrowup","[0.675,0.325,0.15,0.85]","","",""
"sailing-trial","73","640620","0.0-11.0-22.0","","","","false","","","","","","","","","","812.5999999940395","","999.9000000059605","","0","0","arrowleft","0","arrowleft","[0.675,0.325,0.15,0.85]","","",""
"sailing-trial","74","643398","0.0-11.0-23.0","","","","false","","","","","","","","","","null","","940.5","","3","1","null","null","arrowup","[0.675,0.325,0.15,0.85]","","",""
"sailing-trial","75","648227","0.0-11.0-24.0","","","","false","","","","","","","","","","706.8999999761581","","924.2999999821186","","3","0","arrowright","1","arrowright","[0.675,0.325,0.15,0.85]","","",""
"sailing-trial","76","650980","0.0-11.0-25.0","","","","false","","","","","","","","","","null","","960.3999999761581","","3","1","null","null","arrowup","[0.675,0.325,0.15,0.85]","","",""
"sailing-trial","77","655159","0.0-11.0-26.0","","","","false","","","","","","","","","","742.2000000178814","","177.09999999403954","","0","0","arrowleft","0","arrowleft","[0.675,0.325,0.15,0.85]","","",""
"sailing-trial","78","656991","0.0-11.0-27.0","","","","false","","","","","","","","","","null","","572.2000000178814","","2","0","null","null","arrowup","[0.675,0.325,0.15,0.85]","","",""
"sailing-trial","79","660910","0.0-11.0-28.0","","","","false","","","","","","","","","","439","","377.5","","2","1","arrowright","1","arrowleft","[0.675,0.325,0.15,0.85]","","",""
"sailing-trial","80","663609","0.0-11.0-29.0","","","","false","","","","","","","","","","null","","1053.699999988079","","2","0","null","null","arrowup","[0.675,0.325,0.15,0.85]","","",""
"sailing-trial","81","667044","0.0-11.0-30.0","","","","false","","","","","","","","","","561.9000000059605","","49.19999998807907","","2","0","arrowright","1","arrowleft","[0.675,0.325,0.15,0.85]","","",""
"sailing-trial","82","669467","0.0-11.0-31.0","","","","false","","","","","","","","","","null","","369.59999999403954","","2","0","null","null","arrowup","[0.675,0.325,0.15,0.85]","","",""
"sailing-trial","83","673263","0.0-11.0-32.0","","","","false","","","","","","","","","","591.5","","47","","0","1","arrowleft","0","arrowleft","[0.675,0.325,0.15,0.85]","","",""
"sailing-trial","84","676411","0.0-11.0-33.0","","","","false","","","","","","","","","","null","","1061.9000000059605","","0","1","null","null","arrowup","[0.675,0.325,0.15,0.85]","","",""
"sailing-trial","85","680413","0.0-11.0-34.0","","","","false","","","","","","","","","","622.2000000178814","","483.19999998807907","","0","1","arrowleft","0","arrowleft","[0.675,0.325,0.15,0.85]","","",""
"sailing-trial","86","683226","0.0-11.0-35.0","","","","false","","","","","","","","","","null","","917.5999999940395","","3","1","null","null","arrowup","[0.675,0.325,0.15,0.85]","","",""
"sailing-trial","87","687130","0.0-11.0-36.0","","","","false","","","","","","","","","","466.30000001192093","","482.7000000178814","","3","1","arrowright","1","arrowright","[0.675,0.325,0.15,0.85]","","",""
"sailing-trial","88","689528","0.0-11.0-37.0","","","","false","","","","","","","","","","null","","549.2999999821186","","3","1","null","null","arrowup","[0.675,0.325,0.15,0.85]","","",""
"sailing-trial","89","694047","0.0-11.0-38.0","","","","false","","","","","","","","","","1328.5999999940395","","268.5","","3","1","arrowright","1","arrowright","[0.325,0.675,0.85,0.15]","","",""
"sailing-trial","90","696056","0.0-11.0-39.0","","","","false","","","","","","","","","","null","","297.7999999821186","","3","0","null","null","arrowup","[0.325,0.675,0.85,0.15]","","",""
"sailing-trial","91","699923","0.0-11.0-40.0","","","","false","","","","","","","","","","483","","454.09999999403954","","1","0","arrowleft","0","arrowright","[0.325,0.675,0.85,0.15]","","",""
"sailing-trial","92","702211","0.0-11.0-41.0","","","","false","","","","","","","","","","null","","381.19999998807907","","1","1","null","null","arrowup","[0.325,0.675,0.85,0.15]","","",""
"sailing-trial","93","705930","0.0-11.0-42.0","","","","false","","","","","","","","","","489.59999999403954","","280.80000001192093","","0","1","arrowleft","0","arrowleft","[0.325,0.675,0.85,0.15]","","",""
"sailing-trial","94","708096","0.0-11.0-43.0","","","","false","","","","","","","","","","null","","330.80000001192093","","2","1","null","null","arrowup","[0.325,0.675,0.85,0.15]","","",""
"sailing-trial","95","712245","0.0-11.0-44.0","","","","false","","","","","","","","","","839.7999999821186","","169.59999999403954","","2","1","arrowright","1","arrowleft","[0.325,0.675,0.85,0.15]","","",""
"sailing-trial","96","714317","0.0-11.0-45.0","","","","false","","","","","","","","","","null","","747.5999999940395","","3","0","null","null","arrowup","[0.325,0.675,0.85,0.15]","","",""
"sailing-trial","97","718426","0.0-11.0-46.0","","","","false","","","","","","","","","","437.09999999403954","","468.59999999403954","","0","0","arrowleft","0","arrowleft","[0.325,0.675,0.85,0.15]","","",""
"sailing-trial","98","720781","0.0-11.0-47.0","","","","false","","","","","","","","","","null","","650.3000000119209","","2","0","null","null","arrowup","[0.325,0.675,0.85,0.15]","","",""
"sailing-trial","99","724795","0.0-11.0-48.0","","","","false","","","","","","","","","","1026.300000011921","","66.30000001192093","","3","1","arrowright","1","arrowright","[0.325,0.675,0.85,0.15]","","",""
"sailing-trial","100","727228","0.0-11.0-49.0","","","","false","","","","","","","","","","null","","629.5","","1","1","null","null","arrowup","[0.325,0.675,0.85,0.15]","","",""
"sailing-trial","101","731862","0.0-11.0-50.0","","","","false","","","","","","","","","","452.2999999821186","","682.9000000059605","","1","1","arrowleft","0","arrowright","[0.325,0.675,0.85,0.15]","","",""
"sailing-trial","102","734273","0.0-11.0-51.0","","","","false","","","","","","","","","","null","","574.4000000059605","","3","0","null","null","arrowup","[0.325,0.675,0.85,0.15]","","",""
"sailing-trial","103","738494","0.0-11.0-52.0","","","","false","","","","","","","","","","1109.2999999821186","","236.7999999821186","","0","1","arrowleft","0","arrowleft","[0.325,0.675,0.85,0.15]","","",""
"sailing-trial","104","740944","0.0-11.0-53.0","","","","false","","","","","","","","","","null","","586.5999999940395","","1","1","null","null","arrowup","[0.325,0.675,0.85,0.15]","","",""
"sailing-trial","105","745045","0.0-11.0-54.0","","","","false","","","","","","","","","","823.2000000178814","","409.39999997615814","","1","0","arrowleft","0","arrowright","[0.15,0.85,0.675,0.325]","","",""
"sailing-trial","106","747357","0.0-11.0-55.0","","","","false","","","","","","","","","","null","","648.7999999821186","","3","0","null","null","arrowup","[0.15,0.85,0.675,0.325]","","",""
"sailing-trial","107","751761","0.0-11.0-56.0","","","","false","","","","","","","","","","753.5999999940395","","278.5","","2","0","arrowright","1","arrowleft","[0.15,0.85,0.675,0.325]","","",""
"sailing-trial","108","755697","0.0-11.0-57.0","","","","false","","","","","","","","","","null","","1933","","2","1","null","null","arrowup","[0.15,0.85,0.675,0.325]","","",""
"sailing-trial","109","759415","0.0-11.0-58.0","","","","false","","","","","","","","","","580.9000000059605","","204.59999999403954","","0","0","arrowleft","0","arrowleft","[0.15,0.85,0.675,0.325]","","",""
"sailing-trial","110","761945","0.0-11.0-59.0","","","","false","","","","","","","","","","null","","632.5999999940395","","3","1","null","null","arrowup","[0.15,0.85,0.675,0.325]","","",""
"sailing-trial","111","765562","0.0-11.0-60.0","","","","false","","","","","","","","","","464.80000001192093","","218.5","","3","1","arrowright","1","arrowright","[0.15,0.85,0.675,0.325]","","",""
"sailing-trial","112","768043","0.0-11.0-61.0","","","","false","","","","","","","","","","null","","577.3000000119209","","1","1","null","null","arrowup","[0.15,0.85,0.675,0.325]","","",""
"sailing-trial","113","771910","0.0-11.0-62.0","","","","false","","","","","","","","","","712.2999999821186","","251.40000000596046","","1","1","arrowleft","0","arrowright","[0.15,0.85,0.675,0.325]","","",""
"sailing-trial","114","774730","0.0-11.0-63.0","","","","false","","","","","","","","","","null","","568.2000000178814","","2","1","null","null","arrowup","[0.15,0.85,0.675,0.325]","","",""
"sailing-trial","115","778560","0.0-11.0-64.0","","","","false","","","","","","","","","","479.2999999821186","","303","","2","1","arrowright","1","arrowleft","[0.15,0.85,0.675,0.325]","","",""
"sailing-trial","116","782443","0.0-11.0-65.0","","","","false","","","","","","","","","","null","","2100.800000011921","","3","0","null","null","arrowup","[0.15,0.85,0.675,0.325]","","",""
"sailing-trial","117","787396","0.0-11.0-66.0","","","","false","","","","","","","","","","1653.0999999940395","","410.2999999821186","","3","1","arrowright","1","arrowright","[0.15,0.85,0.675,0.325]","","",""
"sailing-trial","118","790442","0.0-11.0-67.0","","","","false","","","","","","","","","","null","","1240","","1","1","null","null","arrowup","[0.15,0.85,0.675,0.325]","","",""
"sailing-trial","119","795546","0.0-11.0-68.0","","","","false","","","","","","","","","","623.1999999880791","","1352.2999999821186","","3","1","arrowright","1","arrowright","[0.15,0.85,0.675,0.325]","","",""
"sailing-trial","120","798876","0.0-11.0-69.0","","","","false","","","","","","","","","","null","","1729.4000000059605","","1","0","null","null","arrowup","[0.15,0.85,0.675,0.325]","","",""
"sailing-trial","121","804761","0.0-11.0-70.0","","","","false","","","","","","","","","","2042.800000011921","","906.5","","1","1","arrowleft","0","arrowright","[0.15,0.85,0.675,0.325]","","",""
"sailing-trial","122","807544","0.0-11.0-71.0","","","","false","","","","","","","","","","null","","1004.3999999761581","","3","0","null","null","arrowup","[0.15,0.85,0.675,0.325]","","",""
"sailing-trial","123","812226","0.0-11.0-72.0","","","","false","","","","","","","","","","1554.9000000059605","","283.89999997615814","","1","1","arrowleft","0","arrowright","[0.15,0.85,0.675,0.325]","","",""
"sailing-trial","124","814265","0.0-11.0-73.0","","","","false","","","","","","","","","","null","","300.59999999403954","","0","0","null","null","arrowup","[0.15,0.85,0.675,0.325]","","",""
"sailing-trial","125","819057","0.0-11.0-74.0","","","","false","","","","","","","","","","1153.5","","277.69999998807907","","1","0","arrowleft","0","arrowright","[0.325,0.675,0.85,0.15]","","",""
"sailing-trial","126","821928","0.0-11.0-75.0","","","","false","","","","","","","","","","null","","1023.9000000059605","","0","1","null","null","arrowup","[0.325,0.675,0.85,0.15]","","",""
"sailing-trial","127","826245","0.0-11.0-76.0","","","","false","","","","","","","","","","1638.9000000059605","","9.199999988079071","","0","0","arrowleft","0","arrowleft","[0.325,0.675,0.85,0.15]","","",""
"sailing-trial","128","827923","0.0-11.0-77.0","","","","false","","","","","","","","","","null","","386.2000000178814","","0","0","null","null","arrowup","[0.325,0.675,0.85,0.15]","","",""
"sailing-trial","129","831845","0.0-11.0-78.0","","","","false","","","","","","","","","","452.2999999821186","","592.3000000119209","","2","1","arrowright","1","arrowleft","[0.325,0.675,0.85,0.15]","","",""
"sailing-trial","130","834023","0.0-11.0-79.0","","","","false","","","","","","","","","","null","","576.0999999940395","","1","0","null","null","arrowup","[0.325,0.675,0.85,0.15]","","",""
"sailing-trial","131","837705","0.0-11.0-80.0","","","","false","","","","","","","","","","573.4000000059605","","210.7999999821186","","3","0","arrowright","1","arrowright","[0.325,0.675,0.85,0.15]","","",""
"sailing-trial","132","839754","0.0-11.0-81.0","","","","false","","","","","","","","","","null","","674.5","","1","0","null","null","arrowup","[0.325,0.675,0.85,0.15]","","",""
"sailing-trial","133","843032","0.0-11.0-82.0","","","","false","","","","","","","","","","545","","172.09999999403954","","0","0","arrowleft","0","arrowleft","[0.325,0.675,0.85,0.15]","","",""
"sailing-trial","134","845679","0.0-11.0-83.0","","","","false","","","","","","","","","","null","","493.2999999821186","","2","1","null","null","arrowup","[0.325,0.675,0.85,0.15]","","",""
"sailing-trial","135","850127","0.0-11.0-84.0","","","","false","","","","","","","","","","1267.7999999821186","","321.60000002384186","","1","1","arrowleft","0","arrowright","[0.325,0.675,0.85,0.15]","","",""
"sailing-trial","136","852528","0.0-11.0-85.0","","","","false","","","","","","","","","","null","","587.3000000119209","","1","1","null","null","arrowup","[0.325,0.675,0.85,0.15]","","",""
"sailing-trial","137","856394","0.0-11.0-86.0","","","","false","","","","","","","","","","577.0999999940395","","89.5","","1","1","arrowleft","0","arrowright","[0.325,0.675,0.85,0.15]","","",""
"sailing-trial","138","859502","0.0-11.0-87.0","","","","false","","","","","","","","","","null","","1586.699999988079","","2","0","null","null","arrowup","[0.325,0.675,0.85,0.15]","","",""
"sailing-trial","139","863578","0.0-11.0-88.0","","","","false","","","","","","","","","","782.3999999761581","","259.19999998807907","","1","1","arrowleft","0","arrowright","[0.325,0.675,0.85,0.15]","","",""
"sailing-trial","140","867061","0.0-11.0-89.0","","","","false","","","","","","","","","","null","","1442.199999988079","","2","1","null","null","arrowup","[0.325,0.675,0.85,0.15]","","",""
"sailing-trial","141","870744","0.0-11.0-90.0","","","","false","","","","","","","","","","521.5999999940395","","101.5","","1","1","arrowleft","0","arrowright","[0.15,0.85,0.675,0.325]","","",""
"sailing-trial","142","873511","0.0-11.0-91.0","","","","false","","","","","","","","","","null","","951.2000000178814","","2","1","null","null","arrowup","[0.15,0.85,0.675,0.325]","","",""
"sailing-trial","143","877128","0.0-11.0-92.0","","","","false","","","","","","","","","","520.6999999880791","","249.2999999821186","","2","1","arrowright","1","arrowleft","[0.15,0.85,0.675,0.325]","","",""
"sailing-trial","144","879295","0.0-11.0-93.0","","","","false","","","","","","","","","","null","","309.69999998807907","","1","1","null","null","arrowup","[0.15,0.85,0.675,0.325]","","",""
"sailing-trial","145","883664","0.0-11.0-94.0","","","","false","","","","","","","","","","727.0999999940395","","133.90000000596046","","2","1","arrowright","1","arrowleft","[0.15,0.85,0.675,0.325]","","",""
"sailing-trial","146","885529","0.0-11.0-95.0","","","","false","","","","","","","","","","null","","239.7000000178814","","0","0","null","null","arrowup","[0.15,0.85,0.675,0.325]","","",""
"sailing-trial","147","888858","0.0-11.0-96.0","","","","false","","","","","","","","","","405.5","","263.30000001192093","","1","0","arrowleft","0","arrowright","[0.15,0.85,0.675,0.325]","","",""
"sailing-trial","148","891361","0.0-11.0-97.0","","","","false","","","","","","","","","","null","","672.2000000178814","","3","1","null","null","arrowup","[0.15,0.85,0.675,0.325]","","",""
"sailing-trial","149","894709","0.0-11.0-98.0","","","","false","","","","","","","","","","378.40000000596046","","309.80000001192093","","3","0","arrowright","1","arrowright","[0.15,0.85,0.675,0.325]","","",""
"sailing-trial","150","897061","0.0-11.0-99.0","","","","false","","","","","","","","","","null","","517.1999999880791","","3","1","null","null","arrowup","[0.15,0.85,0.675,0.325]","","",""
"sailing-trial","151","901376","0.0-11.0-100.0","","","","false","","","","","","","","","","670.5999999940395","","789.1999999880791","","0","1","arrowleft","0","arrowleft","[0.15,0.85,0.675,0.325]","","",""
"sailing-trial","152","904244","0.0-11.0-101.0","","","","false","","","","","","","","","","null","","1031","","1","1","null","null","arrowup","[0.15,0.85,0.675,0.325]","","",""
"sailing-trial","153","908010","0.0-11.0-102.0","","","","false","","","","","","","","","","467.80000001192093","","340","","1","1","arrowleft","0","arrowright","[0.15,0.85,0.675,0.325]","","",""
"sailing-trial","154","910493","0.0-11.0-103.0","","","","false","","","","","","","","","","null","","507.5","","2","1","null","null","arrowup","[0.15,0.85,0.675,0.325]","","",""
"sailing-trial","155","913638","0.0-11.0-104.0","","","","false","","","","","","","","","","679.9000000059605","","146.59999999403954","","0","0","arrowleft","0","arrowleft","[0.15,0.85,0.675,0.325]","","",""
"sailing-trial","156","915404","0.0-11.0-105.0","","","","false","","","","","","","","","","null","","496.7999999821186","","2","0","null","null","arrowup","[0.15,0.85,0.675,0.325]","","",""
"sailing-trial","157","919027","0.0-11.0-106.0","","","","false","","","","","","","","","","347.69999998807907","","406.2000000178814","","3","1","arrowright","1","arrowright","[0.15,0.85,0.675,0.325]","","",""
"sailing-trial","158","921271","0.0-11.0-107.0","","","","false","","","","","","","","","","null","","788.5999999940395","","0","0","null","null","arrowup","[0.15,0.85,0.675,0.325]","","",""
"sailing-trial","159","925145","0.0-11.0-108.0","","","","false","","","","","","","","","","671.5999999940395","","321.2999999821186","","1","1","arrowleft","0","arrowright","[0.15,0.85,0.675,0.325]","","",""
"sailing-trial","160","927049","0.0-11.0-109.0","","","","false","","","","","","","","","","null","","495.40000000596046","","0","0","null","null","arrowup","[0.15,0.85,0.675,0.325]","","",""
"sailing-trial","161","930709","0.0-11.0-110.0","","","","false","","","","","","","","","","460.69999998807907","","160.09999999403954","","1","1","arrowleft","0","arrowright","[0.15,0.85,0.675,0.325]","","",""
"sailing-trial","162","933359","0.0-11.0-111.0","","","","false","","","","","","","","","","null","","862.2000000178814","","2","1","null","null","arrowup","[0.15,0.85,0.675,0.325]","","",""
"sailing-trial","163","936960","0.0-11.0-112.0","","","","false","","","","","","","","","","293","","196.80000001192093","","2","1","arrowright","1","arrowleft","[0.15,0.85,0.675,0.325]","","",""
"sailing-trial","164","939360","0.0-11.0-113.0","","","","false","","","","","","","","","","null","","550.8000000119209","","1","1","null","null","arrowup","[0.15,0.85,0.675,0.325]","","",""
"sailing-trial","165","943242","0.0-11.0-114.0","","","","false","","","","","","","","","","785.6000000238419","","247.5","","2","1","arrowright","1","arrowleft","[0.85,0.15,0.325,0.675]","","",""
"sailing-trial","166","945481","0.0-11.0-115.0","","","","false","","","","","","","","","","null","","553.7999999821186","","1","0","null","null","arrowup","[0.85,0.15,0.325,0.675]","","",""
"sailing-trial","167","949113","0.0-11.0-116.0","","","","false","","","","","","","","","","500.40000000596046","","151.80000001192093","","2","1","arrowright","1","arrowleft","[0.85,0.15,0.325,0.675]","","",""
"sailing-trial","168","952237","0.0-11.0-117.0","","","","false","","","","","","","","","","null","","1496.699999988079","","2","0","null","null","arrowup","[0.85,0.15,0.325,0.675]","","",""
"sailing-trial","169","955405","0.0-11.0-118.0","","","","false","","","","","","","","","","393.5","","117.09999999403954","","1","0","arrowleft","0","arrowright","[0.85,0.15,0.325,0.675]","","",""
"sailing-trial","170","957695","0.0-11.0-119.0","","","","false","","","","","","","","","","null","","513.4000000059605","","2","1","null","null","arrowup","[0.85,0.15,0.325,0.675]","","",""
"sailing-trial","171","961325","0.0-11.0-120.0","","","","false","","","","","","","","","","489.40000000596046","","306.30000001192093","","3","1","arrowright","1","arrowright","[0.85,0.15,0.325,0.675]","","",""
"sailing-trial","172","963760","0.0-11.0-121.0","","","","false","","","","","","","","","","null","","594","","3","1","null","null","arrowup","[0.85,0.15,0.325,0.675]","","",""
"sailing-trial","173","967262","0.0-11.0-122.0","","","","false","","","","","","","","","","467.2000000178814","","166.40000000596046","","0","1","arrowleft","0","arrowleft","[0.85,0.15,0.325,0.675]","","",""
"sailing-trial","174","969740","0.0-11.0-123.0","","","","false","","","","","","","","","","null","","768.6000000238419","","1","0","null","null","arrowup","[0.85,0.15,0.325,0.675]","","",""
"sailing-trial","175","973062","0.0-11.0-124.0","","","","false","","","","","","","","","","651.6000000238419","","41.80000001192093","","3","0","arrowright","1","arrowright","[0.85,0.15,0.325,0.675]","","",""
"sailing-trial","176","975444","0.0-11.0-125.0","","","","false","","","","","","","","","","null","","597.6000000238419","","1","1","null","null","arrowup","[0.85,0.15,0.325,0.675]","","",""
"sailing-trial","177","978660","0.0-11.0-126.0","","","","false","","","","","","","","","","496.7999999821186","","169.2000000178814","","1","0","arrowleft","0","arrowright","[0.85,0.15,0.325,0.675]","","",""
"sailing-trial","178","980925","0.0-11.0-127.0","","","","false","","","","","","","","","","null","","453.69999998807907","","0","1","null","null","arrowup","[0.85,0.15,0.325,0.675]","","",""
"sailing-trial","179","984275","0.0-11.0-128.0","","","","false","","","","","","","","","","179.19999998807907","","130.5","","2","1","arrowright","1","arrowleft","[0.85,0.15,0.325,0.675]","","",""
"sailing-trial","180","986179","0.0-11.0-129.0","","","","false","","","","","","","","","","null","","100.5","","0","1","null","null","arrowup","[0.85,0.15,0.325,0.675]","","",""
"sailing-trial","181","989374","0.0-11.0-130.0","","","","false","","","","","","","","","","595","","287.2000000178814","","0","0","arrowleft","0","arrowleft","[0.85,0.15,0.325,0.675]","","",""
"sailing-trial","182","992145","0.0-11.0-131.0","","","","false","","","","","","","","","","null","","943.7999999821186","","0","1","null","null","arrowup","[0.85,0.15,0.325,0.675]","","",""
"sailing-trial","183","995644","0.0-11.0-132.0","","","","false","","","","","","","","","","381.90000000596046","","159.19999998807907","","3","1","arrowright","1","arrowright","[0.675,0.325,0.15,0.85]","","",""
"sailing-trial","184","997603","0.0-11.0-133.0","","","","false","","","","","","","","","","null","","701.9000000059605","","1","0","null","null","arrowup","[0.675,0.325,0.15,0.85]","","",""
"sailing-trial","185","1000626","0.0-11.0-134.0","","","","false","","","","","","","","","","283.30000001192093","","183.19999998807907","","1","0","arrowleft","0","arrowright","[0.675,0.325,0.15,0.85]","","",""
"sailing-trial","186","1003276","0.0-11.0-135.0","","","","false","","","","","","","","","","null","","1122","","3","0","null","null","arrowup","[0.675,0.325,0.15,0.85]","","",""
"sailing-trial","187","1006792","0.0-11.0-136.0","","","","false","","","","","","","","","","495.59999999403954","","36.80000001192093","","3","1","arrowright","1","arrowright","[0.675,0.325,0.15,0.85]","","",""
"sailing-trial","188","1009392","0.0-11.0-137.0","","","","false","","","","","","","","","","null","","741.2999999821186","","2","1","null","null","arrowup","[0.675,0.325,0.15,0.85]","","",""
"sailing-trial","189","1015456","0.0-11.0-138.0","","","","false","","","","","","","","","","1187.199999988079","","826.0999999940395","","2","0","arrowright","1","arrowleft","[0.675,0.325,0.15,0.85]","","",""
"sailing-trial","190","1019094","0.0-11.0-139.0","","","","false","","","","","","","","","","null","","1677.800000011921","","0","1","null","null","arrowup","[0.675,0.325,0.15,0.85]","","",""
"sailing-trial","191","1023128","0.0-11.0-140.0","","","","false","","","","","","","","","","504.40000000596046","","245.59999999403954","","0","1","arrowleft","0","arrowleft","[0.675,0.325,0.15,0.85]","","",""
"sailing-trial","192","1025473","0.0-11.0-141.0","","","","false","","","","","","","","","","null","","655","","2","0","null","null","arrowup","[0.675,0.325,0.15,0.85]","","",""
"sailing-trial","193","1029198","0.0-11.0-142.0","","","","false","","","","","","","","","","673.5999999940395","","303.5","","2","0","arrowright","1","arrowleft","[0.675,0.325,0.15,0.85]","","",""
"sailing-trial","194","1032113","0.0-11.0-143.0","","","","false","","","","","","","","","","null","","1474.300000011921","","1","0","null","null","arrowup","[0.675,0.325,0.15,0.85]","","",""
"sailing-trial","195","1036309","0.0-11.0-144.0","","","","false","","","","","","","","","","799.5999999940395","","225.5","","3","1","arrowright","1","arrowright","[0.675,0.325,0.15,0.85]","","",""
"sailing-trial","196","1038995","0.0-11.0-145.0","","","","false","","","","","","","","","","null","","740","","3","1","null","null","arrowup","[0.675,0.325,0.15,0.85]","","",""
"sailing-trial","197","1043937","0.0-11.0-146.0","","","","false","","","","","","","","","","638.1999999880791","","241.69999998807907","","1","0","arrowleft","0","arrowright","[0.675,0.325,0.15,0.85]","","",""
"sailing-trial","198","1046727","0.0-11.0-147.0","","","","false","","","","","","","","","","null","","821.5","","0","1","null","null","arrowup","[0.675,0.325,0.15,0.85]","","",""
"sailing-trial","199","1051844","0.0-11.0-148.0","","","","false","","","","","","","","","","920","","209.80000001192093","","0","1","arrowleft","0","arrowleft","[0.675,0.325,0.15,0.85]","","",""
"sailing-trial","200","1053972","0.0-11.0-149.0","","","","false","","","","","","","","","","null","","497.40000000596046","","2","0","null","null","arrowup","[0.675,0.325,0.15,0.85]","","",""
"sailing-trial","201","1057958","0.0-11.0-150.0","","","","false","","","","","","","","","","713.6999999880791","","187.09999999403954","","3","1","arrowright","1","arrowright","[0.675,0.325,0.15,0.85]","","",""
"sailing-trial","202","1060875","0.0-11.0-151.0","","","","false","","","","","","","","","","null","","998.5999999940395","","1","1","null","null","arrowup","[0.675,0.325,0.15,0.85]","","",""
"sailing-trial","203","1064825","0.0-11.0-152.0","","","","false","","","","","","","","","","459.89999997615814","","265.5","","3","1","arrowright","1","arrowright","[0.15,0.85,0.675,0.325]","","",""
"sailing-trial","204","1067277","0.0-11.0-153.0","","","","false","","","","","","","","","","null","","752.7999999821186","","0","0","null","null","arrowup","[0.15,0.85,0.675,0.325]","","",""
"sailing-trial","205","1070643","0.0-11.0-154.0","","","","false","","","","","","","","","","719.2999999821186","","146.2000000178814","","0","0","arrowleft","0","arrowleft","[0.15,0.85,0.675,0.325]","","",""
"sailing-trial","206","1073562","0.0-11.0-155.0","","","","false","","","","","","","","","","null","","1000.1999999880791","","2","1","null","null","arrowup","[0.15,0.85,0.675,0.325]","","",""
"sailing-trial","207","1076981","0.0-11.0-156.0","","","","false","","","","","","","","","","583.1000000238419","","153.30000001192093","","2","0","arrowright","1","arrowleft","[0.15,0.85,0.675,0.325]","","",""
"sailing-trial","208","1079006","0.0-11.0-157.0","","","","false","","","","","","","","","","null","","674.5","","1","0","null","null","arrowup","[0.15,0.85,0.675,0.325]","","",""
"sailing-trial","209","1082891","0.0-11.0-158.0","","","","false","","","","","","","","","","445.2000000178814","","382.2999999821186","","1","1","arrowleft","0","arrowright","[0.15,0.85,0.675,0.325]","","",""
"sailing-trial","210","1085360","0.0-11.0-159.0","","","","false","","","","","","","","","","null","","629.5999999940395","","2","1","null","null","arrowup","[0.15,0.85,0.675,0.325]","","",""
"sailing-trial","211","1090420","0.0-11.0-160.0","","","","false","","","","","","","","","","542.5","","442.40000000596046","","3","0","arrowright","1","arrowright","[0.15,0.85,0.675,0.325]","","",""
"sailing-trial","212","1094131","0.0-11.0-161.0","","","","false","","","","","","","","","","null","","689.3000000119209","","1","0","null","null","arrowup","[0.15,0.85,0.675,0.325]","","",""
"sailing-trial","213","1098957","0.0-11.0-162.0","","","","false","","","","","","","","","","511.90000000596046","","242.69999998807907","","0","0","arrowleft","0","arrowleft","[0.15,0.85,0.675,0.325]","","",""
"sailing-trial","214","1101727","0.0-11.0-163.0","","","","false","","","","","","","","","","null","","926.5","","2","1","null","null","arrowup","[0.15,0.85,0.675,0.325]","","",""
"sailing-trial","215","1105760","0.0-11.0-164.0","","","","false","","","","","","","","","","566.5999999940395","","316","","3","1","arrowright","1","arrowright","[0.15,0.85,0.675,0.325]","","",""
"sailing-trial","216","1109456","0.0-11.0-165.0","","","","false","","","","","","","","","","null","","661.6000000238419","","0","0","null","null","arrowup","[0.15,0.85,0.675,0.325]","","",""
"sailing-trial","217","1115088","0.0-11.0-166.0","","","","false","","","","","","","","","","1102.0999999940395","","465.59999999403954","","0","0","arrowleft","0","arrowleft","[0.15,0.85,0.675,0.325]","","",""
"sailing-trial","218","1117358","0.0-11.0-167.0","","","","false","","","","","","","","","","null","","387.80000001192093","","1","1","null","null","arrowup","[0.15,0.85,0.675,0.325]","","",""
"sailing-trial","219","1121376","0.0-11.0-168.0","","","","false","","","","","","","","","","483.59999999403954","","351.90000000596046","","2","1","arrowright","1","arrowleft","[0.15,0.85,0.675,0.325]","","",""
"sailing-trial","220","1125571","0.0-11.0-169.0","","","","false","","","","","","","","","","null","","1162.4000000059605","","0","0","null","null","arrowup","[0.15,0.85,0.675,0.325]","","",""
"sailing-trial","221","1130689","0.0-11.0-170.0","","","","false","","","","","","","","","","839.1000000238419","","212.5","","0","0","arrowleft","0","arrowleft","[0.15,0.85,0.675,0.325]","","",""
"sailing-trial","222","1133410","0.0-11.0-171.0","","","","false","","","","","","","","","","null","","642.1999999880791","","3","1","null","null","arrowup","[0.15,0.85,0.675,0.325]","","",""
"sailing-trial","223","1139267","0.0-11.0-172.0","","","","false","","","","","","","","","","1551.9000000059605","","258.10000002384186","","3","0","arrowright","1","arrowright","[0.325,0.675,0.85,0.15]","","",""
"sailing-trial","224","1142409","0.0-11.0-173.0","","","","false","","","","","","","","","","null","","719.3999999761581","","2","1","null","null","arrowup","[0.325,0.675,0.85,0.15]","","",""
"sailing-trial","225","1146508","0.0-11.0-174.0","","","","false","","","","","","","","","","541.8000000119209","","86.59999999403954","","0","1","arrowleft","0","arrowleft","[0.325,0.675,0.85,0.15]","","",""
"sailing-trial","226","1149172","0.0-11.0-175.0","","","","false","","","","","","","","","","null","","657.9000000059605","","2","0","null","null","arrowup","[0.325,0.675,0.85,0.15]","","",""
"sailing-trial","227","1153893","0.0-11.0-176.0","","","","false","","","","","","","","","","1123.4000000059605","","56.599999994039536","","2","1","arrowright","1","arrowleft","[0.325,0.675,0.85,0.15]","","",""
"sailing-trial","228","1160057","0.0-11.0-177.0","","","","false","","","","","","","","","","null","","3880.7000000178814","","1","1","null","null","arrowup","[0.325,0.675,0.85,0.15]","","",""
"sailing-trial","229","1164936","0.0-11.0-178.0","","","","false","","","","","","","","","","519.3999999761581","","310.5","","1","0","arrowleft","0","arrowright","[0.325,0.675,0.85,0.15]","","",""
"sailing-trial","230","1168603","0.0-11.0-179.0","","","","false","","","","","","","","","","null","","636.4000000059605","","3","0","null","null","arrowup","[0.325,0.675,0.85,0.15]","","",""
"sailing-trial","231","1173517","0.0-11.0-180.0","","","","false","","","","","","","","","","770.5999999940395","","98.10000002384186","","0","0","arrowleft","0","arrowleft","[0.325,0.675,0.85,0.15]","","",""
"sailing-trial","232","1177442","0.0-11.0-181.0","","","","false","","","","","","","","","","null","","1957.5","","2","1","null","null","arrowup","[0.325,0.675,0.85,0.15]","","",""
"sailing-trial","233","1180990","0.0-11.0-182.0","","","","false","","","","","","","","","","509.80000001192093","","158.19999998807907","","2","1","arrowright","1","arrowleft","[0.325,0.675,0.85,0.15]","","",""
"sailing-trial","234","1183352","0.0-11.0-183.0","","","","false","","","","","","","","","","null","","685.7000000178814","","1","0","null","null","arrowup","[0.325,0.675,0.85,0.15]","","",""
"sailing-trial","235","1186340","0.0-11.0-184.0","","","","false","","","","","","","","","","462.7999999821186","","211.19999998807907","","3","0","arrowright","1","arrowright","[0.325,0.675,0.85,0.15]","","",""
"sailing-trial","236","1189170","0.0-11.0-185.0","","","","false","","","","","","","","","","null","","779.1999999880791","","1","0","null","null","arrowup","[0.325,0.675,0.85,0.15]","","",""
"sailing-trial","237","1193923","0.0-11.0-186.0","","","","false","","","","","","","","","","529.8000000119209","","175.80000001192093","","0","0","arrowleft","0","arrowleft","[0.325,0.675,0.85,0.15]","","",""
"sailing-trial","238","1197576","0.0-11.0-187.0","","","","false","","","","","","","","","","null","","1608.5","","1","1","null","null","arrowup","[0.325,0.675,0.85,0.15]","","",""
"sailing-trial","239","1202107","0.0-11.0-188.0","","","","false","","","","","","","","","","712.4000000059605","","142","","3","0","arrowright","1","arrowright","[0.15,0.85,0.675,0.325]","","",""
"sailing-trial","240","1206588","0.0-11.0-189.0","","","","false","","","","","","","","","","null","","1443.6000000238419","","3","0","null","null","arrowup","[0.15,0.85,0.675,0.325]","","",""
"sailing-trial","241","1211132","0.0-11.0-190.0","","","","false","","","","","","","","","","1468.7000000178814","","347.19999998807907","","0","0","arrowleft","0","arrowleft","[0.15,0.85,0.675,0.325]","","",""
"sailing-trial","242","1215005","0.0-11.0-191.0","","","","false","","","","","","","","","","null","","2516.699999988079","","0","0","null","null","arrowup","[0.15,0.85,0.675,0.325]","","",""
"sailing-trial","243","1219077","0.0-11.0-192.0","","","","false","","","","","","","","","","404.59999999403954","","520.5","","3","1","arrowright","1","arrowright","[0.15,0.85,0.675,0.325]","","",""
"sailing-trial","244","1222310","0.0-11.0-193.0","","","","false","","","","","","","","","","null","","1356.1000000238419","","3","1","null","null","arrowup","[0.15,0.85,0.675,0.325]","","",""
"sailing-trial","245","1228058","0.0-11.0-194.0","","","","false","","","","","","","","","","813.9000000059605","","876.4000000059605","","0","0","arrowleft","0","arrowleft","[0.15,0.85,0.675,0.325]","","",""
"sailing-trial","246","1231592","0.0-11.0-195.0","","","","false","","","","","","","","","","null","","1572.6000000238419","","3","1","null","null","arrowup","[0.15,0.85,0.675,0.325]","","",""
"sailing-trial","247","1236892","0.0-11.0-196.0","","","","false","","","","","","","","","","966.1999999880791","","627.3999999761581","","3","1","arrowright","1","arrowright","[0.15,0.85,0.675,0.325]","","",""
"sailing-trial","248","1239691","0.0-11.0-197.0","","","","false","","","","","","","","","","null","","794","","2","1","null","null","arrowup","[0.15,0.85,0.675,0.325]","","",""
"sailing-trial","249","1243576","0.0-11.0-198.0","","","","false","","","","","","","","","","620.3000000119209","","275.09999999403954","","1","1","arrowleft","0","arrowright","[0.15,0.85,0.675,0.325]","","",""
"sailing-trial","250","1246587","0.0-11.0-199.0","","","","false","","","","","","","","","","null","","802.3000000119209","","3","0","null","null","arrowup","[0.15,0.85,0.675,0.325]","","",""
"sailing-trial","251","1251156","0.0-11.0-200.0","","","","false","","","","","","","","","","1249.7999999821186","","645.3000000119209","","2","0","arrowright","1","arrowleft","[0.15,0.85,0.675,0.325]","","",""
"sailing-trial","252","1253584","0.0-11.0-201.0","","","","false","","","","","","","","","","null","","993.4000000059605","","3","0","null","null","arrowup","[0.15,0.85,0.675,0.325]","","",""
"sailing-trial","253","1256947","0.0-11.0-202.0","","","","false","","","","","","","","","","474.90000000596046","","197.2000000178814","","3","0","arrowright","1","arrowright","[0.15,0.85,0.675,0.325]","","",""
"sailing-trial","254","1259346","0.0-11.0-203.0","","","","false","","","","","","","","","","null","","728.4000000059605","","0","0","null","null","arrowup","[0.15,0.85,0.675,0.325]","","",""
"sailing-trial","255","1262854","0.0-11.0-204.0","","","","false","","","","","","","","","","505.30000001192093","","294.19999998807907","","0","0","arrowleft","0","arrowleft","[0.15,0.85,0.675,0.325]","","",""
"sailing-trial","256","1264824","0.0-11.0-205.0","","","","false","","","","","","","","","","null","","582.8999999761581","","0","0","null","null","arrowup","[0.15,0.85,0.675,0.325]","","",""
"sailing-trial","257","1268460","0.0-11.0-206.0","","","","false","","","","","","","","","","491.90000000596046","","241.7000000178814","","3","0","arrowright","1","arrowright","[0.325,0.675,0.85,0.15]","","",""
"sailing-trial","258","1271573","0.0-11.0-207.0","","","","false","","","","","","","","","","null","","1272.5999999940395","","3","1","null","null","arrowup","[0.325,0.675,0.85,0.15]","","",""
"sailing-trial","259","1274957","0.0-11.0-208.0","","","","false","","","","","","","","","","467.19999998807907","","22.400000005960464","","1","1","arrowleft","0","arrowright","[0.325,0.675,0.85,0.15]","","",""
"sailing-trial","260","1277640","0.0-11.0-209.0","","","","false","","","","","","","","","","null","","831.0999999940395","","1","1","null","null","arrowup","[0.325,0.675,0.85,0.15]","","",""
"sailing-trial","261","1281776","0.0-11.0-210.0","","","","false","","","","","","","","","","769.8000000119209","","182.59999999403954","","2","1","arrowright","1","arrowleft","[0.325,0.675,0.85,0.15]","","",""
"sailing-trial","262","1284846","0.0-11.0-211.0","","","","false","","","","","","","","","","null","","1201.5999999940395","","2","1","null","null","arrowup","[0.325,0.675,0.85,0.15]","","",""
"sailing-trial","263","1288869","0.0-11.0-212.0","","","","false","","","","","","","","","","468.69999998807907","","1126.0999999940395","","0","0","arrowleft","0","arrowleft","[0.325,0.675,0.85,0.15]","","",""
"sailing-trial","264","1294036","0.0-11.0-213.0","","","","false","","","","","","","","","","null","","2133.4000000059605","","3","0","null","null","arrowup","[0.325,0.675,0.85,0.15]","","",""
"sailing-trial","265","1299687","0.0-11.0-214.0","","","","false","","","","","","","","","","2616.5","","255.19999998807907","","0","0","arrowleft","0","arrowleft","[0.325,0.675,0.85,0.15]","","",""
"sailing-trial","266","1303165","0.0-11.0-215.0","","","","false","","","","","","","","","","null","","1755.5","","0","0","null","null","arrowup","[0.325,0.675,0.85,0.15]","","",""
"sailing-trial","267","1307241","0.0-11.0-216.0","","","","false","","","","","","","","","","633.9000000059605","","354.2000000178814","","3","1","arrowright","1","arrowright","[0.325,0.675,0.85,0.15]","","",""
"sailing-trial","268","1309575","0.0-11.0-217.0","","","","false","","","","","","","","","","null","","784.9000000059605","","3","0","null","null","arrowup","[0.325,0.675,0.85,0.15]","","",""
"sailing-trial","269","1313526","0.0-11.0-218.0","","","","false","","","","","","","","","","545.5","","358.59999999403954","","0","1","arrowleft","0","arrowleft","[0.325,0.675,0.85,0.15]","","",""
"sailing-trial","270","1315686","0.0-11.0-219.0","","","","false","","","","","","","","","","null","","649","","0","0","null","null","arrowup","[0.325,0.675,0.85,0.15]","","",""
"sailing-trial","271","1319292","0.0-11.0-220.0","","","","false","","","","","","","","","","429.5","","193.69999998807907","","2","1","arrowright","1","arrowleft","[0.325,0.675,0.85,0.15]","","",""
"sailing-trial","272","1321550","0.0-11.0-221.0","","","","false","","","","","","","","","","null","","666.1999999880791","","3","0","null","null","arrowup","[0.325,0.675,0.85,0.15]","","",""
"sailing-trial","273","1325072","0.0-11.0-222.0","","","","false","","","","","","","","","","507.09999999403954","","332.59999999403954","","3","0","arrowright","1","arrowright","[0.325,0.675,0.85,0.15]","","",""
"sailing-trial","274","1330026","0.0-11.0-223.0","","","","false","","","","","","","","","","null","","3086.5","","2","1","null","null","arrowup","[0.325,0.675,0.85,0.15]","","",""
"sailing-trial","275","1335019","0.0-11.0-224.0","","","","false","","","","","","","","","","699.1999999880791","","240.09999999403954","","0","0","arrowleft","0","arrowleft","[0.325,0.675,0.85,0.15]","","",""
"sailing-trial","276","1337959","0.0-11.0-225.0","","","","false","","","","","","","","","","null","","1109.0999999940395","","3","1","null","null","arrowup","[0.325,0.675,0.85,0.15]","","",""
"sailing-trial","277","1341506","0.0-11.0-226.0","","","","false","","","","","","","","","","531.5","","342.2000000178814","","3","0","arrowright","1","arrowright","[0.325,0.675,0.85,0.15]","","",""
"sailing-trial","278","1344390","0.0-11.0-227.0","","","","false","","","","","","","","","","null","","1073.5999999940395","","0","1","null","null","arrowup","[0.325,0.675,0.85,0.15]","","",""
"sailing-trial","279","1348404","0.0-11.0-228.0","","","","false","","","","","","","","","","1184.5","","284.69999998807907","","2","0","arrowright","1","arrowleft","[0.85,0.15,0.325,0.675]","","",""
"sailing-trial","280","1351001","0.0-11.0-229.0","","","","false","","","","","","","","","","null","","961.1999999880791","","0","0","null","null","arrowup","[0.85,0.15,0.325,0.675]","","",""
"sailing-trial","281","1355758","0.0-11.0-230.0","","","","false","","","","","","","","","","1545.699999988079","","144.10000002384186","","0","1","arrowleft","0","arrowleft","[0.85,0.15,0.325,0.675]","","",""
"sailing-trial","282","1359075","0.0-11.0-231.0","","","","false","","","","","","","","","","null","","1806.699999988079","","1","0","null","null","arrowup","[0.85,0.15,0.325,0.675]","","",""
"sailing-trial","283","1365204","0.0-11.0-232.0","","","","false","","","","","","","","","","1814.199999988079","","255.69999998807907","","1","0","arrowleft","0","arrowright","[0.85,0.15,0.325,0.675]","","",""
"sailing-trial","284","1368178","0.0-11.0-233.0","","","","false","","","","","","","","","","null","","495.09999999403954","","2","0","null","null","arrowup","[0.85,0.15,0.325,0.675]","","",""
"sailing-trial","285","1372573","0.0-11.0-234.0","","","","false","","","","","","","","","","821.8000000119209","","319.60000002384186","","3","1","arrowright","1","arrowright","[0.85,0.15,0.325,0.675]","","",""
"sailing-trial","286","1374204","0.0-11.0-235.0","","","","false","","","","","","","","","","null","","333","","2","0","null","null","arrowup","[0.85,0.15,0.325,0.675]","","",""
"sailing-trial","287","1377942","0.0-11.0-236.0","","","","false","","","","","","","","","","520.8000000119209","","295.7999999821186","","0","1","arrowleft","0","arrowleft","[0.85,0.15,0.325,0.675]","","",""
"sailing-trial","288","1380241","0.0-11.0-237.0","","","","false","","","","","","","","","","null","","446.69999998807907","","0","1","null","null","arrowup","[0.85,0.15,0.325,0.675]","","",""
"sailing-trial","289","1383591","0.0-11.0-238.0","","","","false","","","","","","","","","","456.5","","38.20000001788139","","0","1","arrowleft","0","arrowleft","[0.85,0.15,0.325,0.675]","","",""
"sailing-trial","290","1386324","0.0-11.0-239.0","","","","false","","","","","","","","","","null","","957.4000000059605","","2","1","null","null","arrowup","[0.85,0.15,0.325,0.675]","","",""
"sailing-trial","291","1389579","0.0-11.0-240.0","","","","false","","","","","","","","","","482.59999999403954","","219.40000000596046","","2","0","arrowright","1","arrowleft","[0.85,0.15,0.325,0.675]","","",""
"sailing-trial","292","1391823","0.0-11.0-241.0","","","","false","","","","","","","","","","null","","826.7000000178814","","1","0","null","null","arrowup","[0.85,0.15,0.325,0.675]","","",""
"sailing-trial","293","1395310","0.0-11.0-242.0","","","","false","","","","","","","","","","465.2000000178814","","172.09999999403954","","0","1","arrowleft","0","arrowleft","[0.85,0.15,0.325,0.675]","","",""
"sailing-trial","294","1397788","0.0-11.0-243.0","","","","false","","","","","","","","","","null","","844.6999999880791","","3","0","null","null","arrowup","[0.85,0.15,0.325,0.675]","","",""
"sailing-trial","295","1401506","0.0-11.0-244.0","","","","false","","","","","","","","","","507.39999997615814","","359","","0","1","arrowleft","0","arrowleft","[0.675,0.325,0.15,0.85]","","",""
"sailing-trial","296","1403648","0.0-11.0-245.0","","","","false","","","","","","","","","","null","","823.7999999821186","","1","0","null","null","arrowup","[0.675,0.325,0.15,0.85]","","",""
"sailing-trial","297","1407658","0.0-11.0-246.0","","","","false","","","","","","","","","","745.8999999761581","","306.59999999403954","","3","1","arrowright","1","arrowright","[0.675,0.325,0.15,0.85]","","",""
"sailing-trial","298","1410091","0.0-11.0-247.0","","","","false","","","","","","","","","","null","","572.2999999821186","","0","1","null","null","arrowup","[0.675,0.325,0.15,0.85]","","",""
"sailing-trial","299","1413591","0.0-11.0-248.0","","","","false","","","","","","","","","","369.30000001192093","","156","","0","1","arrowleft","0","arrowleft","[0.675,0.325,0.15,0.85]","","",""
"sailing-trial","300","1416089","0.0-11.0-249.0","","","","false","","","","","","","","","","null","","606.0999999940395","","3","1","null","null","arrowup","[0.675,0.325,0.15,0.85]","","",""
"sailing-trial","301","1419557","0.0-11.0-250.0","","","","false","","","","","","","","","","397","","204.90000000596046","","3","1","arrowright","1","arrowright","[0.675,0.325,0.15,0.85]","","",""
"sailing-trial","302","1422056","0.0-11.0-251.0","","","","false","","","","","","","","","","null","","674.9000000059605","","3","1","null","null","arrowup","[0.675,0.325,0.15,0.85]","","",""
"sailing-trial","303","1425823","0.0-11.0-252.0","","","","false","","","","","","","","","","535.5999999940395","","284.2999999821186","","3","1","arrowright","1","arrowright","[0.675,0.325,0.15,0.85]","","",""
"sailing-trial","304","1428074","0.0-11.0-253.0","","","","false","","","","","","","","","","null","","426.90000000596046","","3","1","null","null","arrowup","[0.675,0.325,0.15,0.85]","","",""
"sailing-trial","305","1431357","0.0-11.0-254.0","","","","false","","","","","","","","","","53.900000005960464","","372.30000001192093","","0","1","arrowleft","0","arrowleft","[0.675,0.325,0.15,0.85]","","",""
"sailing-trial","306","1433171","0.0-11.0-255.0","","","","false","","","","","","","","","","null","","107.90000000596046","","3","0","null","null","arrowup","[0.675,0.325,0.15,0.85]","","",""
"sailing-trial","307","1436908","0.0-11.0-256.0","","","","false","","","","","","","","","","554.8000000119209","","279.10000002384186","","3","1","arrowright","1","arrowright","[0.675,0.325,0.15,0.85]","","",""
"sailing-trial","308","1438861","0.0-11.0-257.0","","","","false","","","","","","","","","","null","","586.7000000178814","","1","0","null","null","arrowup","[0.675,0.325,0.15,0.85]","","",""
"sailing-trial","309","1441988","0.0-11.0-258.0","","","","false","","","","","","","","","","508.39999997615814","","209.60000002384186","","1","0","arrowleft","0","arrowright","[0.675,0.325,0.15,0.85]","","",""
"sailing-trial","310","1444142","0.0-11.0-259.0","","","","false","","","","","","","","","","null","","838.0999999940395","","2","0","null","null","arrowup","[0.675,0.325,0.15,0.85]","","",""
"sailing-trial","311","1447606","0.0-11.0-260.0","","","","false","","","","","","","","","","458.60000002384186","","204.09999999403954","","0","0","arrowleft","0","arrowleft","[0.675,0.325,0.15,0.85]","","",""
"sailing-trial","312","1449491","0.0-11.0-261.0","","","","false","","","","","","","","","","null","","523.0999999940395","","2","0","null","null","arrowup","[0.675,0.325,0.15,0.85]","","",""
"sailing-trial","313","1452464","0.0-11.0-262.0","","","","false","","","","","","","","","","393.5","","23.69999998807907","","3","0","arrowright","1","arrowright","[0.325,0.675,0.85,0.15]","","",""
"sailing-trial","314","1454857","0.0-11.0-263.0","","","","false","","","","","","","","","","null","","588.5","","1","1","null","null","arrowup","[0.325,0.675,0.85,0.15]","","",""
"sailing-trial","315","1458275","0.0-11.0-264.0","","","","false","","","","","","","","","","426.2000000178814","","148.80000001192093","","2","1","arrowright","1","arrowleft","[0.325,0.675,0.85,0.15]","","",""
"sailing-trial","316","1460640","0.0-11.0-265.0","","","","false","","","","","","","","","","null","","561.4000000059605","","0","1","null","null","arrowup","[0.325,0.675,0.85,0.15]","","",""
"sailing-trial","317","1464558","0.0-11.0-266.0","","","","false","","","","","","","","","","576.0999999940395","","315.69999998807907","","1","1","arrowleft","0","arrowright","[0.325,0.675,0.85,0.15]","","",""
"sailing-trial","318","1466815","0.0-11.0-267.0","","","","false","","","","","","","","","","null","","611.5","","0","0","null","null","arrowup","[0.325,0.675,0.85,0.15]","","",""
"sailing-trial","319","1470473","0.0-11.0-268.0","","","","false","","","","","","","","","","467.7000000178814","","272.7000000178814","","0","1","arrowleft","0","arrowleft","[0.325,0.675,0.85,0.15]","","",""
"sailing-trial","320","1473504","0.0-11.0-269.0","","","","false","","","","","","","","","","null","","513.7999999821186","","0","1","null","null","arrowup","[0.325,0.675,0.85,0.15]","","",""
"sailing-trial","321","1477524","0.0-11.0-270.0","","","","false","","","","","","","","","","930.7000000178814","","246.59999999403954","","2","1","arrowright","1","arrowleft","[0.325,0.675,0.85,0.15]","","",""
"sailing-trial","322","1480289","0.0-11.0-271.0","","","","false","","","","","","","","","","null","","842.9000000059605","","2","1","null","null","arrowup","[0.325,0.675,0.85,0.15]","","",""
"sailing-trial","323","1484999","0.0-11.0-272.0","","","","false","","","","","","","","","","631","","14.700000017881393","","3","0","arrowright","1","arrowright","[0.325,0.675,0.85,0.15]","","",""
"sailing-trial","324","1487090","0.0-11.0-273.0","","","","false","","","","","","","","","","null","","224.09999999403954","","1","1","null","null","arrowup","[0.325,0.675,0.85,0.15]","","",""
"sailing-trial","325","1490791","0.0-11.0-274.0","","","","false","","","","","","","","","","443.59999999403954","","384.7000000178814","","0","1","arrowleft","0","arrowleft","[0.325,0.675,0.85,0.15]","","",""
"sailing-trial","326","1492866","0.0-11.0-275.0","","","","false","","","","","","","","","","null","","523.9000000059605","","1","0","null","null","arrowup","[0.325,0.675,0.85,0.15]","","",""
"sailing-trial","327","1497201","0.0-11.0-276.0","","","","false","","","","","","","","","","431.30000001192093","","245.59999999403954","","3","0","arrowright","1","arrowright","[0.325,0.675,0.85,0.15]","","",""
"sailing-trial","328","1499754","0.0-11.0-277.0","","","","false","","","","","","","","","","null","","645.5","","2","1","null","null","arrowup","[0.325,0.675,0.85,0.15]","","",""
"sailing-trial","329","1503391","0.0-11.0-278.0","","","","false","","","","","","","","","","577.2999999821186","","80.2000000178814","","1","1","arrowleft","0","arrowright","[0.325,0.675,0.85,0.15]","","",""
"sailing-trial","330","1507315","0.0-11.0-279.0","","","","false","","","","","","","","","","null","","933.0999999940395","","1","0","null","null","arrowup","[0.325,0.675,0.85,0.15]","","",""
"sailing-trial","331","1511057","0.0-11.0-280.0","","","","false","","","","","","","","","","613","","148.19999998807907","","1","1","arrowleft","0","arrowright","[0.325,0.675,0.85,0.15]","","",""
"sailing-trial","332","1513304","0.0-11.0-281.0","","","","false","","","","","","","","","","null","","589.6999999880791","","1","0","null","null","arrowup","[0.325,0.675,0.85,0.15]","","",""
"sailing-trial","333","1516853","0.0-11.0-282.0","","","","false","","","","","","","","","","479.30000001192093","","317.89999997615814","","0","0","arrowleft","0","arrowleft","[0.15,0.85,0.675,0.325]","","",""
"sailing-trial","334","1520590","0.0-11.0-283.0","","","","false","","","","","","","","","","null","","1532.8999999761581","","1","1","null","null","arrowup","[0.15,0.85,0.675,0.325]","","",""
"sailing-trial","335","1524406","0.0-11.0-284.0","","","","false","","","","","","","","","","450.90000000596046","","225.2999999821186","","2","1","arrowright","1","arrowleft","[0.15,0.85,0.675,0.325]","","",""
"sailing-trial","336","1526812","0.0-11.0-285.0","","","","false","","","","","","","","","","null","","843.7999999821186","","3","0","null","null","arrowup","[0.15,0.85,0.675,0.325]","","",""
"sailing-trial","337","1531032","0.0-11.0-286.0","","","","false","","","","","","","","","","594.5999999940395","","288.09999999403954","","3","0","arrowright","1","arrowright","[0.15,0.85,0.675,0.325]","","",""
"sailing-trial","338","1532959","0.0-11.0-287.0","","","","false","","","","","","","","","","null","","507.19999998807907","","3","0","null","null","arrowup","[0.15,0.85,0.675,0.325]","","",""
"sailing-trial","339","1536501","0.0-11.0-288.0","","","","false","","","","","","","","","","420.90000000596046","","338.7000000178814","","0","0","arrowleft","0","arrowleft","[0.15,0.85,0.675,0.325]","","",""
"sailing-trial","340","1538447","0.0-11.0-289.0","","","","false","","","","","","","","","","null","","514.9000000059605","","1","0","null","null","arrowup","[0.15,0.85,0.675,0.325]","","",""
"sailing-trial","341","1543064","0.0-11.0-290.0","","","","false","","","","","","","","","","507.59999999403954","","302","","2","0","arrowright","1","arrowleft","[0.15,0.85,0.675,0.325]","","",""
"sailing-trial","342","1545087","0.0-11.0-291.0","","","","false","","","","","","","","","","null","","523.0999999940395","","0","0","null","null","arrowup","[0.15,0.85,0.675,0.325]","","",""
"sailing-trial","343","1548106","0.0-11.0-292.0","","","","false","","","","","","","","","","469.2999999821186","","7.199999988079071","","1","0","arrowleft","0","arrowright","[0.15,0.85,0.675,0.325]","","",""
"sailing-trial","344","1550376","0.0-11.0-293.0","","","","false","","","","","","","","","","null","","743.5999999940395","","3","0","null","null","arrowup","[0.15,0.85,0.675,0.325]","","",""
"sailing-trial","345","1553868","0.0-11.0-294.0","","","","false","","","","","","","","","","390.5","","302.7000000178814","","0","0","arrowleft","0","arrowleft","[0.15,0.85,0.675,0.325]","","",""
"sailing-trial","346","1556241","0.0-11.0-295.0","","","","false","","","","","","","","","","null","","545.9000000059605","","3","1","null","null","arrowup","[0.15,0.85,0.675,0.325]","","",""
"sailing-trial","347","1559574","0.0-11.0-296.0","","","","false","","","","","","","","","","375.59999999403954","","148.5","","3","0","arrowright","1","arrowright","[0.15,0.85,0.675,0.325]","","",""
"sailing-trial","348","1561674","0.0-11.0-297.0","","","","false","","","","","","","","","","null","","255.89999997615814","","1","1","null","null","arrowup","[0.15,0.85,0.675,0.325]","","",""
"sailing-trial","349","1564481","0.0-11.0-298.0","","","","false","","","","","","","","","","183.2000000178814","","95.59999999403954","","0","0","arrowleft","0","arrowleft","[0.325,0.675,0.85,0.15]","","",""
"sailing-trial","350","1567206","0.0-11.0-299.0","","","","false","","","","","","","","","","null","","940.5999999940395","","3","1","null","null","arrowup","[0.325,0.675,0.85,0.15]","","",""
"sailing-trial","351","1570523","0.0-11.0-300.0","","","","false","","","","","","","","","","406.30000001192093","","37.70000001788139","","1","1","arrowleft","0","arrowright","[0.325,0.675,0.85,0.15]","","",""
"sailing-trial","352","1572707","0.0-11.0-301.0","","","","false","","","","","","","","","","null","","364","","1","1","null","null","arrowup","[0.325,0.675,0.85,0.15]","","",""
"sailing-trial","353","1575853","0.0-11.0-302.0","","","","false","","","","","","","","","","574.5999999940395","","38.30000001192093","","1","0","arrowleft","0","arrowright","[0.325,0.675,0.85,0.15]","","",""
"sailing-trial","354","1577672","0.0-11.0-303.0","","","","false","","","","","","","","","","null","","535.4000000059605","","3","0","null","null","arrowup","[0.325,0.675,0.85,0.15]","","",""
"sailing-trial","355","1581091","0.0-11.0-304.0","","","","false","","","","","","","","","","416.19999998807907","","176.59999999403954","","2","1","arrowright","1","arrowleft","[0.325,0.675,0.85,0.15]","","",""
"sailing-trial","356","1583124","0.0-11.0-305.0","","","","false","","","","","","","","","","null","","667","","0","0","null","null","arrowup","[0.325,0.675,0.85,0.15]","","",""
"sailing-trial","357","1586870","0.0-11.0-306.0","","","","false","","","","","","","","","","549.9000000059605","","230.5","","1","1","arrowleft","0","arrowright","[0.325,0.675,0.85,0.15]","","",""
"sailing-trial","358","1589172","0.0-11.0-307.0","","","","false","","","","","","","","","","null","","490.59999999403954","","0","1","null","null","arrowup","[0.325,0.675,0.85,0.15]","","",""
"sailing-trial","359","1592706","0.0-11.0-308.0","","","","false","","","","","","","","","","458.40000000596046","","200.40000000596046","","0","1","arrowleft","0","arrowleft","[0.325,0.675,0.85,0.15]","","",""
"sailing-trial","360","1594721","0.0-11.0-309.0","","","","false","","","","","","","","","","null","","609.7999999821186","","0","0","null","null","arrowup","[0.325,0.675,0.85,0.15]","","",""
"sailing-trial","361","1597939","0.0-11.0-310.0","","","","false","","","","","","","","","","497.10000002384186","","148.7999999821186","","3","0","arrowright","1","arrowright","[0.325,0.675,0.85,0.15]","","",""
"sailing-trial","362","1599793","0.0-11.0-311.0","","","","false","","","","","","","","","","null","","570.6999999880791","","2","0","null","null","arrowup","[0.325,0.675,0.85,0.15]","","",""
"sailing-trial","363","1603256","0.0-11.0-312.0","","","","false","","","","","","","","","","454.90000000596046","","92.40000000596046","","1","1","arrowleft","0","arrowright","[0.325,0.675,0.85,0.15]","","",""
"sailing-trial","364","1606057","0.0-11.0-313.0","","","","false","","","","","","","","","","null","","938.1999999880791","","2","1","null","null","arrowup","[0.325,0.675,0.85,0.15]","","",""
"sailing-trial","365","1609621","0.0-11.0-314.0","","","","false","","","","","","","","","","567.5","","175.39999997615814","","2","1","arrowright","1","arrowleft","[0.15,0.85,0.675,0.325]","","",""
"sailing-trial","366","1611681","0.0-11.0-315.0","","","","false","","","","","","","","","","null","","551.2999999821186","","0","0","null","null","arrowup","[0.15,0.85,0.675,0.325]","","",""
"sailing-trial","367","1615291","0.0-11.0-316.0","","","","false","","","","","","","","","","472.59999999403954","","367","","1","0","arrowleft","0","arrowright","[0.15,0.85,0.675,0.325]","","",""
"sailing-trial","368","1617605","0.0-11.0-317.0","","","","false","","","","","","","","","","null","","494.40000000596046","","2","1","null","null","arrowup","[0.15,0.85,0.675,0.325]","","",""
"sailing-trial","369","1621057","0.0-11.0-318.0","","","","false","","","","","","","","","","456.19999998807907","","140.90000000596046","","2","1","arrowright","1","arrowleft","[0.15,0.85,0.675,0.325]","","",""
"sailing-trial","370","1624071","0.0-11.0-319.0","","","","false","","","","","","","","","","null","","1218.800000011921","","2","1","null","null","arrowup","[0.15,0.85,0.675,0.325]","","",""
"sailing-trial","371","1627970","0.0-11.0-320.0","","","","false","","","","","","","","","","600.3000000119209","","109.5","","2","1","arrowright","1","arrowleft","[0.15,0.85,0.675,0.325]","","",""
"sailing-trial","372","1629774","0.0-11.0-321.0","","","","false","","","","","","","","","","null","","501.10000002384186","","3","0","null","null","arrowup","[0.15,0.85,0.675,0.325]","","",""
"sailing-trial","373","1633590","0.0-11.0-322.0","","","","false","","","","","","","","","","701.9000000059605","","286.09999999403954","","2","1","arrowright","1","arrowleft","[0.15,0.85,0.675,0.325]","","",""
"sailing-trial","374","1635586","0.0-11.0-323.0","","","","false","","","","","","","","","","null","","579.5999999940395","","3","0","null","null","arrowup","[0.15,0.85,0.675,0.325]","","",""
"sailing-trial","375","1639273","0.0-11.0-324.0","","","","false","","","","","","","","","","583","","256.09999999403954","","1","1","arrowleft","0","arrowright","[0.15,0.85,0.675,0.325]","","",""
"sailing-trial","376","1641656","0.0-11.0-325.0","","","","false","","","","","","","","","","null","","575.0999999940395","","3","1","null","null","arrowup","[0.15,0.85,0.675,0.325]","","",""
"sailing-trial","377","1644791","0.0-11.0-326.0","","","","false","","","","","","","","","","298.59999999403954","","383.59999999403954","","3","0","arrowright","1","arrowright","[0.15,0.85,0.675,0.325]","","",""
"sailing-trial","378","1647274","0.0-11.0-327.0","","","","false","","","","","","","","","","null","","891.8999999761581","","1","1","null","null","arrowup","[0.15,0.85,0.675,0.325]","","",""
"sailing-trial","379","1651308","0.0-11.0-328.0","","","","false","","","","","","","","","","485.80000001192093","","675.0999999940395","","2","1","arrowright","1","arrowleft","[0.15,0.85,0.675,0.325]","","",""
"sailing-trial","380","1653741","0.0-11.0-329.0","","","","false","","","","","","","","","","null","","610.1999999880791","","2","1","null","null","arrowup","[0.15,0.85,0.675,0.325]","","",""
"sailing-trial","381","1657223","0.0-11.0-330.0","","","","false","","","","","","","","","","376.10000002384186","","231.30000001192093","","1","1","arrowleft","0","arrowright","[0.15,0.85,0.675,0.325]","","",""
"sailing-trial","382","1659470","0.0-11.0-331.0","","","","false","","","","","","","","","","null","","751.7999999821186","","0","0","null","null","arrowup","[0.15,0.85,0.675,0.325]","","",""
"sailing-trial","383","1663206","0.0-11.0-332.0","","","","false","","","","","","","","","","448.90000000596046","","149.80000001192093","","2","1","arrowright","1","arrowleft","[0.325,0.675,0.85,0.15]","","",""
"sailing-trial","384","1666195","0.0-11.0-333.0","","","","false","","","","","","","","","","null","","901.9000000059605","","0","0","null","null","arrowup","[0.325,0.675,0.85,0.15]","","",""
"sailing-trial","385","1670022","0.0-11.0-334.0","","","","false","","","","","","","","","","453","","367.7999999821186","","1","1","arrowleft","0","arrowright","[0.325,0.675,0.85,0.15]","","",""
"sailing-trial","386","1672641","0.0-11.0-335.0","","","","false","","","","","","","","","","null","","776.8000000119209","","2","1","null","null","arrowup","[0.325,0.675,0.85,0.15]","","",""
"sailing-trial","387","1676317","0.0-11.0-336.0","","","","false","","","","","","","","","","591.8000000119209","","602.2999999821186","","2","0","arrowright","1","arrowleft","[0.325,0.675,0.85,0.15]","","",""
"sailing-trial","388","1679172","0.0-11.0-337.0","","","","false","","","","","","","","","","null","","953.3000000119209","","1","1","null","null","arrowup","[0.325,0.675,0.85,0.15]","","",""
"sailing-trial","389","1684183","0.0-11.0-338.0","","","","false","","","","","","","","","","585.1999999880791","","363.89999997615814","","1","0","arrowleft","0","arrowright","[0.325,0.675,0.85,0.15]","","",""
"sailing-trial","390","1686888","0.0-11.0-339.0","","","","false","","","","","","","","","","null","","706.5","","3","1","null","null","arrowup","[0.325,0.675,0.85,0.15]","","",""
"sailing-trial","391","1691089","0.0-11.0-340.0","","","","false","","","","","","","","","","717.7000000178814","","444.30000001192093","","3","1","arrowright","1","arrowright","[0.325,0.675,0.85,0.15]","","",""
"sailing-trial","392","1693015","0.0-11.0-341.0","","","","false","","","","","","","","","","null","","588.9000000059605","","3","0","null","null","arrowup","[0.325,0.675,0.85,0.15]","","",""
"sailing-trial","393","1696737","0.0-11.0-342.0","","","","false","","","","","","","","","","732.9000000059605","","275.40000000596046","","1","0","arrowleft","0","arrowright","[0.325,0.675,0.85,0.15]","","",""
"sailing-trial","394","1699249","0.0-11.0-343.0","","","","false","","","","","","","","","","null","","970.5","","0","0","null","null","arrowup","[0.325,0.675,0.85,0.15]","","",""
"sailing-trial","395","1702644","0.0-11.0-344.0","","","","false","","","","","","","","","","461","","271.7000000178814","","3","0","arrowright","1","arrowright","[0.325,0.675,0.85,0.15]","","",""
"sailing-trial","396","1704814","0.0-11.0-345.0","","","","false","","","","","","","","","","null","","692.6999999880791","","1","0","null","null","arrowup","[0.325,0.675,0.85,0.15]","","",""
"sailing-trial","397","1708489","0.0-11.0-346.0","","","","false","","","","","","","","","","460.80000001192093","","261","","1","1","arrowleft","0","arrowright","[0.325,0.675,0.85,0.15]","","",""
"sailing-trial","398","1710736","0.0-11.0-347.0","","","","false","","","","","","","","","","null","","636.0999999940395","","0","0","null","null","arrowup","[0.325,0.675,0.85,0.15]","","",""
"sailing-trial","399","1715005","0.0-11.0-348.0","","","","false","","","","","","","","","","1116.2000000178814","","186.19999998807907","","0","1","arrowleft","0","arrowleft","[0.325,0.675,0.85,0.15]","","",""
"sailing-trial","400","1717421","0.0-11.0-349.0","","","","false","","","","","","","","","","null","","769.5","","3","0","null","null","arrowup","[0.325,0.675,0.85,0.15]","","",""
"sailing-trial","401","1720587","0.0-11.0-350.0","","","","false","","","","","","","","","","527.3000000119209","","297.2999999821186","","3","0","arrowright","1","arrowright","[0.15,0.85,0.675,0.325]","","",""
"sailing-trial","402","1722905","0.0-11.0-351.0","","","","false","","","","","","","","","","null","","580.0999999940395","","1","1","null","null","arrowup","[0.15,0.85,0.675,0.325]","","",""
"sailing-trial","403","1726419","0.0-11.0-352.0","","","","false","","","","","","","","","","444.69999998807907","","47.69999998807907","","1","1","arrowleft","0","arrowright","[0.15,0.85,0.675,0.325]","","",""
"sailing-trial","404","1728676","0.0-11.0-353.0","","","","false","","","","","","","","","","null","","663.4000000059605","","0","0","null","null","arrowup","[0.15,0.85,0.675,0.325]","","",""
"sailing-trial","405","1732403","0.0-11.0-354.0","","","","false","","","","","","","","","","571.9000000059605","","485.69999998807907","","2","0","arrowright","1","arrowleft","[0.15,0.85,0.675,0.325]","","",""
"sailing-trial","406","1735455","0.0-11.0-355.0","","","","false","","","","","","","","","","null","","1180.5","","3","1","null","null","arrowup","[0.15,0.85,0.675,0.325]","","",""
"sailing-trial","407","1739771","0.0-11.0-356.0","","","","false","","","","","","","","","","721.2000000178814","","673.5","","0","1","arrowleft","0","arrowleft","[0.15,0.85,0.675,0.325]","","",""
"sailing-trial","408","1742356","0.0-11.0-357.0","","","","false","","","","","","","","","","null","","658","","1","1","null","null","arrowup","[0.15,0.85,0.675,0.325]","","",""
"sailing-trial","409","1746291","0.0-11.0-358.0","","","","false","","","","","","","","","","912.9000000059605","","622.5","","3","0","arrowright","1","arrowright","[0.15,0.85,0.675,0.325]","","",""
"sailing-trial","410","1749005","0.0-11.0-359.0","","","","false","","","","","","","","","","null","","890.8999999761581","","2","1","null","null","arrowup","[0.15,0.85,0.675,0.325]","","",""
"sailing-trial","411","1752789","0.0-11.0-360.0","","","","false","","","","","","","","","","378.69999998807907","","314.2000000178814","","1","1","arrowleft","0","arrowright","[0.15,0.85,0.675,0.325]","","",""
"sailing-trial","412","1755290","0.0-11.0-361.0","","","","false","","","","","","","","","","null","","695.2000000178814","","2","1","null","null","arrowup","[0.15,0.85,0.675,0.325]","","",""
"sailing-trial","413","1759040","0.0-11.0-362.0","","","","false","","","","","","","","","","509.19999998807907","","361.5","","1","1","arrowleft","0","arrowright","[0.15,0.85,0.675,0.325]","","",""
"sailing-trial","414","1761668","0.0-11.0-363.0","","","","false","","","","","","","","","","null","","676.3000000119209","","0","1","null","null","arrowup","[0.15,0.85,0.675,0.325]","","",""
"sailing-trial","415","1767139","0.0-11.0-364.0","","","","false","","","","","","","","","","976.0999999940395","","1045.300000011921","","1","1","arrowleft","0","arrowright","[0.15,0.85,0.675,0.325]","","",""
"sailing-trial","416","1769471","0.0-11.0-365.0","","","","false","","","","","","","","","","null","","494.40000000596046","","0","1","null","null","arrowup","[0.15,0.85,0.675,0.325]","","",""
"sailing-trial","417","1773121","0.0-11.0-366.0","","","","false","","","","","","","","","","402.2000000178814","","256.59999999403954","","0","1","arrowleft","0","arrowleft","[0.675,0.325,0.15,0.85]","","",""
"sailing-trial","418","1775672","0.0-11.0-367.0","","","","false","","","","","","","","","","null","","625.0999999940395","","0","1","null","null","arrowup","[0.675,0.325,0.15,0.85]","","",""
"sailing-trial","419","1780037","0.0-11.0-368.0","","","","false","","","","","","","","","","945.8000000119209","","262.5","","1","1","arrowleft","0","arrowright","[0.675,0.325,0.15,0.85]","","",""
"sailing-trial","420","1782112","0.0-11.0-369.0","","","","false","","","","","","","","","","null","","653","","1","0","null","null","arrowup","[0.675,0.325,0.15,0.85]","","",""
"sailing-trial","421","1786105","0.0-11.0-370.0","","","","false","","","","","","","","","","448.5","","282.80000001192093","","0","1","arrowleft","0","arrowleft","[0.675,0.325,0.15,0.85]","","",""
"sailing-trial","422","1788938","0.0-11.0-371.0","","","","false","","","","","","","","","","null","","978.6000000238419","","3","1","null","null","arrowup","[0.675,0.325,0.15,0.85]","","",""
"sailing-trial","423","1792985","0.0-11.0-372.0","","","","false","","","","","","","","","","633","","280.90000000596046","","0","1","arrowleft","0","arrowleft","[0.675,0.325,0.15,0.85]","","",""
"sailing-trial","424","1796056","0.0-11.0-373.0","","","","false","","","","","","","","","","null","","1128.5999999940395","","1","1","null","null","arrowup","[0.675,0.325,0.15,0.85]","","",""
"sailing-trial","425","1800755","0.0-11.0-374.0","","","","false","","","","","","","","","","1438.5","","390.19999998807907","","0","1","arrowleft","0","arrowleft","[0.675,0.325,0.15,0.85]","","",""
"sailing-trial","426","1803156","0.0-11.0-375.0","","","","false","","","","","","","","","","null","","860.2999999821186","","0","0","null","null","arrowup","[0.675,0.325,0.15,0.85]","","",""
"sailing-trial","427","1807321","0.0-11.0-376.0","","","","false","","","","","","","","","","519.6000000238419","","456.80000001192093","","3","1","arrowright","1","arrowright","[0.675,0.325,0.15,0.85]","","",""
"sailing-trial","428","1809702","0.0-11.0-377.0","","","","false","","","","","","","","","","null","","710.6000000238419","","2","0","null","null","arrowup","[0.675,0.325,0.15,0.85]","","",""
"sailing-trial","429","1816656","0.0-11.0-378.0","","","","false","","","","","","","","","","1956.7000000178814","","1562.199999988079","","0","1","arrowleft","0","arrowleft","[0.675,0.325,0.15,0.85]","","",""
"sailing-trial","430","1820587","0.0-11.0-379.0","","","","false","","","","","","","","","","null","","1845.300000011921","","1","1","null","null","arrowup","[0.675,0.325,0.15,0.85]","","",""
"sailing-trial","431","1824789","0.0-11.0-380.0","","","","false","","","","","","","","","","683.5999999940395","","3.5999999940395355","","1","1","arrowleft","0","arrowright","[0.675,0.325,0.15,0.85]","","",""
"sailing-trial","432","1827270","0.0-11.0-381.0","","","","false","","","","","","","","","","null","","611.9000000059605","","2","0","null","null","arrowup","[0.675,0.325,0.15,0.85]","","",""
"sailing-trial","433","1831220","0.0-11.0-382.0","","","","false","","","","","","","","","","730.0999999940395","","300.80000001192093","","1","0","arrowleft","0","arrowright","[0.85,0.15,0.325,0.675]","","",""
"sailing-trial","434","1833839","0.0-11.0-383.0","","","","false","","","","","","","","","","null","","598.6999999880791","","0","1","null","null","arrowup","[0.85,0.15,0.325,0.675]","","",""
"sailing-trial","435","1837838","0.0-11.0-384.0","","","","false","","","","","","","","","","450.5","","257.10000002384186","","0","1","arrowleft","0","arrowleft","[0.85,0.15,0.325,0.675]","","",""
"sailing-trial","436","1840522","0.0-11.0-385.0","","","","false","","","","","","","","","","null","","717.8999999761581","","0","1","null","null","arrowup","[0.85,0.15,0.325,0.675]","","",""
"sailing-trial","437","1845383","0.0-11.0-386.0","","","","false","","","","","","","","","","542.0999999940395","","258.5","","1","0","arrowleft","0","arrowright","[0.85,0.15,0.325,0.675]","","",""
"sailing-trial","438","1847937","0.0-11.0-387.0","","","","false","","","","","","","","","","null","","660.6999999880791","","0","1","null","null","arrowup","[0.85,0.15,0.325,0.675]","","",""
"sailing-trial","439","1852694","0.0-11.0-388.0","","","","false","","","","","","","","","","440","","260.59999999403954","","0","0","arrowleft","0","arrowleft","[0.85,0.15,0.325,0.675]","","",""
"sailing-trial","440","1855289","0.0-11.0-389.0","","","","false","","","","","","","","","","null","","756.3000000119209","","3","1","null","null","arrowup","[0.85,0.15,0.325,0.675]","","",""
"sailing-trial","441","1859019","0.0-11.0-390.0","","","","false","","","","","","","","","","237.2000000178814","","203.59999999403954","","3","1","arrowright","1","arrowright","[0.85,0.15,0.325,0.675]","","",""
"sailing-trial","442","1861422","0.0-11.0-391.0","","","","false","","","","","","","","","","null","","429.59999999403954","","3","1","null","null","arrowup","[0.85,0.15,0.325,0.675]","","",""
"sailing-trial","443","1865765","0.0-11.0-392.0","","","","false","","","","","","","","","","980.6999999880791","","271.2999999821186","","3","0","arrowright","1","arrowright","[0.85,0.15,0.325,0.675]","","",""
"sailing-trial","444","1868600","0.0-11.0-393.0","","","","false","","","","","","","","","","null","","815.9000000059605","","2","0","null","null","arrowup","[0.85,0.15,0.325,0.675]","","",""
"sailing-trial","445","1872620","0.0-11.0-394.0","","","","false","","","","","","","","","","428.40000000596046","","315.40000000596046","","0","1","arrowleft","0","arrowleft","[0.85,0.15,0.325,0.675]","","",""
"sailing-trial","446","1875462","0.0-11.0-395.0","","","","false","","","","","","","","","","null","","1184.9000000059605","","2","0","null","null","arrowup","[0.85,0.15,0.325,0.675]","","",""
"sailing-trial","447","1879174","0.0-11.0-396.0","","","","false","","","","","","","","","","483.5","","70.40000000596046","","2","0","arrowright","1","arrowleft","[0.85,0.15,0.325,0.675]","","",""
"sailing-trial","448","1882956","0.0-11.0-397.0","","","","false","","","","","","","","","","null","","1602.4000000059605","","0","1","null","null","arrowup","[0.85,0.15,0.325,0.675]","","",""
"sailing-trial","449","1888137","0.0-11.0-398.0","","","","false","","","","","","","","","","1570.9000000059605","","210.19999998807907","","3","1","arrowright","1","arrowright","[0.85,0.15,0.325,0.675]","","",""
"sailing-trial","450","1890401","0.0-11.0-399.0","","","","false","","","","","","","","","","null","","718.5","","1","0","null","null","arrowup","[0.85,0.15,0.325,0.675]","","",""
"instructions","451","1897040","0.0-12.0","","","","","","","","","","6637.0999999940395","","","","","","","","","","","","","","","","[{""page_index"":0,""viewing_time"":6635.800000011921}]"
"survey-debrief","452","1974539","0.0-13.0","","","","","","","","","","77498.19999998808","","","","","","","","","","","","","","{""difficulty"":""4"",""fun"":""2"",""clarity"":""4"",""strategy"":""No. I was trying to look for patterns in the results from the stores blocked in the fog. If there was treasure, I figured that my next move should be at that store. "",""feedback"":""I was unsure of how the progress was moving. Was it the number of bonuses or entries?""}","",""
