"trial_type","trial_index","time_elapsed","internal_node_id","value","metadata","success","timeout","failed_images","failed_audio","failed_video","browser_interaction","low_quality","rt","stimulus","response","button_pressed","island_rt","island_response","boat_rt","boat_response","boat","reward","island_key","island","boat_key","reward_probabilities","responses","num_errors","view_history"
"pavlovia","0","3","0.0-0.0","","","","","","","","","","","","","","","","","","","","","","","","","",""
"call-function","1","4","0.0-1.0","","{""task_version"":""sr_pilot_v2"",""task_condition"":""good"",""boats"":[""B"",""D"",""A"",""C""],""boats_demo"":[""F"",""E"",""H"",""G""],""islands"":[""B"",""A""],""subject_id"":""13949"",""age"":""17"",""gender"":""Female""}","","","","","","","","","","","","","","","","","","","","","","","",""
"preload","2","3602","0.0-2.0","","","true","false","[]","[]","[]","[{""event"":""fullscreenenter"",""trial"":3,""time"":8626}]","false","","","","","","","","","","","","","","","","",""
"fullscreen","3","9590","0.0-3.0","","","true","","","","","","","","","","","","","","","","","","","","","","",""
"audio-keyboard-response","4","13524","0.0-4.0-0.0","","","","","","","","","","3730.6666666666665","audio/beep_loop.wav"," ","","","","","","","","","","","","","",""
"audio-test","5","15255","0.0-4.0-1.0","","","","","","","","","","null","audio/turtle.mp3","","3","","","","","","","","","","","","",""
"audio-test","6","17563","0.0-4.0-2.0","","","","","","","","","","null","audio/shark.mp3","","2","","","","","","","","","","","","",""
"sailing-instructions","7","51982","0.0-5.0-0.0-0.0","","","","","","","","","","","","","","null","null","null","null","null","null","","","","","","",""
"sailing-trial","8","56547","0.0-5.0-0.0-1.0-0.0","","","","false","","","","","","","","","","3451.9000000953674","","null","","null","null","arrowleft","0","null","null","","",""
"sailing-trial","9","59077","0.0-5.0-0.0-1.0-1.0","","","","false","","","","","","","","","","1414.6000001430511","","null","","null","null","arrowright","1","null","null","","",""
"sailing-trial","10","63627","0.0-5.0-0.0-1.0-2.0","","","","false","","","","","","","","","","3426.5","","null","","null","null","arrowright","1","null","null","","",""
"sailing-instructions","11","112597","0.0-5.0-0.0-2.0","","","","","","","","","","","","","","null","null","null","null","0","null","","","","","","",""
"sailing-trial","12","119209","0.0-5.0-0.0-3.0-0.0","","","","false","","","","","","","","","","null","","3022.2000000476837","","2","1","null","null","arrowleft","[1,1,1,1]","","",""
"sailing-trial","13","123489","0.0-5.0-0.0-3.0-1.0","","","","false","","","","","","","","","","null","","1136.5","","3","1","null","null","arrowright","[1,1,1,1]","","",""
"sailing-trial","14","128004","0.0-5.0-0.0-3.0-2.0","","","","false","","","","","","","","","","null","","1374.5","","2","0","null","null","arrowleft","[0,0,0,0]","","",""
"sailing-instructions","15","135681","0.0-5.0-0.0-4.0","","","","","","","","","","","","","","null","null","null","null","null","null","","","","","","",""
"sailing-comprehension","16","163397","0.0-5.0-0.0-5.0","","","","","","","","","","24781.599999904633","","","","","","","","","","","","","","[""true"",""true"",""false"",""true""]","0",""
"sailing-instructions","17","230241","0.0-6.0-0.0-0.0","","","","","","","","","","","","","","null","null","null","null","null","null","","","","","","",""
"sailing-comprehension","18","286939","0.0-6.0-0.0-1.0","","","","","","","","","","54609.09999990463","","","","","","","","","","","","","","[""true"",""false"",""true""]","0",""
"sailing-instructions","19","302976","0.0-7.0-0.0-0.0","","","","","","","","","","","","","","null","null","null","null","null","null","","","","","","",""
"sailing-trial","20","312533","0.0-7.0-0.0-1.0-0.0","","","","false","","","","","","","","","","null","","6618.099999904633","","0","1","null","null","arrowup","[0.2,0.8,0.2,0.8]","","",""
"sailing-trial","21","316878","0.0-7.0-0.0-1.0-1.0","","","","false","","","","","","","","","","null","","1823.6999998092651","","1","1","null","null","arrowup","[0.2,0.8,0.2,0.8]","","",""
"sailing-trial","22","320376","0.0-7.0-0.0-1.0-2.0","","","","false","","","","","","","","","","null","","1245","","2","0","null","null","arrowup","[0.2,0.8,0.2,0.8]","","",""
"sailing-trial","23","324143","0.0-7.0-0.0-1.0-3.0","","","","false","","","","","","","","","","null","","1231.2999999523163","","3","1","null","null","arrowup","[0.2,0.8,0.2,0.8]","","",""
"sailing-comprehension","24","346642","0.0-7.0-0.0-2.0","","","","","","","","","","17569.200000047684","","","","","","","","","","","","","","[""true""]","1",""
"sailing-instructions","25","362425","0.0-7.0-0.1-0.1","","","","","","","","","","","","","","null","null","null","null","null","null","","","","","","",""
"sailing-trial","26","366471","0.0-7.0-0.1-1.1-0.1","","","","false","","","","","","","","","","null","","2273.5","","0","0","null","null","arrowup","[0.2,0.8,0.2,0.8]","","",""
"sailing-trial","27","369789","0.0-7.0-0.1-1.1-1.1","","","","false","","","","","","","","","","null","","1049.3999998569489","","1","1","null","null","arrowup","[0.2,0.8,0.2,0.8]","","",""
"sailing-trial","28","372381","0.0-7.0-0.1-1.1-2.1","","","","false","","","","","","","","","","null","","878.5999999046326","","2","0","null","null","arrowup","[0.2,0.8,0.2,0.8]","","",""
"sailing-trial","29","374985","0.0-7.0-0.1-1.1-3.1","","","","false","","","","","","","","","","null","","1003","","3","0","null","null","arrowup","[0.2,0.8,0.2,0.8]","","",""
"sailing-comprehension","30","379280","0.0-7.0-0.1-2.1","","","","","","","","","","2504.399999856949","","","","","","","","","","","","","","[""false""]","0",""
"sailing-instructions","31","391820","0.0-8.0-0.0-0.0","","","","","","","","","","","","","","null","null","null","null","null","null","","","","","","",""
"sailing-comprehension","32","398620","0.0-8.0-0.0-1.0","","","","","","","","","","3208.0999999046326","","","","","","","","","","","","","","[""true""]","0",""
"sailing-instructions","33","421621","0.0-9.0-0.0-0.0","","","","","","","","","","","","","","null","null","null","null","null","null","","","","","","",""
"sailing-trial","34","425618","0.0-9.0-0.0-1.0-0.0","","","","false","","","","","","","","","","721","","185.79999995231628","","0","0","arrowleft","0","arrowleft","[0.2,0.8,0.2,0.8]","","",""
"sailing-trial","35","430583","0.0-9.0-0.0-1.0-1.0","","","","false","","","","","","","","","","886.8000001907349","","956.5","","3","1","arrowright","1","arrowright","[0.2,0.8,0.2,0.8]","","",""
"sailing-trial","36","433318","0.0-9.0-0.0-1.0-2.0","","","","false","","","","","","","","","","null","","1102.9000000953674","","0","0","null","null","arrowup","[0.2,0.8,0.2,0.8]","","",""
"sailing-trial","37","438643","0.0-9.0-0.0-1.0-3.0","","","","false","","","","","","","","","","706.1000001430511","","1486.7999999523163","","1","1","arrowleft","0","arrowright","[0.2,0.8,0.2,0.8]","","",""
"sailing-trial","38","442221","0.0-9.0-0.0-1.0-4.0","","","","false","","","","","","","","","","null","","1499.3999998569489","","3","1","null","null","arrowup","[0.2,0.8,0.2,0.8]","","",""
"sailing-trial","39","446974","0.0-9.0-0.0-1.0-5.0","","","","false","","","","","","","","","","1019.7999999523163","","1036.7000000476837","","2","0","arrowright","1","arrowleft","[0.2,0.8,0.2,0.8]","","",""
"sailing-instructions","40","473631","0.0-10.0","","","","","","","","","","","","","","null","null","null","null","null","null","","","","","","",""
"sailing-trial","41","478443","0.0-11.0-0.0","","","","false","","","","","","","","","","857.2999999523163","","1103.2999999523163","","0","0","arrowleft","0","arrowleft","[0.675,0.325,0.85,0.15]","","",""
"sailing-trial","42","481449","0.0-11.0-1.0","","","","false","","","","","","","","","","null","","1214.7999999523163","","3","0","null","null","arrowup","[0.675,0.325,0.85,0.15]","","",""
"sailing-trial","43","485728","0.0-11.0-2.0","","","","false","","","","","","","","","","711.3999998569489","","1012.3999998569489","","3","0","arrowright","1","arrowright","[0.675,0.325,0.85,0.15]","","",""
"sailing-trial","44","488951","0.0-11.0-3.0","","","","false","","","","","","","","","","null","","1084.1999998092651","","2","1","null","null","arrowup","[0.675,0.325,0.85,0.15]","","",""
"sailing-trial","45","492465","0.0-11.0-4.0","","","","false","","","","","","","","","","769.2999999523163","","358.80000019073486","","1","0","arrowleft","0","arrowright","[0.675,0.325,0.85,0.15]","","",""
"sailing-trial","46","495044","0.0-11.0-5.0","","","","false","","","","","","","","","","null","","1191.7000000476837","","3","0","null","null","arrowup","[0.675,0.325,0.85,0.15]","","",""
"sailing-trial","47","499199","0.0-11.0-6.0","","","","false","","","","","","","","","","1275.0999999046326","","80.29999995231628","","2","1","arrowright","1","arrowleft","[0.675,0.325,0.85,0.15]","","",""
"sailing-trial","48","502114","0.0-11.0-7.0","","","","false","","","","","","","","","","null","","1429.7000000476837","","1","0","null","null","arrowup","[0.675,0.325,0.85,0.15]","","",""
"sailing-trial","49","506468","0.0-11.0-8.0","","","","false","","","","","","","","","","537.8999998569489","","922.8999998569489","","1","1","arrowleft","0","arrowright","[0.675,0.325,0.85,0.15]","","",""
"sailing-trial","50","509171","0.0-11.0-9.0","","","","false","","","","","","","","","","null","","1153.7999999523163","","0","0","null","null","arrowup","[0.675,0.325,0.85,0.15]","","",""
"sailing-trial","51","513550","0.0-11.0-10.0","","","","false","","","","","","","","","","926.2999999523163","","444","","0","1","arrowleft","0","arrowleft","[0.675,0.325,0.85,0.15]","","",""
"sailing-trial","52","516514","0.0-11.0-11.0","","","","false","","","","","","","","","","null","","889.1000001430511","","1","1","null","null","arrowup","[0.675,0.325,0.85,0.15]","","",""
"sailing-trial","53","520140","0.0-11.0-12.0","","","","false","","","","","","","","","","1071.5","","104.20000004768372","","3","0","arrowright","1","arrowright","[0.675,0.325,0.85,0.15]","","",""
"sailing-trial","54","522937","0.0-11.0-13.0","","","","false","","","","","","","","","","null","","1087.0999999046326","","0","0","null","null","arrowup","[0.675,0.325,0.85,0.15]","","",""
"sailing-trial","55","527180","0.0-11.0-14.0","","","","false","","","","","","","","","","607.7000000476837","","767.0999999046326","","2","1","arrowright","1","arrowleft","[0.675,0.325,0.85,0.15]","","",""
"sailing-trial","56","530029","0.0-11.0-15.0","","","","false","","","","","","","","","","null","","930.7999999523163","","1","1","null","null","arrowup","[0.675,0.325,0.85,0.15]","","",""
"sailing-trial","57","533549","0.0-11.0-16.0","","","","false","","","","","","","","","","594.7999999523163","","463.7999999523163","","1","0","arrowleft","0","arrowright","[0.675,0.325,0.85,0.15]","","",""
"sailing-trial","58","536828","0.0-11.0-17.0","","","","false","","","","","","","","","","null","","1097","","2","1","null","null","arrowup","[0.675,0.325,0.85,0.15]","","",""
"sailing-trial","59","540741","0.0-11.0-18.0","","","","false","","","","","","","","","","1137.2000000476837","","211.29999995231628","","0","0","arrowleft","0","arrowleft","[0.325,0.675,0.15,0.85]","","",""
"sailing-trial","60","543117","0.0-11.0-19.0","","","","false","","","","","","","","","","null","","1005.6000001430511","","0","0","null","null","arrowup","[0.325,0.675,0.15,0.85]","","",""
"sailing-trial","61","546296","0.0-11.0-20.0","","","","false","","","","","","","","","","489.2000000476837","","28.40000009536743","","3","1","arrowright","1","arrowright","[0.325,0.675,0.15,0.85]","","",""
"sailing-trial","62","548787","0.0-11.0-21.0","","","","false","","","","","","","","","","null","","1143.7000000476837","","2","0","null","null","arrowup","[0.325,0.675,0.15,0.85]","","",""
"sailing-trial","63","553476","0.0-11.0-22.0","","","","false","","","","","","","","","","1111.1000001430511","","719.1000001430511","","3","1","arrowright","1","arrowright","[0.325,0.675,0.15,0.85]","","",""
"sailing-trial","64","555951","0.0-11.0-23.0","","","","false","","","","","","","","","","null","","847.6999998092651","","0","0","null","null","arrowup","[0.325,0.675,0.15,0.85]","","",""
"sailing-trial","65","559759","0.0-11.0-24.0","","","","false","","","","","","","","","","598.2000000476837","","399.89999985694885","","3","1","arrowright","1","arrowright","[0.325,0.675,0.15,0.85]","","",""
"sailing-trial","66","562879","0.0-11.0-25.0","","","","false","","","","","","","","","","null","","828.1000001430511","","2","0","null","null","arrowup","[0.325,0.675,0.15,0.85]","","",""
"sailing-trial","67","567306","0.0-11.0-26.0","","","","false","","","","","","","","","","1204.2999999523163","","294.7000000476837","","1","0","arrowleft","0","arrowright","[0.325,0.675,0.15,0.85]","","",""
"sailing-trial","68","570641","0.0-11.0-27.0","","","","false","","","","","","","","","","null","","1397.7000000476837","","3","1","null","null","arrowup","[0.325,0.675,0.15,0.85]","","",""
"sailing-trial","69","574322","0.0-11.0-28.0","","","","false","","","","","","","","","","623.5","","504.09999990463257","","0","0","arrowleft","0","arrowleft","[0.325,0.675,0.15,0.85]","","",""
"sailing-trial","70","577189","0.0-11.0-29.0","","","","false","","","","","","","","","","null","","906.1000001430511","","2","0","null","null","arrowup","[0.325,0.675,0.15,0.85]","","",""
"sailing-trial","71","580806","0.0-11.0-30.0","","","","false","","","","","","","","","","340.7000000476837","","451.09999990463257","","3","1","arrowright","1","arrowright","[0.325,0.675,0.15,0.85]","","",""
"sailing-trial","72","583644","0.0-11.0-31.0","","","","false","","","","","","","","","","null","","625.7999999523163","","1","1","null","null","arrowup","[0.325,0.675,0.15,0.85]","","",""
"sailing-trial","73","587075","0.0-11.0-32.0","","","","false","","","","","","","","","","550.3000001907349","","63.5","","3","1","arrowright","1","arrowright","[0.325,0.675,0.15,0.85]","","",""
"sailing-trial","74","590255","0.0-11.0-33.0","","","","false","","","","","","","","","","null","","1344.8000001907349","","1","1","null","null","arrowup","[0.325,0.675,0.15,0.85]","","",""
"sailing-trial","75","594370","0.0-11.0-34.0","","","","false","","","","","","","","","","796.6000001430511","","470.40000009536743","","1","1","arrowleft","0","arrowright","[0.15,0.85,0.325,0.675]","","",""
"sailing-trial","76","596524","0.0-11.0-35.0","","","","false","","","","","","","","","","null","","723.9000000953674","","2","0","null","null","arrowup","[0.15,0.85,0.325,0.675]","","",""
"sailing-trial","77","600753","0.0-11.0-36.0","","","","false","","","","","","","","","","763.7000000476837","","484.2999999523163","","1","1","arrowleft","0","arrowright","[0.15,0.85,0.325,0.675]","","",""
"sailing-trial","78","602655","0.0-11.0-37.0","","","","false","","","","","","","","","","null","","628.8999998569489","","2","0","null","null","arrowup","[0.15,0.85,0.325,0.675]","","",""
"sailing-trial","79","607050","0.0-11.0-38.0","","","","false","","","","","","","","","","899.8999998569489","","417.90000009536743","","1","0","arrowleft","0","arrowright","[0.15,0.85,0.325,0.675]","","",""
"sailing-trial","80","610029","0.0-11.0-39.0","","","","false","","","","","","","","","","null","","1157","","3","0","null","null","arrowup","[0.15,0.85,0.325,0.675]","","",""
"sailing-trial","81","613303","0.0-11.0-40.0","","","","false","","","","","","","","","","486.09999990463257","","334","","0","0","arrowleft","0","arrowleft","[0.15,0.85,0.325,0.675]","","",""
"sailing-trial","82","616155","0.0-11.0-41.0","","","","false","","","","","","","","","","null","","939.9000000953674","","3","1","null","null","arrowup","[0.15,0.85,0.325,0.675]","","",""
"sailing-trial","83","619492","0.0-11.0-42.0","","","","false","","","","","","","","","","441.7000000476837","","519.5","","2","0","arrowright","1","arrowleft","[0.15,0.85,0.325,0.675]","","",""
"sailing-trial","84","621631","0.0-11.0-43.0","","","","false","","","","","","","","","","null","","594.5","","2","0","null","null","arrowup","[0.15,0.85,0.325,0.675]","","",""
"sailing-trial","85","624548","0.0-11.0-44.0","","","","false","","","","","","","","","","509.90000009536743","","97.89999985694885","","3","0","arrowright","1","arrowright","[0.15,0.85,0.325,0.675]","","",""
"sailing-trial","86","627181","0.0-11.0-45.0","","","","false","","","","","","","","","","null","","778.7000000476837","","0","0","null","null","arrowup","[0.15,0.85,0.325,0.675]","","",""
"sailing-trial","87","630835","0.0-11.0-46.0","","","","false","","","","","","","","","","380.7000000476837","","317.90000009536743","","1","1","arrowleft","0","arrowright","[0.15,0.85,0.325,0.675]","","",""
"sailing-trial","88","633413","0.0-11.0-47.0","","","","false","","","","","","","","","","null","","1313.7000000476837","","1","0","null","null","arrowup","[0.15,0.85,0.325,0.675]","","",""
"sailing-trial","89","637449","0.0-11.0-48.0","","","","false","","","","","","","","","","527.7999999523163","","395.5","","3","1","arrowright","1","arrowright","[0.15,0.85,0.325,0.675]","","",""
"sailing-trial","90","639916","0.0-11.0-49.0","","","","false","","","","","","","","","","null","","1126.9000000953674","","3","0","null","null","arrowup","[0.15,0.85,0.325,0.675]","","",""
"sailing-trial","91","643730","0.0-11.0-50.0","","","","false","","","","","","","","","","432.09999990463257","","444.2999999523163","","1","1","arrowleft","0","arrowright","[0.325,0.675,0.15,0.85]","","",""
"sailing-trial","92","646330","0.0-11.0-51.0","","","","false","","","","","","","","","","null","","544.0999999046326","","2","1","null","null","arrowup","[0.325,0.675,0.15,0.85]","","",""
"sailing-trial","93","650715","0.0-11.0-52.0","","","","false","","","","","","","","","","847.5999999046326","","377.2999999523163","","1","1","arrowleft","0","arrowright","[0.325,0.675,0.15,0.85]","","",""
"sailing-trial","94","653451","0.0-11.0-53.0","","","","false","","","","","","","","","","null","","1225.2000000476837","","0","0","null","null","arrowup","[0.325,0.675,0.15,0.85]","","",""
"sailing-trial","95","656954","0.0-11.0-54.0","","","","false","","","","","","","","","","599","","411.2999999523163","","2","0","arrowright","1","arrowleft","[0.325,0.675,0.15,0.85]","","",""
"sailing-trial","96","659763","0.0-11.0-55.0","","","","false","","","","","","","","","","null","","886.4000000953674","","1","1","null","null","arrowup","[0.325,0.675,0.15,0.85]","","",""
"sailing-trial","97","663476","0.0-11.0-56.0","","","","false","","","","","","","","","","646.5","","13.300000190734863","","1","1","arrowleft","0","arrowright","[0.325,0.675,0.15,0.85]","","",""
"sailing-trial","98","665693","0.0-11.0-57.0","","","","false","","","","","","","","","","null","","391.60000014305115","","3","1","null","null","arrowup","[0.325,0.675,0.15,0.85]","","",""
"sailing-trial","99","669826","0.0-11.0-58.0","","","","false","","","","","","","","","","769.7000000476837","","458.2000000476837","","1","1","arrowleft","0","arrowright","[0.325,0.675,0.15,0.85]","","",""
"sailing-trial","100","672617","0.0-11.0-59.0","","","","false","","","","","","","","","","null","","1536.7999999523163","","1","0","null","null","arrowup","[0.325,0.675,0.15,0.85]","","",""
"sailing-trial","101","676692","0.0-11.0-60.0","","","","false","","","","","","","","","","445.09999990463257","","701.7999999523163","","3","1","arrowright","1","arrowright","[0.325,0.675,0.15,0.85]","","",""
"sailing-trial","102","679387","0.0-11.0-61.0","","","","false","","","","","","","","","","null","","882","","2","0","null","null","arrowup","[0.325,0.675,0.15,0.85]","","",""
"sailing-trial","103","683309","0.0-11.0-62.0","","","","false","","","","","","","","","","644.6999998092651","","192.59999990463257","","3","1","arrowright","1","arrowright","[0.325,0.675,0.15,0.85]","","",""
"sailing-trial","104","686358","0.0-11.0-63.0","","","","false","","","","","","","","","","null","","978","","1","1","null","null","arrowup","[0.325,0.675,0.15,0.85]","","",""
"sailing-trial","105","690828","0.0-11.0-64.0","","","","false","","","","","","","","","","1532.5","","33.59999990463257","","3","1","arrowright","1","arrowright","[0.325,0.675,0.15,0.85]","","",""
"sailing-trial","106","695007","0.0-11.0-65.0","","","","false","","","","","","","","","","null","","2321.600000143051","","0","1","null","null","arrowup","[0.325,0.675,0.15,0.85]","","",""
"sailing-trial","107","698260","0.0-11.0-66.0","","","","false","","","","","","","","","","681.6000001430511","","222.39999985694885","","3","0","arrowright","1","arrowright","[0.675,0.325,0.85,0.15]","","",""
"sailing-trial","108","700325","0.0-11.0-67.0","","","","false","","","","","","","","","","null","","704","","3","0","null","null","arrowup","[0.675,0.325,0.85,0.15]","","",""
"sailing-trial","109","703786","0.0-11.0-68.0","","","","false","","","","","","","","","","448.7000000476837","","143.10000014305115","","1","0","arrowleft","0","arrowright","[0.675,0.325,0.85,0.15]","","",""
"sailing-trial","110","706337","0.0-11.0-69.0","","","","false","","","","","","","","","","null","","619.7999999523163","","1","1","null","null","arrowup","[0.675,0.325,0.85,0.15]","","",""
"sailing-trial","111","710571","0.0-11.0-70.0","","","","false","","","","","","","","","","534.7000000476837","","824.5","","0","1","arrowleft","0","arrowleft","[0.675,0.325,0.85,0.15]","","",""
"sailing-trial","112","713419","0.0-11.0-71.0","","","","false","","","","","","","","","","null","","1140.7999999523163","","2","1","null","null","arrowup","[0.675,0.325,0.85,0.15]","","",""
"sailing-trial","113","717873","0.0-11.0-72.0","","","","false","","","","","","","","","","829.9000000953674","","705","","3","1","arrowright","1","arrowright","[0.675,0.325,0.85,0.15]","","",""
"sailing-trial","114","720969","0.0-11.0-73.0","","","","false","","","","","","","","","","null","","992.7000000476837","","2","1","null","null","arrowup","[0.675,0.325,0.85,0.15]","","",""
"sailing-trial","115","724886","0.0-11.0-74.0","","","","false","","","","","","","","","","795.1000001430511","","193.30000019073486","","1","1","arrowleft","0","arrowright","[0.675,0.325,0.85,0.15]","","",""
"sailing-trial","116","727661","0.0-11.0-75.0","","","","false","","","","","","","","","","null","","1503.7000000476837","","3","0","null","null","arrowup","[0.675,0.325,0.85,0.15]","","",""
"sailing-trial","117","731346","0.0-11.0-76.0","","","","false","","","","","","","","","","673.0999999046326","","560.5","","0","0","arrowleft","0","arrowleft","[0.675,0.325,0.85,0.15]","","",""
"sailing-trial","118","733788","0.0-11.0-77.0","","","","false","","","","","","","","","","null","","673.7000000476837","","2","1","null","null","arrowup","[0.675,0.325,0.85,0.15]","","",""
"sailing-trial","119","737158","0.0-11.0-78.0","","","","false","","","","","","","","","","475","","414.10000014305115","","3","0","arrowright","1","arrowright","[0.675,0.325,0.85,0.15]","","",""
"sailing-trial","120","739143","0.0-11.0-79.0","","","","false","","","","","","","","","","null","","707","","1","0","null","null","arrowup","[0.675,0.325,0.85,0.15]","","",""
"sailing-trial","121","743699","0.0-11.0-80.0","","","","false","","","","","","","","","","476.2000000476837","","919.7999999523163","","0","1","arrowleft","0","arrowleft","[0.675,0.325,0.85,0.15]","","",""
"sailing-trial","122","746419","0.0-11.0-81.0","","","","false","","","","","","","","","","null","","950.5","","2","1","null","null","arrowup","[0.675,0.325,0.85,0.15]","","",""
"sailing-trial","123","749932","0.0-11.0-82.0","","","","false","","","","","","","","","","485.09999990463257","","133","","2","1","arrowright","1","arrowleft","[0.675,0.325,0.85,0.15]","","",""
"sailing-trial","124","752003","0.0-11.0-83.0","","","","false","","","","","","","","","","null","","486.7000000476837","","3","0","null","null","arrowup","[0.675,0.325,0.85,0.15]","","",""
"sailing-trial","125","756395","0.0-11.0-84.0","","","","false","","","","","","","","","","1587.3000001907349","","401.7999999523163","","2","0","arrowright","1","arrowleft","[0.675,0.325,0.85,0.15]","","",""
"sailing-trial","126","758676","0.0-11.0-85.0","","","","false","","","","","","","","","","null","","600.6999998092651","","3","0","null","null","arrowup","[0.675,0.325,0.85,0.15]","","",""
"sailing-trial","127","761968","0.0-11.0-86.0","","","","false","","","","","","","","","","885","","41.60000014305115","","1","0","arrowleft","0","arrowright","[0.675,0.325,0.85,0.15]","","",""
"sailing-trial","128","763915","0.0-11.0-87.0","","","","false","","","","","","","","","","null","","589.4000000953674","","2","0","null","null","arrowup","[0.675,0.325,0.85,0.15]","","",""
"sailing-trial","129","767906","0.0-11.0-88.0","","","","false","","","","","","","","","","831.2999999523163","","336.2000000476837","","0","0","arrowleft","0","arrowleft","[0.85,0.15,0.675,0.325]","","",""
"sailing-trial","130","769929","0.0-11.0-89.0","","","","false","","","","","","","","","","null","","448.80000019073486","","0","1","null","null","arrowup","[0.85,0.15,0.675,0.325]","","",""
"sailing-trial","131","773792","0.0-11.0-90.0","","","","false","","","","","","","","","","653.8000001907349","","33","","3","0","arrowright","1","arrowright","[0.85,0.15,0.675,0.325]","","",""
"sailing-trial","132","776011","0.0-11.0-91.0","","","","false","","","","","","","","","","null","","400.2999999523163","","2","1","null","null","arrowup","[0.85,0.15,0.675,0.325]","","",""
"sailing-trial","133","780259","0.0-11.0-92.0","","","","false","","","","","","","","","","759.2000000476837","","186.79999995231628","","1","0","arrowleft","0","arrowright","[0.85,0.15,0.675,0.325]","","",""
"sailing-trial","134","782504","0.0-11.0-93.0","","","","false","","","","","","","","","","null","","937.4000000953674","","3","0","null","null","arrowup","[0.85,0.15,0.675,0.325]","","",""
"sailing-trial","135","786710","0.0-11.0-94.0","","","","false","","","","","","","","","","994.0999999046326","","341.09999990463257","","0","1","arrowleft","0","arrowleft","[0.85,0.15,0.675,0.325]","","",""
"sailing-trial","136","788557","0.0-11.0-95.0","","","","false","","","","","","","","","","null","","456.2999999523163","","1","0","null","null","arrowup","[0.85,0.15,0.675,0.325]","","",""
"sailing-trial","137","792297","0.0-11.0-96.0","","","","false","","","","","","","","","","513.7000000476837","","290.7999999523163","","2","1","arrowright","1","arrowleft","[0.85,0.15,0.675,0.325]","","",""
"sailing-trial","138","794725","0.0-11.0-97.0","","","","false","","","","","","","","","","null","","522.2000000476837","","0","1","null","null","arrowup","[0.85,0.15,0.675,0.325]","","",""
"sailing-trial","139","799591","0.0-11.0-98.0","","","","false","","","","","","","","","","1478.9000000953674","","469.2999999523163","","2","1","arrowright","1","arrowleft","[0.85,0.15,0.675,0.325]","","",""
"sailing-trial","140","801877","0.0-11.0-99.0","","","","false","","","","","","","","","","null","","509.2999999523163","","0","1","null","null","arrowup","[0.85,0.15,0.675,0.325]","","",""
"sailing-trial","141","806625","0.0-11.0-100.0","","","","false","","","","","","","","","","1798.8999998569489","","32.90000009536743","","0","1","arrowleft","0","arrowleft","[0.85,0.15,0.675,0.325]","","",""
"sailing-trial","142","809205","0.0-11.0-101.0","","","","false","","","","","","","","","","null","","1210.9000000953674","","3","0","null","null","arrowup","[0.85,0.15,0.675,0.325]","","",""
"sailing-trial","143","813990","0.0-11.0-102.0","","","","false","","","","","","","","","","1510.7000000476837","","351.59999990463257","","2","1","arrowright","1","arrowleft","[0.85,0.15,0.675,0.325]","","",""
"sailing-trial","144","816778","0.0-11.0-103.0","","","","false","","","","","","","","","","null","","1478.2999999523163","","3","0","null","null","arrowup","[0.85,0.15,0.675,0.325]","","",""
"sailing-trial","145","820857","0.0-11.0-104.0","","","","false","","","","","","","","","","792.3000001907349","","255.5","","1","1","arrowleft","0","arrowright","[0.85,0.15,0.675,0.325]","","",""
"sailing-trial","146","822968","0.0-11.0-105.0","","","","false","","","","","","","","","","null","","891.0999999046326","","3","0","null","null","arrowup","[0.85,0.15,0.675,0.325]","","",""
"sailing-trial","147","826359","0.0-11.0-106.0","","","","false","","","","","","","","","","617.2000000476837","","350.2000000476837","","0","0","arrowleft","0","arrowleft","[0.675,0.325,0.85,0.15]","","",""
"sailing-trial","148","828754","0.0-11.0-107.0","","","","false","","","","","","","","","","null","","479.10000014305115","","0","1","null","null","arrowup","[0.675,0.325,0.85,0.15]","","",""
"sailing-trial","149","833103","0.0-11.0-108.0","","","","false","","","","","","","","","","1404.0999999046326","","480.5","","2","0","arrowright","1","arrowleft","[0.675,0.325,0.85,0.15]","","",""
"sailing-trial","150","836333","0.0-11.0-109.0","","","","false","","","","","","","","","","null","","1945.4000000953674","","1","0","null","null","arrowup","[0.675,0.325,0.85,0.15]","","",""
"sailing-trial","151","840356","0.0-11.0-110.0","","","","false","","","","","","","","","","1135.9000000953674","","53.200000047683716","","0","1","arrowleft","0","arrowleft","[0.675,0.325,0.85,0.15]","","",""
"sailing-trial","152","842726","0.0-11.0-111.0","","","","false","","","","","","","","","","null","","1133.7000000476837","","1","0","null","null","arrowup","[0.675,0.325,0.85,0.15]","","",""
"sailing-trial","153","846059","0.0-11.0-112.0","","","","false","","","","","","","","","","581.2999999523163","","394.19999980926514","","3","0","arrowright","1","arrowright","[0.675,0.325,0.85,0.15]","","",""
"sailing-trial","154","848390","0.0-11.0-113.0","","","","false","","","","","","","","","","null","","519.6000001430511","","0","1","null","null","arrowup","[0.675,0.325,0.85,0.15]","","",""
"sailing-trial","155","851868","0.0-11.0-114.0","","","","false","","","","","","","","","","616.9000000953674","","76","","1","0","arrowleft","0","arrowright","[0.675,0.325,0.85,0.15]","","",""
"sailing-trial","156","854263","0.0-11.0-115.0","","","","false","","","","","","","","","","null","","902.7999999523163","","3","0","null","null","arrowup","[0.675,0.325,0.85,0.15]","","",""
"sailing-trial","157","858587","0.0-11.0-116.0","","","","false","","","","","","","","","","807.7000000476837","","219.90000009536743","","0","1","arrowleft","0","arrowleft","[0.675,0.325,0.85,0.15]","","",""
"sailing-trial","158","861133","0.0-11.0-117.0","","","","false","","","","","","","","","","null","","1207.3000001907349","","2","0","null","null","arrowup","[0.675,0.325,0.85,0.15]","","",""
"sailing-trial","159","865068","0.0-11.0-118.0","","","","false","","","","","","","","","","747.0999999046326","","286.7000000476837","","2","1","arrowright","1","arrowleft","[0.675,0.325,0.85,0.15]","","",""
"sailing-trial","160","867567","0.0-11.0-119.0","","","","false","","","","","","","","","","null","","643.2000000476837","","0","1","null","null","arrowup","[0.675,0.325,0.85,0.15]","","",""
"sailing-trial","161","871468","0.0-11.0-120.0","","","","false","","","","","","","","","","609.7000000476837","","371.09999990463257","","2","1","arrowright","1","arrowleft","[0.675,0.325,0.85,0.15]","","",""
"sailing-trial","162","873705","0.0-11.0-121.0","","","","false","","","","","","","","","","null","","955","","1","0","null","null","arrowup","[0.675,0.325,0.85,0.15]","","",""
"sailing-trial","163","877880","0.0-11.0-122.0","","","","false","","","","","","","","","","582.6000001430511","","205.5","","3","0","arrowright","1","arrowright","[0.675,0.325,0.85,0.15]","","",""
"sailing-trial","164","879628","0.0-11.0-123.0","","","","false","","","","","","","","","","null","","426.5","","3","0","null","null","arrowup","[0.675,0.325,0.85,0.15]","","",""
"sailing-trial","165","883148","0.0-11.0-124.0","","","","false","","","","","","","","","","275.5","","410.2999999523163","","0","1","arrowleft","0","arrowleft","[0.675,0.325,0.85,0.15]","","",""
"sailing-trial","166","885353","0.0-11.0-125.0","","","","false","","","","","","","","","","null","","669.1999998092651","","1","0","null","null","arrowup","[0.675,0.325,0.85,0.15]","","",""
"sailing-trial","167","889079","0.0-11.0-126.0","","","","false","","","","","","","","","","538.6999998092651","","446.90000009536743","","0","0","arrowleft","0","arrowleft","[0.325,0.675,0.15,0.85]","","",""
"sailing-trial","168","890646","0.0-11.0-127.0","","","","false","","","","","","","","","","null","","519.7000000476837","","0","0","null","null","arrowup","[0.325,0.675,0.15,0.85]","","",""
"sailing-trial","169","893800","0.0-11.0-128.0","","","","false","","","","","","","","","","481.60000014305115","","27.799999952316284","","2","1","arrowright","1","arrowleft","[0.325,0.675,0.15,0.85]","","",""
"sailing-trial","170","896214","0.0-11.0-129.0","","","","false","","","","","","","","","","null","","407.7000000476837","","2","1","null","null","arrowup","[0.325,0.675,0.15,0.85]","","",""
"sailing-trial","171","900732","0.0-11.0-130.0","","","","false","","","","","","","","","","762.7999999523163","","943.5","","3","1","arrowright","1","arrowright","[0.325,0.675,0.15,0.85]","","",""
"sailing-trial","172","902694","0.0-11.0-131.0","","","","false","","","","","","","","","","null","","639.7000000476837","","0","0","null","null","arrowup","[0.325,0.675,0.15,0.85]","","",""
"sailing-trial","173","906697","0.0-11.0-132.0","","","","false","","","","","","","","","","443.59999990463257","","546.8999998569489","","1","1","arrowleft","0","arrowright","[0.325,0.675,0.15,0.85]","","",""
"sailing-trial","174","909648","0.0-11.0-133.0","","","","false","","","","","","","","","","null","","1126.2999999523163","","0","1","null","null","arrowup","[0.325,0.675,0.15,0.85]","","",""
"sailing-trial","175","913193","0.0-11.0-134.0","","","","false","","","","","","","","","","707.6999998092651","","417.2000000476837","","0","0","arrowleft","0","arrowleft","[0.325,0.675,0.15,0.85]","","",""
"sailing-trial","176","915470","0.0-11.0-135.0","","","","false","","","","","","","","","","null","","978.7000000476837","","3","0","null","null","arrowup","[0.325,0.675,0.15,0.85]","","",""
"sailing-trial","177","918317","0.0-11.0-136.0","","","","false","","","","","","","","","","493.5","","115.29999995231628","","2","0","arrowright","1","arrowleft","[0.325,0.675,0.15,0.85]","","",""
"sailing-trial","178","920166","0.0-11.0-137.0","","","","false","","","","","","","","","","null","","686.5","","0","0","null","null","arrowup","[0.325,0.675,0.15,0.85]","","",""
"sailing-trial","179","924731","0.0-11.0-138.0","","","","false","","","","","","","","","","1240.6999998092651","","313","","3","1","arrowright","1","arrowright","[0.325,0.675,0.15,0.85]","","",""
"sailing-trial","180","927713","0.0-11.0-139.0","","","","false","","","","","","","","","","null","","1164","","3","1","null","null","arrowup","[0.325,0.675,0.15,0.85]","","",""
"sailing-trial","181","932494","0.0-11.0-140.0","","","","false","","","","","","","","","","929.5999999046326","","580.2000000476837","","1","1","arrowleft","0","arrowright","[0.325,0.675,0.15,0.85]","","",""
"sailing-trial","182","935108","0.0-11.0-141.0","","","","false","","","","","","","","","","null","","1353","","0","0","null","null","arrowup","[0.325,0.675,0.15,0.85]","","",""
"sailing-trial","183","939314","0.0-11.0-142.0","","","","false","","","","","","","","","","1006.5999999046326","","362.10000014305115","","0","0","arrowleft","0","arrowleft","[0.325,0.675,0.15,0.85]","","",""
"sailing-trial","184","942366","0.0-11.0-143.0","","","","false","","","","","","","","","","null","","1252.2000000476837","","3","1","null","null","arrowup","[0.325,0.675,0.15,0.85]","","",""
"sailing-trial","185","947677","0.0-11.0-144.0","","","","false","","","","","","","","","","652.7000000476837","","1624","","3","1","arrowright","1","arrowright","[0.325,0.675,0.15,0.85]","","",""
"sailing-trial","186","949768","0.0-11.0-145.0","","","","false","","","","","","","","","","null","","669.1000001430511","","1","0","null","null","arrowup","[0.325,0.675,0.15,0.85]","","",""
"sailing-trial","187","953740","0.0-11.0-146.0","","","","false","","","","","","","","","","499","","212.69999980926514","","1","1","arrowleft","0","arrowright","[0.325,0.675,0.15,0.85]","","",""
"sailing-trial","188","956504","0.0-11.0-147.0","","","","false","","","","","","","","","","null","","1409","","2","0","null","null","arrowup","[0.325,0.675,0.15,0.85]","","",""
"sailing-trial","189","960548","0.0-11.0-148.0","","","","false","","","","","","","","","","406.60000014305115","","655.2000000476837","","0","0","arrowleft","0","arrowleft","[0.325,0.675,0.15,0.85]","","",""
"sailing-trial","190","962710","0.0-11.0-149.0","","","","false","","","","","","","","","","null","","548.9000000953674","","2","0","null","null","arrowup","[0.325,0.675,0.15,0.85]","","",""
"sailing-trial","191","966720","0.0-11.0-150.0","","","","false","","","","","","","","","","492.2999999523163","","750.8999998569489","","3","1","arrowright","1","arrowright","[0.15,0.85,0.325,0.675]","","",""
"sailing-trial","192","969831","0.0-11.0-151.0","","","","false","","","","","","","","","","null","","1846.4000000953674","","1","0","null","null","arrowup","[0.15,0.85,0.325,0.675]","","",""
"sailing-trial","193","973194","0.0-11.0-152.0","","","","false","","","","","","","","","","546.2000000476837","","419.7999999523163","","2","0","arrowright","1","arrowleft","[0.15,0.85,0.325,0.675]","","",""
"sailing-trial","194","975752","0.0-11.0-153.0","","","","false","","","","","","","","","","null","","778","","3","1","null","null","arrowup","[0.15,0.85,0.325,0.675]","","",""
"sailing-trial","195","979820","0.0-11.0-154.0","","","","false","","","","","","","","","","465.09999990463257","","526.6000001430511","","1","1","arrowleft","0","arrowright","[0.15,0.85,0.325,0.675]","","",""
"sailing-trial","196","981991","0.0-11.0-155.0","","","","false","","","","","","","","","","null","","1017.2000000476837","","0","0","null","null","arrowup","[0.15,0.85,0.325,0.675]","","",""
"sailing-trial","197","985684","0.0-11.0-156.0","","","","false","","","","","","","","","","456.2999999523163","","340.90000009536743","","1","1","arrowleft","0","arrowright","[0.15,0.85,0.325,0.675]","","",""
"sailing-trial","198","988283","0.0-11.0-157.0","","","","false","","","","","","","","","","null","","670","","1","1","null","null","arrowup","[0.15,0.85,0.325,0.675]","","",""
"sailing-trial","199","993468","0.0-11.0-158.0","","","","false","","","","","","","","","","1283.9000000953674","","990.9000000953674","","3","1","arrowright","1","arrowright","[0.15,0.85,0.325,0.675]","","",""
"sailing-trial","200","995556","0.0-11.0-159.0","","","","false","","","","","","","","","","null","","564.4000000953674","","3","0","null","null","arrowup","[0.15,0.85,0.325,0.675]","","",""
"sailing-trial","201","999667","0.0-11.0-160.0","","","","false","","","","","","","","","","494.7000000476837","","696.7999999523163","","0","1","arrowleft","0","arrowleft","[0.15,0.85,0.325,0.675]","","",""
"sailing-trial","202","1003000","0.0-11.0-161.0","","","","false","","","","","","","","","","null","","1484","","1","1","null","null","arrowup","[0.15,0.85,0.325,0.675]","","",""
"sailing-trial","203","1008100","0.0-11.0-162.0","","","","false","","","","","","","","","","937.7000000476837","","1234.7999999523163","","3","1","arrowright","1","arrowright","[0.15,0.85,0.325,0.675]","","",""
"sailing-trial","204","1010079","0.0-11.0-163.0","","","","false","","","","","","","","","","null","","610.2000000476837","","0","0","null","null","arrowup","[0.15,0.85,0.325,0.675]","","",""
"sailing-trial","205","1014350","0.0-11.0-164.0","","","","false","","","","","","","","","","483","","699.5999999046326","","1","1","arrowleft","0","arrowright","[0.15,0.85,0.325,0.675]","","",""
"sailing-trial","206","1016796","0.0-11.0-165.0","","","","false","","","","","","","","","","null","","677.3999998569489","","1","1","null","null","arrowup","[0.15,0.85,0.325,0.675]","","",""
"sailing-trial","207","1022529","0.0-11.0-166.0","","","","false","","","","","","","","","","1268.8000001907349","","1577.2999999523163","","2","1","arrowright","1","arrowleft","[0.15,0.85,0.325,0.675]","","",""
"sailing-trial","208","1025495","0.0-11.0-167.0","","","","false","","","","","","","","","","null","","1375.7999999523163","","3","0","null","null","arrowup","[0.15,0.85,0.325,0.675]","","",""
"sailing-trial","209","1029546","0.0-11.0-168.0","","","","false","","","","","","","","","","1136.7999999523163","","0.7000000476837158","","1","1","arrowleft","0","arrowright","[0.15,0.85,0.325,0.675]","","",""
"sailing-trial","210","1033095","0.0-11.0-169.0","","","","false","","","","","","","","","","null","","1526.8999998569489","","1","1","null","null","arrowup","[0.15,0.85,0.325,0.675]","","",""
"sailing-trial","211","1038195","0.0-11.0-170.0","","","","false","","","","","","","","","","1217.9000000953674","","582.8000001907349","","2","1","arrowright","1","arrowleft","[0.675,0.325,0.85,0.15]","","",""
"sailing-trial","212","1041613","0.0-11.0-171.0","","","","false","","","","","","","","","","null","","1286.8000001907349","","0","1","null","null","arrowup","[0.675,0.325,0.85,0.15]","","",""
"sailing-trial","213","1046225","0.0-11.0-172.0","","","","false","","","","","","","","","","839.2000000476837","","189.10000014305115","","3","1","arrowright","1","arrowright","[0.675,0.325,0.85,0.15]","","",""
"sailing-trial","214","1048880","0.0-11.0-173.0","","","","false","","","","","","","","","","null","","623.3999998569489","","2","1","null","null","arrowup","[0.675,0.325,0.85,0.15]","","",""
"sailing-trial","215","1053095","0.0-11.0-174.0","","","","false","","","","","","","","","","860","","500.2999999523163","","2","1","arrowright","1","arrowleft","[0.675,0.325,0.85,0.15]","","",""
"sailing-trial","216","1055893","0.0-11.0-175.0","","","","false","","","","","","","","","","null","","897.6000001430511","","2","1","null","null","arrowup","[0.675,0.325,0.85,0.15]","","",""
"sailing-trial","217","1059460","0.0-11.0-176.0","","","","false","","","","","","","","","","493.30000019073486","","623.7000000476837","","3","0","arrowright","1","arrowright","[0.675,0.325,0.85,0.15]","","",""
"sailing-trial","218","1062407","0.0-11.0-177.0","","","","false","","","","","","","","","","null","","975.3000001907349","","0","1","null","null","arrowup","[0.675,0.325,0.85,0.15]","","",""
"sailing-trial","219","1066441","0.0-11.0-178.0","","","","false","","","","","","","","","","760.7999999523163","","404.7000000476837","","0","1","arrowleft","0","arrowleft","[0.675,0.325,0.85,0.15]","","",""
"sailing-trial","220","1069107","0.0-11.0-179.0","","","","false","","","","","","","","","","null","","706.1000001430511","","1","1","null","null","arrowup","[0.675,0.325,0.85,0.15]","","",""
"sailing-trial","221","1072276","0.0-11.0-180.0","","","","false","","","","","","","","","","460.39999985694885","","344.10000014305115","","1","0","arrowleft","0","arrowright","[0.675,0.325,0.85,0.15]","","",""
"sailing-trial","222","1074651","0.0-11.0-181.0","","","","false","","","","","","","","","","null","","1041","","1","0","null","null","arrowup","[0.675,0.325,0.85,0.15]","","",""
"sailing-trial","223","1077860","0.0-11.0-182.0","","","","false","","","","","","","","","","730.3000001907349","","2.6000001430511475","","0","0","arrowleft","0","arrowleft","[0.675,0.325,0.85,0.15]","","",""
"sailing-trial","224","1080096","0.0-11.0-183.0","","","","false","","","","","","","","","","null","","664.9000000953674","","1","0","null","null","arrowup","[0.675,0.325,0.85,0.15]","","",""
"sailing-trial","225","1083602","0.0-11.0-184.0","","","","false","","","","","","","","","","424.09999990463257","","713.5999999046326","","3","0","arrowright","1","arrowright","[0.675,0.325,0.85,0.15]","","",""
"sailing-trial","226","1085843","0.0-11.0-185.0","","","","false","","","","","","","","","","null","","799.6000001430511","","0","0","null","null","arrowup","[0.675,0.325,0.85,0.15]","","",""
"sailing-trial","227","1089306","0.0-11.0-186.0","","","","false","","","","","","","","","","360.40000009536743","","783.0999999046326","","1","0","arrowleft","0","arrowright","[0.675,0.325,0.85,0.15]","","",""
"sailing-trial","228","1092117","0.0-11.0-187.0","","","","false","","","","","","","","","","null","","1006.5999999046326","","0","1","null","null","arrowup","[0.675,0.325,0.85,0.15]","","",""
"sailing-trial","229","1095605","0.0-11.0-188.0","","","","false","","","","","","","","","","575.5999999046326","","561.4000000953674","","2","0","arrowright","1","arrowleft","[0.85,0.15,0.675,0.325]","","",""
"sailing-trial","230","1098234","0.0-11.0-189.0","","","","false","","","","","","","","","","null","","687.0999999046326","","2","1","null","null","arrowup","[0.85,0.15,0.675,0.325]","","",""
"sailing-trial","231","1102496","0.0-11.0-190.0","","","","false","","","","","","","","","","882","","1098.1000001430511","","3","0","arrowright","1","arrowright","[0.85,0.15,0.675,0.325]","","",""
"sailing-trial","232","1105082","0.0-11.0-191.0","","","","false","","","","","","","","","","null","","625.7999999523163","","2","1","null","null","arrowup","[0.85,0.15,0.675,0.325]","","",""
"sailing-trial","233","1109551","0.0-11.0-192.0","","","","false","","","","","","","","","","660.2000000476837","","877.5","","0","1","arrowleft","0","arrowleft","[0.85,0.15,0.675,0.325]","","",""
"sailing-trial","234","1112565","0.0-11.0-193.0","","","","false","","","","","","","","","","null","","1097.1999998092651","","3","1","null","null","arrowup","[0.85,0.15,0.675,0.325]","","",""
"sailing-trial","235","1117714","0.0-11.0-194.0","","","","false","","","","","","","","","","888.3000001907349","","1202.5999999046326","","3","1","arrowright","1","arrowright","[0.85,0.15,0.675,0.325]","","",""
"sailing-trial","236","1120615","0.0-11.0-195.0","","","","false","","","","","","","","","","null","","1004.7000000476837","","0","1","null","null","arrowup","[0.85,0.15,0.675,0.325]","","",""
"sailing-trial","237","1125917","0.0-11.0-196.0","","","","false","","","","","","","","","","1566.2999999523163","","688.5999999046326","","0","1","arrowleft","0","arrowleft","[0.85,0.15,0.675,0.325]","","",""
"sailing-trial","238","1128747","0.0-11.0-197.0","","","","false","","","","","","","","","","null","","952.5","","0","1","null","null","arrowup","[0.85,0.15,0.675,0.325]","","",""
"sailing-trial","239","1133447","0.0-11.0-198.0","","","","false","","","","","","","","","","2035.5","","245","","1","0","arrowleft","0","arrowright","[0.85,0.15,0.675,0.325]","","",""
"sailing-trial","240","1136594","0.0-11.0-199.0","","","","false","","","","","","","","","","null","","1459.1999998092651","","2","1","null","null","arrowup","[0.85,0.15,0.675,0.325]","","",""
"sailing-trial","241","1141677","0.0-11.0-200.0","","","","false","","","","","","","","","","862.5999999046326","","1168.9000000953674","","2","1","arrowright","1","arrowleft","[0.85,0.15,0.675,0.325]","","",""
"sailing-trial","242","1144171","0.0-11.0-201.0","","","","false","","","","","","","","","","null","","1099.1000001430511","","0","0","null","null","arrowup","[0.85,0.15,0.675,0.325]","","",""
"sailing-trial","243","1147661","0.0-11.0-202.0","","","","false","","","","","","","","","","516.6999998092651","","678.5","","3","0","arrowright","1","arrowright","[0.85,0.15,0.675,0.325]","","",""
"sailing-trial","244","1149930","0.0-11.0-203.0","","","","false","","","","","","","","","","null","","788.7000000476837","","2","0","null","null","arrowup","[0.85,0.15,0.675,0.325]","","",""
"sailing-trial","245","1153761","0.0-11.0-204.0","","","","false","","","","","","","","","","317.09999990463257","","370.39999985694885","","0","1","arrowleft","0","arrowleft","[0.675,0.325,0.85,0.15]","","",""
"sailing-trial","246","1157469","0.0-11.0-205.0","","","","false","","","","","","","","","","null","","2263.800000190735","","1","0","null","null","arrowup","[0.675,0.325,0.85,0.15]","","",""
"sailing-trial","247","1162135","0.0-11.0-206.0","","","","false","","","","","","","","","","1168.2000000476837","","1111.7999999523163","","1","0","arrowleft","0","arrowright","[0.675,0.325,0.85,0.15]","","",""
"sailing-trial","248","1164022","0.0-11.0-207.0","","","","false","","","","","","","","","","null","","540.4000000953674","","1","0","null","null","arrowup","[0.675,0.325,0.85,0.15]","","",""
"sailing-trial","249","1167091","0.0-11.0-208.0","","","","false","","","","","","","","","","377.2000000476837","","352","","3","0","arrowright","1","arrowright","[0.675,0.325,0.85,0.15]","","",""
"sailing-trial","250","1169610","0.0-11.0-209.0","","","","false","","","","","","","","","","null","","775.3999998569489","","1","1","null","null","arrowup","[0.675,0.325,0.85,0.15]","","",""
"sailing-trial","251","1172681","0.0-11.0-210.0","","","","false","","","","","","","","","","619.9000000953674","","104.59999990463257","","0","0","arrowleft","0","arrowleft","[0.675,0.325,0.85,0.15]","","",""
"sailing-trial","252","1175450","0.0-11.0-211.0","","","","false","","","","","","","","","","null","","1054.0999999046326","","3","0","null","null","arrowup","[0.675,0.325,0.85,0.15]","","",""
"sailing-trial","253","1181257","0.0-11.0-212.0","","","","false","","","","","","","","","","2338.2999999523163","","539","","2","1","arrowright","1","arrowleft","[0.675,0.325,0.85,0.15]","","",""
"sailing-trial","254","1183941","0.0-11.0-213.0","","","","false","","","","","","","","","","null","","875.7000000476837","","2","1","null","null","arrowup","[0.675,0.325,0.85,0.15]","","",""
"sailing-trial","255","1187606","0.0-11.0-214.0","","","","false","","","","","","","","","","771.8999998569489","","62.89999985694885","","2","1","arrowright","1","arrowleft","[0.675,0.325,0.85,0.15]","","",""
"sailing-trial","256","1189488","0.0-11.0-215.0","","","","false","","","","","","","","","","null","","622.7999999523163","","3","0","null","null","arrowup","[0.675,0.325,0.85,0.15]","","",""
"sailing-trial","257","1194042","0.0-11.0-216.0","","","","false","","","","","","","","","","939.4000000953674","","530.7999999523163","","2","1","arrowright","1","arrowleft","[0.675,0.325,0.85,0.15]","","",""
"sailing-trial","258","1196486","0.0-11.0-217.0","","","","false","","","","","","","","","","null","","1136.4000000953674","","1","0","null","null","arrowup","[0.675,0.325,0.85,0.15]","","",""
"sailing-trial","259","1200410","0.0-11.0-218.0","","","","false","","","","","","","","","","485.2000000476837","","646.5","","1","0","arrowleft","0","arrowright","[0.675,0.325,0.85,0.15]","","",""
"sailing-trial","260","1203690","0.0-11.0-219.0","","","","false","","","","","","","","","","null","","1659.4000000953674","","1","0","null","null","arrowup","[0.675,0.325,0.85,0.15]","","",""
"sailing-trial","261","1208001","0.0-11.0-220.0","","","","false","","","","","","","","","","673.4000000953674","","530.2000000476837","","0","1","arrowleft","0","arrowleft","[0.85,0.15,0.675,0.325]","","",""
"sailing-trial","262","1211287","0.0-11.0-221.0","","","","false","","","","","","","","","","null","","1500.1000001430511","","0","1","null","null","arrowup","[0.85,0.15,0.675,0.325]","","",""
"sailing-trial","263","1215018","0.0-11.0-222.0","","","","false","","","","","","","","","","922.2000000476837","","50.299999952316284","","0","1","arrowleft","0","arrowleft","[0.85,0.15,0.675,0.325]","","",""
"sailing-trial","264","1217753","0.0-11.0-223.0","","","","false","","","","","","","","","","null","","966.2000000476837","","2","1","null","null","arrowup","[0.85,0.15,0.675,0.325]","","",""
"sailing-trial","265","1220675","0.0-11.0-224.0","","","","false","","","","","","","","","","573.9000000953674","","4.900000095367432","","1","0","arrowleft","0","arrowright","[0.85,0.15,0.675,0.325]","","",""
"sailing-trial","266","1223216","0.0-11.0-225.0","","","","false","","","","","","","","","","null","","651.4000000953674","","2","1","null","null","arrowup","[0.85,0.15,0.675,0.325]","","",""
"sailing-trial","267","1226699","0.0-11.0-226.0","","","","false","","","","","","","","","","380.7000000476837","","183.70000004768372","","0","1","arrowleft","0","arrowleft","[0.85,0.15,0.675,0.325]","","",""
"sailing-trial","268","1229649","0.0-11.0-227.0","","","","false","","","","","","","","","","null","","1107.5","","3","1","null","null","arrowup","[0.85,0.15,0.675,0.325]","","",""
"sailing-trial","269","1233315","0.0-11.0-228.0","","","","false","","","","","","","","","","451.7000000476837","","340.5","","2","1","arrowright","1","arrowleft","[0.85,0.15,0.675,0.325]","","",""
"sailing-trial","270","1235259","0.0-11.0-229.0","","","","false","","","","","","","","","","null","","592.7000000476837","","3","0","null","null","arrowup","[0.85,0.15,0.675,0.325]","","",""
"sailing-trial","271","1238730","0.0-11.0-230.0","","","","false","","","","","","","","","","533.9000000953674","","50.09999990463257","","0","1","arrowleft","0","arrowleft","[0.85,0.15,0.675,0.325]","","",""
"sailing-trial","272","1241163","0.0-11.0-231.0","","","","false","","","","","","","","","","null","","498.89999985694885","","2","1","null","null","arrowup","[0.85,0.15,0.675,0.325]","","",""
"sailing-trial","273","1244916","0.0-11.0-232.0","","","","false","","","","","","","","","","643.0999999046326","","289.7000000476837","","2","1","arrowright","1","arrowleft","[0.85,0.15,0.675,0.325]","","",""
"sailing-trial","274","1246917","0.0-11.0-233.0","","","","false","","","","","","","","","","null","","621.4000000953674","","2","0","null","null","arrowup","[0.85,0.15,0.675,0.325]","","",""
"sailing-trial","275","1250714","0.0-11.0-234.0","","","","false","","","","","","","","","","395.2000000476837","","555.8000001907349","","0","1","arrowleft","0","arrowleft","[0.85,0.15,0.675,0.325]","","",""
"sailing-trial","276","1252736","0.0-11.0-235.0","","","","false","","","","","","","","","","null","","728.0999999046326","","2","0","null","null","arrowup","[0.85,0.15,0.675,0.325]","","",""
"sailing-trial","277","1256914","0.0-11.0-236.0","","","","false","","","","","","","","","","617.0999999046326","","469.5","","0","1","arrowleft","0","arrowleft","[0.85,0.15,0.675,0.325]","","",""
"sailing-trial","278","1258555","0.0-11.0-237.0","","","","false","","","","","","","","","","null","","552.5","","0","0","null","null","arrowup","[0.85,0.15,0.675,0.325]","","",""
"sailing-trial","279","1261649","0.0-11.0-238.0","","","","false","","","","","","","","","","502.2999999523163","","70.39999985694885","","2","0","arrowright","1","arrowleft","[0.675,0.325,0.85,0.15]","","",""
"sailing-trial","280","1264811","0.0-11.0-239.0","","","","false","","","","","","","","","","null","","1325.2000000476837","","3","1","null","null","arrowup","[0.675,0.325,0.85,0.15]","","",""
"sailing-trial","281","1267593","0.0-11.0-240.0","","","","false","","","","","","","","","","469.90000009536743","","7.5","","3","0","arrowright","1","arrowright","[0.675,0.325,0.85,0.15]","","",""
"sailing-trial","282","1270072","0.0-11.0-241.0","","","","false","","","","","","","","","","null","","900.2999999523163","","0","0","null","null","arrowup","[0.675,0.325,0.85,0.15]","","",""
"sailing-trial","283","1273238","0.0-11.0-242.0","","","","false","","","","","","","","","","392.89999985694885","","445.59999990463257","","1","0","arrowleft","0","arrowright","[0.675,0.325,0.85,0.15]","","",""
"sailing-trial","284","1275798","0.0-11.0-243.0","","","","false","","","","","","","","","","null","","842.8999998569489","","0","1","null","null","arrowup","[0.675,0.325,0.85,0.15]","","",""
"sailing-trial","285","1278580","0.0-11.0-244.0","","","","false","","","","","","","","","","228.20000004768372","","246.10000014305115","","0","0","arrowleft","0","arrowleft","[0.675,0.325,0.85,0.15]","","",""
"sailing-trial","286","1280517","0.0-11.0-245.0","","","","false","","","","","","","","","","null","","680.5999999046326","","3","0","null","null","arrowup","[0.675,0.325,0.85,0.15]","","",""
"sailing-trial","287","1284475","0.0-11.0-246.0","","","","false","","","","","","","","","","480.89999985694885","","762.0999999046326","","2","1","arrowright","1","arrowleft","[0.675,0.325,0.85,0.15]","","",""
"sailing-trial","288","1286165","0.0-11.0-247.0","","","","false","","","","","","","","","","null","","337.10000014305115","","3","0","null","null","arrowup","[0.675,0.325,0.85,0.15]","","",""
"sailing-trial","289","1290642","0.0-11.0-248.0","","","","false","","","","","","","","","","672.7999999523163","","938.7999999523163","","2","1","arrowright","1","arrowleft","[0.675,0.325,0.85,0.15]","","",""
"sailing-trial","290","1293225","0.0-11.0-249.0","","","","false","","","","","","","","","","null","","623.5","","1","1","null","null","arrowup","[0.675,0.325,0.85,0.15]","","",""
"sailing-trial","291","1296877","0.0-11.0-250.0","","","","false","","","","","","","","","","661.7999999523163","","137.80000019073486","","1","1","arrowleft","0","arrowright","[0.675,0.325,0.85,0.15]","","",""
"sailing-trial","292","1299323","0.0-11.0-251.0","","","","false","","","","","","","","","","null","","651.7000000476837","","0","1","null","null","arrowup","[0.675,0.325,0.85,0.15]","","",""
"sailing-trial","293","1302736","0.0-11.0-252.0","","","","false","","","","","","","","","","817.6999998092651","","133","","1","0","arrowleft","0","arrowright","[0.675,0.325,0.85,0.15]","","",""
"sailing-trial","294","1305671","0.0-11.0-253.0","","","","false","","","","","","","","","","null","","1572.7000000476837","","1","0","null","null","arrowup","[0.675,0.325,0.85,0.15]","","",""
"sailing-trial","295","1308886","0.0-11.0-254.0","","","","false","","","","","","","","","","591.5","","81.69999980926514","","0","0","arrowleft","0","arrowleft","[0.15,0.85,0.325,0.675]","","",""
"sailing-trial","296","1312272","0.0-11.0-255.0","","","","false","","","","","","","","","","null","","1516.5","","1","1","null","null","arrowup","[0.15,0.85,0.325,0.675]","","",""
"sailing-trial","297","1316540","0.0-11.0-256.0","","","","false","","","","","","","","","","708.3999998569489","","301.2000000476837","","2","1","arrowright","1","arrowleft","[0.15,0.85,0.325,0.675]","","",""
"sailing-trial","298","1320840","0.0-11.0-257.0","","","","false","","","","","","","","","","null","","2919.7000000476837","","2","0","null","null","arrowup","[0.15,0.85,0.325,0.675]","","",""
"sailing-trial","299","1324754","0.0-11.0-258.0","","","","false","","","","","","","","","","823.7000000476837","","289.40000009536743","","3","0","arrowright","1","arrowright","[0.15,0.85,0.325,0.675]","","",""
"sailing-trial","300","1327804","0.0-11.0-259.0","","","","false","","","","","","","","","","null","","954","","3","1","null","null","arrowup","[0.15,0.85,0.325,0.675]","","",""
"sailing-trial","301","1331337","0.0-11.0-260.0","","","","false","","","","","","","","","","571.6999998092651","","151.30000019073486","","1","1","arrowleft","0","arrowright","[0.15,0.85,0.325,0.675]","","",""
"sailing-trial","302","1333843","0.0-11.0-261.0","","","","false","","","","","","","","","","null","","757.1999998092651","","0","0","null","null","arrowup","[0.15,0.85,0.325,0.675]","","",""
"sailing-trial","303","1336773","0.0-11.0-262.0","","","","false","","","","","","","","","","610.7000000476837","","8.900000095367432","","0","0","arrowleft","0","arrowleft","[0.15,0.85,0.325,0.675]","","",""
"sailing-trial","304","1339170","0.0-11.0-263.0","","","","false","","","","","","","","","","null","","592.1999998092651","","3","1","null","null","arrowup","[0.15,0.85,0.325,0.675]","","",""
"sailing-trial","305","1342505","0.0-11.0-264.0","","","","false","","","","","","","","","","577.9000000953674","","478.40000009536743","","2","0","arrowright","1","arrowleft","[0.15,0.85,0.325,0.675]","","",""
"sailing-trial","306","1344282","0.0-11.0-265.0","","","","false","","","","","","","","","","null","","446.39999985694885","","3","0","null","null","arrowup","[0.15,0.85,0.325,0.675]","","",""
"sailing-trial","307","1348434","0.0-11.0-266.0","","","","false","","","","","","","","","","477.19999980926514","","692.9000000953674","","3","1","arrowright","1","arrowright","[0.15,0.85,0.325,0.675]","","",""
"sailing-trial","308","1350444","0.0-11.0-267.0","","","","false","","","","","","","","","","null","","642.5","","0","0","null","null","arrowup","[0.15,0.85,0.325,0.675]","","",""
"sailing-trial","309","1354750","0.0-11.0-268.0","","","","false","","","","","","","","","","532.0999999046326","","819.8999998569489","","1","1","arrowleft","0","arrowright","[0.15,0.85,0.325,0.675]","","",""
"sailing-trial","310","1357214","0.0-11.0-269.0","","","","false","","","","","","","","","","null","","944.9000000953674","","3","0","null","null","arrowup","[0.15,0.85,0.325,0.675]","","",""
"sailing-trial","311","1361065","0.0-11.0-270.0","","","","false","","","","","","","","","","936.1000001430511","","97.29999995231628","","1","1","arrowleft","0","arrowright","[0.325,0.675,0.15,0.85]","","",""
"sailing-trial","312","1363251","0.0-11.0-271.0","","","","false","","","","","","","","","","null","","914.8000001907349","","2","0","null","null","arrowup","[0.325,0.675,0.15,0.85]","","",""
"sailing-trial","313","1366765","0.0-11.0-272.0","","","","false","","","","","","","","","","622.7999999523163","","33.5","","1","1","arrowleft","0","arrowright","[0.325,0.675,0.15,0.85]","","",""
"sailing-trial","314","1369180","0.0-11.0-273.0","","","","false","","","","","","","","","","null","","816.2000000476837","","3","1","null","null","arrowup","[0.325,0.675,0.15,0.85]","","",""
"sailing-trial","315","1371979","0.0-11.0-274.0","","","","false","","","","","","","","","","437.90000009536743","","31.299999952316284","","1","0","arrowleft","0","arrowright","[0.325,0.675,0.15,0.85]","","",""
"sailing-trial","316","1374439","0.0-11.0-275.0","","","","false","","","","","","","","","","null","","949.5999999046326","","2","0","null","null","arrowup","[0.325,0.675,0.15,0.85]","","",""
"sailing-trial","317","1377740","0.0-11.0-276.0","","","","false","","","","","","","","","","490.10000014305115","","488.39999985694885","","3","0","arrowright","1","arrowright","[0.325,0.675,0.15,0.85]","","",""
"sailing-trial","318","1379455","0.0-11.0-277.0","","","","false","","","","","","","","","","null","","423.7000000476837","","0","0","null","null","arrowup","[0.325,0.675,0.15,0.85]","","",""
"sailing-trial","319","1383226","0.0-11.0-278.0","","","","false","","","","","","","","","","547.2999999523163","","416.5","","2","0","arrowright","1","arrowleft","[0.325,0.675,0.15,0.85]","","",""
"sailing-trial","320","1384965","0.0-11.0-279.0","","","","false","","","","","","","","","","null","","424.89999985694885","","0","0","null","null","arrowup","[0.325,0.675,0.15,0.85]","","",""
"sailing-trial","321","1388796","0.0-11.0-280.0","","","","false","","","","","","","","","","733","","23.399999856948853","","3","1","arrowright","1","arrowright","[0.325,0.675,0.15,0.85]","","",""
"sailing-trial","322","1392200","0.0-11.0-281.0","","","","false","","","","","","","","","","null","","1803.9000000953674","","0","0","null","null","arrowup","[0.325,0.675,0.15,0.85]","","",""
"sailing-trial","323","1395130","0.0-11.0-282.0","","","","false","","","","","","","","","","405.7999999523163","","199.59999990463257","","1","0","arrowleft","0","arrowright","[0.325,0.675,0.15,0.85]","","",""
"sailing-trial","324","1397444","0.0-11.0-283.0","","","","false","","","","","","","","","","null","","689.5","","0","1","null","null","arrowup","[0.325,0.675,0.15,0.85]","","",""
"sailing-trial","325","1400910","0.0-11.0-284.0","","","","false","","","","","","","","","","582.9000000953674","","40.39999985694885","","0","1","arrowleft","0","arrowleft","[0.325,0.675,0.15,0.85]","","",""
"sailing-trial","326","1402759","0.0-11.0-285.0","","","","false","","","","","","","","","","null","","594.0999999046326","","0","0","null","null","arrowup","[0.325,0.675,0.15,0.85]","","",""
"sailing-trial","327","1407595","0.0-11.0-286.0","","","","false","","","","","","","","","","1035.5","","715.4000000953674","","3","1","arrowright","1","arrowright","[0.325,0.675,0.15,0.85]","","",""
"sailing-trial","328","1409801","0.0-11.0-287.0","","","","false","","","","","","","","","","null","","804.5","","0","0","null","null","arrowup","[0.325,0.675,0.15,0.85]","","",""
"sailing-trial","329","1414444","0.0-11.0-288.0","","","","false","","","","","","","","","","904.2000000476837","","854.0999999046326","","3","1","arrowright","1","arrowright","[0.325,0.675,0.15,0.85]","","",""
"sailing-trial","330","1416900","0.0-11.0-289.0","","","","false","","","","","","","","","","null","","673.4000000953674","","2","0","null","null","arrowup","[0.325,0.675,0.15,0.85]","","",""
"sailing-trial","331","1421107","0.0-11.0-290.0","","","","false","","","","","","","","","","614.5","","752","","3","1","arrowright","1","arrowright","[0.15,0.85,0.325,0.675]","","",""
"sailing-trial","332","1424123","0.0-11.0-291.0","","","","false","","","","","","","","","","null","","1130.9000000953674","","1","1","null","null","arrowup","[0.15,0.85,0.325,0.675]","","",""
"sailing-trial","333","1427887","0.0-11.0-292.0","","","","false","","","","","","","","","","829.1999998092651","","214.79999995231628","","3","0","arrowright","1","arrowright","[0.15,0.85,0.325,0.675]","","",""
"sailing-trial","334","1430755","0.0-11.0-293.0","","","","false","","","","","","","","","","null","","975.3000001907349","","1","1","null","null","arrowup","[0.15,0.85,0.325,0.675]","","",""
"sailing-trial","335","1434490","0.0-11.0-294.0","","","","false","","","","","","","","","","768.5999999046326","","87.59999990463257","","2","1","arrowright","1","arrowleft","[0.15,0.85,0.325,0.675]","","",""
"sailing-trial","336","1436819","0.0-11.0-295.0","","","","false","","","","","","","","","","null","","564.2999999523163","","2","0","null","null","arrowup","[0.15,0.85,0.325,0.675]","","",""
"sailing-trial","337","1440602","0.0-11.0-296.0","","","","false","","","","","","","","","","1201","","239.40000009536743","","3","0","arrowright","1","arrowright","[0.15,0.85,0.325,0.675]","","",""
"sailing-trial","338","1443030","0.0-11.0-297.0","","","","false","","","","","","","","","","null","","622.2999999523163","","1","1","null","null","arrowup","[0.15,0.85,0.325,0.675]","","",""
"sailing-trial","339","1447091","0.0-11.0-298.0","","","","false","","","","","","","","","","453.89999985694885","","565.5","","1","1","arrowleft","0","arrowright","[0.15,0.85,0.325,0.675]","","",""
"sailing-trial","340","1449860","0.0-11.0-299.0","","","","false","","","","","","","","","","null","","908.4000000953674","","3","1","null","null","arrowup","[0.15,0.85,0.325,0.675]","","",""
"sailing-trial","341","1453771","0.0-11.0-300.0","","","","false","","","","","","","","","","667.7999999523163","","164.79999995231628","","1","1","arrowleft","0","arrowright","[0.15,0.85,0.325,0.675]","","",""
"sailing-trial","342","1456188","0.0-11.0-301.0","","","","false","","","","","","","","","","null","","544.5","","3","1","null","null","arrowup","[0.15,0.85,0.325,0.675]","","",""
"sailing-trial","343","1460137","0.0-11.0-302.0","","","","false","","","","","","","","","","584.7000000476837","","10","","1","1","arrowleft","0","arrowright","[0.15,0.85,0.325,0.675]","","",""
"sailing-trial","344","1462900","0.0-11.0-303.0","","","","false","","","","","","","","","","null","","1402.6000001430511","","0","0","null","null","arrowup","[0.15,0.85,0.325,0.675]","","",""
"sailing-trial","345","1466559","0.0-11.0-304.0","","","","false","","","","","","","","","","702.5","","291.7999999523163","","0","0","arrowleft","0","arrowleft","[0.15,0.85,0.325,0.675]","","",""
"sailing-trial","346","1468686","0.0-11.0-305.0","","","","false","","","","","","","","","","null","","735.0999999046326","","2","0","null","null","arrowup","[0.15,0.85,0.325,0.675]","","",""
"sailing-trial","347","1472548","0.0-11.0-306.0","","","","false","","","","","","","","","","556.7999999523163","","854","","2","0","arrowright","1","arrowleft","[0.15,0.85,0.325,0.675]","","",""
"sailing-trial","348","1475050","0.0-11.0-307.0","","","","false","","","","","","","","","","null","","572.7999999523163","","1","1","null","null","arrowup","[0.15,0.85,0.325,0.675]","","",""
"sailing-trial","349","1478949","0.0-11.0-308.0","","","","false","","","","","","","","","","409","","660.0999999046326","","1","1","arrowleft","0","arrowright","[0.15,0.85,0.325,0.675]","","",""
"sailing-trial","350","1481966","0.0-11.0-309.0","","","","false","","","","","","","","","","null","","1277.2000000476837","","3","1","null","null","arrowup","[0.15,0.85,0.325,0.675]","","",""
"sailing-trial","351","1485247","0.0-11.0-310.0","","","","false","","","","","","","","","","535.5","","435.7999999523163","","1","0","arrowleft","0","arrowright","[0.325,0.675,0.15,0.85]","","",""
"sailing-trial","352","1487347","0.0-11.0-311.0","","","","false","","","","","","","","","","null","","747.3999998569489","","2","0","null","null","arrowup","[0.325,0.675,0.15,0.85]","","",""
"sailing-trial","353","1490711","0.0-11.0-312.0","","","","false","","","","","","","","","","419.69999980926514","","111","","0","0","arrowleft","0","arrowleft","[0.325,0.675,0.15,0.85]","","",""
"sailing-trial","354","1492834","0.0-11.0-313.0","","","","false","","","","","","","","","","null","","549","","1","0","null","null","arrowup","[0.325,0.675,0.15,0.85]","","",""
"sailing-trial","355","1496282","0.0-11.0-314.0","","","","false","","","","","","","","","","367.5","","151.09999990463257","","3","1","arrowright","1","arrowright","[0.325,0.675,0.15,0.85]","","",""
"sailing-trial","356","1498830","0.0-11.0-315.0","","","","false","","","","","","","","","","null","","635.5","","3","1","null","null","arrowup","[0.325,0.675,0.15,0.85]","","",""
"sailing-trial","357","1503731","0.0-11.0-316.0","","","","false","","","","","","","","","","551.4000000953674","","1394.2000000476837","","3","1","arrowright","1","arrowright","[0.325,0.675,0.15,0.85]","","",""
"sailing-trial","358","1506644","0.0-11.0-317.0","","","","false","","","","","","","","","","null","","1043.5","","2","0","null","null","arrowup","[0.325,0.675,0.15,0.85]","","",""
"sailing-trial","359","1511271","0.0-11.0-318.0","","","","false","","","","","","","","","","611.8999998569489","","753.3999998569489","","3","0","arrowright","1","arrowright","[0.325,0.675,0.15,0.85]","","",""
"sailing-trial","360","1513745","0.0-11.0-319.0","","","","false","","","","","","","","","","null","","456.2999999523163","","3","1","null","null","arrowup","[0.325,0.675,0.15,0.85]","","",""
"sailing-trial","361","1518094","0.0-11.0-320.0","","","","false","","","","","","","","","","434","","992.1999998092651","","0","1","arrowleft","0","arrowleft","[0.325,0.675,0.15,0.85]","","",""
"sailing-trial","362","1520460","0.0-11.0-321.0","","","","false","","","","","","","","","","null","","463.7999999523163","","0","1","null","null","arrowup","[0.325,0.675,0.15,0.85]","","",""
"sailing-trial","363","1523483","0.0-11.0-322.0","","","","false","","","","","","","","","","411.5","","175.5","","0","0","arrowleft","0","arrowleft","[0.325,0.675,0.15,0.85]","","",""
"sailing-trial","364","1525454","0.0-11.0-323.0","","","","false","","","","","","","","","","null","","645","","0","0","null","null","arrowup","[0.325,0.675,0.15,0.85]","","",""
"sailing-trial","365","1529540","0.0-11.0-324.0","","","","false","","","","","","","","","","995.0999999046326","","754.4000000953674","","1","0","arrowleft","0","arrowright","[0.325,0.675,0.15,0.85]","","",""
"sailing-trial","366","1532042","0.0-11.0-325.0","","","","false","","","","","","","","","","null","","660.4000000953674","","3","1","null","null","arrowup","[0.325,0.675,0.15,0.85]","","",""
"sailing-trial","367","1535157","0.0-11.0-326.0","","","","false","","","","","","","","","","518.6000001430511","","285.2000000476837","","2","0","arrowright","1","arrowleft","[0.325,0.675,0.15,0.85]","","",""
"sailing-trial","368","1536956","0.0-11.0-327.0","","","","false","","","","","","","","","","null","","577.2000000476837","","2","0","null","null","arrowup","[0.325,0.675,0.15,0.85]","","",""
"sailing-trial","369","1539706","0.0-11.0-328.0","","","","false","","","","","","","","","","319","","6.6000001430511475","","3","0","arrowright","1","arrowright","[0.15,0.85,0.325,0.675]","","",""
"sailing-trial","370","1542258","0.0-11.0-329.0","","","","false","","","","","","","","","","null","","488.90000009536743","","1","1","null","null","arrowup","[0.15,0.85,0.325,0.675]","","",""
"sailing-trial","371","1546376","0.0-11.0-330.0","","","","false","","","","","","","","","","435.59999990463257","","949.2000000476837","","1","1","arrowleft","0","arrowright","[0.15,0.85,0.325,0.675]","","",""
"sailing-trial","372","1548558","0.0-11.0-331.0","","","","false","","","","","","","","","","null","","420.2999999523163","","1","1","null","null","arrowup","[0.15,0.85,0.325,0.675]","","",""
"sailing-trial","373","1552990","0.0-11.0-332.0","","","","false","","","","","","","","","","471.5","","966.2999999523163","","1","1","arrowleft","0","arrowright","[0.15,0.85,0.325,0.675]","","",""
"sailing-trial","374","1555422","0.0-11.0-333.0","","","","false","","","","","","","","","","null","","597.7000000476837","","3","1","null","null","arrowup","[0.15,0.85,0.325,0.675]","","",""
"sailing-trial","375","1559706","0.0-11.0-334.0","","","","false","","","","","","","","","","425.7000000476837","","1066.7000000476837","","3","1","arrowright","1","arrowright","[0.15,0.85,0.325,0.675]","","",""
"sailing-trial","376","1561697","0.0-11.0-335.0","","","","false","","","","","","","","","","null","","555.5","","2","0","null","null","arrowup","[0.15,0.85,0.325,0.675]","","",""
"sailing-trial","377","1565154","0.0-11.0-336.0","","","","false","","","","","","","","","","555.7000000476837","","44.799999952316284","","1","1","arrowleft","0","arrowright","[0.15,0.85,0.325,0.675]","","",""
"sailing-trial","378","1567325","0.0-11.0-337.0","","","","false","","","","","","","","","","null","","492.7999999523163","","3","0","null","null","arrowup","[0.15,0.85,0.325,0.675]","","",""
"sailing-trial","379","1571339","0.0-11.0-338.0","","","","false","","","","","","","","","","550","","607.2999999523163","","1","1","arrowleft","0","arrowright","[0.15,0.85,0.325,0.675]","","",""
"sailing-trial","380","1574420","0.0-11.0-339.0","","","","false","","","","","","","","","","null","","1075.7999999523163","","3","1","null","null","arrowup","[0.15,0.85,0.325,0.675]","","",""
"sailing-trial","381","1579035","0.0-11.0-340.0","","","","false","","","","","","","","","","567.3999998569489","","1260.6000001430511","","3","1","arrowright","1","arrowright","[0.15,0.85,0.325,0.675]","","",""
"sailing-trial","382","1582052","0.0-11.0-341.0","","","","false","","","","","","","","","","null","","888.7000000476837","","2","1","null","null","arrowup","[0.15,0.85,0.325,0.675]","","",""
"sailing-trial","383","1585481","0.0-11.0-342.0","","","","false","","","","","","","","","","400.10000014305115","","637.5999999046326","","2","0","arrowright","1","arrowleft","[0.15,0.85,0.325,0.675]","","",""
"sailing-trial","384","1588301","0.0-11.0-343.0","","","","false","","","","","","","","","","null","","544.2000000476837","","1","1","null","null","arrowup","[0.15,0.85,0.325,0.675]","","",""
"sailing-trial","385","1591633","0.0-11.0-344.0","","","","false","","","","","","","","","","474.59999990463257","","11.599999904632568","","1","1","arrowleft","0","arrowright","[0.325,0.675,0.15,0.85]","","",""
"sailing-trial","386","1594027","0.0-11.0-345.0","","","","false","","","","","","","","","","null","","565.1000001430511","","0","0","null","null","arrowup","[0.325,0.675,0.15,0.85]","","",""
"sailing-trial","387","1597468","0.0-11.0-346.0","","","","false","","","","","","","","","","315.5","","59.200000047683716","","3","1","arrowright","1","arrowright","[0.325,0.675,0.15,0.85]","","",""
"sailing-trial","388","1599597","0.0-11.0-347.0","","","","false","","","","","","","","","","null","","519.4000000953674","","0","0","null","null","arrowup","[0.325,0.675,0.15,0.85]","","",""
"sailing-trial","389","1603632","0.0-11.0-348.0","","","","false","","","","","","","","","","484.40000009536743","","2.1000001430511475","","1","0","arrowleft","0","arrowright","[0.325,0.675,0.15,0.85]","","",""
"sailing-trial","390","1606331","0.0-11.0-349.0","","","","false","","","","","","","","","","null","","556.1999998092651","","0","1","null","null","arrowup","[0.325,0.675,0.15,0.85]","","",""
"sailing-trial","391","1609745","0.0-11.0-350.0","","","","false","","","","","","","","","","682.5999999046326","","366","","2","0","arrowright","1","arrowleft","[0.325,0.675,0.15,0.85]","","",""
"sailing-trial","392","1611536","0.0-11.0-351.0","","","","false","","","","","","","","","","null","","487","","0","0","null","null","arrowup","[0.325,0.675,0.15,0.85]","","",""
"sailing-trial","393","1614328","0.0-11.0-352.0","","","","false","","","","","","","","","","402.7000000476837","","46.39999985694885","","0","0","arrowleft","0","arrowleft","[0.325,0.675,0.15,0.85]","","",""
"sailing-trial","394","1616879","0.0-11.0-353.0","","","","false","","","","","","","","","","null","","609.5","","1","1","null","null","arrowup","[0.325,0.675,0.15,0.85]","","",""
"sailing-trial","395","1620392","0.0-11.0-354.0","","","","false","","","","","","","","","","344.69999980926514","","542.7000000476837","","1","0","arrowleft","0","arrowright","[0.325,0.675,0.15,0.85]","","",""
"sailing-trial","396","1623698","0.0-11.0-355.0","","","","false","","","","","","","","","","null","","2027.7999999523163","","2","0","null","null","arrowup","[0.325,0.675,0.15,0.85]","","",""
"sailing-trial","397","1627964","0.0-11.0-356.0","","","","false","","","","","","","","","","441.2999999523163","","968.2000000476837","","3","1","arrowright","1","arrowright","[0.325,0.675,0.15,0.85]","","",""
"sailing-trial","398","1631011","0.0-11.0-357.0","","","","false","","","","","","","","","","null","","964.5","","3","1","null","null","arrowup","[0.325,0.675,0.15,0.85]","","",""
"sailing-trial","399","1635329","0.0-11.0-358.0","","","","false","","","","","","","","","","533.2999999523163","","786.5","","3","1","arrowright","1","arrowright","[0.325,0.675,0.15,0.85]","","",""
"sailing-trial","400","1638293","0.0-11.0-359.0","","","","false","","","","","","","","","","null","","1113.9000000953674","","1","1","null","null","arrowup","[0.325,0.675,0.15,0.85]","","",""
"sailing-trial","401","1642339","0.0-11.0-360.0","","","","false","","","","","","","","","","433","","794.1000001430511","","1","0","arrowleft","0","arrowright","[0.325,0.675,0.15,0.85]","","",""
"sailing-trial","402","1645094","0.0-11.0-361.0","","","","false","","","","","","","","","","null","","1116.1000001430511","","3","1","null","null","arrowup","[0.325,0.675,0.15,0.85]","","",""
"sailing-trial","403","1649291","0.0-11.0-362.0","","","","false","","","","","","","","","","703.7000000476837","","386.59999990463257","","3","1","arrowright","1","arrowright","[0.325,0.675,0.15,0.85]","","",""
"sailing-trial","404","1651079","0.0-11.0-363.0","","","","false","","","","","","","","","","null","","528.7000000476837","","2","0","null","null","arrowup","[0.325,0.675,0.15,0.85]","","",""
"sailing-trial","405","1654641","0.0-11.0-364.0","","","","false","","","","","","","","","","487.80000019073486","","228.70000004768372","","3","1","arrowright","1","arrowright","[0.325,0.675,0.15,0.85]","","",""
"sailing-trial","406","1656509","0.0-11.0-365.0","","","","false","","","","","","","","","","null","","561.2000000476837","","1","0","null","null","arrowup","[0.325,0.675,0.15,0.85]","","",""
"sailing-trial","407","1659707","0.0-11.0-366.0","","","","false","","","","","","","","","","457.2999999523163","","33.89999985694885","","3","1","arrowright","1","arrowright","[0.85,0.15,0.675,0.325]","","",""
"sailing-trial","408","1662040","0.0-11.0-367.0","","","","false","","","","","","","","","","null","","394.09999990463257","","1","0","null","null","arrowup","[0.85,0.15,0.675,0.325]","","",""
"sailing-trial","409","1665692","0.0-11.0-368.0","","","","false","","","","","","","","","","515.3999998569489","","14.700000047683716","","3","1","arrowright","1","arrowright","[0.85,0.15,0.675,0.325]","","",""
"sailing-trial","410","1668356","0.0-11.0-369.0","","","","false","","","","","","","","","","null","","637.7000000476837","","0","1","null","null","arrowup","[0.85,0.15,0.675,0.325]","","",""
"sailing-trial","411","1671872","0.0-11.0-370.0","","","","false","","","","","","","","","","411.10000014305115","","333.7999999523163","","0","1","arrowleft","0","arrowleft","[0.85,0.15,0.675,0.325]","","",""
"sailing-trial","412","1674458","0.0-11.0-371.0","","","","false","","","","","","","","","","null","","526.0999999046326","","2","1","null","null","arrowup","[0.85,0.15,0.675,0.325]","","",""
"sailing-trial","413","1678505","0.0-11.0-372.0","","","","false","","","","","","","","","","449.5","","736.1999998092651","","2","1","arrowright","1","arrowleft","[0.85,0.15,0.675,0.325]","","",""
"sailing-trial","414","1681414","0.0-11.0-373.0","","","","false","","","","","","","","","","null","","707.9000000953674","","1","0","null","null","arrowup","[0.85,0.15,0.675,0.325]","","",""
"sailing-trial","415","1684868","0.0-11.0-374.0","","","","false","","","","","","","","","","885.1999998092651","","169.79999995231628","","3","0","arrowright","1","arrowright","[0.85,0.15,0.675,0.325]","","",""
"sailing-trial","416","1688036","0.0-11.0-375.0","","","","false","","","","","","","","","","null","","1368.7000000476837","","2","1","null","null","arrowup","[0.85,0.15,0.675,0.325]","","",""
"sailing-trial","417","1692104","0.0-11.0-376.0","","","","false","","","","","","","","","","442.09999990463257","","536.0999999046326","","2","1","arrowright","1","arrowleft","[0.85,0.15,0.675,0.325]","","",""
"sailing-trial","418","1694542","0.0-11.0-377.0","","","","false","","","","","","","","","","null","","1165.1999998092651","","3","0","null","null","arrowup","[0.85,0.15,0.675,0.325]","","",""
"sailing-trial","419","1698201","0.0-11.0-378.0","","","","false","","","","","","","","","","511.60000014305115","","229.59999990463257","","0","1","arrowleft","0","arrowleft","[0.85,0.15,0.675,0.325]","","",""
"sailing-trial","420","1699829","0.0-11.0-379.0","","","","false","","","","","","","","","","null","","448.7000000476837","","1","0","null","null","arrowup","[0.85,0.15,0.675,0.325]","","",""
"sailing-trial","421","1703368","0.0-11.0-380.0","","","","false","","","","","","","","","","479.89999985694885","","415.2999999523163","","2","1","arrowright","1","arrowleft","[0.85,0.15,0.675,0.325]","","",""
"sailing-trial","422","1705835","0.0-11.0-381.0","","","","false","","","","","","","","","","null","","568.7000000476837","","2","1","null","null","arrowup","[0.85,0.15,0.675,0.325]","","",""
"sailing-trial","423","1709833","0.0-11.0-382.0","","","","false","","","","","","","","","","825","","125.10000014305115","","2","1","arrowright","1","arrowleft","[0.675,0.325,0.85,0.15]","","",""
"sailing-trial","424","1711982","0.0-11.0-383.0","","","","false","","","","","","","","","","null","","586.5","","3","0","null","null","arrowup","[0.675,0.325,0.85,0.15]","","",""
"sailing-trial","425","1716300","0.0-11.0-384.0","","","","false","","","","","","","","","","946.2000000476837","","581.1000001430511","","2","1","arrowright","1","arrowleft","[0.675,0.325,0.85,0.15]","","",""
"sailing-trial","426","1719499","0.0-11.0-385.0","","","","false","","","","","","","","","","null","","1360.5","","2","1","null","null","arrowup","[0.675,0.325,0.85,0.15]","","",""
"sailing-trial","427","1723315","0.0-11.0-386.0","","","","false","","","","","","","","","","561.5","","6","","2","1","arrowright","1","arrowleft","[0.675,0.325,0.85,0.15]","","",""
"sailing-trial","428","1725191","0.0-11.0-387.0","","","","false","","","","","","","","","","null","","544.2000000476837","","2","0","null","null","arrowup","[0.675,0.325,0.85,0.15]","","",""
"sailing-trial","429","1728529","0.0-11.0-388.0","","","","false","","","","","","","","","","429.7000000476837","","559.3000001907349","","0","0","arrowleft","0","arrowleft","[0.675,0.325,0.85,0.15]","","",""
"sailing-trial","430","1731364","0.0-11.0-389.0","","","","false","","","","","","","","","","null","","816.1999998092651","","0","1","null","null","arrowup","[0.675,0.325,0.85,0.15]","","",""
"sailing-trial","431","1735405","0.0-11.0-390.0","","","","false","","","","","","","","","","674.3999998569489","","1039.1000001430511","","3","0","arrowright","1","arrowright","[0.675,0.325,0.85,0.15]","","",""
"sailing-trial","432","1737326","0.0-11.0-391.0","","","","false","","","","","","","","","","null","","680.5","","1","0","null","null","arrowup","[0.675,0.325,0.85,0.15]","","",""
"sailing-trial","433","1740438","0.0-11.0-392.0","","","","false","","","","","","","","","","360.5","","404.09999990463257","","0","0","arrowleft","0","arrowleft","[0.675,0.325,0.85,0.15]","","",""
"sailing-trial","434","1743447","0.0-11.0-393.0","","","","false","","","","","","","","","","null","","955.8000001907349","","1","1","null","null","arrowup","[0.675,0.325,0.85,0.15]","","",""
"sailing-trial","435","1747163","0.0-11.0-394.0","","","","false","","","","","","","","","","538.7999999523163","","354.59999990463257","","2","1","arrowright","1","arrowleft","[0.675,0.325,0.85,0.15]","","",""
"sailing-trial","436","1750361","0.0-11.0-395.0","","","","false","","","","","","","","","","null","","1227.2999999523163","","1","1","null","null","arrowup","[0.675,0.325,0.85,0.15]","","",""
"sailing-trial","437","1754014","0.0-11.0-396.0","","","","false","","","","","","","","","","909.2999999523163","","416.7000000476837","","1","0","arrowleft","0","arrowright","[0.675,0.325,0.85,0.15]","","",""
"sailing-trial","438","1756658","0.0-11.0-397.0","","","","false","","","","","","","","","","null","","489","","0","1","null","null","arrowup","[0.675,0.325,0.85,0.15]","","",""
"sailing-trial","439","1760391","0.0-11.0-398.0","","","","false","","","","","","","","","","434.40000009536743","","232.5","","0","1","arrowleft","0","arrowleft","[0.675,0.325,0.85,0.15]","","",""
"sailing-trial","440","1762133","0.0-11.0-399.0","","","","false","","","","","","","","","","null","","401.09999990463257","","3","0","null","null","arrowup","[0.675,0.325,0.85,0.15]","","",""
"instructions","441","1770340","0.0-12.0","","","","","","","","","","8205.800000190735","","","","","","","","","","","","","","","","[{""page_index"":0,""viewing_time"":8205}]"
"survey-debrief","442","1852314","0.0-13.0","","","","","","","","","","81963.59999990463","","","","","","","","","","","","","","{""difficulty"":""5"",""fun"":""3"",""clarity"":""5"",""strategy"":""I looked at which shops had treasure more frequently and went to them more "",""feedback"":""No""}","",""
