"trial_type","trial_index","time_elapsed","internal_node_id","value","metadata","success","timeout","failed_images","failed_audio","failed_video","browser_interaction","low_quality","rt","stimulus","response","button_pressed","island_rt","island_response","boat_rt","boat_response","boat","reward","island_key","island","boat_key","reward_probabilities","responses","num_errors","view_history"
"pavlovia","0","1","0.0-0.0","","","","","","","","","","","","","","","","","","","","","","","","","",""
"call-function","1","1","0.0-1.0","","{""task_version"":""sailing_part1_v1"",""task_condition"":""good"",""boats"":[""B"",""A"",""D"",""C""],""boats_demo"":[""F"",""E"",""H"",""G""],""islands"":[""A"",""B""],""subject_id"":""13831"",""age"":""10"",""gender"":""Female""}","","","","","","","","","","","","","","","","","","","","","","","",""
"preload","2","2651","0.0-2.0","","","true","false","[]","[]","[]","[{""event"":""fullscreenenter"",""trial"":3,""time"":7065}]","false","","","","","","","","","","","","","","","","",""
"fullscreen","3","8049","0.0-3.0","","","true","","","","","","","","","","","","","","","","","","","","","","",""
"audio-keyboard-response","4","13165","0.0-4.0-0.0","","","","","","","","","","5114.666666666666","audio/beep_loop.wav"," ","","","","","","","","","","","","","",""
"audio-test","5","21468","0.0-4.0-1.0","","","","","","","","","","null","audio/turtle.mp3","","3","","","","","","","","","","","","",""
"audio-test","6","25587","0.0-4.0-2.0","","","","","","","","","","null","audio/shark.mp3","","2","","","","","","","","","","","","",""
"sailing-instructions","7","56315","0.0-5.0-0.0-0.0","","","","","","","","","","","","","","null","null","null","null","null","null","","","","","","",""
"sailing-trial","8","63320","0.0-5.0-0.0-1.0-0.0","","","","false","","","","","","","","","","5902.20000000298","","null","","null","null","arrowleft","0","null","null","","",""
"sailing-trial","9","69187","0.0-5.0-0.0-1.0-1.0","","","","false","","","","","","","","","","4741.5","","null","","null","null","arrowright","1","null","null","","",""
"sailing-trial","10","72470","0.0-5.0-0.0-1.0-2.0","","","","false","","","","","","","","","","2188.1000000089407","","null","","null","null","arrowright","1","null","null","","",""
"sailing-instructions","11","116639","0.0-5.0-0.0-2.0","","","","","","","","","","","","","","null","null","null","null","0","null","","","","","","",""
"sailing-trial","12","124967","0.0-5.0-0.0-3.0-0.0","","","","false","","","","","","","","","","null","","4290.79999999702","","2","1","null","null","arrowleft","[1,1,1,1]","","",""
"sailing-trial","13","127718","0.0-5.0-0.0-3.0-1.0","","","","false","","","","","","","","","","null","","314.79999999701977","","3","1","null","null","arrowright","[1,1,1,1]","","",""
"sailing-trial","14","133039","0.0-5.0-0.0-3.0-2.0","","","","false","","","","","","","","","","null","","1804.5","","3","0","null","null","arrowright","[0,0,0,0]","","",""
"sailing-instructions","15","140580","0.0-5.0-0.0-4.0","","","","","","","","","","","","","","null","null","null","null","null","null","","","","","","",""
"sailing-comprehension","16","199259","0.0-5.0-0.0-5.0","","","","","","","","","","45906.59999999404","","","","","","","","","","","","","","[""true"",""true"",""false"",""true""]","0",""
"sailing-instructions","17","264664","0.0-6.0-0.0-0.0","","","","","","","","","","","","","","null","null","null","null","null","null","","","","","","",""
"sailing-comprehension","18","303610","0.0-6.0-0.0-1.0","","","","","","","","","","34474","","","","","","","","","","","","","","[""true"",""false"",""true""]","0",""
"sailing-instructions","19","320924","0.0-7.0-0.0-0.0","","","","","","","","","","","","","","null","null","null","null","null","null","","","","","","",""
"sailing-trial","20","331082","0.0-7.0-0.0-1.0-0.0","","","","false","","","","","","","","","","null","","6611.600000008941","","0","1","null","null","arrowup","[0.2,0.8,0.2,0.8]","","",""
"sailing-trial","21","336851","0.0-7.0-0.0-1.0-1.0","","","","false","","","","","","","","","","null","","1773.4000000059605","","1","1","null","null","arrowup","[0.2,0.8,0.2,0.8]","","",""
"sailing-trial","22","342337","0.0-7.0-0.0-1.0-2.0","","","","false","","","","","","","","","","null","","2482.9000000059605","","2","0","null","null","arrowup","[0.2,0.8,0.2,0.8]","","",""
"sailing-trial","23","347383","0.0-7.0-0.0-1.0-3.0","","","","false","","","","","","","","","","null","","1205","","3","1","null","null","arrowup","[0.2,0.8,0.2,0.8]","","",""
"sailing-comprehension","24","364270","0.0-7.0-0.0-2.0","","","","","","","","[{""event"":""fullscreenenter"",""trial"":3,""time"":7065},{""event"":""blur"",""trial"":25,""time"":379503},{""event"":""focus"",""trial"":25,""time"":384351}]","false","12558.40000000596","","","","","","","","","","","","","","[""false""]","0",""
"sailing-instructions","25","385755","0.0-8.0-0.0-0.0","","","","","","","","","","","","","","null","null","null","null","null","null","","","","","","",""
"sailing-comprehension","26","399095","0.0-8.0-0.0-1.0","","","","","","","","","","8734.79999999702","","","","","","","","","","","","","","[""true""]","0",""
"sailing-instructions","27","439553","0.0-9.0-0.0-0.0","","","","","","","","","","","","","","null","null","null","null","null","null","","","","","","",""
"sailing-trial","28","444938","0.0-9.0-0.0-1.0-0.0","","","","false","","","","","","","","","","730.7999999970198","","510.20000000298023","","2","0","arrowright","1","arrowleft","[0.2,0.8,0.2,0.8]","","",""
"sailing-trial","29","450653","0.0-9.0-0.0-1.0-1.0","","","","false","","","","","","","","","","1254.7999999970198","","420","","0","0","arrowleft","0","arrowleft","[0.2,0.8,0.2,0.8]","","",""
"sailing-trial","30","455654","0.0-9.0-0.0-1.0-2.0","","","","false","","","","","","","","","","null","","2001.199999988079","","0","0","null","null","arrowup","[0.2,0.8,0.2,0.8]","","",""
"sailing-trial","31","461537","0.0-9.0-0.0-1.0-3.0","","","","false","","","","","","","","","","1020.4000000059605","","845.5","","3","0","arrowright","1","arrowright","[0.2,0.8,0.2,0.8]","","",""
"sailing-trial","32","466252","0.0-9.0-0.0-1.0-4.0","","","","false","","","","","","","","","","null","","1691.2999999970198","","3","0","null","null","arrowup","[0.2,0.8,0.2,0.8]","","",""
"sailing-trial","33","472684","0.0-9.0-0.0-1.0-5.0","","","","false","","","","","","","","","","1041.4000000059605","","311.5","","1","1","arrowleft","0","arrowright","[0.2,0.8,0.2,0.8]","","",""
"sailing-instructions","34","523052","0.0-10.0","","","","","","","","","","","","","","null","null","null","null","null","null","","","","","","",""
"sailing-trial","35","531216","0.0-11.0-0.0","","","","false","","","","","","","","","","1476.7000000029802","","421.70000000298023","","3","1","arrowright","1","arrowright","[0.675,0.325,0.15,0.85]","","",""
"sailing-trial","36","536016","0.0-11.0-1.0","","","","false","","","","","","","","","","null","","1903.7000000029802","","3","1","null","null","arrowup","[0.675,0.325,0.15,0.85]","","",""
"sailing-trial","37","543166","0.0-11.0-2.0","","","","false","","","","","","","","","","942.7999999970198","","93.20000000298023","","3","1","arrowright","1","arrowright","[0.675,0.325,0.15,0.85]","","",""
"sailing-trial","38","547167","0.0-11.0-3.0","","","","false","","","","","","","","","","null","","1626.1000000089407","","2","0","null","null","arrowup","[0.675,0.325,0.15,0.85]","","",""
"sailing-trial","39","552666","0.0-11.0-4.0","","","","false","","","","","","","","","","889.1000000089407","","270.29999999701977","","0","1","arrowleft","0","arrowleft","[0.675,0.325,0.15,0.85]","","",""
"sailing-trial","40","557351","0.0-11.0-5.0","","","","false","","","","","","","","","","null","","1667.7000000029802","","3","0","null","null","arrowup","[0.675,0.325,0.15,0.85]","","",""
"sailing-trial","41","562786","0.0-11.0-6.0","","","","false","","","","","","","","","","921.2000000029802","","518.6000000089407","","1","0","arrowleft","0","arrowright","[0.675,0.325,0.15,0.85]","","",""
"sailing-trial","42","567283","0.0-11.0-7.0","","","","false","","","","","","","","","","null","","1388.7999999970198","","3","1","null","null","arrowup","[0.675,0.325,0.15,0.85]","","",""
"sailing-trial","43","572615","0.0-11.0-8.0","","","","false","","","","","","","","","","755.7000000029802","","197.59999999403954","","3","1","arrowright","1","arrowright","[0.675,0.325,0.15,0.85]","","",""
"sailing-trial","44","578949","0.0-11.0-9.0","","","","false","","","","","","","","","","null","","3102.7999999970198","","1","1","null","null","arrowup","[0.675,0.325,0.15,0.85]","","",""
"sailing-trial","45","584865","0.0-11.0-10.0","","","","false","","","","","","","","","","963.3000000119209","","577.3999999910593","","3","1","arrowright","1","arrowright","[0.675,0.325,0.15,0.85]","","",""
"sailing-trial","46","588950","0.0-11.0-11.0","","","","false","","","","","","","","","","null","","1863.7000000029802","","3","1","null","null","arrowup","[0.675,0.325,0.15,0.85]","","",""
"sailing-trial","47","593283","0.0-11.0-12.0","","","","false","","","","","","","","","","676.8999999910593","","666.1000000089407","","3","1","arrowright","1","arrowright","[0.675,0.325,0.15,0.85]","","",""
"sailing-trial","48","598149","0.0-11.0-13.0","","","","false","","","","","","","","","","null","","1558.7999999970198","","0","1","null","null","arrowup","[0.675,0.325,0.15,0.85]","","",""
"sailing-trial","49","602800","0.0-11.0-14.0","","","","false","","","","","","","","","","689.7000000029802","","301.5","","3","1","arrowright","1","arrowright","[0.675,0.325,0.15,0.85]","","",""
"sailing-trial","50","607386","0.0-11.0-15.0","","","","false","","","","","","","","","","null","","1578.5999999940395","","2","0","null","null","arrowup","[0.675,0.325,0.15,0.85]","","",""
"sailing-trial","51","613565","0.0-11.0-16.0","","","","false","","","","","","","","","","971.9000000059605","","517","","3","1","arrowright","1","arrowright","[0.85,0.15,0.325,0.675]","","",""
"sailing-trial","52","623249","0.0-11.0-17.0","","","","false","","","","","","","","","","null","","5916.20000000298","","2","1","null","null","arrowup","[0.85,0.15,0.325,0.675]","","",""
"sailing-trial","53","627831","0.0-11.0-18.0","","","","false","","","","","","","","","","785.2000000029802","","85.90000000596046","","3","1","arrowright","1","arrowright","[0.85,0.15,0.325,0.675]","","",""
"sailing-trial","54","632566","0.0-11.0-19.0","","","","false","","","","","","","","","","null","","1898.0999999940395","","2","1","null","null","arrowup","[0.85,0.15,0.325,0.675]","","",""
"sailing-trial","55","639000","0.0-11.0-20.0","","","","false","","","","","","","","","","889.5","","2367.5","","3","1","arrowright","1","arrowright","[0.85,0.15,0.325,0.675]","","",""
"sailing-trial","56","644002","0.0-11.0-21.0","","","","false","","","","","","","","","","null","","1978","","1","0","null","null","arrowup","[0.85,0.15,0.325,0.675]","","",""
"sailing-trial","57","648966","0.0-11.0-22.0","","","","false","","","","","","","","","","1014.0999999940395","","125.40000000596046","","3","1","arrowright","1","arrowright","[0.85,0.15,0.325,0.675]","","",""
"sailing-trial","58","654398","0.0-11.0-23.0","","","","false","","","","","","","","","","null","","2684.7999999970198","","2","1","null","null","arrowup","[0.85,0.15,0.325,0.675]","","",""
"sailing-trial","59","659366","0.0-11.0-24.0","","","","false","","","","","","","","","","681.7000000029802","","696.6999999880791","","3","1","arrowright","1","arrowright","[0.85,0.15,0.325,0.675]","","",""
"sailing-trial","60","663616","0.0-11.0-25.0","","","","false","","","","","","","","","","null","","1842.5999999940395","","2","1","null","null","arrowup","[0.85,0.15,0.325,0.675]","","",""
"sailing-trial","61","669349","0.0-11.0-26.0","","","","false","","","","","","","","","","912.6999999880791","","464.29999999701977","","3","1","arrowright","1","arrowright","[0.85,0.15,0.325,0.675]","","",""
"sailing-trial","62","673951","0.0-11.0-27.0","","","","false","","","","","","","","","","null","","1598.9000000059605","","1","0","null","null","arrowup","[0.85,0.15,0.325,0.675]","","",""
"sailing-trial","63","679248","0.0-11.0-28.0","","","","false","","","","","","","","","","750.7000000029802","","510.3999999910593","","3","1","arrowright","1","arrowright","[0.85,0.15,0.325,0.675]","","",""
"sailing-trial","64","682213","0.0-11.0-29.0","","","","false","","","","","","","","","","null","","1193.2999999970198","","0","0","null","null","arrowup","[0.85,0.15,0.325,0.675]","","",""
"sailing-trial","65","687002","0.0-11.0-30.0","","","","false","","","","","","","","","","631.7000000029802","","158.59999999403954","","3","0","arrowright","1","arrowright","[0.85,0.15,0.325,0.675]","","",""
"sailing-trial","66","692766","0.0-11.0-31.0","","","","false","","","","","","","","","","null","","1711.5","","0","1","null","null","arrowup","[0.85,0.15,0.325,0.675]","","",""
"sailing-trial","67","699115","0.0-11.0-32.0","","","","false","","","","","","","","","","1441.2999999970198","","411.90000000596046","","0","1","arrowleft","0","arrowleft","[0.85,0.15,0.325,0.675]","","",""
"sailing-trial","68","703063","0.0-11.0-33.0","","","","false","","","","","","","","","","null","","1309.4000000059605","","1","0","null","null","arrowup","[0.85,0.15,0.325,0.675]","","",""
"sailing-trial","69","707884","0.0-11.0-34.0","","","","false","","","","","","","","","","780.4000000059605","","28.5","","0","0","arrowleft","0","arrowleft","[0.325,0.675,0.85,0.15]","","",""
"sailing-trial","70","713034","0.0-11.0-35.0","","","","false","","","","","","","","","","null","","2148.5999999940395","","2","0","null","null","arrowup","[0.325,0.675,0.85,0.15]","","",""
"sailing-trial","71","718918","0.0-11.0-36.0","","","","false","","","","","","","","","","1471.2000000029802","","389.09999999403954","","0","0","arrowleft","0","arrowleft","[0.325,0.675,0.85,0.15]","","",""
"sailing-trial","72","723601","0.0-11.0-37.0","","","","false","","","","","","","","","","null","","1684.1000000089407","","0","0","null","null","arrowup","[0.325,0.675,0.85,0.15]","","",""
"sailing-trial","73","729332","0.0-11.0-38.0","","","","false","","","","","","","","","","894.2000000029802","","19.200000002980232","","1","1","arrowleft","0","arrowright","[0.325,0.675,0.85,0.15]","","",""
"sailing-trial","74","732665","0.0-11.0-39.0","","","","false","","","","","","","","","","null","","1434.9000000059605","","1","1","null","null","arrowup","[0.325,0.675,0.85,0.15]","","",""
"sailing-trial","75","737917","0.0-11.0-40.0","","","","false","","","","","","","","","","1170.7999999970198","","67","","1","0","arrowleft","0","arrowright","[0.325,0.675,0.85,0.15]","","",""
"sailing-trial","76","742749","0.0-11.0-41.0","","","","false","","","","","","","","","","null","","1501.5","","2","1","null","null","arrowup","[0.325,0.675,0.85,0.15]","","",""
"sailing-trial","77","750263","0.0-11.0-42.0","","","","false","","","","","","","","","","1390.2999999970198","","1381.5999999940395","","1","1","arrowleft","0","arrowright","[0.325,0.675,0.85,0.15]","","",""
"sailing-trial","78","756148","0.0-11.0-43.0","","","","false","","","","","","","","","","null","","1792.8999999910593","","1","1","null","null","arrowup","[0.325,0.675,0.85,0.15]","","",""
"sailing-trial","79","761981","0.0-11.0-44.0","","","","false","","","","","","","","","","1352.7000000029802","","723.4000000059605","","2","1","arrowright","1","arrowleft","[0.325,0.675,0.85,0.15]","","",""
"sailing-trial","80","765681","0.0-11.0-45.0","","","","false","","","","","","","","","","null","","1695.6000000089407","","1","1","null","null","arrowup","[0.325,0.675,0.85,0.15]","","",""
"sailing-trial","81","771717","0.0-11.0-46.0","","","","false","","","","","","","","","","1611.7000000029802","","408.8999999910593","","1","0","arrowleft","0","arrowright","[0.325,0.675,0.85,0.15]","","",""
"sailing-trial","82","777834","0.0-11.0-47.0","","","","false","","","","","","","","","","null","","3092","","3","0","null","null","arrowup","[0.325,0.675,0.85,0.15]","","",""
"sailing-trial","83","785197","0.0-11.0-48.0","","","","false","","","","","","","","","","1258.0999999940395","","201.20000000298023","","1","1","arrowleft","0","arrowright","[0.325,0.675,0.85,0.15]","","",""
"sailing-trial","84","790483","0.0-11.0-49.0","","","","false","","","","","","","","","","null","","2273.7999999970198","","0","0","null","null","arrowup","[0.325,0.675,0.85,0.15]","","",""
"sailing-trial","85","796348","0.0-11.0-50.0","","","","false","","","","","","","","","","1170.2000000029802","","719.7999999970198","","1","1","arrowleft","0","arrowright","[0.15,0.85,0.675,0.325]","","",""
"sailing-trial","86","799508","0.0-11.0-51.0","","","","false","","","","","","","","","","null","","1663.2999999970198","","2","0","null","null","arrowup","[0.15,0.85,0.675,0.325]","","",""
"sailing-trial","87","804567","0.0-11.0-52.0","","","","false","","","","","","","","","","979.2999999970198","","77.6000000089407","","1","0","arrowleft","0","arrowright","[0.15,0.85,0.675,0.325]","","",""
"sailing-trial","88","810317","0.0-11.0-53.0","","","","false","","","","","","","","","","null","","2746.7999999970198","","0","0","null","null","arrowup","[0.15,0.85,0.675,0.325]","","",""
"sailing-trial","89","815466","0.0-11.0-54.0","","","","false","","","","","","","","","","520.7000000029802","","644.6999999880791","","2","0","arrowright","1","arrowleft","[0.15,0.85,0.675,0.325]","","",""
"sailing-trial","90","823698","0.0-11.0-55.0","","","","false","","","","","","","","","","null","","2635.2999999970198","","1","1","null","null","arrowup","[0.15,0.85,0.675,0.325]","","",""
"sailing-trial","91","832747","0.0-11.0-56.0","","","","false","","","","","","","","","","564.8999999910593","","58.70000000298023","","1","1","arrowleft","0","arrowright","[0.15,0.85,0.675,0.325]","","",""
"sailing-trial","92","840316","0.0-11.0-57.0","","","","false","","","","","","","","","","null","","4562.600000008941","","0","0","null","null","arrowup","[0.15,0.85,0.675,0.325]","","",""
"sailing-trial","93","845214","0.0-11.0-58.0","","","","false","","","","","","","","","","1322.1000000089407","","298.1000000089407","","1","1","arrowleft","0","arrowright","[0.15,0.85,0.675,0.325]","","",""
"sailing-trial","94","849800","0.0-11.0-59.0","","","","false","","","","","","","","","","null","","1581.5","","2","0","null","null","arrowup","[0.15,0.85,0.675,0.325]","","",""
"sailing-trial","95","855680","0.0-11.0-60.0","","","","false","","","","","","","","","","371.20000000298023","","412.79999999701977","","1","1","arrowleft","0","arrowright","[0.15,0.85,0.675,0.325]","","",""
"sailing-trial","96","859810","0.0-11.0-61.0","","","","false","","","","","","","","","","null","","2169.2000000029802","","0","0","null","null","arrowup","[0.15,0.85,0.675,0.325]","","",""
"sailing-trial","97","868513","0.0-11.0-62.0","","","","false","","","","","","","","","","4278.399999991059","","275.69999998807907","","1","1","arrowleft","0","arrowright","[0.15,0.85,0.675,0.325]","","",""
"sailing-trial","98","872771","0.0-11.0-63.0","","","","false","","","","","","","","","","null","","2244.2000000029802","","0","0","null","null","arrowup","[0.15,0.85,0.675,0.325]","","",""
"sailing-trial","99","880447","0.0-11.0-64.0","","","","false","","","","","","","","","","1199.699999988079","","444.29999999701977","","1","1","arrowleft","0","arrowright","[0.15,0.85,0.675,0.325]","","",""
"sailing-trial","100","885183","0.0-11.0-65.0","","","","false","","","","","","","","","","null","","1708.2000000029802","","3","0","null","null","arrowup","[0.15,0.85,0.675,0.325]","","",""
"sailing-trial","101","890414","0.0-11.0-66.0","","","","false","","","","","","","","","","1130.7999999970198","","521.0999999940395","","1","1","arrowleft","0","arrowright","[0.15,0.85,0.675,0.325]","","",""
"sailing-trial","102","894390","0.0-11.0-67.0","","","","false","","","","","","","","","","null","","1687.5","","3","0","null","null","arrowup","[0.15,0.85,0.675,0.325]","","",""
"sailing-trial","103","899513","0.0-11.0-68.0","","","","false","","","","","","","","","","796.1000000089407","","427.5","","1","1","arrowleft","0","arrowright","[0.15,0.85,0.675,0.325]","","",""
"sailing-trial","104","904866","0.0-11.0-69.0","","","","false","","","","","","","","","","null","","2345.2999999970198","","1","0","null","null","arrowup","[0.15,0.85,0.675,0.325]","","",""
"sailing-trial","105","915051","0.0-11.0-70.0","","","","false","","","","","","","","","","1872.2999999970198","","4324.5","","1","0","arrowleft","0","arrowright","[0.15,0.85,0.675,0.325]","","",""
"sailing-trial","106","920367","0.0-11.0-71.0","","","","false","","","","","","","","","","null","","2289.5","","3","0","null","null","arrowup","[0.15,0.85,0.675,0.325]","","",""
"sailing-trial","107","927946","0.0-11.0-72.0","","","","false","","","","","","","","","","1545.5","","1437.7000000029802","","2","1","arrowright","1","arrowleft","[0.325,0.675,0.85,0.15]","","",""
"sailing-trial","108","933812","0.0-11.0-73.0","","","","false","","","","","","","","","","null","","1392.2999999970198","","0","1","null","null","arrowup","[0.325,0.675,0.85,0.15]","","",""
"sailing-trial","109","940780","0.0-11.0-74.0","","","","false","","","","","","","","","","1908.2000000029802","","575.5999999940395","","2","1","arrowright","1","arrowleft","[0.325,0.675,0.85,0.15]","","",""
"sailing-trial","110","945914","0.0-11.0-75.0","","","","false","","","","","","","","","","null","","2036.5999999940395","","2","1","null","null","arrowup","[0.325,0.675,0.85,0.15]","","",""
"sailing-trial","111","951165","0.0-11.0-76.0","","","","false","","","","","","","","","","1037.2999999970198","","197.59999999403954","","2","0","arrowright","1","arrowleft","[0.325,0.675,0.85,0.15]","","",""
"sailing-trial","112","956263","0.0-11.0-77.0","","","","false","","","","","","","","","","null","","1658.800000011921","","2","1","null","null","arrowup","[0.325,0.675,0.85,0.15]","","",""
"sailing-trial","113","961817","0.0-11.0-78.0","","","","false","","","","","","","","","","1368.5","","168.1000000089407","","2","0","arrowright","1","arrowleft","[0.325,0.675,0.85,0.15]","","",""
"sailing-trial","114","966899","0.0-11.0-79.0","","","","false","","","","","","","","","","null","","2074.7000000029802","","0","0","null","null","arrowup","[0.325,0.675,0.85,0.15]","","",""
"sailing-trial","115","972615","0.0-11.0-80.0","","","","false","","","","","","","","","","959.4000000059605","","723.5999999940395","","3","0","arrowright","1","arrowright","[0.325,0.675,0.85,0.15]","","",""
"sailing-trial","116","979897","0.0-11.0-81.0","","","","false","","","","","","","","","","null","","2157.2000000029802","","2","1","null","null","arrowup","[0.325,0.675,0.85,0.15]","","",""
"sailing-trial","117","985764","0.0-11.0-82.0","","","","false","","","","","","","","","","1236.6000000089407","","313.20000000298023","","2","1","arrowright","1","arrowleft","[0.325,0.675,0.85,0.15]","","",""
"sailing-trial","118","989196","0.0-11.0-83.0","","","","false","","","","","","","","","","null","","1352.5","","2","1","null","null","arrowup","[0.325,0.675,0.85,0.15]","","",""
"sailing-trial","119","996799","0.0-11.0-84.0","","","","false","","","","","","","","","","3183.2999999970198","","395.90000000596046","","0","0","arrowleft","0","arrowleft","[0.325,0.675,0.85,0.15]","","",""
"sailing-trial","120","1000837","0.0-11.0-85.0","","","","false","","","","","","","","","","null","","1775.6000000089407","","1","0","null","null","arrowup","[0.325,0.675,0.85,0.15]","","",""
"sailing-trial","121","1007963","0.0-11.0-86.0","","","","false","","","","","","","","","","1084.0999999940395","","516.2999999970198","","2","1","arrowright","1","arrowleft","[0.325,0.675,0.85,0.15]","","",""
"sailing-trial","122","1012164","0.0-11.0-87.0","","","","false","","","","","","","","","","null","","1754.6000000089407","","0","1","null","null","arrowup","[0.325,0.675,0.85,0.15]","","",""
"sailing-trial","123","1017529","0.0-11.0-88.0","","","","false","","","","","","","","","","977.7999999970198","","620.4000000059605","","2","1","arrowright","1","arrowleft","[0.15,0.85,0.675,0.325]","","",""
"sailing-trial","124","1022165","0.0-11.0-89.0","","","","false","","","","","","","","","","null","","1615.2999999970198","","1","0","null","null","arrowup","[0.15,0.85,0.675,0.325]","","",""
"sailing-trial","125","1028096","0.0-11.0-90.0","","","","false","","","","","","","","","","1128.2000000029802","","899.2000000029802","","2","1","arrowright","1","arrowleft","[0.15,0.85,0.675,0.325]","","",""
"sailing-trial","126","1030975","0.0-11.0-91.0","","","","false","","","","","","","","","","null","","1094.1000000089407","","0","0","null","null","arrowup","[0.15,0.85,0.675,0.325]","","",""
"sailing-trial","127","1036280","0.0-11.0-92.0","","","","false","","","","","","","","","","1017.7000000029802","","511.5","","2","1","arrowright","1","arrowleft","[0.15,0.85,0.675,0.325]","","",""
"sailing-trial","128","1039997","0.0-11.0-93.0","","","","false","","","","","","","","","","null","","1788.4000000059605","","0","0","null","null","arrowup","[0.15,0.85,0.675,0.325]","","",""
"sailing-trial","129","1044663","0.0-11.0-94.0","","","","false","","","","","","","","","","704.3000000119209","","386.3999999910593","","2","1","arrowright","1","arrowleft","[0.15,0.85,0.675,0.325]","","",""
"sailing-trial","130","1048474","0.0-11.0-95.0","","","","false","","","","","","","","","","null","","1504.5","","2","0","null","null","arrowup","[0.15,0.85,0.675,0.325]","","",""
"sailing-trial","131","1053279","0.0-11.0-96.0","","","","false","","","","","","","","","","875.1000000089407","","471.1000000089407","","2","1","arrowright","1","arrowleft","[0.15,0.85,0.675,0.325]","","",""
"sailing-trial","132","1057145","0.0-11.0-97.0","","","","false","","","","","","","","","","null","","1390.800000011921","","1","1","null","null","arrowup","[0.15,0.85,0.675,0.325]","","",""
"sailing-trial","133","1063712","0.0-11.0-98.0","","","","false","","","","","","","","","","1683.6000000089407","","41.30000001192093","","1","1","arrowleft","0","arrowright","[0.15,0.85,0.675,0.325]","","",""
"sailing-trial","134","1066978","0.0-11.0-99.0","","","","false","","","","","","","","","","null","","1293.2999999970198","","1","1","null","null","arrowup","[0.15,0.85,0.675,0.325]","","",""
"sailing-trial","135","1071596","0.0-11.0-100.0","","","","false","","","","","","","","","","922.5","","769.5","","1","1","arrowleft","0","arrowright","[0.15,0.85,0.675,0.325]","","",""
"sailing-trial","136","1074912","0.0-11.0-101.0","","","","false","","","","","","","","","","null","","1427.9000000059605","","1","1","null","null","arrowup","[0.15,0.85,0.675,0.325]","","",""
"sailing-trial","137","1079979","0.0-11.0-102.0","","","","false","","","","","","","","","","995","","196.8999999910593","","1","1","arrowleft","0","arrowright","[0.15,0.85,0.675,0.325]","","",""
"sailing-trial","138","1084182","0.0-11.0-103.0","","","","false","","","","","","","","","","null","","1204.699999988079","","0","0","null","null","arrowup","[0.15,0.85,0.675,0.325]","","",""
"sailing-trial","139","1089113","0.0-11.0-104.0","","","","false","","","","","","","","","","1449.3999999910593","","145.8999999910593","","1","1","arrowleft","0","arrowright","[0.325,0.675,0.85,0.15]","","",""
"sailing-trial","140","1091822","0.0-11.0-105.0","","","","false","","","","","","","","","","null","","1323","","1","0","null","null","arrowup","[0.325,0.675,0.85,0.15]","","",""
"sailing-trial","141","1096562","0.0-11.0-106.0","","","","false","","","","","","","","","","835.5","","357.29999999701977","","1","1","arrowleft","0","arrowright","[0.325,0.675,0.85,0.15]","","",""
"sailing-trial","142","1101913","0.0-11.0-107.0","","","","false","","","","","","","","","","null","","2741.9000000059605","","2","1","null","null","arrowup","[0.325,0.675,0.85,0.15]","","",""
"sailing-trial","143","1108145","0.0-11.0-108.0","","","","false","","","","","","","","","","1572.2999999970198","","707.5999999940395","","1","1","arrowleft","0","arrowright","[0.325,0.675,0.85,0.15]","","",""
"sailing-trial","144","1112783","0.0-11.0-109.0","","","","false","","","","","","","","","","null","","1632.7999999970198","","2","0","null","null","arrowup","[0.325,0.675,0.85,0.15]","","",""
"sailing-trial","145","1117230","0.0-11.0-110.0","","","","false","","","","","","","","","","707.2999999970198","","239.09999999403954","","1","1","arrowleft","0","arrowright","[0.325,0.675,0.85,0.15]","","",""
"sailing-trial","146","1126729","0.0-11.0-111.0","","","","false","","","","","","","","","","null","","6760.79999999702","","2","1","null","null","arrowup","[0.325,0.675,0.85,0.15]","","",""
"sailing-trial","147","1132162","0.0-11.0-112.0","","","","false","","","","","","","","","","1234.5","","594.5999999940395","","2","1","arrowright","1","arrowleft","[0.325,0.675,0.85,0.15]","","",""
"sailing-trial","148","1135979","0.0-11.0-113.0","","","","false","","","","","","","","","","null","","1862.800000011921","","0","1","null","null","arrowup","[0.325,0.675,0.85,0.15]","","",""
"sailing-trial","149","1142247","0.0-11.0-114.0","","","","false","","","","","","","","","","1781","","478","","0","0","arrowleft","0","arrowleft","[0.325,0.675,0.85,0.15]","","",""
"sailing-trial","150","1146229","0.0-11.0-115.0","","","","false","","","","","","","","","","null","","1632.7000000029802","","2","1","null","null","arrowup","[0.325,0.675,0.85,0.15]","","",""
"sailing-trial","151","1151629","0.0-11.0-116.0","","","","false","","","","","","","","","","952.4000000059605","","454.59999999403954","","1","1","arrowleft","0","arrowright","[0.325,0.675,0.85,0.15]","","",""
"sailing-trial","152","1156279","0.0-11.0-117.0","","","","false","","","","","","","","","","null","","2365.800000011921","","2","1","null","null","arrowup","[0.325,0.675,0.85,0.15]","","",""
"sailing-trial","153","1161798","0.0-11.0-118.0","","","","false","","","","","","","","","","962.8999999910593","","534.8999999910593","","1","0","arrowleft","0","arrowright","[0.325,0.675,0.85,0.15]","","",""
"sailing-trial","154","1165839","0.0-11.0-119.0","","","","false","","","","","","","","","","null","","1433.6000000089407","","3","0","null","null","arrowup","[0.325,0.675,0.85,0.15]","","",""
"sailing-trial","155","1170146","0.0-11.0-120.0","","","","false","","","","","","","","","","770.1999999880791","","61.5","","1","1","arrowleft","0","arrowright","[0.325,0.675,0.85,0.15]","","",""
"sailing-trial","156","1173057","0.0-11.0-121.0","","","","false","","","","","","","","","","null","","1342.7000000029802","","1","0","null","null","arrowup","[0.325,0.675,0.85,0.15]","","",""
"sailing-trial","157","1180348","0.0-11.0-122.0","","","","false","","","","","","","","","","2268.5","","1003.6000000089407","","0","0","arrowleft","0","arrowleft","[0.325,0.675,0.85,0.15]","","",""
"sailing-trial","158","1185630","0.0-11.0-123.0","","","","false","","","","","","","","","","null","","2266.7000000029802","","3","0","null","null","arrowup","[0.325,0.675,0.85,0.15]","","",""
"sailing-trial","159","1191895","0.0-11.0-124.0","","","","false","","","","","","","","","","1543.3999999910593","","143.8999999910593","","1","1","arrowleft","0","arrowright","[0.15,0.85,0.675,0.325]","","",""
"sailing-trial","160","1195829","0.0-11.0-125.0","","","","false","","","","","","","","","","null","","1943.7000000029802","","3","1","null","null","arrowup","[0.15,0.85,0.675,0.325]","","",""
"sailing-trial","161","1202594","0.0-11.0-126.0","","","","false","","","","","","","","","","1345","","1586.5999999940395","","1","1","arrowleft","0","arrowright","[0.15,0.85,0.675,0.325]","","",""
"sailing-trial","162","1209096","0.0-11.0-127.0","","","","false","","","","","","","","","","null","","2802.199999988079","","3","1","null","null","arrowup","[0.15,0.85,0.675,0.325]","","",""
"sailing-trial","163","1215545","0.0-11.0-128.0","","","","false","","","","","","","","","","2046.3999999910593","","604","","1","1","arrowleft","0","arrowright","[0.15,0.85,0.675,0.325]","","",""
"sailing-trial","164","1220098","0.0-11.0-129.0","","","","false","","","","","","","","","","null","","1555.1000000089407","","3","0","null","null","arrowup","[0.15,0.85,0.675,0.325]","","",""
"sailing-trial","165","1225045","0.0-11.0-130.0","","","","false","","","","","","","","","","655.2000000029802","","853.7999999970198","","1","1","arrowleft","0","arrowright","[0.15,0.85,0.675,0.325]","","",""
"sailing-trial","166","1228734","0.0-11.0-131.0","","","","false","","","","","","","","","","null","","1629","","2","0","null","null","arrowup","[0.15,0.85,0.675,0.325]","","",""
"sailing-trial","167","1234182","0.0-11.0-132.0","","","","false","","","","","","","","","","1311","","127.69999998807907","","1","0","arrowleft","0","arrowright","[0.15,0.85,0.675,0.325]","","",""
"sailing-trial","168","1239414","0.0-11.0-133.0","","","","false","","","","","","","","","","null","","2205.2999999970198","","3","0","null","null","arrowup","[0.15,0.85,0.675,0.325]","","",""
"sailing-trial","169","1246244","0.0-11.0-134.0","","","","false","","","","","","","","","","2479.5","","592.8999999910593","","1","1","arrowleft","0","arrowright","[0.15,0.85,0.675,0.325]","","",""
"sailing-trial","170","1251078","0.0-11.0-135.0","","","","false","","","","","","","","","","null","","1898.300000011921","","1","1","null","null","arrowup","[0.15,0.85,0.675,0.325]","","",""
"sailing-trial","171","1256414","0.0-11.0-136.0","","","","false","","","","","","","","","","1223.2999999970198","","99.59999999403954","","1","0","arrowleft","0","arrowright","[0.15,0.85,0.675,0.325]","","",""
"sailing-trial","172","1260961","0.0-11.0-137.0","","","","false","","","","","","","","","","null","","1517.9000000059605","","2","1","null","null","arrowup","[0.15,0.85,0.675,0.325]","","",""
"sailing-trial","173","1266194","0.0-11.0-138.0","","","","false","","","","","","","","","","1724.699999988079","","40.20000000298023","","1","1","arrowleft","0","arrowright","[0.15,0.85,0.675,0.325]","","",""
"sailing-trial","174","1269995","0.0-11.0-139.0","","","","false","","","","","","","","","","null","","1267.5999999940395","","2","1","null","null","arrowup","[0.15,0.85,0.675,0.325]","","",""
"sailing-trial","175","1274262","0.0-11.0-140.0","","","","false","","","","","","","","","","826","","30.700000002980232","","1","1","arrowleft","0","arrowright","[0.15,0.85,0.675,0.325]","","",""
"sailing-trial","176","1277517","0.0-11.0-141.0","","","","false","","","","","","","","","","null","","1667.7999999970198","","0","0","null","null","arrowup","[0.15,0.85,0.675,0.325]","","",""
"sailing-trial","177","1282085","0.0-11.0-142.0","","","","false","","","","","","","","","","1608.7000000029802","","455.40000000596046","","1","0","arrowleft","0","arrowright","[0.675,0.325,0.15,0.85]","","",""
"sailing-trial","178","1287413","0.0-11.0-143.0","","","","false","","","","","","","","","","null","","2285.5","","2","0","null","null","arrowup","[0.675,0.325,0.15,0.85]","","",""
"sailing-trial","179","1292976","0.0-11.0-144.0","","","","false","","","","","","","","","","1120.300000011921","","923.0999999940395","","3","1","arrowright","1","arrowright","[0.675,0.325,0.15,0.85]","","",""
"sailing-trial","180","1297345","0.0-11.0-145.0","","","","false","","","","","","","","","","null","","1592.4000000059605","","3","1","null","null","arrowup","[0.675,0.325,0.15,0.85]","","",""
"sailing-trial","181","1302545","0.0-11.0-146.0","","","","false","","","","","","","","","","960.7999999970198","","889","","3","1","arrowright","1","arrowright","[0.675,0.325,0.15,0.85]","","",""
"sailing-trial","182","1307964","0.0-11.0-147.0","","","","false","","","","","","","","","","null","","2420.5","","1","0","null","null","arrowup","[0.675,0.325,0.15,0.85]","","",""
"sailing-trial","183","1312210","0.0-11.0-148.0","","","","false","","","","","","","","","","600.2999999970198","","171","","3","1","arrowright","1","arrowright","[0.675,0.325,0.15,0.85]","","",""
"sailing-trial","184","1317478","0.0-11.0-149.0","","","","false","","","","","","","","","","null","","2774.5","","1","1","null","null","arrowup","[0.675,0.325,0.15,0.85]","","",""
"sailing-trial","185","1322477","0.0-11.0-150.0","","","","false","","","","","","","","","","247.3999999910593","","837.6999999880791","","3","1","arrowright","1","arrowright","[0.675,0.325,0.15,0.85]","","",""
"sailing-trial","186","1327244","0.0-11.0-151.0","","","","false","","","","","","","","","","null","","2800.800000011921","","2","1","null","null","arrowup","[0.675,0.325,0.15,0.85]","","",""
"sailing-trial","187","1333879","0.0-11.0-152.0","","","","false","","","","","","","","","","1560.0999999940395","","1053.5","","3","0","arrowright","1","arrowright","[0.675,0.325,0.15,0.85]","","",""
"sailing-trial","188","1337845","0.0-11.0-153.0","","","","false","","","","","","","","","","null","","1526.5","","2","1","null","null","arrowup","[0.675,0.325,0.15,0.85]","","",""
"sailing-trial","189","1342693","0.0-11.0-154.0","","","","false","","","","","","","","","","857.5","","632.4000000059605","","3","1","arrowright","1","arrowright","[0.675,0.325,0.15,0.85]","","",""
"sailing-trial","190","1347410","0.0-11.0-155.0","","","","false","","","","","","","","","","null","","1844.2000000029802","","2","0","null","null","arrowup","[0.675,0.325,0.15,0.85]","","",""
"sailing-trial","191","1352514","0.0-11.0-156.0","","","","false","","","","","","","","","","904.5999999940395","","187.69999998807907","","3","0","arrowright","1","arrowright","[0.675,0.325,0.15,0.85]","","",""
"sailing-trial","192","1357413","0.0-11.0-157.0","","","","false","","","","","","","","","","null","","1900.4000000059605","","0","0","null","null","arrowup","[0.675,0.325,0.15,0.85]","","",""
"sailing-trial","193","1362881","0.0-11.0-158.0","","","","false","","","","","","","","","","1066.5","","395.5","","3","0","arrowright","1","arrowright","[0.675,0.325,0.15,0.85]","","",""
"sailing-trial","194","1367580","0.0-11.0-159.0","","","","false","","","","","","","","","","null","","1703.8999999910593","","1","0","null","null","arrowup","[0.675,0.325,0.15,0.85]","","",""
"sailing-trial","195","1373343","0.0-11.0-160.0","","","","false","","","","","","","","","","841.8999999910593","","614.5999999940395","","0","1","arrowleft","0","arrowleft","[0.85,0.15,0.325,0.675]","","",""
"sailing-trial","196","1377944","0.0-11.0-161.0","","","","false","","","","","","","","","","null","","1585.9000000059605","","3","1","null","null","arrowup","[0.85,0.15,0.325,0.675]","","",""
"sailing-trial","197","1383913","0.0-11.0-162.0","","","","false","","","","","","","","","","995.2999999970198","","940.7999999970198","","0","0","arrowleft","0","arrowleft","[0.85,0.15,0.325,0.675]","","",""
"sailing-trial","198","1393077","0.0-11.0-163.0","","","","false","","","","","","","","","","null","","1290.7000000029802","","0","1","null","null","arrowup","[0.85,0.15,0.325,0.675]","","",""
"sailing-trial","199","1402077","0.0-11.0-164.0","","","","false","","","","","","","","","","1148","","267.59999999403954","","0","1","arrowleft","0","arrowleft","[0.85,0.15,0.325,0.675]","","",""
"sailing-trial","200","1405729","0.0-11.0-165.0","","","","false","","","","","","","","","","null","","1593.8999999910593","","1","0","null","null","arrowup","[0.85,0.15,0.325,0.675]","","",""
"sailing-trial","201","1410160","0.0-11.0-166.0","","","","false","","","","","","","","","","832.6000000089407","","523.5999999940395","","0","1","arrowleft","0","arrowleft","[0.85,0.15,0.325,0.675]","","",""
"sailing-trial","202","1413587","0.0-11.0-167.0","","","","false","","","","","","","","","","null","","1888.5999999940395","","2","0","null","null","arrowup","[0.85,0.15,0.325,0.675]","","",""
"sailing-trial","203","1417411","0.0-11.0-168.0","","","","false","","","","","","","","","","741.5999999940395","","161.59999999403954","","0","1","arrowleft","0","arrowleft","[0.85,0.15,0.325,0.675]","","",""
"sailing-trial","204","1421327","0.0-11.0-169.0","","","","false","","","","","","","","","","null","","1941.4000000059605","","3","1","null","null","arrowup","[0.85,0.15,0.325,0.675]","","",""
"sailing-trial","205","1428197","0.0-11.0-170.0","","","","false","","","","","","","","","","1303.5999999940395","","1529.7999999970198","","0","0","arrowleft","0","arrowleft","[0.85,0.15,0.325,0.675]","","",""
"sailing-trial","206","1431294","0.0-11.0-171.0","","","","false","","","","","","","","","","null","","1492.2999999970198","","0","1","null","null","arrowup","[0.85,0.15,0.325,0.675]","","",""
"sailing-trial","207","1436944","0.0-11.0-172.0","","","","false","","","","","","","","","","1227.5999999940395","","393.29999999701977","","0","1","arrowleft","0","arrowleft","[0.85,0.15,0.325,0.675]","","",""
"sailing-trial","208","1439413","0.0-11.0-173.0","","","","false","","","","","","","","","","null","","1066.800000011921","","0","0","null","null","arrowup","[0.85,0.15,0.325,0.675]","","",""
"sailing-trial","209","1444646","0.0-11.0-174.0","","","","false","","","","","","","","","","1099.8999999910593","","140.40000000596046","","0","0","arrowleft","0","arrowleft","[0.85,0.15,0.325,0.675]","","",""
"sailing-trial","210","1450110","0.0-11.0-175.0","","","","false","","","","","","","","","","null","","2664.3999999910593","","3","1","null","null","arrowup","[0.85,0.15,0.325,0.675]","","",""
"sailing-trial","211","1456414","0.0-11.0-176.0","","","","false","","","","","","","","","","1643","","610.5","","3","0","arrowright","1","arrowright","[0.85,0.15,0.325,0.675]","","",""
"sailing-trial","212","1461597","0.0-11.0-177.0","","","","false","","","","","","","","","","null","","2176.7999999970198","","1","0","null","null","arrowup","[0.85,0.15,0.325,0.675]","","",""
"sailing-trial","213","1467514","0.0-11.0-178.0","","","","false","","","","","","","","","","1278","","634.9000000059605","","0","0","arrowleft","0","arrowleft","[0.85,0.15,0.325,0.675]","","",""
"sailing-trial","214","1475744","0.0-11.0-179.0","","","","false","","","","","","","","","","null","","1323.5","","3","1","null","null","arrowup","[0.85,0.15,0.325,0.675]","","",""
"sailing-trial","215","1480346","0.0-11.0-180.0","","","","false","","","","","","","","","","551.5","","28.100000008940697","","3","0","arrowright","1","arrowright","[0.85,0.15,0.325,0.675]","","",""
"sailing-trial","216","1483793","0.0-11.0-181.0","","","","false","","","","","","","","","","null","","1459","","3","1","null","null","arrowup","[0.85,0.15,0.325,0.675]","","",""
"sailing-trial","217","1488194","0.0-11.0-182.0","","","","false","","","","","","","","","","768.6000000089407","","199.20000000298023","","3","1","arrowright","1","arrowright","[0.85,0.15,0.325,0.675]","","",""
"sailing-trial","218","1491741","0.0-11.0-183.0","","","","false","","","","","","","","","","null","","1623.2000000029802","","2","0","null","null","arrowup","[0.85,0.15,0.325,0.675]","","",""
"sailing-trial","219","1496344","0.0-11.0-184.0","","","","false","","","","","","","","","","1690.5","","103.59999999403954","","3","0","arrowright","1","arrowright","[0.675,0.325,0.15,0.85]","","",""
"sailing-trial","220","1501493","0.0-11.0-185.0","","","","false","","","","","","","","","","null","","2245","","0","1","null","null","arrowup","[0.675,0.325,0.15,0.85]","","",""
"sailing-trial","221","1506043","0.0-11.0-186.0","","","","false","","","","","","","","","","1044.7000000029802","","42.70000000298023","","3","1","arrowright","1","arrowright","[0.675,0.325,0.15,0.85]","","",""
"sailing-trial","222","1514863","0.0-11.0-187.0","","","","false","","","","","","","","","","null","","5800.5999999940395","","1","0","null","null","arrowup","[0.675,0.325,0.15,0.85]","","",""
"sailing-trial","223","1519127","0.0-11.0-188.0","","","","false","","","","","","","","","","748.2000000029802","","398.79999999701977","","3","1","arrowright","1","arrowright","[0.675,0.325,0.15,0.85]","","",""
"sailing-trial","224","1521732","0.0-11.0-189.0","","","","false","","","","","","","","","","null","","1387.199999988079","","2","0","null","null","arrowup","[0.675,0.325,0.15,0.85]","","",""
"sailing-trial","225","1526459","0.0-11.0-190.0","","","","false","","","","","","","","","","749.4000000059605","","418.70000000298023","","3","1","arrowright","1","arrowright","[0.675,0.325,0.15,0.85]","","",""
"sailing-trial","226","1530643","0.0-11.0-191.0","","","","false","","","","","","","","","","null","","1412.2999999970198","","3","1","null","null","arrowup","[0.675,0.325,0.15,0.85]","","",""
"sailing-trial","227","1539493","0.0-11.0-192.0","","","","false","","","","","","","","","","723.5","","431.8999999910593","","3","1","arrowright","1","arrowright","[0.675,0.325,0.15,0.85]","","",""
"sailing-trial","228","1544456","0.0-11.0-193.0","","","","false","","","","","","","","","","null","","2405.699999988079","","1","0","null","null","arrowup","[0.675,0.325,0.15,0.85]","","",""
"sailing-trial","229","1551342","0.0-11.0-194.0","","","","false","","","","","","","","","","2043.5999999940395","","1015.4000000059605","","3","1","arrowright","1","arrowright","[0.675,0.325,0.15,0.85]","","",""
"sailing-trial","230","1561375","0.0-11.0-195.0","","","","false","","","","","","","","","","null","","3517.0999999940395","","3","1","null","null","arrowup","[0.675,0.325,0.15,0.85]","","",""
"sailing-trial","231","1568643","0.0-11.0-196.0","","","","false","","","","","","","","","","665.7999999970198","","771.2999999970198","","3","1","arrowright","1","arrowright","[0.675,0.325,0.15,0.85]","","",""
"sailing-trial","232","1572160","0.0-11.0-197.0","","","","false","","","","","","","","","","null","","1580.7999999970198","","0","1","null","null","arrowup","[0.675,0.325,0.15,0.85]","","",""
"sailing-trial","233","1577510","0.0-11.0-198.0","","","","false","","","","","","","","","","1710.2999999970198","","191.3999999910593","","3","1","arrowright","1","arrowright","[0.675,0.325,0.15,0.85]","","",""
"sailing-trial","234","1585493","0.0-11.0-199.0","","","","false","","","","","","","","","","null","","5715.800000011921","","0","1","null","null","arrowup","[0.675,0.325,0.15,0.85]","","",""
"sailing-trial","235","1590042","0.0-11.0-200.0","","","","false","","","","","","","","","","615","","335.40000000596046","","3","1","arrowright","1","arrowright","[0.85,0.15,0.325,0.675]","","",""
"sailing-trial","236","1594660","0.0-11.0-201.0","","","","false","","","","","","","","","","null","","2306","","3","1","null","null","arrowup","[0.85,0.15,0.325,0.675]","","",""
"sailing-trial","237","1599059","0.0-11.0-202.0","","","","false","","","","","","","","","","982.5999999940395","","790.2999999970198","","3","0","arrowright","1","arrowright","[0.85,0.15,0.325,0.675]","","",""
"sailing-trial","238","1603159","0.0-11.0-203.0","","","","false","","","","","","","","","","null","","1676.7000000029802","","0","1","null","null","arrowup","[0.85,0.15,0.325,0.675]","","",""
"sailing-trial","239","1608709","0.0-11.0-204.0","","","","false","","","","","","","","","","1422.5","","480","","0","1","arrowleft","0","arrowleft","[0.85,0.15,0.325,0.675]","","",""
"sailing-trial","240","1613145","0.0-11.0-205.0","","","","false","","","","","","","","","","null","","1430.699999988079","","0","0","null","null","arrowup","[0.85,0.15,0.325,0.675]","","",""
"sailing-trial","241","1618026","0.0-11.0-206.0","","","","false","","","","","","","","","","683.5999999940395","","693.7000000029802","","0","1","arrowleft","0","arrowleft","[0.85,0.15,0.325,0.675]","","",""
"sailing-trial","242","1623192","0.0-11.0-207.0","","","","false","","","","","","","","","","null","","1799.2999999970198","","1","1","null","null","arrowup","[0.85,0.15,0.325,0.675]","","",""
"sailing-trial","243","1627910","0.0-11.0-208.0","","","","false","","","","","","","","","","920.9000000059605","","159.40000000596046","","0","1","arrowleft","0","arrowleft","[0.85,0.15,0.325,0.675]","","",""
"sailing-trial","244","1631707","0.0-11.0-209.0","","","","false","","","","","","","","","","null","","1744.8999999910593","","2","0","null","null","arrowup","[0.85,0.15,0.325,0.675]","","",""
"sailing-trial","245","1636309","0.0-11.0-210.0","","","","false","","","","","","","","","","853.7999999970198","","163.80000001192093","","0","1","arrowleft","0","arrowleft","[0.85,0.15,0.325,0.675]","","",""
"sailing-trial","246","1640857","0.0-11.0-211.0","","","","false","","","","","","","","","","null","","2069.199999988079","","1","0","null","null","arrowup","[0.85,0.15,0.325,0.675]","","",""
"sailing-trial","247","1645408","0.0-11.0-212.0","","","","false","","","","","","","","","","929.7000000029802","","109.3999999910593","","0","1","arrowleft","0","arrowleft","[0.85,0.15,0.325,0.675]","","",""
"sailing-trial","248","1650578","0.0-11.0-213.0","","","","false","","","","","","","","","","null","","2168.199999988079","","1","0","null","null","arrowup","[0.85,0.15,0.325,0.675]","","",""
"sailing-trial","249","1656409","0.0-11.0-214.0","","","","false","","","","","","","","","","773.8000000119209","","1278.2999999970198","","0","1","arrowleft","0","arrowleft","[0.85,0.15,0.325,0.675]","","",""
"sailing-trial","250","1660842","0.0-11.0-215.0","","","","false","","","","","","","","","","null","","1418.7000000029802","","0","1","null","null","arrowup","[0.85,0.15,0.325,0.675]","","",""
"sailing-trial","251","1666842","0.0-11.0-216.0","","","","false","","","","","","","","","","716.9000000059605","","1082.2999999970198","","0","1","arrowleft","0","arrowleft","[0.85,0.15,0.325,0.675]","","",""
"sailing-trial","252","1672059","0.0-11.0-217.0","","","","false","","","","","","","","","","null","","2901.4000000059605","","3","1","null","null","arrowup","[0.85,0.15,0.325,0.675]","","",""
"sailing-trial","253","1676826","0.0-11.0-218.0","","","","false","","","","","","","","","","1195.5","","448.90000000596046","","0","1","arrowleft","0","arrowleft","[0.675,0.325,0.15,0.85]","","",""
"sailing-trial","254","1681058","0.0-11.0-219.0","","","","false","","","","","","","","","","null","","2288.7999999970198","","0","1","null","null","arrowup","[0.675,0.325,0.15,0.85]","","",""
"sailing-trial","255","1687025","0.0-11.0-220.0","","","","false","","","","","","","","","","693.7000000029802","","673.3000000119209","","0","1","arrowleft","0","arrowleft","[0.675,0.325,0.15,0.85]","","",""
"sailing-trial","256","1691258","0.0-11.0-221.0","","","","false","","","","","","","","","","null","","1191.5","","2","0","null","null","arrowup","[0.675,0.325,0.15,0.85]","","",""
"sailing-trial","257","1698525","0.0-11.0-222.0","","","","false","","","","","","","","","","2086.2000000029802","","424.5","","0","1","arrowleft","0","arrowleft","[0.675,0.325,0.15,0.85]","","",""
"sailing-trial","258","1702842","0.0-11.0-223.0","","","","false","","","","","","","","","","null","","1687.800000011921","","3","1","null","null","arrowup","[0.675,0.325,0.15,0.85]","","",""
"sailing-trial","259","1707810","0.0-11.0-224.0","","","","false","","","","","","","","","","875.5","","97.5","","0","0","arrowleft","0","arrowleft","[0.675,0.325,0.15,0.85]","","",""
"sailing-trial","260","1712594","0.0-11.0-225.0","","","","false","","","","","","","","","","null","","1781.5","","0","0","null","null","arrowup","[0.675,0.325,0.15,0.85]","","",""
"sailing-trial","261","1718842","0.0-11.0-226.0","","","","false","","","","","","","","","","1751.5999999940395","","505.59999999403954","","1","0","arrowleft","0","arrowright","[0.675,0.325,0.15,0.85]","","",""
"sailing-trial","262","1723428","0.0-11.0-227.0","","","","false","","","","","","","","","","null","","1589.800000011921","","1","0","null","null","arrowup","[0.675,0.325,0.15,0.85]","","",""
"sailing-trial","263","1728125","0.0-11.0-228.0","","","","false","","","","","","","","","","726.5","","6.5999999940395355","","3","1","arrowright","1","arrowright","[0.675,0.325,0.15,0.85]","","",""
"sailing-trial","264","1732009","0.0-11.0-229.0","","","","false","","","","","","","","","","null","","1690.5","","2","1","null","null","arrowup","[0.675,0.325,0.15,0.85]","","",""
"sailing-trial","265","1736858","0.0-11.0-230.0","","","","false","","","","","","","","","","837.2999999970198","","586.7999999970198","","3","1","arrowright","1","arrowright","[0.675,0.325,0.15,0.85]","","",""
"sailing-trial","266","1740575","0.0-11.0-231.0","","","","false","","","","","","","","","","null","","1449.1000000089407","","3","1","null","null","arrowup","[0.675,0.325,0.15,0.85]","","",""
"sailing-trial","267","1746958","0.0-11.0-232.0","","","","false","","","","","","","","","","1594.2000000029802","","311.79999999701977","","3","1","arrowright","1","arrowright","[0.675,0.325,0.15,0.85]","","",""
"sailing-trial","268","1750975","0.0-11.0-233.0","","","","false","","","","","","","","","","null","","1773.2999999970198","","0","1","null","null","arrowup","[0.675,0.325,0.15,0.85]","","",""
"sailing-trial","269","1756392","0.0-11.0-234.0","","","","false","","","","","","","","","","914.5","","801","","3","1","arrowright","1","arrowright","[0.675,0.325,0.15,0.85]","","",""
"sailing-trial","270","1761065","0.0-11.0-235.0","","","","false","","","","","","","","","","null","","3012","","1","0","null","null","arrowup","[0.675,0.325,0.15,0.85]","","",""
"sailing-trial","271","1766543","0.0-11.0-236.0","","","","false","","","","","","","","","","1287.7000000029802","","169.19999998807907","","3","0","arrowright","1","arrowright","[0.675,0.325,0.15,0.85]","","",""
"sailing-trial","272","1769911","0.0-11.0-237.0","","","","false","","","","","","","","","","null","","1545","","1","0","null","null","arrowup","[0.675,0.325,0.15,0.85]","","",""
"sailing-trial","273","1776324","0.0-11.0-238.0","","","","false","","","","","","","","","","1492.3999999910593","","849.7999999970198","","2","1","arrowright","1","arrowleft","[0.325,0.675,0.85,0.15]","","",""
"sailing-trial","274","1780644","0.0-11.0-239.0","","","","false","","","","","","","","","","null","","1293.6000000089407","","0","0","null","null","arrowup","[0.325,0.675,0.85,0.15]","","",""
"sailing-trial","275","1786707","0.0-11.0-240.0","","","","false","","","","","","","","","","1517.7000000029802","","119.3999999910593","","2","1","arrowright","1","arrowleft","[0.325,0.675,0.85,0.15]","","",""
"sailing-trial","276","1789371","0.0-11.0-241.0","","","","false","","","","","","","","","","null","","1291.5","","0","0","null","null","arrowup","[0.325,0.675,0.85,0.15]","","",""
"sailing-trial","277","1793924","0.0-11.0-242.0","","","","false","","","","","","","","","","1033.7000000029802","","87.59999999403954","","2","1","arrowright","1","arrowleft","[0.325,0.675,0.85,0.15]","","",""
"sailing-trial","278","1797273","0.0-11.0-243.0","","","","false","","","","","","","","","","null","","1298.699999988079","","1","1","null","null","arrowup","[0.325,0.675,0.85,0.15]","","",""
"sailing-trial","279","1802907","0.0-11.0-244.0","","","","false","","","","","","","","","","1600.9000000059605","","811.5","","2","1","arrowright","1","arrowleft","[0.325,0.675,0.85,0.15]","","",""
"sailing-trial","280","1806725","0.0-11.0-245.0","","","","false","","","","","","","","","","null","","2241.7000000029802","","2","1","null","null","arrowup","[0.325,0.675,0.85,0.15]","","",""
"sailing-trial","281","1814540","0.0-11.0-246.0","","","","false","","","","","","","","","","972","","571.7999999970198","","2","1","arrowright","1","arrowleft","[0.325,0.675,0.85,0.15]","","",""
"sailing-trial","282","1818108","0.0-11.0-247.0","","","","false","","","","","","","","","","null","","1654.2999999970198","","1","1","null","null","arrowup","[0.325,0.675,0.85,0.15]","","",""
"sailing-trial","283","1822225","0.0-11.0-248.0","","","","false","","","","","","","","","","602","","101.20000000298023","","2","1","arrowright","1","arrowleft","[0.325,0.675,0.85,0.15]","","",""
"sailing-trial","284","1826728","0.0-11.0-249.0","","","","false","","","","","","","","","","null","","2420.2000000029802","","3","0","null","null","arrowup","[0.325,0.675,0.85,0.15]","","",""
"sailing-trial","285","1834425","0.0-11.0-250.0","","","","false","","","","","","","","","","994.7000000029802","","2068.4000000059605","","0","1","arrowleft","0","arrowleft","[0.325,0.675,0.85,0.15]","","",""
"sailing-trial","286","1837879","0.0-11.0-251.0","","","","false","","","","","","","","","","null","","1323.2999999970198","","0","0","null","null","arrowup","[0.325,0.675,0.85,0.15]","","",""
"sailing-trial","287","1843457","0.0-11.0-252.0","","","","false","","","","","","","","","","490.79999999701977","","501.5","","2","1","arrowright","1","arrowleft","[0.325,0.675,0.85,0.15]","","",""
"sailing-trial","288","1847631","0.0-11.0-253.0","","","","false","","","","","","","","","","null","","2762.6000000089407","","3","0","null","null","arrowup","[0.325,0.675,0.85,0.15]","","",""
"sailing-trial","289","1852893","0.0-11.0-254.0","","","","false","","","","","","","","","","1165.9000000059605","","92.90000000596046","","2","0","arrowright","1","arrowleft","[0.15,0.85,0.675,0.325]","","",""
"sailing-trial","290","1858873","0.0-11.0-255.0","","","","false","","","","","","","","","","null","","1524.4000000059605","","1","1","null","null","arrowup","[0.15,0.85,0.675,0.325]","","",""
"sailing-trial","291","1863707","0.0-11.0-256.0","","","","false","","","","","","","","","","1086.5","","161.20000000298023","","1","1","arrowleft","0","arrowright","[0.15,0.85,0.675,0.325]","","",""
"sailing-trial","292","1868592","0.0-11.0-257.0","","","","false","","","","","","","","","","null","","1891.5","","2","0","null","null","arrowup","[0.15,0.85,0.675,0.325]","","",""
"sailing-trial","293","1874206","0.0-11.0-258.0","","","","false","","","","","","","","","","1649","","190.20000000298023","","1","1","arrowleft","0","arrowright","[0.15,0.85,0.675,0.325]","","",""
"sailing-trial","294","1877590","0.0-11.0-259.0","","","","false","","","","","","","","","","null","","1559","","1","1","null","null","arrowup","[0.15,0.85,0.675,0.325]","","",""
"sailing-trial","295","1882823","0.0-11.0-260.0","","","","false","","","","","","","","","","1554.8999999910593","","269.20000000298023","","1","1","arrowleft","0","arrowright","[0.15,0.85,0.675,0.325]","","",""
"sailing-trial","296","1886673","0.0-11.0-261.0","","","","false","","","","","","","","","","null","","1983.7999999970198","","1","1","null","null","arrowup","[0.15,0.85,0.675,0.325]","","",""
"sailing-trial","297","1890940","0.0-11.0-262.0","","","","false","","","","","","","","","","847.5","","275.20000000298023","","1","1","arrowleft","0","arrowright","[0.15,0.85,0.675,0.325]","","",""
"sailing-trial","298","1893871","0.0-11.0-263.0","","","","false","","","","","","","","","","null","","1496.4000000059605","","0","0","null","null","arrowup","[0.15,0.85,0.675,0.325]","","",""
"sailing-trial","299","1899024","0.0-11.0-264.0","","","","false","","","","","","","","","","644.7999999970198","","1170.2999999970198","","1","1","arrowleft","0","arrowright","[0.15,0.85,0.675,0.325]","","",""
"sailing-trial","300","1901957","0.0-11.0-265.0","","","","false","","","","","","","","","","null","","1759.699999988079","","2","0","null","null","arrowup","[0.15,0.85,0.675,0.325]","","",""
"sailing-trial","301","1906156","0.0-11.0-266.0","","","","false","","","","","","","","","","829.7000000029802","","278.20000000298023","","1","1","arrowleft","0","arrowright","[0.15,0.85,0.675,0.325]","","",""
"sailing-trial","302","1910520","0.0-11.0-267.0","","","","false","","","","","","","","","","null","","1895.5","","0","0","null","null","arrowup","[0.15,0.85,0.675,0.325]","","",""
"sailing-trial","303","1914574","0.0-11.0-268.0","","","","false","","","","","","","","","","718.2000000029802","","72.5","","1","1","arrowleft","0","arrowright","[0.15,0.85,0.675,0.325]","","",""
"sailing-trial","304","1918158","0.0-11.0-269.0","","","","false","","","","","","","","","","null","","1344","","1","1","null","null","arrowup","[0.15,0.85,0.675,0.325]","","",""
"sailing-trial","305","1922226","0.0-11.0-270.0","","","","false","","","","","","","","","","996.7999999970198","","414.3999999910593","","1","1","arrowleft","0","arrowright","[0.15,0.85,0.675,0.325]","","",""
"sailing-trial","306","1925845","0.0-11.0-271.0","","","","false","","","","","","","","","","null","","1579.2000000029802","","2","1","null","null","arrowup","[0.15,0.85,0.675,0.325]","","",""
"sailing-trial","307","1931063","0.0-11.0-272.0","","","","false","","","","","","","","","","1091.7999999970198","","353.09999999403954","","1","1","arrowleft","0","arrowright","[0.15,0.85,0.675,0.325]","","",""
"sailing-trial","308","1934179","0.0-11.0-273.0","","","","false","","","","","","","","","","null","","1419.8999999910593","","2","0","null","null","arrowup","[0.15,0.85,0.675,0.325]","","",""
"sailing-trial","309","1939836","0.0-11.0-274.0","","","","false","","","","","","","","","","1220.699999988079","","398.20000000298023","","1","0","arrowleft","0","arrowright","[0.325,0.675,0.85,0.15]","","",""
"sailing-trial","310","1944200","0.0-11.0-275.0","","","","false","","","","","","","","","","null","","1797","","2","1","null","null","arrowup","[0.325,0.675,0.85,0.15]","","",""
"sailing-trial","311","1950768","0.0-11.0-276.0","","","","false","","","","","","","","","","725.5999999940395","","2416.5","","1","1","arrowleft","0","arrowright","[0.325,0.675,0.85,0.15]","","",""
"sailing-trial","312","1955404","0.0-11.0-277.0","","","","false","","","","","","","","","","null","","1612.6000000089407","","0","0","null","null","arrowup","[0.325,0.675,0.85,0.15]","","",""
"sailing-trial","313","1960820","0.0-11.0-278.0","","","","false","","","","","","","","","","921","","483.79999999701977","","1","0","arrowleft","0","arrowright","[0.325,0.675,0.85,0.15]","","",""
"sailing-trial","314","1966304","0.0-11.0-279.0","","","","false","","","","","","","","","","null","","2465.2000000029802","","3","0","null","null","arrowup","[0.325,0.675,0.85,0.15]","","",""
"sailing-trial","315","1970651","0.0-11.0-280.0","","","","false","","","","","","","","","","1070","","541.2000000029802","","1","1","arrowleft","0","arrowright","[0.325,0.675,0.85,0.15]","","",""
"sailing-trial","316","1975452","0.0-11.0-281.0","","","","false","","","","","","","","","","null","","2602.7999999970198","","2","1","null","null","arrowup","[0.325,0.675,0.85,0.15]","","",""
"sailing-trial","317","1981018","0.0-11.0-282.0","","","","false","","","","","","","","","","1712.7000000029802","","79","","1","1","arrowleft","0","arrowright","[0.325,0.675,0.85,0.15]","","",""
"sailing-trial","318","1984552","0.0-11.0-283.0","","","","false","","","","","","","","","","null","","1504","","1","1","null","null","arrowup","[0.325,0.675,0.85,0.15]","","",""
"sailing-trial","319","1991439","0.0-11.0-284.0","","","","false","","","","","","","","","","1369.800000011921","","1503.7000000029802","","1","0","arrowleft","0","arrowright","[0.325,0.675,0.85,0.15]","","",""
"sailing-trial","320","1995469","0.0-11.0-285.0","","","","false","","","","","","","","","","null","","1893.5","","3","1","null","null","arrowup","[0.325,0.675,0.85,0.15]","","",""
"sailing-trial","321","2004636","0.0-11.0-286.0","","","","false","","","","","","","","","","1608.2000000029802","","3477.2999999970198","","1","1","arrowleft","0","arrowright","[0.325,0.675,0.85,0.15]","","",""
"sailing-trial","322","2009304","0.0-11.0-287.0","","","","false","","","","","","","","","","null","","1644.9000000059605","","0","0","null","null","arrowup","[0.325,0.675,0.85,0.15]","","",""
"sailing-trial","323","2017688","0.0-11.0-288.0","","","","false","","","","","","","","","","1768.2999999970198","","2615.2999999970198","","1","0","arrowleft","0","arrowright","[0.325,0.675,0.85,0.15]","","",""
"sailing-trial","324","2024518","0.0-11.0-289.0","","","","false","","","","","","","","","","null","","2641","","2","1","null","null","arrowup","[0.325,0.675,0.85,0.15]","","",""
"sailing-trial","325","2031071","0.0-11.0-290.0","","","","false","","","","","","","","","","1277.7000000029802","","1253.9000000059605","","3","0","arrowright","1","arrowright","[0.325,0.675,0.85,0.15]","","",""
"sailing-trial","326","2042619","0.0-11.0-291.0","","","","false","","","","","","","","","","null","","1481.0999999940395","","0","1","null","null","arrowup","[0.325,0.675,0.85,0.15]","","",""
"sailing-trial","327","2048754","0.0-11.0-292.0","","","","false","","","","","","","","","","2031.2000000029802","","82.29999999701977","","1","0","arrowleft","0","arrowright","[0.675,0.325,0.15,0.85]","","",""
"sailing-trial","328","2052408","0.0-11.0-293.0","","","","false","","","","","","","","","","null","","1458.7000000029802","","3","0","null","null","arrowup","[0.675,0.325,0.15,0.85]","","",""
"sailing-trial","329","2057372","0.0-11.0-294.0","","","","false","","","","","","","","","","900.2999999970198","","16.100000008940697","","1","0","arrowleft","0","arrowright","[0.675,0.325,0.15,0.85]","","",""
"sailing-trial","330","2061036","0.0-11.0-295.0","","","","false","","","","","","","","","","null","","1319.5999999940395","","0","1","null","null","arrowup","[0.675,0.325,0.15,0.85]","","",""
"sailing-trial","331","2069404","0.0-11.0-296.0","","","","false","","","","","","","","","","1685.6000000089407","","2654.7999999970198","","2","0","arrowright","1","arrowleft","[0.675,0.325,0.15,0.85]","","",""
"sailing-trial","332","2076867","0.0-11.0-297.0","","","","false","","","","[{""event"":""fullscreenenter"",""trial"":3,""time"":7065},{""event"":""blur"",""trial"":25,""time"":379503},{""event"":""focus"",""trial"":25,""time"":384351},{""event"":""fullscreenexit"",""trial"":333,""time"":2076899}]","false","","","","","null","","1606.5999999940395","","0","1","null","null","arrowup","[0.675,0.325,0.15,0.85]","","",""
"sailing-trial","333","2083035","0.0-11.0-298.0","","","","false","","","","","","","","","","873.6000000089407","","235.6000000089407","","0","1","arrowleft","0","arrowleft","[0.675,0.325,0.15,0.85]","","",""
"sailing-trial","334","2086129","0.0-11.0-299.0","","","","false","","","","","","","","","","null","","1616","","2","0","null","null","arrowup","[0.675,0.325,0.15,0.85]","","",""
"sailing-trial","335","2090735","0.0-11.0-300.0","","","","false","","","","","","","","","","747.8000000119209","","442.5","","0","1","arrowleft","0","arrowleft","[0.675,0.325,0.15,0.85]","","",""
"sailing-trial","336","2096468","0.0-11.0-301.0","","","","false","","","","","","","","","","null","","1940.699999988079","","3","1","null","null","arrowup","[0.675,0.325,0.15,0.85]","","",""
"sailing-trial","337","2101385","0.0-11.0-302.0","","","","false","","","","","","","","","","767.6999999880791","","327","","0","1","arrowleft","0","arrowleft","[0.675,0.325,0.15,0.85]","","",""
"sailing-trial","338","2104156","0.0-11.0-303.0","","","","false","","","","","","","","","","null","","1190.3999999910593","","3","0","null","null","arrowup","[0.675,0.325,0.15,0.85]","","",""
"sailing-trial","339","2109886","0.0-11.0-304.0","","","","false","","","","","","","","","","2191.8999999910593","","394.8999999910593","","0","1","arrowleft","0","arrowleft","[0.675,0.325,0.15,0.85]","","",""
"sailing-trial","340","2114102","0.0-11.0-305.0","","","","false","","","","","","","","","","null","","2133.2000000029802","","1","1","null","null","arrowup","[0.675,0.325,0.15,0.85]","","",""
"sailing-trial","341","2120386","0.0-11.0-306.0","","","","false","","","","","","","","","","596.3999999910593","","3055.7999999970198","","0","1","arrowleft","0","arrowleft","[0.675,0.325,0.15,0.85]","","",""
"sailing-trial","342","2123006","0.0-11.0-307.0","","","","false","","","","","","","","","","null","","1327.6000000089407","","2","0","null","null","arrowup","[0.675,0.325,0.15,0.85]","","",""
"sailing-trial","343","2127095","0.0-11.0-308.0","","","","false","","","","","","","","","","1259.4000000059605","","770.7999999970198","","0","0","arrowleft","0","arrowleft","[0.675,0.325,0.15,0.85]","","",""
"sailing-trial","344","2131786","0.0-11.0-309.0","","","","false","","","","","","","","","","null","","1858.4000000059605","","1","1","null","null","arrowup","[0.675,0.325,0.15,0.85]","","",""
"sailing-trial","345","2136935","0.0-11.0-310.0","","","","false","","","","","","","","","","657.5","","532.0999999940395","","0","1","arrowleft","0","arrowleft","[0.675,0.325,0.15,0.85]","","",""
"sailing-trial","346","2145762","0.0-11.0-311.0","","","","false","","","","","","","","","","null","","6714.5","","2","0","null","null","arrowup","[0.675,0.325,0.15,0.85]","","",""
"sailing-trial","347","2151735","0.0-11.0-312.0","","","","false","","","","","","","","","","1340.2000000029802","","440.40000000596046","","0","1","arrowleft","0","arrowleft","[0.85,0.15,0.325,0.675]","","",""
"sailing-trial","348","2155500","0.0-11.0-313.0","","","","false","","","","","","","","","","null","","1343.0999999940395","","1","0","null","null","arrowup","[0.85,0.15,0.325,0.675]","","",""
"sailing-trial","349","2160820","0.0-11.0-314.0","","","","false","","","","","","","","","","1245.6000000089407","","66.90000000596046","","0","0","arrowleft","0","arrowleft","[0.85,0.15,0.325,0.675]","","",""
"sailing-trial","350","2164986","0.0-11.0-315.0","","","","false","","","","","","","","","","null","","1431.199999988079","","1","1","null","null","arrowup","[0.85,0.15,0.325,0.675]","","",""
"sailing-trial","351","2169971","0.0-11.0-316.0","","","","false","","","","","","","","","","697.2999999970198","","281.90000000596046","","0","0","arrowleft","0","arrowleft","[0.85,0.15,0.325,0.675]","","",""
"sailing-trial","352","2173712","0.0-11.0-317.0","","","","false","","","","","","","","","","null","","1610.2000000029802","","3","0","null","null","arrowup","[0.85,0.15,0.325,0.675]","","",""
"sailing-trial","353","2178739","0.0-11.0-318.0","","","","false","","","","","","","","","","730","","295.1000000089407","","1","0","arrowleft","0","arrowright","[0.85,0.15,0.325,0.675]","","",""
"sailing-trial","354","2184736","0.0-11.0-319.0","","","","false","","","","","","","","","","null","","2996.8999999910593","","1","0","null","null","arrowup","[0.85,0.15,0.325,0.675]","","",""
"sailing-trial","355","2191584","0.0-11.0-320.0","","","","false","","","","","","","","","","735.2999999970198","","1193.9000000059605","","0","1","arrowleft","0","arrowleft","[0.85,0.15,0.325,0.675]","","",""
"sailing-trial","356","2196487","0.0-11.0-321.0","","","","false","","","","","","","","","","null","","1899","","1","0","null","null","arrowup","[0.85,0.15,0.325,0.675]","","",""
"sailing-trial","357","2202302","0.0-11.0-322.0","","","","false","","","","","","","","","","2062","","761","","0","1","arrowleft","0","arrowleft","[0.85,0.15,0.325,0.675]","","",""
"sailing-trial","358","2205919","0.0-11.0-323.0","","","","false","","","","","","","","","","null","","1882","","0","1","null","null","arrowup","[0.85,0.15,0.325,0.675]","","",""
"sailing-trial","359","2211653","0.0-11.0-324.0","","","","false","","","","","","","","","","605.8000000119209","","2367.2000000029802","","0","0","arrowleft","0","arrowleft","[0.85,0.15,0.325,0.675]","","",""
"sailing-trial","360","2214882","0.0-11.0-325.0","","","","false","","","","","","","","","","null","","1855.7000000029802","","3","0","null","null","arrowup","[0.85,0.15,0.325,0.675]","","",""
"sailing-trial","361","2218971","0.0-11.0-326.0","","","","false","","","","","","","","","","818.7000000029802","","202.29999999701977","","0","0","arrowleft","0","arrowleft","[0.85,0.15,0.325,0.675]","","",""
"sailing-trial","362","2225302","0.0-11.0-327.0","","","","false","","","","","","","","","","null","","2407.5","","0","1","null","null","arrowup","[0.85,0.15,0.325,0.675]","","",""
"sailing-trial","363","2231503","0.0-11.0-328.0","","","","false","","","","","","","","","","1038.1000000089407","","1114.300000011921","","2","0","arrowright","1","arrowleft","[0.85,0.15,0.325,0.675]","","",""
"sailing-trial","364","2235719","0.0-11.0-329.0","","","","false","","","","","","","","","","null","","1306.7999999970198","","2","1","null","null","arrowup","[0.85,0.15,0.325,0.675]","","",""
"sailing-trial","365","2240751","0.0-11.0-330.0","","","","false","","","","","","","","","","651.5","","663.2999999970198","","2","1","arrowright","1","arrowleft","[0.85,0.15,0.325,0.675]","","",""
"sailing-trial","366","2244435","0.0-11.0-331.0","","","","false","","","","","","","","","","null","","1424.7999999970198","","3","1","null","null","arrowup","[0.85,0.15,0.325,0.675]","","",""
"sailing-trial","367","2253404","0.0-11.0-332.0","","","","false","","","","","","","","","","1323.5999999940395","","3606.7999999970198","","2","0","arrowright","1","arrowleft","[0.85,0.15,0.325,0.675]","","",""
"sailing-trial","368","2258621","0.0-11.0-333.0","","","","false","","","","","","","","","","null","","2215.3999999910593","","1","0","null","null","arrowup","[0.85,0.15,0.325,0.675]","","",""
"sailing-trial","369","2262889","0.0-11.0-334.0","","","","false","","","","","","","","","","188","","23.700000002980232","","2","0","arrowright","1","arrowleft","[0.675,0.325,0.15,0.85]","","",""
"sailing-trial","370","2267905","0.0-11.0-335.0","","","","false","","","","","","","","","","null","","2010.7000000029802","","0","0","null","null","arrowup","[0.675,0.325,0.15,0.85]","","",""
"sailing-trial","371","2272904","0.0-11.0-336.0","","","","false","","","","","","","","","","893.5999999940395","","102.09999999403954","","3","0","arrowright","1","arrowright","[0.675,0.325,0.15,0.85]","","",""
"sailing-trial","372","2277968","0.0-11.0-337.0","","","","false","","","","","","","","","","null","","1559.5999999940395","","3","1","null","null","arrowup","[0.675,0.325,0.15,0.85]","","",""
"sailing-trial","373","2283317","0.0-11.0-338.0","","","","false","","","","","","","","","","648.5999999940395","","603.5","","3","1","arrowright","1","arrowright","[0.675,0.325,0.15,0.85]","","",""
"sailing-trial","374","2286819","0.0-11.0-339.0","","","","false","","","","","","","","","","null","","1371.300000011921","","3","1","null","null","arrowup","[0.675,0.325,0.15,0.85]","","",""
"sailing-trial","375","2292434","0.0-11.0-340.0","","","","false","","","","","","","","","","708.2000000029802","","36","","3","1","arrowright","1","arrowright","[0.675,0.325,0.15,0.85]","","",""
"sailing-trial","376","2297053","0.0-11.0-341.0","","","","false","","","","","","","","","","null","","1620.7999999970198","","3","0","null","null","arrowup","[0.675,0.325,0.15,0.85]","","",""
"sailing-trial","377","2302570","0.0-11.0-342.0","","","","false","","","","","","","","","","1187.5","","306.5","","3","0","arrowright","1","arrowright","[0.675,0.325,0.15,0.85]","","",""
"sailing-trial","378","2306968","0.0-11.0-343.0","","","","false","","","","","","","","","","null","","2056.5999999940395","","0","1","null","null","arrowup","[0.675,0.325,0.15,0.85]","","",""
"sailing-trial","379","2312868","0.0-11.0-344.0","","","","false","","","","","","","","","","1453.9000000059605","","289.29999999701977","","0","1","arrowleft","0","arrowleft","[0.675,0.325,0.15,0.85]","","",""
"sailing-trial","380","2316968","0.0-11.0-345.0","","","","false","","","","","","","","","","null","","1804.7999999970198","","1","1","null","null","arrowup","[0.675,0.325,0.15,0.85]","","",""
"sailing-trial","381","2321917","0.0-11.0-346.0","","","","false","","","","","","","","","","405.5","","605.7000000029802","","0","1","arrowleft","0","arrowleft","[0.675,0.325,0.15,0.85]","","",""
"sailing-trial","382","2326067","0.0-11.0-347.0","","","","false","","","","","","","","","","null","","1667.8999999910593","","3","1","null","null","arrowup","[0.675,0.325,0.15,0.85]","","",""
"sailing-trial","383","2331802","0.0-11.0-348.0","","","","false","","","","","","","","","","1866.2000000029802","","212","","0","1","arrowleft","0","arrowleft","[0.675,0.325,0.15,0.85]","","",""
"sailing-trial","384","2335462","0.0-11.0-349.0","","","","false","","","","","","","","","","null","","1873.5","","1","0","null","null","arrowup","[0.675,0.325,0.15,0.85]","","",""
"sailing-trial","385","2340850","0.0-11.0-350.0","","","","false","","","","","","","","","","1168","","243","","0","1","arrowleft","0","arrowleft","[0.325,0.675,0.85,0.15]","","",""
"sailing-trial","386","2346604","0.0-11.0-351.0","","","","false","","","","","","","","","","null","","2742.4000000059605","","3","0","null","null","arrowup","[0.325,0.675,0.85,0.15]","","",""
"sailing-trial","387","2352670","0.0-11.0-352.0","","","","false","","","","","","","","","","1570.699999988079","","465","","0","0","arrowleft","0","arrowleft","[0.325,0.675,0.85,0.15]","","",""
"sailing-trial","388","2357371","0.0-11.0-353.0","","","","false","","","","","","","","","","null","","1698.3999999910593","","1","0","null","null","arrowup","[0.325,0.675,0.85,0.15]","","",""
"sailing-trial","389","2362952","0.0-11.0-354.0","","","","false","","","","","","","","","","1556.5","","178.09999999403954","","0","1","arrowleft","0","arrowleft","[0.325,0.675,0.85,0.15]","","",""
"sailing-trial","390","2367338","0.0-11.0-355.0","","","","false","","","","","","","","","","null","","1373.4000000059605","","3","0","null","null","arrowup","[0.325,0.675,0.85,0.15]","","",""
"sailing-trial","391","2372153","0.0-11.0-356.0","","","","false","","","","","","","","","","490.5","","301.1000000089407","","0","0","arrowleft","0","arrowleft","[0.325,0.675,0.85,0.15]","","",""
"sailing-trial","392","2376454","0.0-11.0-357.0","","","","false","","","","","","","","","","null","","1282.5","","3","0","null","null","arrowup","[0.325,0.675,0.85,0.15]","","",""
"sailing-trial","393","2382035","0.0-11.0-358.0","","","","false","","","","","","","","","","1075.5","","118.3999999910593","","2","1","arrowright","1","arrowleft","[0.325,0.675,0.85,0.15]","","",""
"sailing-trial","394","2387370","0.0-11.0-359.0","","","","false","","","","","","","","","","null","","2323.0999999940395","","2","0","null","null","arrowup","[0.325,0.675,0.85,0.15]","","",""
"sailing-trial","395","2397500","0.0-11.0-360.0","","","","false","","","","","","","","","","2986.3999999910593","","399.79999999701977","","2","1","arrowright","1","arrowleft","[0.325,0.675,0.85,0.15]","","",""
"sailing-trial","396","2401431","0.0-11.0-361.0","","","","false","","","","","","","","","","null","","2014.5","","0","0","null","null","arrowup","[0.325,0.675,0.85,0.15]","","",""
"sailing-trial","397","2407249","0.0-11.0-362.0","","","","false","","","","","","","","","","1417.5","","592.3999999910593","","2","1","arrowright","1","arrowleft","[0.325,0.675,0.85,0.15]","","",""
"sailing-trial","398","2412054","0.0-11.0-363.0","","","","false","","","","","","","","","","null","","1808.2999999970198","","0","0","null","null","arrowup","[0.325,0.675,0.85,0.15]","","",""
"sailing-trial","399","2418050","0.0-11.0-364.0","","","","false","","","","","","","","","","773.8000000119209","","320.20000000298023","","2","1","arrowright","1","arrowleft","[0.325,0.675,0.85,0.15]","","",""
"sailing-trial","400","2423601","0.0-11.0-365.0","","","","false","","","","","","","","","","null","","2526.2999999970198","","1","0","null","null","arrowup","[0.325,0.675,0.85,0.15]","","",""
"sailing-trial","401","2428586","0.0-11.0-366.0","","","","false","","","","","","","","","","792.3999999910593","","178.3999999910593","","2","0","arrowright","1","arrowleft","[0.325,0.675,0.85,0.15]","","",""
"sailing-trial","402","2434771","0.0-11.0-367.0","","","","false","","","","","","","","","","null","","3180.9000000059605","","0","0","null","null","arrowup","[0.325,0.675,0.85,0.15]","","",""
"sailing-trial","403","2440953","0.0-11.0-368.0","","","","false","","","","","","","","","","761.7000000029802","","1353.1000000089407","","2","0","arrowright","1","arrowleft","[0.85,0.15,0.325,0.675]","","",""
"sailing-trial","404","2445537","0.0-11.0-369.0","","","","false","","","","","","","","","","null","","1578.0999999940395","","3","0","null","null","arrowup","[0.85,0.15,0.325,0.675]","","",""
"sailing-trial","405","2465291","0.0-11.0-370.0","","","","true","","","","","","","","","","2809.5999999940395","","904.6000000089407","","2","1","arrowright","1","arrowleft","[0.85,0.15,0.325,0.675]","","",""
"sailing-trial","406","2473385","0.0-11.0-371.0","","","","false","","","","","","","","","","null","","2095","","0","1","null","null","arrowup","[0.85,0.15,0.325,0.675]","","",""
"sailing-trial","407","2479167","0.0-11.0-372.0","","","","false","","","","","","","","","","1266.9000000059605","","295.3999999910593","","2","1","arrowright","1","arrowleft","[0.85,0.15,0.325,0.675]","","",""
"sailing-trial","408","2483026","0.0-11.0-373.0","","","","false","","","","","","","","","","null","","2377.1000000089407","","3","0","null","null","arrowup","[0.85,0.15,0.325,0.675]","","",""
"sailing-trial","409","2487218","0.0-11.0-374.0","","","","false","","","","","","","","","","1689.6000000089407","","6.200000002980232","","2","0","arrowright","1","arrowleft","[0.85,0.15,0.325,0.675]","","",""
"sailing-trial","410","2490883","0.0-11.0-375.0","","","","false","","","","","","","","","","null","","1540.0999999940395","","0","1","null","null","arrowup","[0.85,0.15,0.325,0.675]","","",""
"sailing-trial","411","2495234","0.0-11.0-376.0","","","","false","","","","","","","","","","675.5","","432.79999999701977","","0","1","arrowleft","0","arrowleft","[0.85,0.15,0.325,0.675]","","",""
"sailing-trial","412","2500118","0.0-11.0-377.0","","","","false","","","","","","","","","","null","","2475.5","","2","1","null","null","arrowup","[0.85,0.15,0.325,0.675]","","",""
"sailing-trial","413","2506783","0.0-11.0-378.0","","","","false","","","","","","","","","","2156.7000000029802","","362.79999999701977","","0","1","arrowleft","0","arrowleft","[0.85,0.15,0.325,0.675]","","",""
"sailing-trial","414","2511311","0.0-11.0-379.0","","","","false","","","","","","","","","","null","","3325","","2","0","null","null","arrowup","[0.85,0.15,0.325,0.675]","","",""
"sailing-trial","415","2518020","0.0-11.0-380.0","","","","false","","","","","","","","","","716","","1947.1000000089407","","0","0","arrowleft","0","arrowleft","[0.85,0.15,0.325,0.675]","","",""
"sailing-trial","416","2522684","0.0-11.0-381.0","","","","false","","","","","","","","","","null","","1164.7000000029802","","3","1","null","null","arrowup","[0.85,0.15,0.325,0.675]","","",""
"sailing-trial","417","2530018","0.0-11.0-382.0","","","","false","","","","","","","","","","1539.7000000029802","","787.7999999970198","","0","1","arrowleft","0","arrowleft","[0.85,0.15,0.325,0.675]","","",""
"sailing-trial","418","2534902","0.0-11.0-383.0","","","","false","","","","","","","","","","null","","1872.3999999910593","","2","0","null","null","arrowup","[0.85,0.15,0.325,0.675]","","",""
"sailing-trial","419","2540317","0.0-11.0-384.0","","","","false","","","","","","","","","","1654","","294.90000000596046","","0","1","arrowleft","0","arrowleft","[0.675,0.325,0.15,0.85]","","",""
"sailing-trial","420","2546551","0.0-11.0-385.0","","","","false","","","","","","","","","","null","","1964.0999999940395","","3","1","null","null","arrowup","[0.675,0.325,0.15,0.85]","","",""
"sailing-trial","421","2552234","0.0-11.0-386.0","","","","false","","","","","","","","","","1190.0999999940395","","20.400000005960464","","0","1","arrowleft","0","arrowleft","[0.675,0.325,0.15,0.85]","","",""
"sailing-trial","422","2556650","0.0-11.0-387.0","","","","false","","","","","","","","","","null","","2183.2000000029802","","2","0","null","null","arrowup","[0.675,0.325,0.15,0.85]","","",""
"sailing-trial","423","2562469","0.0-11.0-388.0","","","","false","","","","","","","","","","812.6000000089407","","977.9000000059605","","0","0","arrowleft","0","arrowleft","[0.675,0.325,0.15,0.85]","","",""
"sailing-trial","424","2566450","0.0-11.0-389.0","","","","false","","","","","","","","","","null","","1749.5","","3","1","null","null","arrowup","[0.675,0.325,0.15,0.85]","","",""
"sailing-trial","425","2571603","0.0-11.0-390.0","","","","false","","","","","","","","","","827.8000000119209","","328.19999998807907","","3","0","arrowright","1","arrowright","[0.675,0.325,0.15,0.85]","","",""
"sailing-trial","426","2576253","0.0-11.0-391.0","","","","false","","","","","","","","","","null","","1633.2999999970198","","1","0","null","null","arrowup","[0.675,0.325,0.15,0.85]","","",""
"sailing-trial","427","2581651","0.0-11.0-392.0","","","","false","","","","","","","","","","159.5","","1490.199999988079","","3","1","arrowright","1","arrowright","[0.675,0.325,0.15,0.85]","","",""
"sailing-trial","428","2586216","0.0-11.0-393.0","","","","false","","","","","","","","","","null","","1557.9000000059605","","3","1","null","null","arrowup","[0.675,0.325,0.15,0.85]","","",""
"sailing-trial","429","2590884","0.0-11.0-394.0","","","","false","","","","","","","","","","947.7999999970198","","123.5","","3","1","arrowright","1","arrowright","[0.675,0.325,0.15,0.85]","","",""
"sailing-trial","430","2595283","0.0-11.0-395.0","","","","false","","","","","","","","","","null","","2398.5","","3","1","null","null","arrowup","[0.675,0.325,0.15,0.85]","","",""
"sailing-trial","431","2600033","0.0-11.0-396.0","","","","false","","","","","","","","","","795.7000000029802","","983.7000000029802","","3","1","arrowright","1","arrowright","[0.675,0.325,0.15,0.85]","","",""
"sailing-trial","432","2602922","0.0-11.0-397.0","","","","false","","","","","","","","","","null","","1396","","1","0","null","null","arrowup","[0.675,0.325,0.15,0.85]","","",""
"sailing-trial","433","2608482","0.0-11.0-398.0","","","","false","","","","","","","","","","1823.5999999940395","","729.7000000029802","","3","1","arrowright","1","arrowright","[0.675,0.325,0.15,0.85]","","",""
"sailing-trial","434","2612184","0.0-11.0-399.0","","","","false","","","","","","","","","","null","","1718","","0","1","null","null","arrowup","[0.675,0.325,0.15,0.85]","","",""
"instructions","435","2612857","0.0-12.0","","","","","","","","","","671.2000000029802","","","","","","","","","","","","","","","","[{""page_index"":0,""viewing_time"":671}]"
"survey-debrief","436","2772034","0.0-13.0","","","","","","","","","","159173.70000000298","","","","","","","","","","","","","","{""difficulty"":""3"",""fun"":""4"",""clarity"":""4"",""strategy"":""no"",""feedback"":""""}","",""
