"trial_type","trial_index","time_elapsed","internal_node_id","value","metadata","success","timeout","failed_images","failed_audio","failed_video","browser_interaction","low_quality","rt","stimulus","response","button_pressed","island_rt","island_response","boat_rt","boat_response","boat","reward","island_key","island","boat_key","reward_probabilities","responses","num_errors","view_history"
"pavlovia","0","9","0.0-0.0","","","","","","","","","","","","","","","","","","","","","","","","","",""
"call-function","1","11","0.0-1.0","","{""task_version"":""sailing_part1_v1"",""task_condition"":""good"",""boats"":[""B"",""C"",""A"",""D""],""boats_demo"":[""F"",""H"",""G"",""E""],""islands"":[""B"",""A""],""subject_id"":""14759"",""age"":""20"",""gender"":""Male""}","","","","","","","","","","","","","","","","","","","","","","","",""
"preload","2","2900","0.0-2.0","","","true","false","[]","[]","[]","[{""event"":""fullscreenenter"",""trial"":3,""time"":8719}]","false","","","","","","","","","","","","","","","","",""
"fullscreen","3","9681","0.0-3.0","","","true","","","","","[{""event"":""fullscreenenter"",""trial"":3,""time"":8719},{""event"":""fullscreenexit"",""trial"":4,""time"":9912}]","false","","","","","","","","","","","","","","","","",""
"audio-keyboard-response","4","12418","0.0-4.0-0.0","","","","","","","","","","2410.6666666666665","audio/beep_loop.wav"," ","","","","","","","","","","","","","",""
"audio-test","5","15497","0.0-4.0-1.0","","","","","","","","","","null","audio/turtle.mp3","","3","","","","","","","","","","","","",""
"audio-test","6","17507","0.0-4.0-2.0","","","","","","","","","","null","audio/shark.mp3","","2","","","","","","","","","","","","",""
"sailing-instructions","7","68667","0.0-5.0-0.0-0.0","","","","","","","","","","","","","","null","null","null","null","null","null","","","","","","",""
"sailing-trial","8","79203","0.0-5.0-0.0-1.0-0.0","","","","false","","","","","","","","","","9312.299999952316","","null","","null","null","arrowleft","0","null","null","","",""
"sailing-trial","9","81685","0.0-5.0-0.0-1.0-1.0","","","","false","","","","","","","","","","1274.9000000357628","","null","","null","null","arrowright","1","null","null","","",""
"sailing-trial","10","84371","0.0-5.0-0.0-1.0-2.0","","","","false","","","","","","","","","","1476.4000000357628","","null","","null","null","arrowright","1","null","null","","",""
"sailing-instructions","11","149393","0.0-5.0-0.0-2.0","","","","","","","","","","","","","","null","null","null","null","0","null","","","","","","",""
"sailing-trial","12","156896","0.0-5.0-0.0-3.0-0.0","","","","false","","","","","","","","","","null","","3344.300000011921","","2","1","null","null","arrowleft","[1,1,1,1]","","",""
"sailing-trial","13","162431","0.0-5.0-0.0-3.0-1.0","","","","false","","","","","","","","","","null","","1725.5999999642372","","3","1","null","null","arrowright","[1,1,1,1]","","",""
"sailing-trial","14","169141","0.0-5.0-0.0-3.0-2.0","","","","false","","","","","","","","","","null","","3795.100000023842","","2","0","null","null","arrowleft","[0,0,0,0]","","",""
"sailing-instructions","15","179801","0.0-5.0-0.0-4.0","","","","","","","","","","","","","","null","null","null","null","null","null","","","","","","",""
"sailing-comprehension","16","209187","0.0-5.0-0.0-5.0","","","","","","","","","","24178.19999998808","","","","","","","","","","","","","","[""true"",""true"",""false"",""false""]","1",""
"sailing-instructions","17","255216","0.0-5.0-0.1-0.1","","","","","","","","","","","","","","null","null","null","null","null","null","","","","","","",""
"sailing-trial","18","258151","0.0-5.0-0.1-1.1-0.1","","","","false","","","","","","","","","","1658.300000011921","","null","","null","null","arrowleft","0","null","null","","",""
"sailing-trial","19","263651","0.0-5.0-0.1-1.1-1.1","","","","false","","","","","","","","","","4210.700000047684","","null","","null","null","arrowright","1","null","null","","",""
"sailing-trial","20","266272","0.0-5.0-0.1-1.1-2.1","","","","false","","","","","","","","","","1358.4000000357628","","null","","null","null","arrowright","1","null","null","","",""
"sailing-instructions","21","337866","0.0-5.0-0.1-2.1","","","","","","","","","","","","","","null","null","null","null","0","null","","","","","","",""
"sailing-trial","22","344811","0.0-5.0-0.1-3.1-0.1","","","","false","","","","","","","","","","null","","2096.099999964237","","2","1","null","null","arrowleft","[1,1,1,1]","","",""
"sailing-trial","23","354783","0.0-5.0-0.1-3.1-1.1","","","","false","","","","","","","","","","null","","3901.300000011921","","3","1","null","null","arrowright","[1,1,1,1]","","",""
"sailing-trial","24","360467","0.0-5.0-0.1-3.1-2.1","","","","false","","","","","","","","","","null","","2033","","3","0","null","null","arrowright","[0,0,0,0]","","",""
"sailing-instructions","25","379526","0.0-5.0-0.1-4.1","","","","","","","","","","","","","","null","null","null","null","null","null","","","","","","",""
"sailing-comprehension","26","396184","0.0-5.0-0.1-5.1","","","","","","","","","","10528.900000035763","","","","","","","","","","","","","","[""true"",""true"",""false"",""true""]","0",""
"sailing-instructions","27","531033","0.0-6.0-0.0-0.0","","","","","","","","","","","","","","null","null","null","null","null","null","","","","","","",""
"sailing-comprehension","28","547138","0.0-6.0-0.0-1.0","","","","","","","","","","12474.100000023842","","","","","","","","","","","","","","[""true"",""true"",""true""]","1",""
"sailing-instructions","29","646574","0.0-6.0-0.1-0.1","","","","","","","","","","","","","","null","null","null","null","null","null","","","","","","",""
"sailing-comprehension","30","677210","0.0-6.0-0.1-1.1","","","","","","","","[{""event"":""fullscreenenter"",""trial"":3,""time"":8719},{""event"":""fullscreenexit"",""trial"":4,""time"":9912},{""event"":""blur"",""trial"":31,""time"":713597},{""event"":""focus"",""trial"":31,""time"":728660}]","true","26447.69999998808","","","","","","","","","","","","","","[""true"",""false"",""false""]","1",""
"sailing-instructions","31","729999","0.0-7.0-0.0-0.0","","","","","","","","","","","","","","null","null","null","null","null","null","","","","","","",""
"sailing-trial","32","739847","0.0-7.0-0.0-1.0-0.0","","","","false","","","","","","","","","","null","","6815","","0","0","null","null","arrowup","[0.2,0.8,0.2,0.8]","","",""
"sailing-trial","33","756541","0.0-7.0-0.0-1.0-1.0","","","","false","","","","","","","","","","null","","10930.5","","1","1","null","null","arrowup","[0.2,0.8,0.2,0.8]","","",""
"sailing-trial","34","768058","0.0-7.0-0.0-1.0-2.0","","","","false","","","","","","","","","","null","","8454.800000011921","","2","0","null","null","arrowup","[0.2,0.8,0.2,0.8]","","",""
"sailing-trial","35","779927","0.0-7.0-0.0-1.0-3.0","","","","false","","","","","","","","","","null","","2021.699999988079","","3","1","null","null","arrowup","[0.2,0.8,0.2,0.8]","","",""
"sailing-comprehension","36","884240","0.0-7.0-0.0-2.0","","","","","","","","","","19291.899999976158","","","","","","","","","","","","","","[""false""]","0",""
"sailing-instructions","37","922209","0.0-8.0-0.0-0.0","","","","","","","","","","","","","","null","null","null","null","null","null","","","","","","",""
"sailing-comprehension","38","925942","0.0-8.0-0.0-1.0","","","","","","","","","","2007.2999999523163","","","","","","","","","","","","","","[""true""]","0",""
"sailing-instructions","39","1045708","0.0-9.0-0.0-0.0","","","","","","","","","","","","","","null","null","null","null","null","null","","","","","","",""
"sailing-trial","40","1051542","0.0-9.0-0.0-1.0-0.0","","","","false","","","","","","","","","","1292.7999999523163","","33","","1","1","arrowleft","0","arrowright","[0.2,0.8,0.2,0.8]","","",""
"sailing-trial","41","1061351","0.0-9.0-0.0-1.0-1.0","","","","false","","","","","","","","","","5448.800000011921","","928","","0","0","arrowleft","0","arrowleft","[0.2,0.8,0.2,0.8]","","",""
"sailing-trial","42","1065984","0.0-9.0-0.0-1.0-2.0","","","","false","","","","","","","","","","null","","2673.199999988079","","0","0","null","null","arrowup","[0.2,0.8,0.2,0.8]","","",""
"sailing-trial","43","1071493","0.0-9.0-0.0-1.0-3.0","","","","false","","","","","","","","","","915.8999999761581","","989","","2","0","arrowright","1","arrowleft","[0.2,0.8,0.2,0.8]","","",""
"sailing-trial","44","1079322","0.0-9.0-0.0-1.0-4.0","","","","false","","","","","","","","","","null","","4708.399999976158","","3","1","null","null","arrowup","[0.2,0.8,0.2,0.8]","","",""
"sailing-trial","45","1085948","0.0-9.0-0.0-1.0-5.0","","","","false","","","","","","","","","","1193.800000011921","","1160.699999988079","","2","0","arrowright","1","arrowleft","[0.2,0.8,0.2,0.8]","","",""
"sailing-instructions","46","1118333","0.0-10.0","","","","","","","","","","","","","","null","null","null","null","null","null","","","","","","",""
"sailing-trial","47","1139279","0.0-11.0-0.0","","","","false","","","","","","","","","","9357","","2465.600000023842","","2","1","arrowright","1","arrowleft","[0.325,0.675,0.85,0.15]","","",""
"sailing-trial","48","1143936","0.0-11.0-1.0","","","","false","","","","","","","","","","null","","2072.899999976158","","0","0","null","null","arrowup","[0.325,0.675,0.85,0.15]","","",""
"sailing-trial","49","1150900","0.0-11.0-2.0","","","","false","","","","","","","","","","1392.4000000357628","","1002.5","","0","1","arrowleft","0","arrowleft","[0.325,0.675,0.85,0.15]","","",""
"sailing-trial","50","1155620","0.0-11.0-3.0","","","","false","","","","","","","","","","null","","1670.5999999642372","","3","0","null","null","arrowup","[0.325,0.675,0.85,0.15]","","",""
"sailing-trial","51","1164365","0.0-11.0-4.0","","","","false","","","","","","","","","","1482.800000011921","","2984.800000011921","","2","0","arrowright","1","arrowleft","[0.325,0.675,0.85,0.15]","","",""
"sailing-trial","52","1169217","0.0-11.0-5.0","","","","false","","","","","","","","","","null","","1819.0999999642372","","1","0","null","null","arrowup","[0.325,0.675,0.85,0.15]","","",""
"sailing-trial","53","1185192","0.0-11.0-6.0","","","","false","","","","","","","","","","3138.899999976158","","1658.9000000357628","","1","1","arrowleft","0","arrowright","[0.325,0.675,0.85,0.15]","","",""
"sailing-trial","54","1190980","0.0-11.0-7.0","","","","false","","","","","","","","","","null","","2748.899999976158","","0","0","null","null","arrowup","[0.325,0.675,0.85,0.15]","","",""
"sailing-trial","55","1199697","0.0-11.0-8.0","","","","false","","","","","","","","","","1115","","2309.5","","1","1","arrowleft","0","arrowright","[0.325,0.675,0.85,0.15]","","",""
"sailing-trial","56","1205214","0.0-11.0-9.0","","","","false","","","","","","","","","","null","","2463.2999999523163","","3","0","null","null","arrowup","[0.325,0.675,0.85,0.15]","","",""
"sailing-trial","57","1212856","0.0-11.0-10.0","","","","false","","","","","","","","","","960.7000000476837","","1468.800000011921","","0","1","arrowleft","0","arrowleft","[0.325,0.675,0.85,0.15]","","",""
"sailing-trial","58","1219669","0.0-11.0-11.0","","","","false","","","","","","","","","","null","","2689","","1","1","null","null","arrowup","[0.325,0.675,0.85,0.15]","","",""
"sailing-trial","59","1226070","0.0-11.0-12.0","","","","false","","","","","","","","","","1640.5999999642372","","912.1000000238419","","0","0","arrowleft","0","arrowleft","[0.325,0.675,0.85,0.15]","","",""
"sailing-trial","60","1237173","0.0-11.0-13.0","","","","false","","","","","","","","","","null","","8056.699999988079","","3","0","null","null","arrowup","[0.325,0.675,0.85,0.15]","","",""
"sailing-trial","61","1246200","0.0-11.0-14.0","","","","false","","","","","","","","","","1701","","3046.199999988079","","3","0","arrowright","1","arrowright","[0.325,0.675,0.85,0.15]","","",""
"sailing-trial","62","1255854","0.0-11.0-15.0","","","","false","","","","","","","","","","null","","2979.899999976158","","2","1","null","null","arrowup","[0.325,0.675,0.85,0.15]","","",""
"sailing-trial","63","1260999","0.0-11.0-16.0","","","","false","","","","","","","","","","754.6999999880791","","641.1999999880791","","3","0","arrowright","1","arrowright","[0.325,0.675,0.85,0.15]","","",""
"sailing-trial","64","1266965","0.0-11.0-17.0","","","","false","","","","","","","","","","null","","4033.800000011921","","1","0","null","null","arrowup","[0.325,0.675,0.85,0.15]","","",""
"sailing-trial","65","1271118","0.0-11.0-18.0","","","","false","","","","","","","","","","884.8000000119209","","398.2000000476837","","0","0","arrowleft","0","arrowleft","[0.325,0.675,0.85,0.15]","","",""
"sailing-trial","66","1274847","0.0-11.0-19.0","","","","false","","","","","","","","","","null","","1260.7000000476837","","3","0","null","null","arrowup","[0.325,0.675,0.85,0.15]","","",""
"sailing-trial","67","1279406","0.0-11.0-20.0","","","","false","","","","","","","","","","585.4000000357628","","569.3999999761581","","2","1","arrowright","1","arrowleft","[0.325,0.675,0.85,0.15]","","",""
"sailing-trial","68","1285075","0.0-11.0-21.0","","","","false","","","","","","","","","","null","","1331.6000000238419","","2","1","null","null","arrowup","[0.325,0.675,0.85,0.15]","","",""
"sailing-trial","69","1291043","0.0-11.0-22.0","","","","false","","","","","","","","","","1494.199999988079","","1050.2000000476837","","1","1","arrowleft","0","arrowright","[0.325,0.675,0.85,0.15]","","",""
"sailing-trial","70","1294085","0.0-11.0-23.0","","","","false","","","","","","","","","","null","","1286.699999988079","","3","0","null","null","arrowup","[0.325,0.675,0.85,0.15]","","",""
"sailing-trial","71","1299616","0.0-11.0-24.0","","","","false","","","","","","","","","","1125.6000000238419","","642","","2","1","arrowright","1","arrowleft","[0.15,0.85,0.675,0.325]","","",""
"sailing-trial","72","1304792","0.0-11.0-25.0","","","","false","","","","","","","","","","null","","3257.300000011921","","0","0","null","null","arrowup","[0.15,0.85,0.675,0.325]","","",""
"sailing-trial","73","1309256","0.0-11.0-26.0","","","","false","","","","","","","","","","1083.300000011921","","482.5","","2","0","arrowright","1","arrowleft","[0.15,0.85,0.675,0.325]","","",""
"sailing-trial","74","1314444","0.0-11.0-27.0","","","","false","","","","","","","","","","null","","1281.8999999761581","","1","1","null","null","arrowup","[0.15,0.85,0.675,0.325]","","",""
"sailing-trial","75","1322418","0.0-11.0-28.0","","","","false","","","","","","","","","","2494.7000000476837","","1218.5","","0","0","arrowleft","0","arrowleft","[0.15,0.85,0.675,0.325]","","",""
"sailing-trial","76","1331980","0.0-11.0-29.0","","","","false","","","","","","","","","","null","","3820.600000023842","","2","1","null","null","arrowup","[0.15,0.85,0.675,0.325]","","",""
"sailing-trial","77","1337995","0.0-11.0-30.0","","","","false","","","","","","","","","","910.3999999761581","","1390.5","","2","0","arrowright","1","arrowleft","[0.15,0.85,0.675,0.325]","","",""
"sailing-trial","78","1344500","0.0-11.0-31.0","","","","false","","","","","","","","","","null","","3438.800000011921","","0","0","null","null","arrowup","[0.15,0.85,0.675,0.325]","","",""
"sailing-trial","79","1350235","0.0-11.0-32.0","","","","false","","","","","","","","","","1013.6999999880791","","575.3999999761581","","1","1","arrowleft","0","arrowright","[0.15,0.85,0.675,0.325]","","",""
"sailing-trial","80","1354848","0.0-11.0-33.0","","","","false","","","","","","","","","","null","","1024.2999999523163","","1","1","null","null","arrowup","[0.15,0.85,0.675,0.325]","","",""
"sailing-trial","81","1359524","0.0-11.0-34.0","","","","false","","","","","","","","","","843.1999999880791","","277.2000000476837","","0","0","arrowleft","0","arrowleft","[0.15,0.85,0.675,0.325]","","",""
"sailing-trial","82","1362301","0.0-11.0-35.0","","","","false","","","","","","","","","","null","","1131.800000011921","","1","0","null","null","arrowup","[0.15,0.85,0.675,0.325]","","",""
"sailing-trial","83","1367513","0.0-11.0-36.0","","","","false","","","","","","","","","","676.6999999880791","","761.1999999880791","","2","1","arrowright","1","arrowleft","[0.15,0.85,0.675,0.325]","","",""
"sailing-trial","84","1372269","0.0-11.0-37.0","","","","false","","","","","","","","","","null","","2760.599999964237","","2","0","null","null","arrowup","[0.15,0.85,0.675,0.325]","","",""
"sailing-trial","85","1378285","0.0-11.0-38.0","","","","false","","","","","","","","","","1430.800000011921","","1162.300000011921","","0","0","arrowleft","0","arrowleft","[0.15,0.85,0.675,0.325]","","",""
"sailing-trial","86","1381650","0.0-11.0-39.0","","","","false","","","","","","","","","","null","","1196.3999999761581","","1","1","null","null","arrowup","[0.15,0.85,0.675,0.325]","","",""
"sailing-trial","87","1387814","0.0-11.0-40.0","","","","false","","","","","","","","","","1145.699999988079","","1454.6000000238419","","2","0","arrowright","1","arrowleft","[0.15,0.85,0.675,0.325]","","",""
"sailing-trial","88","1390526","0.0-11.0-41.0","","","","false","","","","","","","","","","null","","950","","3","0","null","null","arrowup","[0.15,0.85,0.675,0.325]","","",""
"sailing-trial","89","1405905","0.0-11.0-42.0","","","","false","","","","","","","","","","2074.800000011921","","4238","","1","1","arrowleft","0","arrowright","[0.325,0.675,0.85,0.15]","","",""
"sailing-trial","90","1415990","0.0-11.0-43.0","","","","false","","","","","","","","","","null","","7031.899999976158","","3","0","null","null","arrowup","[0.325,0.675,0.85,0.15]","","",""
"sailing-trial","91","1429142","0.0-11.0-44.0","","","","false","","","","","","","","","","1436.5","","2526.5","","2","1","arrowright","1","arrowleft","[0.325,0.675,0.85,0.15]","","",""
"sailing-trial","92","1444151","0.0-11.0-45.0","","","","true","","","","","","","","","","null","","null","","null","null","null","null","null","[0.325,0.675,0.85,0.15]","","",""
"sailing-trial","93","1451759","0.0-11.0-46.0","","","","false","","","","","","","","","","890.8000000119209","","1501.5","","2","1","arrowright","1","arrowleft","[0.325,0.675,0.85,0.15]","","",""
"sailing-trial","94","1454423","0.0-11.0-47.0","","","","false","","","","","","","","","","null","","978.3999999761581","","2","1","null","null","arrowup","[0.325,0.675,0.85,0.15]","","",""
"sailing-trial","95","1459126","0.0-11.0-48.0","","","","false","","","","","","","","","","1515.0999999642372","","122.09999996423721","","0","1","arrowleft","0","arrowleft","[0.325,0.675,0.85,0.15]","","",""
"sailing-trial","96","1461927","0.0-11.0-49.0","","","","false","","","","","","","","","","null","","1124.4000000357628","","1","0","null","null","arrowup","[0.325,0.675,0.85,0.15]","","",""
"sailing-trial","97","1466376","0.0-11.0-50.0","","","","false","","","","","","","","","","723.2000000476837","","414","","0","1","arrowleft","0","arrowleft","[0.325,0.675,0.85,0.15]","","",""
"sailing-trial","98","1476041","0.0-11.0-51.0","","","","false","","","","","","","","","","null","","5570.100000023842","","3","1","null","null","arrowup","[0.325,0.675,0.85,0.15]","","",""
"sailing-trial","99","1483309","0.0-11.0-52.0","","","","false","","","","","","","","","","1600.9000000357628","","833.0999999642372","","0","1","arrowleft","0","arrowleft","[0.325,0.675,0.85,0.15]","","",""
"sailing-trial","100","1488643","0.0-11.0-53.0","","","","false","","","","","","","","","","null","","2802.199999988079","","2","1","null","null","arrowup","[0.325,0.675,0.85,0.15]","","",""
"sailing-trial","101","1495146","0.0-11.0-54.0","","","","false","","","","","","","","","","1630.5","","1469.800000011921","","2","1","arrowright","1","arrowleft","[0.325,0.675,0.85,0.15]","","",""
"sailing-trial","102","1499551","0.0-11.0-55.0","","","","false","","","","","","","","","","null","","1366.300000011921","","2","0","null","null","arrowup","[0.325,0.675,0.85,0.15]","","",""
"sailing-trial","103","1504316","0.0-11.0-56.0","","","","false","","","","","","","","","","785.4000000357628","","46.39999997615814","","3","0","arrowright","1","arrowright","[0.325,0.675,0.85,0.15]","","",""
"sailing-trial","104","1507846","0.0-11.0-57.0","","","","false","","","","","","","","","","null","","195","","0","1","null","null","arrowup","[0.325,0.675,0.85,0.15]","","",""
"sailing-trial","105","1514134","0.0-11.0-58.0","","","","false","","","","","","","","","","700","","1324.9000000357628","","2","0","arrowright","1","arrowleft","[0.325,0.675,0.85,0.15]","","",""
"sailing-trial","106","1515997","0.0-11.0-59.0","","","","false","","","","","","","","","","null","","601.4000000357628","","0","0","null","null","arrowup","[0.325,0.675,0.85,0.15]","","",""
"sailing-trial","107","1523900","0.0-11.0-60.0","","","","false","","","","","","","","","","1394.300000011921","","1958.5","","2","1","arrowright","1","arrowleft","[0.325,0.675,0.85,0.15]","","",""
"sailing-trial","108","1531522","0.0-11.0-61.0","","","","false","","","","","","","","","","null","","1908.800000011921","","1","1","null","null","arrowup","[0.325,0.675,0.85,0.15]","","",""
"sailing-trial","109","1537715","0.0-11.0-62.0","","","","false","","","","","","","","","","978.2999999523163","","2285.199999988079","","2","1","arrowright","1","arrowleft","[0.325,0.675,0.85,0.15]","","",""
"sailing-trial","110","1540865","0.0-11.0-63.0","","","","false","","","","","","","","","","null","","1255.5","","0","1","null","null","arrowup","[0.325,0.675,0.85,0.15]","","",""
"sailing-trial","111","1546559","0.0-11.0-64.0","","","","false","","","","","","","","","","626.5999999642372","","1959.2000000476837","","1","0","arrowleft","0","arrowright","[0.15,0.85,0.675,0.325]","","",""
"sailing-trial","112","1550950","0.0-11.0-65.0","","","","false","","","","","","","","","","null","","2762.399999976158","","1","1","null","null","arrowup","[0.15,0.85,0.675,0.325]","","",""
"sailing-trial","113","1555563","0.0-11.0-66.0","","","","false","","","","","","","","","","859.3999999761581","","798.1999999880791","","0","1","arrowleft","0","arrowleft","[0.15,0.85,0.675,0.325]","","",""
"sailing-trial","114","1558350","0.0-11.0-67.0","","","","false","","","","","","","","","","null","","1054.3999999761581","","2","1","null","null","arrowup","[0.15,0.85,0.675,0.325]","","",""
"sailing-trial","115","1564250","0.0-11.0-68.0","","","","false","","","","","","","","","","1212.6000000238419","","2076","","3","0","arrowright","1","arrowright","[0.15,0.85,0.675,0.325]","","",""
"sailing-trial","116","1571500","0.0-11.0-69.0","","","","false","","","","","","","","","","null","","5228.900000035763","","0","0","null","null","arrowup","[0.15,0.85,0.675,0.325]","","",""
"sailing-trial","117","1577457","0.0-11.0-70.0","","","","false","","","","","","","","","","887.5999999642372","","1550.3999999761581","","0","0","arrowleft","0","arrowleft","[0.15,0.85,0.675,0.325]","","",""
"sailing-trial","118","1583335","0.0-11.0-71.0","","","","false","","","","","","","","","","null","","2192.300000011921","","1","1","null","null","arrowup","[0.15,0.85,0.675,0.325]","","",""
"sailing-trial","119","1589855","0.0-11.0-72.0","","","","false","","","","","","","","","","2011.800000011921","","2072.199999988079","","0","0","arrowleft","0","arrowleft","[0.15,0.85,0.675,0.325]","","",""
"sailing-trial","120","1593586","0.0-11.0-73.0","","","","false","","","","","","","","","","null","","1617.699999988079","","2","1","null","null","arrowup","[0.15,0.85,0.675,0.325]","","",""
"sailing-trial","121","1599935","0.0-11.0-74.0","","","","false","","","","","","","","","","736.5","","1327.3999999761581","","2","0","arrowright","1","arrowleft","[0.15,0.85,0.675,0.325]","","",""
"sailing-trial","122","1604838","0.0-11.0-75.0","","","","false","","","","","","","","","","null","","600.6999999880791","","1","1","null","null","arrowup","[0.15,0.85,0.675,0.325]","","",""
"sailing-trial","123","1610346","0.0-11.0-76.0","","","","false","","","","","","","","","","1051","","280.7999999523163","","0","0","arrowleft","0","arrowleft","[0.15,0.85,0.675,0.325]","","",""
"sailing-trial","124","1613322","0.0-11.0-77.0","","","","false","","","","","","","","","","null","","1062.1000000238419","","2","0","null","null","arrowup","[0.15,0.85,0.675,0.325]","","",""
"sailing-trial","125","1619226","0.0-11.0-78.0","","","","false","","","","","","","","","","1024.800000011921","","827.1999999880791","","2","1","arrowright","1","arrowleft","[0.15,0.85,0.675,0.325]","","",""
"sailing-trial","126","1625224","0.0-11.0-79.0","","","","false","","","","","","","","","","null","","1657.300000011921","","2","1","null","null","arrowup","[0.15,0.85,0.675,0.325]","","",""
"sailing-trial","127","1632917","0.0-11.0-80.0","","","","false","","","","","","","","","","3251.199999988079","","1494.300000011921","","1","0","arrowleft","0","arrowright","[0.675,0.325,0.15,0.85]","","",""
"sailing-trial","128","1636245","0.0-11.0-81.0","","","","false","","","","","","","","","","null","","1612.199999988079","","0","0","null","null","arrowup","[0.675,0.325,0.15,0.85]","","",""
"sailing-trial","129","1641559","0.0-11.0-82.0","","","","false","","","","","","","","","","1186.8999999761581","","395.5","","3","1","arrowright","1","arrowright","[0.675,0.325,0.15,0.85]","","",""
"sailing-trial","130","1645606","0.0-11.0-83.0","","","","false","","","","","","","","","","null","","1467.800000011921","","2","0","null","null","arrowup","[0.675,0.325,0.15,0.85]","","",""
"sailing-trial","131","1650081","0.0-11.0-84.0","","","","false","","","","","","","","","","739.8999999761581","","176.69999998807907","","0","1","arrowleft","0","arrowleft","[0.675,0.325,0.15,0.85]","","",""
"sailing-trial","132","1653309","0.0-11.0-85.0","","","","false","","","","","","","","","","null","","1248.9000000357628","","1","1","null","null","arrowup","[0.675,0.325,0.15,0.85]","","",""
"sailing-trial","133","1666840","0.0-11.0-86.0","","","","false","","","","","","","","","","1316.199999988079","","2240.300000011921","","2","1","arrowright","1","arrowleft","[0.675,0.325,0.15,0.85]","","",""
"sailing-trial","134","1672261","0.0-11.0-87.0","","","","false","","","","","","","","","","null","","1214","","2","1","null","null","arrowup","[0.675,0.325,0.15,0.85]","","",""
"sailing-trial","135","1675141","0.0-11.0-88.0","","","","false","","","","","","","","","","500.9000000357628","","100.80000001192093","","0","0","arrowleft","0","arrowleft","[0.675,0.325,0.15,0.85]","","",""
"sailing-trial","136","1677202","0.0-11.0-89.0","","","","false","","","","","","","","","","null","","819.3000000119209","","1","0","null","null","arrowup","[0.675,0.325,0.15,0.85]","","",""
"sailing-trial","137","1680615","0.0-11.0-90.0","","","","false","","","","","","","","","","227.60000002384186","","253.69999998807907","","3","1","arrowright","1","arrowright","[0.675,0.325,0.15,0.85]","","",""
"sailing-trial","138","1683362","0.0-11.0-91.0","","","","false","","","","","","","","","","null","","1089.8999999761581","","1","0","null","null","arrowup","[0.675,0.325,0.15,0.85]","","",""
"sailing-trial","139","1687198","0.0-11.0-92.0","","","","false","","","","","","","","","","462.60000002384186","","573.5","","2","0","arrowright","1","arrowleft","[0.675,0.325,0.15,0.85]","","",""
"sailing-trial","140","1689845","0.0-11.0-93.0","","","","false","","","","","","","","","","null","","1482.199999988079","","2","0","null","null","arrowup","[0.675,0.325,0.15,0.85]","","",""
"sailing-trial","141","1695365","0.0-11.0-94.0","","","","false","","","","","","","","","","2635.699999988079","","512.8999999761581","","1","0","arrowleft","0","arrowright","[0.675,0.325,0.15,0.85]","","",""
"sailing-trial","142","1697363","0.0-11.0-95.0","","","","false","","","","","","","","","","null","","177.4000000357628","","2","1","null","null","arrowup","[0.675,0.325,0.15,0.85]","","",""
"sailing-trial","143","1701834","0.0-11.0-96.0","","","","false","","","","","","","","","","220.29999995231628","","942.6999999880791","","0","1","arrowleft","0","arrowleft","[0.675,0.325,0.15,0.85]","","",""
"sailing-trial","144","1704645","0.0-11.0-97.0","","","","false","","","","","","","","","","null","","1191.0999999642372","","3","1","null","null","arrowup","[0.675,0.325,0.15,0.85]","","",""
"sailing-trial","145","1709888","0.0-11.0-98.0","","","","false","","","","","","","","","","169.30000001192093","","843.7000000476837","","2","0","arrowright","1","arrowleft","[0.85,0.15,0.325,0.675]","","",""
"sailing-trial","146","1712353","0.0-11.0-99.0","","","","false","","","","","","","","","","null","","238.0999999642372","","2","0","null","null","arrowup","[0.85,0.15,0.325,0.675]","","",""
"sailing-trial","147","1717501","0.0-11.0-100.0","","","","false","","","","","","","","","","1870.2999999523163","","418.80000001192093","","1","0","arrowleft","0","arrowright","[0.85,0.15,0.325,0.675]","","",""
"sailing-trial","148","1720931","0.0-11.0-101.0","","","","false","","","","","","","","","","null","","1291","","0","1","null","null","arrowup","[0.85,0.15,0.325,0.675]","","",""
"sailing-trial","149","1730394","0.0-11.0-102.0","","","","false","","","","","","","","","","4462","","2222.100000023842","","1","0","arrowleft","0","arrowright","[0.85,0.15,0.325,0.675]","","",""
"sailing-trial","150","1733942","0.0-11.0-103.0","","","","false","","","","","","","","","","null","","1870.8999999761581","","2","0","null","null","arrowup","[0.85,0.15,0.325,0.675]","","",""
"sailing-trial","151","1741503","0.0-11.0-104.0","","","","false","","","","","","","","","","1561.699999988079","","2987.100000023842","","0","1","arrowleft","0","arrowleft","[0.85,0.15,0.325,0.675]","","",""
"sailing-trial","152","1747902","0.0-11.0-105.0","","","","false","","","","","","","","","","null","","1793.800000011921","","3","1","null","null","arrowup","[0.85,0.15,0.325,0.675]","","",""
"sailing-trial","153","1754269","0.0-11.0-106.0","","","","false","","","","","","","","","","858.9000000357628","","1773.1000000238419","","0","0","arrowleft","0","arrowleft","[0.85,0.15,0.325,0.675]","","",""
"sailing-trial","154","1755996","0.0-11.0-107.0","","","","false","","","","","","","","","","null","","218.30000001192093","","1","0","null","null","arrowup","[0.85,0.15,0.325,0.675]","","",""
"sailing-trial","155","1763461","0.0-11.0-108.0","","","","false","","","","","","","","","","1802.300000011921","","2505.199999988079","","0","1","arrowleft","0","arrowleft","[0.85,0.15,0.325,0.675]","","",""
"sailing-trial","156","1767370","0.0-11.0-109.0","","","","false","","","","","","","","","","null","","1396.800000011921","","3","1","null","null","arrowup","[0.85,0.15,0.325,0.675]","","",""
"sailing-trial","157","1773384","0.0-11.0-110.0","","","","false","","","","","","","","","","1148.800000011921","","585.3999999761581","","1","0","arrowleft","0","arrowright","[0.85,0.15,0.325,0.675]","","",""
"sailing-trial","158","1776028","0.0-11.0-111.0","","","","false","","","","","","","","","","null","","1507.6000000238419","","1","0","null","null","arrowup","[0.85,0.15,0.325,0.675]","","",""
"sailing-trial","159","1784189","0.0-11.0-112.0","","","","false","","","","","","","","","","1029.8999999761581","","1251.1000000238419","","0","1","arrowleft","0","arrowleft","[0.85,0.15,0.325,0.675]","","",""
"sailing-trial","160","1789356","0.0-11.0-113.0","","","","false","","","","","","","","","","null","","601.8999999761581","","0","1","null","null","arrowup","[0.85,0.15,0.325,0.675]","","",""
"sailing-trial","161","1794829","0.0-11.0-114.0","","","","false","","","","","","","","","","854.8999999761581","","544.2999999523163","","2","1","arrowright","1","arrowleft","[0.325,0.675,0.85,0.15]","","",""
"sailing-trial","162","1798036","0.0-11.0-115.0","","","","false","","","","","","","","","","null","","1210.3999999761581","","1","0","null","null","arrowup","[0.325,0.675,0.85,0.15]","","",""
"sailing-trial","163","1804034","0.0-11.0-116.0","","","","false","","","","","","","","","","686.3999999761581","","560.1999999880791","","1","1","arrowleft","0","arrowright","[0.325,0.675,0.85,0.15]","","",""
"sailing-trial","164","1805708","0.0-11.0-117.0","","","","false","","","","","","","","","","null","","59.80000001192093","","3","0","null","null","arrowup","[0.325,0.675,0.85,0.15]","","",""
"sailing-trial","165","1814122","0.0-11.0-118.0","","","","false","","","","","","","","","","711","","3206.800000011921","","0","1","arrowleft","0","arrowleft","[0.325,0.675,0.85,0.15]","","",""
"sailing-trial","166","1816657","0.0-11.0-119.0","","","","false","","","","","","","","","","null","","84.60000002384186","","2","1","null","null","arrowup","[0.325,0.675,0.85,0.15]","","",""
"sailing-trial","167","1826349","0.0-11.0-120.0","","","","false","","","","","","","","","","3576.199999988079","","2635.599999964237","","0","1","arrowleft","0","arrowleft","[0.325,0.675,0.85,0.15]","","",""
"sailing-trial","168","1829158","0.0-11.0-121.0","","","","false","","","","","","","","","","null","","1115.9000000357628","","0","1","null","null","arrowup","[0.325,0.675,0.85,0.15]","","",""
"sailing-trial","169","1833257","0.0-11.0-122.0","","","","false","","","","","","","","","","1282","","478.89999997615814","","0","0","arrowleft","0","arrowleft","[0.325,0.675,0.85,0.15]","","",""
"sailing-trial","170","1835670","0.0-11.0-123.0","","","","false","","","","","","","","","","null","","967.4000000357628","","1","0","null","null","arrowup","[0.325,0.675,0.85,0.15]","","",""
"sailing-trial","171","1839959","0.0-11.0-124.0","","","","false","","","","","","","","","","731.6999999880791","","425.19999998807907","","0","0","arrowleft","0","arrowleft","[0.325,0.675,0.85,0.15]","","",""
"sailing-trial","172","1842273","0.0-11.0-125.0","","","","false","","","","","","","","","","null","","8.5","","3","0","null","null","arrowup","[0.325,0.675,0.85,0.15]","","",""
"sailing-trial","173","1851798","0.0-11.0-126.0","","","","false","","","","","","","","","","2422","","4108.300000011921","","2","1","arrowright","1","arrowleft","[0.325,0.675,0.85,0.15]","","",""
"sailing-trial","174","1860228","0.0-11.0-127.0","","","","false","","","","","","","","","","null","","2961.800000011921","","2","1","null","null","arrowup","[0.325,0.675,0.85,0.15]","","",""
"sailing-trial","175","1866081","0.0-11.0-128.0","","","","false","","","","","","","","","","838.1999999880791","","750.8000000119209","","0","0","arrowleft","0","arrowleft","[0.325,0.675,0.85,0.15]","","",""
"sailing-trial","176","1870147","0.0-11.0-129.0","","","","false","","","","","","","","","","null","","1015.2000000476837","","2","0","null","null","arrowup","[0.325,0.675,0.85,0.15]","","",""
"sailing-trial","177","1875327","0.0-11.0-130.0","","","","false","","","","","","","","","","909.8000000119209","","42.19999998807907","","0","0","arrowleft","0","arrowleft","[0.325,0.675,0.85,0.15]","","",""
"sailing-trial","178","1877997","0.0-11.0-131.0","","","","false","","","","","","","","","","null","","71.90000003576279","","2","1","null","null","arrowup","[0.325,0.675,0.85,0.15]","","",""
"sailing-trial","179","1887831","0.0-11.0-132.0","","","","false","","","","","","","","","","3674.900000035763","","1406.8999999761581","","1","1","arrowleft","0","arrowright","[0.325,0.675,0.85,0.15]","","",""
"sailing-trial","180","1892364","0.0-11.0-133.0","","","","false","","","","","","","","","","null","","1441.7999999523163","","0","1","null","null","arrowup","[0.325,0.675,0.85,0.15]","","",""
"sailing-trial","181","1906633","0.0-11.0-134.0","","","","false","","","","","","","","","","7325.100000023842","","3659.600000023842","","1","1","arrowleft","0","arrowright","[0.15,0.85,0.675,0.325]","","",""
"sailing-trial","182","1908749","0.0-11.0-135.0","","","","false","","","","","","","","","","null","","438.30000001192093","","1","1","null","null","arrowup","[0.15,0.85,0.675,0.325]","","",""
"sailing-trial","183","1912933","0.0-11.0-136.0","","","","false","","","","","","","","","","1028","","94.69999998807907","","1","1","arrowleft","0","arrowright","[0.15,0.85,0.675,0.325]","","",""
"sailing-trial","184","1917849","0.0-11.0-137.0","","","","false","","","","","","","","","","null","","121.60000002384186","","2","1","null","null","arrowup","[0.15,0.85,0.675,0.325]","","",""
"sailing-trial","185","1923068","0.0-11.0-138.0","","","","false","","","","","","","","","","791.1999999880791","","1016.3000000119209","","1","1","arrowleft","0","arrowright","[0.15,0.85,0.675,0.325]","","",""
"sailing-trial","186","1926533","0.0-11.0-139.0","","","","false","","","","","","","","","","null","","1524.8999999761581","","0","0","null","null","arrowup","[0.15,0.85,0.675,0.325]","","",""
"sailing-trial","187","1935119","0.0-11.0-140.0","","","","false","","","","","","","","","","1507.800000011921","","2820.800000011921","","0","0","arrowleft","0","arrowleft","[0.15,0.85,0.675,0.325]","","",""
"sailing-trial","188","1939810","0.0-11.0-141.0","","","","false","","","","","","","","","","null","","1660.1000000238419","","3","0","null","null","arrowup","[0.15,0.85,0.675,0.325]","","",""
"sailing-trial","189","1947405","0.0-11.0-142.0","","","","false","","","","","","","","","","1213.0999999642372","","2400.5","","3","0","arrowright","1","arrowright","[0.15,0.85,0.675,0.325]","","",""
"sailing-trial","190","1954187","0.0-11.0-143.0","","","","false","","","","","","","","","","null","","2482.399999976158","","0","1","null","null","arrowup","[0.15,0.85,0.675,0.325]","","",""
"sailing-trial","191","1960418","0.0-11.0-144.0","","","","false","","","","","","","","","","1245.199999988079","","1144.800000011921","","1","0","arrowleft","0","arrowright","[0.15,0.85,0.675,0.325]","","",""
"sailing-trial","192","1964710","0.0-11.0-145.0","","","","false","","","","","","","","","","null","","1253.3999999761581","","0","0","null","null","arrowup","[0.15,0.85,0.675,0.325]","","",""
"sailing-trial","193","1972227","0.0-11.0-146.0","","","","false","","","","","","","","","","1464.6000000238419","","190.69999998807907","","2","1","arrowright","1","arrowleft","[0.15,0.85,0.675,0.325]","","",""
"sailing-trial","194","1975228","0.0-11.0-147.0","","","","false","","","","","","","","","","null","","107.89999997615814","","0","0","null","null","arrowup","[0.15,0.85,0.675,0.325]","","",""
"sailing-trial","195","1980165","0.0-11.0-148.0","","","","false","","","","","","","","","","1132.699999988079","","1027.199999988079","","0","0","arrowleft","0","arrowleft","[0.15,0.85,0.675,0.325]","","",""
"sailing-trial","196","1981606","0.0-11.0-149.0","","","","false","","","","","","","","","","null","","113.80000001192093","","0","0","null","null","arrowup","[0.15,0.85,0.675,0.325]","","",""
"sailing-trial","197","1986226","0.0-11.0-150.0","","","","false","","","","","","","","","","1244.699999988079","","548.3999999761581","","0","1","arrowleft","0","arrowleft","[0.325,0.675,0.85,0.15]","","",""
"sailing-trial","198","1989705","0.0-11.0-151.0","","","","false","","","","","","","","","","null","","1214.5","","2","1","null","null","arrowup","[0.325,0.675,0.85,0.15]","","",""
"sailing-trial","199","1993612","0.0-11.0-152.0","","","","false","","","","","","","","","","1015.5999999642372","","441.19999998807907","","2","0","arrowright","1","arrowleft","[0.325,0.675,0.85,0.15]","","",""
"sailing-trial","200","1996506","0.0-11.0-153.0","","","","false","","","","","","","","","","null","","1020.2999999523163","","3","0","null","null","arrowup","[0.325,0.675,0.85,0.15]","","",""
"sailing-trial","201","2001561","0.0-11.0-154.0","","","","false","","","","","","","","","","1502","","572.9000000357628","","2","1","arrowright","1","arrowleft","[0.325,0.675,0.85,0.15]","","",""
"sailing-trial","202","2005039","0.0-11.0-155.0","","","","false","","","","","","","","","","null","","1237.5","","2","1","null","null","arrowup","[0.325,0.675,0.85,0.15]","","",""
"sailing-trial","203","2014489","0.0-11.0-156.0","","","","false","","","","","","","","","","5000.5","","546.6000000238419","","0","0","arrowleft","0","arrowleft","[0.325,0.675,0.85,0.15]","","",""
"sailing-trial","204","2016927","0.0-11.0-157.0","","","","false","","","","","","","","","","null","","37.89999997615814","","1","1","null","null","arrowup","[0.325,0.675,0.85,0.15]","","",""
"sailing-trial","205","2024193","0.0-11.0-158.0","","","","false","","","","","","","","","","2825.800000011921","","517.6999999880791","","2","1","arrowright","1","arrowleft","[0.325,0.675,0.85,0.15]","","",""
"sailing-trial","206","2028794","0.0-11.0-159.0","","","","false","","","","","","","","","","null","","852.5","","0","1","null","null","arrowup","[0.325,0.675,0.85,0.15]","","",""
"sailing-trial","207","2036588","0.0-11.0-160.0","","","","false","","","","","","","","","","1807.3999999761581","","628.5999999642372","","2","1","arrowright","1","arrowleft","[0.325,0.675,0.85,0.15]","","",""
"sailing-trial","208","2039913","0.0-11.0-161.0","","","","false","","","","","","","","","","null","","731.5","","2","1","null","null","arrowup","[0.325,0.675,0.85,0.15]","","",""
"sailing-trial","209","2052479","0.0-11.0-162.0","","","","false","","","","","","","","","","1000.8000000119209","","5577.800000011921","","2","1","arrowright","1","arrowleft","[0.325,0.675,0.85,0.15]","","",""
"sailing-trial","210","2055651","0.0-11.0-163.0","","","","false","","","","","","","","","","null","","32.80000001192093","","0","0","null","null","arrowup","[0.325,0.675,0.85,0.15]","","",""
"sailing-trial","211","2061213","0.0-11.0-164.0","","","","false","","","","","","","","","","894.6000000238419","","409.5","","3","0","arrowright","1","arrowright","[0.325,0.675,0.85,0.15]","","",""
"sailing-trial","212","2062533","0.0-11.0-165.0","","","","false","","","","","","","","","","null","","234.5","","3","0","null","null","arrowup","[0.325,0.675,0.85,0.15]","","",""
"sailing-trial","213","2067736","0.0-11.0-166.0","","","","false","","","","","","","","","","1405.5","","811.8999999761581","","2","1","arrowright","1","arrowleft","[0.15,0.85,0.675,0.325]","","",""
"sailing-trial","214","2071624","0.0-11.0-167.0","","","","false","","","","","","","","","","null","","837.0999999642372","","0","0","null","null","arrowup","[0.15,0.85,0.675,0.325]","","",""
"sailing-trial","215","2078355","0.0-11.0-168.0","","","","false","","","","","","","","","","799.8999999761581","","719.9000000357628","","2","1","arrowright","1","arrowleft","[0.15,0.85,0.675,0.325]","","",""
"sailing-trial","216","2081336","0.0-11.0-169.0","","","","false","","","","","","","","","","null","","856.8000000119209","","1","0","null","null","arrowup","[0.15,0.85,0.675,0.325]","","",""
"sailing-trial","217","2087207","0.0-11.0-170.0","","","","false","","","","","","","","","","1809.4000000357628","","972.2999999523163","","2","1","arrowright","1","arrowleft","[0.15,0.85,0.675,0.325]","","",""
"sailing-trial","218","2090297","0.0-11.0-171.0","","","","false","","","","","","","","","","null","","1151.2000000476837","","0","0","null","null","arrowup","[0.15,0.85,0.675,0.325]","","",""
"sailing-trial","219","2096598","0.0-11.0-172.0","","","","false","","","","","","","","","","720.0999999642372","","1381.5999999642372","","2","1","arrowright","1","arrowleft","[0.15,0.85,0.675,0.325]","","",""
"sailing-trial","220","2100728","0.0-11.0-173.0","","","","false","","","","","","","","","","null","","1067","","3","0","null","null","arrowup","[0.15,0.85,0.675,0.325]","","",""
"sailing-trial","221","2107529","0.0-11.0-174.0","","","","false","","","","","","","","","","857.6999999880791","","1638","","2","0","arrowright","1","arrowleft","[0.15,0.85,0.675,0.325]","","",""
"sailing-trial","222","2112651","0.0-11.0-175.0","","","","false","","","","","","","","","","null","","1088.2999999523163","","1","1","null","null","arrowup","[0.15,0.85,0.675,0.325]","","",""
"sailing-trial","223","2118938","0.0-11.0-176.0","","","","false","","","","","","","","","","1646.199999988079","","334.80000001192093","","2","0","arrowright","1","arrowleft","[0.15,0.85,0.675,0.325]","","",""
"sailing-trial","224","2122946","0.0-11.0-177.0","","","","false","","","","","","","","","","null","","1733.1000000238419","","0","0","null","null","arrowup","[0.15,0.85,0.675,0.325]","","",""
"sailing-trial","225","2128510","0.0-11.0-178.0","","","","false","","","","","","","","","","2278","","370.10000002384186","","2","1","arrowright","1","arrowleft","[0.15,0.85,0.675,0.325]","","",""
"sailing-trial","226","2132577","0.0-11.0-179.0","","","","false","","","","","","","","","","null","","1018","","3","0","null","null","arrowup","[0.15,0.85,0.675,0.325]","","",""
"sailing-trial","227","2139825","0.0-11.0-180.0","","","","false","","","","","","","","","","881.6000000238419","","568.4000000357628","","1","1","arrowleft","0","arrowright","[0.15,0.85,0.675,0.325]","","",""
"sailing-trial","228","2141813","0.0-11.0-181.0","","","","false","","","","","","","","","","null","","613.6999999880791","","3","0","null","null","arrowup","[0.15,0.85,0.675,0.325]","","",""
"sailing-trial","229","2144908","0.0-11.0-182.0","","","","false","","","","","","","","","","696.8000000119209","","138.5","","0","0","arrowleft","0","arrowleft","[0.15,0.85,0.675,0.325]","","",""
"sailing-trial","230","2146885","0.0-11.0-183.0","","","","false","","","","","","","","","","null","","698.1999999880791","","0","0","null","null","arrowup","[0.15,0.85,0.675,0.325]","","",""
"sailing-trial","231","2151351","0.0-11.0-184.0","","","","false","","","","","","","","","","1133.0999999642372","","483.0999999642372","","2","0","arrowright","1","arrowleft","[0.85,0.15,0.325,0.675]","","",""
"sailing-trial","232","2152996","0.0-11.0-185.0","","","","false","","","","","","","","","","null","","295.89999997615814","","0","0","null","null","arrowup","[0.85,0.15,0.325,0.675]","","",""
"sailing-trial","233","2159345","0.0-11.0-186.0","","","","false","","","","","","","","","","1380.800000011921","","1751.9000000357628","","0","1","arrowleft","0","arrowleft","[0.85,0.15,0.325,0.675]","","",""
"sailing-trial","234","2161316","0.0-11.0-187.0","","","","false","","","","","","","","","","null","","358.39999997615814","","1","0","null","null","arrowup","[0.85,0.15,0.325,0.675]","","",""
"sailing-trial","235","2163956","0.0-11.0-188.0","","","","false","","","","","","","","","","9.899999976158142","","140.5","","1","0","arrowleft","0","arrowright","[0.85,0.15,0.325,0.675]","","",""
"sailing-trial","236","2165388","0.0-11.0-189.0","","","","false","","","","","","","","","","null","","234.4000000357628","","3","0","null","null","arrowup","[0.85,0.15,0.325,0.675]","","",""
"sailing-trial","237","2168944","0.0-11.0-190.0","","","","false","","","","","","","","","","274.89999997615814","","384.39999997615814","","0","1","arrowleft","0","arrowleft","[0.85,0.15,0.325,0.675]","","",""
"sailing-trial","238","2171124","0.0-11.0-191.0","","","","false","","","","","","","","","","null","","551","","3","1","null","null","arrowup","[0.85,0.15,0.325,0.675]","","",""
"sailing-trial","239","2174769","0.0-11.0-192.0","","","","false","","","","","","","","","","282.2000000476837","","391.2999999523163","","0","1","arrowleft","0","arrowleft","[0.85,0.15,0.325,0.675]","","",""
"sailing-trial","240","2176457","0.0-11.0-193.0","","","","false","","","","","","","","","","null","","85","","3","1","null","null","arrowup","[0.85,0.15,0.325,0.675]","","",""
"sailing-trial","241","2179527","0.0-11.0-194.0","","","","false","","","","","","","","","","5.699999988079071","","116.5","","0","1","arrowleft","0","arrowleft","[0.85,0.15,0.325,0.675]","","",""
"sailing-trial","242","2181575","0.0-11.0-195.0","","","","false","","","","","","","","","","null","","376.30000001192093","","0","1","null","null","arrowup","[0.85,0.15,0.325,0.675]","","",""
"sailing-trial","243","2184515","0.0-11.0-196.0","","","","false","","","","","","","","","","23","","23.899999976158142","","0","1","arrowleft","0","arrowleft","[0.85,0.15,0.325,0.675]","","",""
"sailing-trial","244","2186941","0.0-11.0-197.0","","","","false","","","","","","","","","","null","","355.9000000357628","","3","1","null","null","arrowup","[0.85,0.15,0.325,0.675]","","",""
"sailing-trial","245","2190300","0.0-11.0-198.0","","","","false","","","","","","","","","","400.80000001192093","","104.30000001192093","","0","1","arrowleft","0","arrowleft","[0.85,0.15,0.325,0.675]","","",""
"sailing-trial","246","2192311","0.0-11.0-199.0","","","","false","","","","","","","","","","null","","241.80000001192093","","0","1","null","null","arrowup","[0.85,0.15,0.325,0.675]","","",""
"sailing-trial","247","2195140","0.0-11.0-200.0","","","","false","","","","","","","","","","144.39999997615814","","138.5","","2","0","arrowright","1","arrowleft","[0.85,0.15,0.325,0.675]","","",""
"sailing-trial","248","2196993","0.0-11.0-201.0","","","","false","","","","","","","","","","null","","234.80000001192093","","0","1","null","null","arrowup","[0.85,0.15,0.325,0.675]","","",""
"sailing-trial","249","2199577","0.0-11.0-202.0","","","","false","","","","","","","","","","181.80000001192093","","126.39999997615814","","0","0","arrowleft","0","arrowleft","[0.675,0.325,0.15,0.85]","","",""
"sailing-trial","250","2201677","0.0-11.0-203.0","","","","false","","","","","","","","","","null","","342","","0","1","null","null","arrowup","[0.675,0.325,0.15,0.85]","","",""
"sailing-trial","251","2204466","0.0-11.0-204.0","","","","false","","","","","","","","","","75.80000001192093","","133.10000002384186","","2","0","arrowright","1","arrowleft","[0.675,0.325,0.15,0.85]","","",""
"sailing-trial","252","2205964","0.0-11.0-205.0","","","","false","","","","","","","","","","null","","236.19999998807907","","0","0","null","null","arrowup","[0.675,0.325,0.15,0.85]","","",""
"sailing-trial","253","2208685","0.0-11.0-206.0","","","","false","","","","","","","","","","179.0999999642372","","59.69999998807907","","2","0","arrowright","1","arrowleft","[0.675,0.325,0.15,0.85]","","",""
"sailing-trial","254","2210494","0.0-11.0-207.0","","","","false","","","","","","","","","","null","","124.80000001192093","","2","1","null","null","arrowup","[0.675,0.325,0.15,0.85]","","",""
"sailing-trial","255","2213259","0.0-11.0-208.0","","","","false","","","","","","","","","","121","","4.899999976158142","","0","0","arrowleft","0","arrowleft","[0.675,0.325,0.15,0.85]","","",""
"sailing-trial","256","2216245","0.0-11.0-209.0","","","","false","","","","","","","","","","null","","0.3999999761581421","","3","1","null","null","arrowup","[0.675,0.325,0.15,0.85]","","",""
"sailing-trial","257","2219349","0.0-11.0-210.0","","","","false","","","","","","","","","","58.89999997615814","","54.799999952316284","","0","1","arrowleft","0","arrowleft","[0.675,0.325,0.15,0.85]","","",""
"sailing-trial","258","2221329","0.0-11.0-211.0","","","","false","","","","","","","","","","null","","154.10000002384186","","0","1","null","null","arrowup","[0.675,0.325,0.15,0.85]","","",""
"sailing-trial","259","2224779","0.0-11.0-212.0","","","","false","","","","","","","","","","166.10000002384186","","286.0999999642372","","0","1","arrowleft","0","arrowleft","[0.675,0.325,0.15,0.85]","","",""
"sailing-trial","260","2226465","0.0-11.0-213.0","","","","false","","","","","","","","","","null","","314.5999999642372","","2","0","null","null","arrowup","[0.675,0.325,0.15,0.85]","","",""
"sailing-trial","261","2229416","0.0-11.0-214.0","","","","false","","","","","","","","","","37.69999998807907","","72.40000003576279","","3","1","arrowright","1","arrowright","[0.675,0.325,0.15,0.85]","","",""
"sailing-trial","262","2230867","0.0-11.0-215.0","","","","false","","","","","","","","","","null","","214.9000000357628","","0","0","null","null","arrowup","[0.675,0.325,0.15,0.85]","","",""
"sailing-trial","263","2233739","0.0-11.0-216.0","","","","false","","","","","","","","","","12.5","","27.399999976158142","","3","1","arrowright","1","arrowright","[0.675,0.325,0.15,0.85]","","",""
"sailing-trial","264","2234881","0.0-11.0-217.0","","","","false","","","","","","","","","","null","","6.100000023841858","","1","0","null","null","arrowup","[0.675,0.325,0.15,0.85]","","",""
"sailing-trial","265","2238405","0.0-11.0-218.0","","","","false","","","","","","","","","","269.10000002384186","","114.5","","3","1","arrowright","1","arrowright","[0.675,0.325,0.15,0.85]","","",""
"sailing-trial","266","2239696","0.0-11.0-219.0","","","","false","","","","","","","","","","null","","148.5","","1","0","null","null","arrowup","[0.675,0.325,0.15,0.85]","","",""
"sailing-trial","267","2242718","0.0-11.0-220.0","","","","false","","","","","","","","","","78.39999997615814","","68.29999995231628","","0","1","arrowleft","0","arrowleft","[0.85,0.15,0.325,0.675]","","",""
"sailing-trial","268","2243972","0.0-11.0-221.0","","","","false","","","","","","","","","","null","","143.9000000357628","","2","0","null","null","arrowup","[0.85,0.15,0.325,0.675]","","",""
"sailing-trial","269","2247009","0.0-11.0-222.0","","","","false","","","","","","","","","","410.80000001192093","","222.19999998807907","","2","0","arrowright","1","arrowleft","[0.85,0.15,0.325,0.675]","","",""
"sailing-trial","270","2248490","0.0-11.0-223.0","","","","false","","","","","","","","","","null","","329.0999999642372","","3","0","null","null","arrowup","[0.85,0.15,0.325,0.675]","","",""
"sailing-trial","271","2251790","0.0-11.0-224.0","","","","false","","","","","","","","","","75.60000002384186","","254.5","","3","1","arrowright","1","arrowright","[0.85,0.15,0.325,0.675]","","",""
"sailing-trial","272","2253598","0.0-11.0-225.0","","","","false","","","","","","","","","","null","","40.10000002384186","","0","1","null","null","arrowup","[0.85,0.15,0.325,0.675]","","",""
"sailing-trial","273","2256424","0.0-11.0-226.0","","","","false","","","","","","","","","","168.60000002384186","","224.0999999642372","","1","0","arrowleft","0","arrowright","[0.85,0.15,0.325,0.675]","","",""
"sailing-trial","274","2259716","0.0-11.0-227.0","","","","false","","","","","","","","","","null","","1416.9000000357628","","3","1","null","null","arrowup","[0.85,0.15,0.325,0.675]","","",""
"sailing-trial","275","2263278","0.0-11.0-228.0","","","","false","","","","","","","","","","523.3999999761581","","593.7000000476837","","1","0","arrowleft","0","arrowright","[0.85,0.15,0.325,0.675]","","",""
"sailing-trial","276","2265144","0.0-11.0-229.0","","","","false","","","","","","","","","","null","","151.80000001192093","","0","1","null","null","arrowup","[0.85,0.15,0.325,0.675]","","",""
"sailing-trial","277","2267745","0.0-11.0-230.0","","","","false","","","","","","","","","","21.80000001192093","","177","","2","0","arrowright","1","arrowleft","[0.85,0.15,0.325,0.675]","","",""
"sailing-trial","278","2269684","0.0-11.0-231.0","","","","false","","","","","","","","","","null","","292.5","","0","1","null","null","arrowup","[0.85,0.15,0.325,0.675]","","",""
"sailing-trial","279","2272940","0.0-11.0-232.0","","","","false","","","","","","","","","","146.5","","71.69999998807907","","2","1","arrowright","1","arrowleft","[0.85,0.15,0.325,0.675]","","",""
"sailing-trial","280","2274235","0.0-11.0-233.0","","","","false","","","","","","","","","","null","","34.5","","1","0","null","null","arrowup","[0.85,0.15,0.325,0.675]","","",""
"sailing-trial","281","2276858","0.0-11.0-234.0","","","","false","","","","","","","","","","35.89999997615814","","157.89999997615814","","1","0","arrowleft","0","arrowright","[0.85,0.15,0.325,0.675]","","",""
"sailing-trial","282","2278073","0.0-11.0-235.0","","","","false","","","","","","","","","","null","","0.40000003576278687","","2","0","null","null","arrowup","[0.85,0.15,0.325,0.675]","","",""
"sailing-trial","283","2281443","0.0-11.0-236.0","","","","false","","","","","","","","","","76.10000002384186","","162.0999999642372","","2","1","arrowright","1","arrowleft","[0.675,0.325,0.15,0.85]","","",""
"sailing-trial","284","2282933","0.0-11.0-237.0","","","","false","","","","","","","","","","null","","242.30000001192093","","2","0","null","null","arrowup","[0.675,0.325,0.15,0.85]","","",""
"sailing-trial","285","2285563","0.0-11.0-238.0","","","","false","","","","","","","","","","120.5","","1.5999999642372131","","1","0","arrowleft","0","arrowright","[0.675,0.325,0.15,0.85]","","",""
"sailing-trial","286","2287317","0.0-11.0-239.0","","","","false","","","","","","","","","","null","","50.5","","3","1","null","null","arrowup","[0.675,0.325,0.15,0.85]","","",""
"sailing-trial","287","2289891","0.0-11.0-240.0","","","","false","","","","","","","","","","33.5","","22.80000001192093","","0","0","arrowleft","0","arrowleft","[0.675,0.325,0.15,0.85]","","",""
"sailing-trial","288","2291902","0.0-11.0-241.0","","","","false","","","","","","","","","","null","","171.60000002384186","","0","1","null","null","arrowup","[0.675,0.325,0.15,0.85]","","",""
"sailing-trial","289","2294987","0.0-11.0-242.0","","","","false","","","","","","","","","","80.5","","174.19999998807907","","0","1","arrowleft","0","arrowleft","[0.675,0.325,0.15,0.85]","","",""
"sailing-trial","290","2296107","0.0-11.0-243.0","","","","false","","","","","","","","","","null","","76.09999996423721","","1","0","null","null","arrowup","[0.675,0.325,0.15,0.85]","","",""
"sailing-trial","291","2299226","0.0-11.0-244.0","","","","false","","","","","","","","","","27.5","","123.19999998807907","","0","1","arrowleft","0","arrowleft","[0.675,0.325,0.15,0.85]","","",""
"sailing-trial","292","2300804","0.0-11.0-245.0","","","","false","","","","","","","","","","null","","485.89999997615814","","0","0","null","null","arrowup","[0.675,0.325,0.15,0.85]","","",""
"sailing-trial","293","2304225","0.0-11.0-246.0","","","","false","","","","","","","","","","91.19999998807907","","256.80000001192093","","0","1","arrowleft","0","arrowleft","[0.675,0.325,0.15,0.85]","","",""
"sailing-trial","294","2305484","0.0-11.0-247.0","","","","false","","","","","","","","","","null","","158.30000001192093","","1","0","null","null","arrowup","[0.675,0.325,0.15,0.85]","","",""
"sailing-trial","295","2308409","0.0-11.0-248.0","","","","false","","","","","","","","","","43.89999997615814","","67.89999997615814","","0","1","arrowleft","0","arrowleft","[0.675,0.325,0.15,0.85]","","",""
"sailing-trial","296","2310304","0.0-11.0-249.0","","","","false","","","","","","","","","","null","","277.19999998807907","","0","1","null","null","arrowup","[0.675,0.325,0.15,0.85]","","",""
"sailing-trial","297","2313012","0.0-11.0-250.0","","","","false","","","","","","","","","","166.19999998807907","","35.19999998807907","","1","0","arrowleft","0","arrowright","[0.675,0.325,0.15,0.85]","","",""
"sailing-trial","298","2314706","0.0-11.0-251.0","","","","false","","","","","","","","","","null","","34.299999952316284","","3","1","null","null","arrowup","[0.675,0.325,0.15,0.85]","","",""
"sailing-trial","299","2317795","0.0-11.0-252.0","","","","false","","","","","","","","","","101.5","","194.10000002384186","","2","1","arrowright","1","arrowleft","[0.15,0.85,0.675,0.325]","","",""
"sailing-trial","300","2319522","0.0-11.0-253.0","","","","false","","","","","","","","","","null","","20.599999964237213","","3","1","null","null","arrowup","[0.15,0.85,0.675,0.325]","","",""
"sailing-trial","301","2322537","0.0-11.0-254.0","","","","false","","","","","","","","","","20.099999964237213","","642.3999999761581","","0","0","arrowleft","0","arrowleft","[0.15,0.85,0.675,0.325]","","",""
"sailing-trial","302","2325556","0.0-11.0-255.0","","","","false","","","","","","","","","","null","","470.0999999642372","","3","1","null","null","arrowup","[0.15,0.85,0.675,0.325]","","",""
"sailing-trial","303","2328001","0.0-11.0-256.0","","","","false","","","","","","","","","","98.10000002384186","","79.30000001192093","","0","0","arrowleft","0","arrowleft","[0.15,0.85,0.675,0.325]","","",""
"sailing-trial","304","2330595","0.0-11.0-257.0","","","","false","","","","","","","","","","null","","7.399999976158142","","3","0","null","null","arrowup","[0.15,0.85,0.675,0.325]","","",""
"sailing-trial","305","2333110","0.0-11.0-258.0","","","","false","","","","","","","","","","4.5","","100.5","","0","0","arrowleft","0","arrowleft","[0.15,0.85,0.675,0.325]","","",""
"sailing-trial","306","2334588","0.0-11.0-259.0","","","","false","","","","","","","","","","null","","256.5","","3","0","null","null","arrowup","[0.15,0.85,0.675,0.325]","","",""
"sailing-trial","307","2337354","0.0-11.0-260.0","","","","false","","","","","","","","","","329.7999999523163","","133.5","","0","0","arrowleft","0","arrowleft","[0.15,0.85,0.675,0.325]","","",""
"sailing-trial","308","2338657","0.0-11.0-261.0","","","","false","","","","","","","","","","null","","196.4000000357628","","3","0","null","null","arrowup","[0.15,0.85,0.675,0.325]","","",""
"sailing-trial","309","2341647","0.0-11.0-262.0","","","","false","","","","","","","","","","0.40000003576278687","","138","","3","1","arrowright","1","arrowright","[0.15,0.85,0.675,0.325]","","",""
"sailing-trial","310","2344070","0.0-11.0-263.0","","","","false","","","","","","","","","","null","","1176.6000000238419","","3","0","null","null","arrowup","[0.15,0.85,0.675,0.325]","","",""
"sailing-trial","311","2348589","0.0-11.0-264.0","","","","false","","","","","","","","","","192.5","","81.60000002384186","","2","0","arrowright","1","arrowleft","[0.15,0.85,0.675,0.325]","","",""
"sailing-trial","312","2355411","0.0-11.0-265.0","","","","false","","","","","","","","","","null","","4020","","3","0","null","null","arrowup","[0.15,0.85,0.675,0.325]","","",""
"sailing-trial","313","2358676","0.0-11.0-266.0","","","","false","","","","","","","","","","10.900000035762787","","332.5","","1","1","arrowleft","0","arrowright","[0.15,0.85,0.675,0.325]","","",""
"sailing-trial","314","2360612","0.0-11.0-267.0","","","","false","","","","","","","","","","null","","209.60000002384186","","0","1","null","null","arrowup","[0.15,0.85,0.675,0.325]","","",""
"sailing-trial","315","2363692","0.0-11.0-268.0","","","","false","","","","","","","","","","155.69999998807907","","56.89999997615814","","2","1","arrowright","1","arrowleft","[0.325,0.675,0.85,0.15]","","",""
"sailing-trial","316","2365172","0.0-11.0-269.0","","","","false","","","","","","","","","","null","","25.19999998807907","","3","0","null","null","arrowup","[0.325,0.675,0.85,0.15]","","",""
"sailing-trial","317","2368227","0.0-11.0-270.0","","","","false","","","","","","","","","","45.39999997615814","","58.700000047683716","","2","1","arrowright","1","arrowleft","[0.325,0.675,0.85,0.15]","","",""
"sailing-trial","318","2370425","0.0-11.0-271.0","","","","false","","","","","","","","","","null","","276.2999999523163","","1","1","null","null","arrowup","[0.325,0.675,0.85,0.15]","","",""
"sailing-trial","319","2372953","0.0-11.0-272.0","","","","false","","","","","","","","","","85","","119.60000002384186","","3","0","arrowright","1","arrowright","[0.325,0.675,0.85,0.15]","","",""
"sailing-trial","320","2374876","0.0-11.0-273.0","","","","false","","","","","","","","","","null","","269","","1","1","null","null","arrowup","[0.325,0.675,0.85,0.15]","","",""
"sailing-trial","321","2378054","0.0-11.0-274.0","","","","false","","","","","","","","","","98","","147.19999998807907","","3","1","arrowright","1","arrowright","[0.325,0.675,0.85,0.15]","","",""
"sailing-trial","322","2379844","0.0-11.0-275.0","","","","false","","","","","","","","","","null","","159.69999998807907","","2","1","null","null","arrowup","[0.325,0.675,0.85,0.15]","","",""
"sailing-trial","323","2386125","0.0-11.0-276.0","","","","false","","","","","","","","","","82.60000002384186","","3660.100000023842","","0","0","arrowleft","0","arrowleft","[0.325,0.675,0.85,0.15]","","",""
"sailing-trial","324","2389660","0.0-11.0-277.0","","","","false","","","","","","","","","","null","","1582.3999999761581","","1","1","null","null","arrowup","[0.325,0.675,0.85,0.15]","","",""
"sailing-trial","325","2392945","0.0-11.0-278.0","","","","false","","","","","","","","","","97.39999997615814","","137.30000001192093","","1","1","arrowleft","0","arrowright","[0.325,0.675,0.85,0.15]","","",""
"sailing-trial","326","2394864","0.0-11.0-279.0","","","","false","","","","","","","","","","null","","300.69999998807907","","2","1","null","null","arrowup","[0.325,0.675,0.85,0.15]","","",""
"sailing-trial","327","2397564","0.0-11.0-280.0","","","","false","","","","","","","","","","341.89999997615814","","88.10000002384186","","0","0","arrowleft","0","arrowleft","[0.325,0.675,0.85,0.15]","","",""
"sailing-trial","328","2399511","0.0-11.0-281.0","","","","false","","","","","","","","","","null","","329.80000001192093","","2","1","null","null","arrowup","[0.325,0.675,0.85,0.15]","","",""
"sailing-trial","329","2402386","0.0-11.0-282.0","","","","false","","","","","","","","","","159.4000000357628","","349.89999997615814","","0","0","arrowleft","0","arrowleft","[0.325,0.675,0.85,0.15]","","",""
"sailing-trial","330","2403617","0.0-11.0-283.0","","","","false","","","","","","","","","","null","","0.30000001192092896","","0","0","null","null","arrowup","[0.325,0.675,0.85,0.15]","","",""
"sailing-trial","331","2406298","0.0-11.0-284.0","","","","false","","","","","","","","","","238.69999998807907","","65.30000001192093","","2","0","arrowright","1","arrowleft","[0.675,0.325,0.15,0.85]","","",""
"sailing-trial","332","2410013","0.0-11.0-285.0","","","","false","","","","","","","","","","null","","2037.6000000238419","","3","1","null","null","arrowup","[0.675,0.325,0.15,0.85]","","",""
"sailing-trial","333","2413226","0.0-11.0-286.0","","","","false","","","","","","","","","","89.19999998807907","","150.5999999642372","","0","1","arrowleft","0","arrowleft","[0.675,0.325,0.15,0.85]","","",""
"sailing-trial","334","2414853","0.0-11.0-287.0","","","","false","","","","","","","","","","null","","291.60000002384186","","2","0","null","null","arrowup","[0.675,0.325,0.15,0.85]","","",""
"sailing-trial","335","2417337","0.0-11.0-288.0","","","","false","","","","","","","","","","24.900000035762787","","133.80000001192093","","0","0","arrowleft","0","arrowleft","[0.675,0.325,0.15,0.85]","","",""
"sailing-trial","336","2418941","0.0-11.0-289.0","","","","false","","","","","","","","","","null","","220.79999995231628","","2","0","null","null","arrowup","[0.675,0.325,0.15,0.85]","","",""
"sailing-trial","337","2422244","0.0-11.0-290.0","","","","false","","","","","","","","","","215","","716.2999999523163","","1","0","arrowleft","0","arrowright","[0.675,0.325,0.15,0.85]","","",""
"sailing-trial","338","2424297","0.0-11.0-291.0","","","","false","","","","","","","","","","null","","179.10000002384186","","0","1","null","null","arrowup","[0.675,0.325,0.15,0.85]","","",""
"sailing-trial","339","2427598","0.0-11.0-292.0","","","","false","","","","","","","","","","180.30000001192093","","52.59999996423721","","3","1","arrowright","1","arrowright","[0.675,0.325,0.15,0.85]","","",""
"sailing-trial","340","2429122","0.0-11.0-293.0","","","","false","","","","","","","","","","null","","111.69999998807907","","1","0","null","null","arrowup","[0.675,0.325,0.15,0.85]","","",""
"sailing-trial","341","2432404","0.0-11.0-294.0","","","","false","","","","","","","","","","75.59999996423721","","93.39999997615814","","1","1","arrowleft","0","arrowright","[0.675,0.325,0.15,0.85]","","",""
"sailing-trial","342","2434264","0.0-11.0-295.0","","","","false","","","","","","","","","","null","","28.399999976158142","","1","1","null","null","arrowup","[0.675,0.325,0.15,0.85]","","",""
"sailing-trial","343","2437575","0.0-11.0-296.0","","","","false","","","","","","","","","","392.2999999523163","","31.899999976158142","","0","1","arrowleft","0","arrowleft","[0.675,0.325,0.15,0.85]","","",""
"sailing-trial","344","2438906","0.0-11.0-297.0","","","","false","","","","","","","","","","null","","76.39999997615814","","2","0","null","null","arrowup","[0.675,0.325,0.15,0.85]","","",""
"sailing-trial","345","2441404","0.0-11.0-298.0","","","","false","","","","","","","","","","107.09999996423721","","45.60000002384186","","1","0","arrowleft","0","arrowright","[0.675,0.325,0.15,0.85]","","",""
"sailing-trial","346","2442859","0.0-11.0-299.0","","","","false","","","","","","","","","","null","","234","","1","0","null","null","arrowup","[0.675,0.325,0.15,0.85]","","",""
"sailing-trial","347","2445413","0.0-11.0-300.0","","","","false","","","","","","","","","","10.699999988079071","","59","","0","0","arrowleft","0","arrowleft","[0.85,0.15,0.325,0.675]","","",""
"sailing-trial","348","2446873","0.0-11.0-301.0","","","","false","","","","","","","","","","null","","378.2999999523163","","1","0","null","null","arrowup","[0.85,0.15,0.325,0.675]","","",""
"sailing-trial","349","2450352","0.0-11.0-302.0","","","","false","","","","","","","","","","228.79999995231628","","67.40000003576279","","0","1","arrowleft","0","arrowleft","[0.85,0.15,0.325,0.675]","","",""
"sailing-trial","350","2452132","0.0-11.0-303.0","","","","false","","","","","","","","","","null","","126.5","","1","0","null","null","arrowup","[0.85,0.15,0.325,0.675]","","",""
"sailing-trial","351","2455428","0.0-11.0-304.0","","","","false","","","","","","","","","","105.59999996423721","","157.0999999642372","","0","1","arrowleft","0","arrowleft","[0.85,0.15,0.325,0.675]","","",""
"sailing-trial","352","2457434","0.0-11.0-305.0","","","","false","","","","","","","","","","null","","169.39999997615814","","2","1","null","null","arrowup","[0.85,0.15,0.325,0.675]","","",""
"sailing-trial","353","2460975","0.0-11.0-306.0","","","","false","","","","","","","","","","76.19999998807907","","61.700000047683716","","3","1","arrowright","1","arrowright","[0.85,0.15,0.325,0.675]","","",""
"sailing-trial","354","2462769","0.0-11.0-307.0","","","","false","","","","","","","","","","null","","86.39999997615814","","2","1","null","null","arrowup","[0.85,0.15,0.325,0.675]","","",""
"sailing-trial","355","2465228","0.0-11.0-308.0","","","","false","","","","","","","","","","101.29999995231628","","40","","1","0","arrowleft","0","arrowright","[0.85,0.15,0.325,0.675]","","",""
"sailing-trial","356","2466528","0.0-11.0-309.0","","","","false","","","","","","","","","","null","","145.5","","2","0","null","null","arrowup","[0.85,0.15,0.325,0.675]","","",""
"sailing-trial","357","2469484","0.0-11.0-310.0","","","","false","","","","","","","","","","396.10000002384186","","77.5","","3","0","arrowright","1","arrowright","[0.85,0.15,0.325,0.675]","","",""
"sailing-trial","358","2470697","0.0-11.0-311.0","","","","false","","","","","","","","","","null","","10.900000035762787","","3","0","null","null","arrowup","[0.85,0.15,0.325,0.675]","","",""
"sailing-trial","359","2473172","0.0-11.0-312.0","","","","false","","","","","","","","","","92","","13.700000047683716","","2","0","arrowright","1","arrowleft","[0.85,0.15,0.325,0.675]","","",""
"sailing-trial","360","2475120","0.0-11.0-313.0","","","","false","","","","","","","","","","null","","178","","3","1","null","null","arrowup","[0.85,0.15,0.325,0.675]","","",""
"sailing-trial","361","2483187","0.0-11.0-314.0","","","","false","","","","","","","","","","86.89999997615814","","3756","","2","0","arrowright","1","arrowleft","[0.85,0.15,0.325,0.675]","","",""
"sailing-trial","362","2486036","0.0-11.0-315.0","","","","false","","","","","","","","","","null","","444.30000001192093","","0","1","null","null","arrowup","[0.85,0.15,0.325,0.675]","","",""
"sailing-trial","363","2491250","0.0-11.0-316.0","","","","false","","","","","","","","","","868.1999999880791","","125.80000001192093","","1","0","arrowleft","0","arrowright","[0.85,0.15,0.325,0.675]","","",""
"sailing-trial","364","2492972","0.0-11.0-317.0","","","","false","","","","","","","","","","null","","124.39999997615814","","0","0","null","null","arrowup","[0.85,0.15,0.325,0.675]","","",""
"sailing-trial","365","2497055","0.0-11.0-318.0","","","","false","","","","","","","","","","668.5999999642372","","571.5","","2","1","arrowright","1","arrowleft","[0.85,0.15,0.325,0.675]","","",""
"sailing-trial","366","2498425","0.0-11.0-319.0","","","","false","","","","","","","","","","null","","192.70000004768372","","1","0","null","null","arrowup","[0.85,0.15,0.325,0.675]","","",""
"sailing-trial","367","2501790","0.0-11.0-320.0","","","","false","","","","","","","","","","285.39999997615814","","12.599999964237213","","1","1","arrowleft","0","arrowright","[0.15,0.85,0.675,0.325]","","",""
"sailing-trial","368","2506958","0.0-11.0-321.0","","","","false","","","","","","","","","","null","","2128.300000011921","","3","0","null","null","arrowup","[0.15,0.85,0.675,0.325]","","",""
"sailing-trial","369","2510490","0.0-11.0-322.0","","","","false","","","","","","","","","","16.19999998807907","","204.30000001192093","","3","1","arrowright","1","arrowright","[0.15,0.85,0.675,0.325]","","",""
"sailing-trial","370","2512170","0.0-11.0-323.0","","","","false","","","","","","","","","","null","","108.69999998807907","","0","0","null","null","arrowup","[0.15,0.85,0.675,0.325]","","",""
"sailing-trial","371","2516886","0.0-11.0-324.0","","","","false","","","","","","","","","","479.60000002384186","","269.10000002384186","","0","1","arrowleft","0","arrowleft","[0.15,0.85,0.675,0.325]","","",""
"sailing-trial","372","2521673","0.0-11.0-325.0","","","","false","","","","","","","","","","null","","142.5","","1","1","null","null","arrowup","[0.15,0.85,0.675,0.325]","","",""
"sailing-trial","373","2525577","0.0-11.0-326.0","","","","false","","","","","","","","","","220.69999998807907","","98.69999998807907","","1","1","arrowleft","0","arrowright","[0.15,0.85,0.675,0.325]","","",""
"sailing-trial","374","2529157","0.0-11.0-327.0","","","","false","","","","","","","","","","null","","1087.800000011921","","2","1","null","null","arrowup","[0.15,0.85,0.675,0.325]","","",""
"sailing-trial","375","2533557","0.0-11.0-328.0","","","","false","","","","","","","","","","137.39999997615814","","206.5","","1","1","arrowleft","0","arrowright","[0.15,0.85,0.675,0.325]","","",""
"sailing-trial","376","2534826","0.0-11.0-329.0","","","","false","","","","","","","","","","null","","129.4000000357628","","2","0","null","null","arrowup","[0.15,0.85,0.675,0.325]","","",""
"sailing-trial","377","2538446","0.0-11.0-330.0","","","","false","","","","","","","","","","36.89999997615814","","118.70000004768372","","1","1","arrowleft","0","arrowright","[0.15,0.85,0.675,0.325]","","",""
"sailing-trial","378","2540393","0.0-11.0-331.0","","","","false","","","","","","","","","","null","","321.5","","2","1","null","null","arrowup","[0.15,0.85,0.675,0.325]","","",""
"sailing-trial","379","2544274","0.0-11.0-332.0","","","","false","","","","","","","","","","30.19999998807907","","373.9000000357628","","2","1","arrowright","1","arrowleft","[0.15,0.85,0.675,0.325]","","",""
"sailing-trial","380","2547060","0.0-11.0-333.0","","","","false","","","","","","","","","","null","","0.3999999761581421","","1","1","null","null","arrowup","[0.15,0.85,0.675,0.325]","","",""
"sailing-trial","381","2551930","0.0-11.0-334.0","","","","false","","","","","","","","","","34.89999997615814","","527.3999999761581","","2","1","arrowright","1","arrowleft","[0.15,0.85,0.675,0.325]","","",""
"sailing-trial","382","2555616","0.0-11.0-335.0","","","","false","","","","","","","","","","null","","2028.3999999761581","","0","0","null","null","arrowup","[0.15,0.85,0.675,0.325]","","",""
"sailing-trial","383","2558688","0.0-11.0-336.0","","","","false","","","","","","","","","","77.90000003576279","","174","","2","1","arrowright","1","arrowleft","[0.15,0.85,0.675,0.325]","","",""
"sailing-trial","384","2560578","0.0-11.0-337.0","","","","false","","","","","","","","","","null","","191.39999997615814","","1","1","null","null","arrowup","[0.15,0.85,0.675,0.325]","","",""
"sailing-trial","385","2563683","0.0-11.0-338.0","","","","false","","","","","","","","","","109.39999997615814","","98.19999998807907","","1","1","arrowleft","0","arrowright","[0.15,0.85,0.675,0.325]","","",""
"sailing-trial","386","2565979","0.0-11.0-339.0","","","","false","","","","","","","","","","null","","674.8000000119209","","1","1","null","null","arrowup","[0.15,0.85,0.675,0.325]","","",""
"sailing-trial","387","2570428","0.0-11.0-340.0","","","","false","","","","","","","","","","915.8000000119209","","232.30000001192093","","2","1","arrowright","1","arrowleft","[0.325,0.675,0.85,0.15]","","",""
"sailing-trial","388","2576301","0.0-11.0-341.0","","","","false","","","","","","","","","","null","","2959.399999976158","","3","0","null","null","arrowup","[0.325,0.675,0.85,0.15]","","",""
"sailing-trial","389","2579697","0.0-11.0-342.0","","","","false","","","","","","","","","","500","","475.80000001192093","","2","0","arrowright","1","arrowleft","[0.325,0.675,0.85,0.15]","","",""
"sailing-trial","390","2581845","0.0-11.0-343.0","","","","false","","","","","","","","","","null","","904.1000000238419","","1","0","null","null","arrowup","[0.325,0.675,0.85,0.15]","","",""
"sailing-trial","391","2586529","0.0-11.0-344.0","","","","false","","","","","","","","","","129.10000002384186","","1129.300000011921","","1","0","arrowleft","0","arrowright","[0.325,0.675,0.85,0.15]","","",""
"sailing-trial","392","2588012","0.0-11.0-345.0","","","","false","","","","","","","","","","null","","179.89999997615814","","0","0","null","null","arrowup","[0.325,0.675,0.85,0.15]","","",""
"sailing-trial","393","2592798","0.0-11.0-346.0","","","","false","","","","","","","","","","1172.300000011921","","393.69999998807907","","0","1","arrowleft","0","arrowleft","[0.325,0.675,0.85,0.15]","","",""
"sailing-trial","394","2594565","0.0-11.0-347.0","","","","false","","","","","","","","","","null","","120.39999997615814","","2","1","null","null","arrowup","[0.325,0.675,0.85,0.15]","","",""
"sailing-trial","395","2597596","0.0-11.0-348.0","","","","false","","","","","","","","","","209.5","","123.60000002384186","","3","0","arrowright","1","arrowright","[0.325,0.675,0.85,0.15]","","",""
"sailing-trial","396","2600232","0.0-11.0-349.0","","","","false","","","","","","","","","","null","","1004.2999999523163","","0","1","null","null","arrowup","[0.325,0.675,0.85,0.15]","","",""
"sailing-trial","397","2603533","0.0-11.0-350.0","","","","false","","","","","","","","","","0.30000001192092896","","99.80000001192093","","1","1","arrowleft","0","arrowright","[0.325,0.675,0.85,0.15]","","",""
"sailing-trial","398","2605715","0.0-11.0-351.0","","","","false","","","","","","","","","","null","","354.0999999642372","","1","1","null","null","arrowup","[0.325,0.675,0.85,0.15]","","",""
"sailing-trial","399","2608975","0.0-11.0-352.0","","","","false","","","","","","","","","","292.5","","170.10000002384186","","2","1","arrowright","1","arrowleft","[0.325,0.675,0.85,0.15]","","",""
"sailing-trial","400","2612421","0.0-11.0-353.0","","","","false","","","","","","","","","","null","","399.5999999642372","","3","0","null","null","arrowup","[0.325,0.675,0.85,0.15]","","",""
"sailing-trial","401","2616078","0.0-11.0-354.0","","","","false","","","","","","","","","","66","","54","","0","0","arrowleft","0","arrowleft","[0.325,0.675,0.85,0.15]","","",""
"sailing-trial","402","2618106","0.0-11.0-355.0","","","","false","","","","","","","","","","null","","247.80000001192093","","3","0","null","null","arrowup","[0.325,0.675,0.85,0.15]","","",""
"sailing-trial","403","2621123","0.0-11.0-356.0","","","","false","","","","","","","","","","12.700000047683716","","38.60000002384186","","0","1","arrowleft","0","arrowleft","[0.325,0.675,0.85,0.15]","","",""
"sailing-trial","404","2623116","0.0-11.0-357.0","","","","false","","","","","","","","","","null","","107.89999997615814","","2","1","null","null","arrowup","[0.325,0.675,0.85,0.15]","","",""
"sailing-trial","405","2626333","0.0-11.0-358.0","","","","false","","","","","","","","","","612.5","","87.69999998807907","","1","0","arrowleft","0","arrowright","[0.325,0.675,0.85,0.15]","","",""
"sailing-trial","406","2629865","0.0-11.0-359.0","","","","false","","","","","","","","","","null","","2304.400000035763","","0","0","null","null","arrowup","[0.325,0.675,0.85,0.15]","","",""
"sailing-trial","407","2633258","0.0-11.0-360.0","","","","false","","","","","","","","","","381","","91.20000004768372","","0","1","arrowleft","0","arrowleft","[0.325,0.675,0.85,0.15]","","",""
"sailing-trial","408","2635708","0.0-11.0-361.0","","","","false","","","","","","","","","","null","","38.30000001192093","","3","0","null","null","arrowup","[0.325,0.675,0.85,0.15]","","",""
"sailing-trial","409","2640649","0.0-11.0-362.0","","","","false","","","","","","","","","","66.90000003576279","","627.0999999642372","","0","0","arrowleft","0","arrowleft","[0.15,0.85,0.675,0.325]","","",""
"sailing-trial","410","2643636","0.0-11.0-363.0","","","","false","","","","","","","","","","null","","540.7999999523163","","1","1","null","null","arrowup","[0.15,0.85,0.675,0.325]","","",""
"sailing-trial","411","2648275","0.0-11.0-364.0","","","","false","","","","","","","","","","123","","1990.7000000476837","","0","0","arrowleft","0","arrowleft","[0.15,0.85,0.675,0.325]","","",""
"sailing-trial","412","2652886","0.0-11.0-365.0","","","","false","","","","","","","","","","null","","507.89999997615814","","2","1","null","null","arrowup","[0.15,0.85,0.675,0.325]","","",""
"sailing-trial","413","2658924","0.0-11.0-366.0","","","","false","","","","","","","","","","2180.900000035763","","160.4000000357628","","0","0","arrowleft","0","arrowleft","[0.15,0.85,0.675,0.325]","","",""
"sailing-trial","414","2662223","0.0-11.0-367.0","","","","false","","","","","","","","","","null","","250.4000000357628","","0","0","null","null","arrowup","[0.15,0.85,0.675,0.325]","","",""
"sailing-trial","415","2666981","0.0-11.0-368.0","","","","false","","","","","","","","","","311.5","","193","","0","0","arrowleft","0","arrowleft","[0.15,0.85,0.675,0.325]","","",""
"sailing-trial","416","2671770","0.0-11.0-369.0","","","","false","","","","","","","","","","null","","1834","","1","1","null","null","arrowup","[0.15,0.85,0.675,0.325]","","",""
"sailing-trial","417","2676025","0.0-11.0-370.0","","","","false","","","","","","","","","","284.19999998807907","","1070.6000000238419","","1","1","arrowleft","0","arrowright","[0.15,0.85,0.675,0.325]","","",""
"sailing-trial","418","2677855","0.0-11.0-371.0","","","","false","","","","","","","","","","null","","165.0999999642372","","3","1","null","null","arrowup","[0.15,0.85,0.675,0.325]","","",""
"sailing-trial","419","2680465","0.0-11.0-372.0","","","","false","","","","","","","","","","231.4000000357628","","43.30000001192093","","3","0","arrowright","1","arrowright","[0.15,0.85,0.675,0.325]","","",""
"sailing-trial","420","2682356","0.0-11.0-373.0","","","","false","","","","","","","","","","null","","292.30000001192093","","2","1","null","null","arrowup","[0.15,0.85,0.675,0.325]","","",""
"sailing-trial","421","2685364","0.0-11.0-374.0","","","","false","","","","","","","","","","83.19999998807907","","175.39999997615814","","3","0","arrowright","1","arrowright","[0.15,0.85,0.675,0.325]","","",""
"sailing-trial","422","2686912","0.0-11.0-375.0","","","","false","","","","","","","","","","null","","466","","0","0","null","null","arrowup","[0.15,0.85,0.675,0.325]","","",""
"sailing-trial","423","2691926","0.0-11.0-376.0","","","","false","","","","","","","","","","429.30000001192093","","1406.199999988079","","1","1","arrowleft","0","arrowright","[0.15,0.85,0.675,0.325]","","",""
"sailing-trial","424","2694156","0.0-11.0-377.0","","","","false","","","","","","","","","","null","","1009.1000000238419","","2","0","null","null","arrowup","[0.15,0.85,0.675,0.325]","","",""
"sailing-trial","425","2697243","0.0-11.0-378.0","","","","false","","","","","","","","","","130.89999997615814","","557.6999999880791","","3","0","arrowright","1","arrowright","[0.15,0.85,0.675,0.325]","","",""
"sailing-trial","426","2700791","0.0-11.0-379.0","","","","false","","","","","","","","","","null","","1597","","2","1","null","null","arrowup","[0.15,0.85,0.675,0.325]","","",""
"sailing-trial","427","2704315","0.0-11.0-380.0","","","","false","","","","","","","","","","15.699999988079071","","627.8000000119209","","3","1","arrowright","1","arrowright","[0.325,0.675,0.85,0.15]","","",""
"sailing-trial","428","2707108","0.0-11.0-381.0","","","","false","","","","","","","","","","null","","1053.4000000357628","","3","1","null","null","arrowup","[0.325,0.675,0.85,0.15]","","",""
"sailing-trial","429","2710049","0.0-11.0-382.0","","","","false","","","","","","","","","","298.2000000476837","","302.19999998807907","","3","0","arrowright","1","arrowright","[0.325,0.675,0.85,0.15]","","",""
"sailing-trial","430","2711411","0.0-11.0-383.0","","","","false","","","","","","","","","","null","","108","","1","0","null","null","arrowup","[0.325,0.675,0.85,0.15]","","",""
"sailing-trial","431","2714691","0.0-11.0-384.0","","","","false","","","","","","","","","","235","","155.9000000357628","","1","1","arrowleft","0","arrowright","[0.325,0.675,0.85,0.15]","","",""
"sailing-trial","432","2716725","0.0-11.0-385.0","","","","false","","","","","","","","","","null","","321.9000000357628","","1","1","null","null","arrowup","[0.325,0.675,0.85,0.15]","","",""
"sailing-trial","433","2720186","0.0-11.0-386.0","","","","false","","","","","","","","","","289.30000001192093","","329.10000002384186","","3","1","arrowright","1","arrowright","[0.325,0.675,0.85,0.15]","","",""
"sailing-trial","434","2722225","0.0-11.0-387.0","","","","false","","","","","","","","","","null","","419.30000001192093","","1","1","null","null","arrowup","[0.325,0.675,0.85,0.15]","","",""
"sailing-trial","435","2726060","0.0-11.0-388.0","","","","false","","","","","","","","","","52.5","","938.6999999880791","","1","1","arrowleft","0","arrowright","[0.325,0.675,0.85,0.15]","","",""
"sailing-trial","436","2729792","0.0-11.0-389.0","","","","false","","","","","","","","","","null","","2049.600000023842","","2","1","null","null","arrowup","[0.325,0.675,0.85,0.15]","","",""
"sailing-trial","437","2732774","0.0-11.0-390.0","","","","false","","","","","","","","","","45.69999998807907","","533.1999999880791","","3","0","arrowright","1","arrowright","[0.325,0.675,0.85,0.15]","","",""
"sailing-trial","438","2734646","0.0-11.0-391.0","","","","false","","","","","","","","","","null","","192.0999999642372","","3","1","null","null","arrowup","[0.325,0.675,0.85,0.15]","","",""
"sailing-trial","439","2737944","0.0-11.0-392.0","","","","false","","","","","","","","","","375.5999999642372","","521.4000000357628","","3","0","arrowright","1","arrowright","[0.325,0.675,0.85,0.15]","","",""
"sailing-trial","440","2741195","0.0-11.0-393.0","","","","false","","","","","","","","","","null","","1654.8999999761581","","1","1","null","null","arrowup","[0.325,0.675,0.85,0.15]","","",""
"sailing-trial","441","2743844","0.0-11.0-394.0","","","","false","","","","","","","","","","115.40000003576279","","203.39999997615814","","0","0","arrowleft","0","arrowleft","[0.325,0.675,0.85,0.15]","","",""
"sailing-trial","442","2745876","0.0-11.0-395.0","","","","false","","","","","","","","","","null","","489.5","","3","0","null","null","arrowup","[0.325,0.675,0.85,0.15]","","",""
"sailing-trial","443","2750558","0.0-11.0-396.0","","","","false","","","","","","","","","","1084.3999999761581","","462.2000000476837","","0","1","arrowleft","0","arrowleft","[0.325,0.675,0.85,0.15]","","",""
"sailing-trial","444","2752385","0.0-11.0-397.0","","","","false","","","","","","","","","","null","","599.5","","3","0","null","null","arrowup","[0.325,0.675,0.85,0.15]","","",""
"sailing-trial","445","2757849","0.0-11.0-398.0","","","","false","","","","","","","","","","672.3000000119209","","1898.0999999642372","","2","1","arrowright","1","arrowleft","[0.325,0.675,0.85,0.15]","","",""
"sailing-trial","446","2760059","0.0-11.0-399.0","","","","false","","","","","","","","","","null","","1022.7999999523163","","3","0","null","null","arrowup","[0.325,0.675,0.85,0.15]","","",""
"instructions","447","2763700","0.0-12.0","","","","","","","","","","3638.7000000476837","","","","","","","","","","","","","","","","[{""page_index"":0,""viewing_time"":3637.300000011921}]"
"survey-debrief","448","2795187","0.0-13.0","","","","","","","","","","31483.19999998808","","","","","","","","","","","","","","{""difficulty"":""4"",""fun"":""3"",""clarity"":""5"",""strategy"":""No not really"",""feedback"":""Yellow seemed to be more favorable""}","",""
