"trial_type","trial_index","time_elapsed","internal_node_id","value","metadata","success","timeout","failed_images","failed_audio","failed_video","browser_interaction","low_quality","rt","stimulus","response","button_pressed","island_rt","island_response","boat_rt","boat_response","boat","reward","island_key","island","boat_key","reward_probabilities","responses","num_errors","view_history"
"pavlovia","0","3","0.0-0.0","","","","","","","","","","","","","","","","","","","","","","","","","",""
"call-function","1","4","0.0-1.0","","{""task_version"":""sailing_part1_v1"",""task_condition"":""good"",""boats"":[""D"",""B"",""A"",""C""],""boats_demo"":[""F"",""E"",""H"",""G""],""islands"":[""B"",""A""],""subject_id"":""14036"",""age"":""13"",""gender"":""Male""}","","","","","","","","","","","","","","","","","","","","","","","",""
"preload","2","1585","0.0-2.0","","","true","false","[]","[]","[]","[{""event"":""fullscreenenter"",""trial"":3,""time"":11926}]","false","","","","","","","","","","","","","","","","",""
"fullscreen","3","12914","0.0-3.0","","","true","","","","","","","","","","","","","","","","","","","","","","",""
"audio-keyboard-response","4","26085","0.0-4.0-0.0","","","","","","","","","","13170.666666666668","audio/beep_loop.wav","audiovolumeup","","","","","","","","","","","","","",""
"audio-test","5","27877","0.0-4.0-1.0","","","","","","","","","","null","audio/turtle.mp3","","3","","","","","","","","","","","","",""
"audio-test","6","31181","0.0-4.0-2.0","","","","","","","","","","null","audio/shark.mp3","","2","","","","","","","","","","","","",""
"sailing-instructions","7","189366","0.0-5.0-0.0-0.0","","","","","","","","","","","","","","null","null","null","null","null","null","","","","","","",""
"sailing-trial","8","193163","0.0-5.0-0.0-1.0-0.0","","","","false","","","","","","","","","","2652.39999999851","","null","","null","null","arrowleft","0","null","null","","",""
"sailing-trial","9","195150","0.0-5.0-0.0-1.0-1.0","","","","false","","","","","","","","","","852.6000000014901","","null","","null","null","arrowright","1","null","null","","",""
"sailing-trial","10","196795","0.0-5.0-0.0-1.0-2.0","","","","false","","","","","","","","","","523.3999999985099","","null","","null","null","arrowright","1","null","null","","",""
"sailing-instructions","11","237537","0.0-5.0-0.0-2.0","","","","","","","","","","","","","","null","null","null","null","0","null","","","","","","",""
"sailing-trial","12","243206","0.0-5.0-0.0-3.0-0.0","","","","false","","","","","","","","","","null","","1905.7999999970198","","2","1","null","null","arrowleft","[1,1,1,1]","","",""
"sailing-trial","13","247254","0.0-5.0-0.0-3.0-1.0","","","","false","","","","","","","","","","null","","1096.0999999977648","","3","1","null","null","arrowright","[1,1,1,1]","","",""
"sailing-trial","14","250089","0.0-5.0-0.0-3.0-2.0","","","","false","","","","","","","","","","null","","169.40000000223517","","2","0","null","null","arrowleft","[0,0,0,0]","","",""
"sailing-instructions","15","257692","0.0-5.0-0.0-4.0","","","","","","","","","","","","","","null","null","null","null","null","null","","","","","","",""
"sailing-comprehension","16","293292","0.0-5.0-0.0-5.0","","","","","","","","","","21327.199999999255","","","","","","","","","","","","","","[""true"",""true"",""false"",""true""]","0",""
"sailing-instructions","17","404946","0.0-6.0-0.0-0.0","","","","","","","","","","","","","","null","null","null","null","null","null","","","","","","",""
"sailing-comprehension","18","452661","0.0-6.0-0.0-1.0","","","","","","","","","","42530.10000000149","","","","","","","","","","","","","","[""true"",""true"",""true""]","1",""
"sailing-instructions","19","519522","0.0-6.0-0.1-0.1","","","","","","","","","","","","","","null","null","null","null","null","null","","","","","","",""
"sailing-comprehension","20","526767","0.0-6.0-0.1-1.1","","","","","","","","","","4532.599999997765","","","","","","","","","","","","","","[""true"",""false"",""true""]","0",""
"sailing-instructions","21","541486","0.0-7.0-0.0-0.0","","","","","","","","","","","","","","null","null","null","null","null","null","","","","","","",""
"sailing-trial","22","548795","0.0-7.0-0.0-1.0-0.0","","","","false","","","","","","","","","","null","","4679.60000000149","","0","0","null","null","arrowup","[0.2,0.8,0.2,0.8]","","",""
"sailing-trial","23","551657","0.0-7.0-0.0-1.0-1.0","","","","false","","","","","","","","","","null","","822.2000000029802","","1","1","null","null","arrowup","[0.2,0.8,0.2,0.8]","","",""
"sailing-trial","24","554841","0.0-7.0-0.0-1.0-2.0","","","","false","","","","","","","","","","null","","1838.699999999255","","2","0","null","null","arrowup","[0.2,0.8,0.2,0.8]","","",""
"sailing-trial","25","557806","0.0-7.0-0.0-1.0-3.0","","","","false","","","","","","","","","","null","","1338.8999999985099","","3","1","null","null","arrowup","[0.2,0.8,0.2,0.8]","","",""
"sailing-comprehension","26","571376","0.0-7.0-0.0-2.0","","","","","","","","","","7984.099999997765","","","","","","","","","","","","","","[""true""]","1",""
"sailing-instructions","27","589493","0.0-7.0-0.1-0.1","","","","","","","","","","","","","","null","null","null","null","null","null","","","","","","",""
"sailing-trial","28","601177","0.0-7.0-0.1-1.1-0.1","","","","false","","","","","","","","","","null","","9043.60000000149","","0","1","null","null","arrowup","[0.2,0.8,0.2,0.8]","","",""
"sailing-trial","29","603007","0.0-7.0-0.1-1.1-1.1","","","","false","","","","","","","","","","null","","137.29999999701977","","1","1","null","null","arrowup","[0.2,0.8,0.2,0.8]","","",""
"sailing-trial","30","604248","0.0-7.0-0.1-1.1-2.1","","","","false","","","","","","","","","","null","","36.599999997764826","","2","0","null","null","arrowup","[0.2,0.8,0.2,0.8]","","",""
"sailing-trial","31","605924","0.0-7.0-0.1-1.1-3.1","","","","false","","","","","","","","","","null","","120.30000000074506","","3","1","null","null","arrowup","[0.2,0.8,0.2,0.8]","","",""
"sailing-comprehension","32","609035","0.0-7.0-0.1-2.1","","","","","","","","","","2480.300000000745","","","","","","","","","","","","","","[""false""]","0",""
"sailing-instructions","33","619587","0.0-8.0-0.0-0.0","","","","","","","","","","","","","","null","null","null","null","null","null","","","","","","",""
"sailing-comprehension","34","626038","0.0-8.0-0.0-1.0","","","","","","","","","","5408.199999999255","","","","","","","","","","","","","","[""true""]","0",""
"sailing-instructions","35","647681","0.0-9.0-0.0-0.0","","","","","","","","","","","","","","null","null","null","null","null","null","","","","","","",""
"sailing-trial","36","652364","0.0-9.0-0.0-1.0-0.0","","","","false","","","","","","","","","","1186.199999999255","","293.30000000074506","","2","0","arrowright","1","arrowleft","[0.2,0.8,0.2,0.8]","","",""
"sailing-trial","37","655567","0.0-9.0-0.0-1.0-1.0","","","","false","","","","","","","","","","175.5","","98.89999999850988","","3","1","arrowright","1","arrowright","[0.2,0.8,0.2,0.8]","","",""
"sailing-trial","38","658077","0.0-9.0-0.0-1.0-2.0","","","","false","","","","","","","","","","null","","1409.3999999985099","","0","0","null","null","arrowup","[0.2,0.8,0.2,0.8]","","",""
"sailing-trial","39","661078","0.0-9.0-0.0-1.0-3.0","","","","false","","","","","","","","","","583.9000000022352","","129.60000000149012","","0","0","arrowleft","0","arrowleft","[0.2,0.8,0.2,0.8]","","",""
"sailing-trial","40","664039","0.0-9.0-0.0-1.0-4.0","","","","false","","","","","","","","","","null","","1236.300000000745","","3","1","null","null","arrowup","[0.2,0.8,0.2,0.8]","","",""
"sailing-trial","41","667102","0.0-9.0-0.0-1.0-5.0","","","","false","","","","","","","","","","221.40000000223517","","131.10000000149012","","3","1","arrowright","1","arrowright","[0.2,0.8,0.2,0.8]","","",""
"sailing-instructions","42","691530","0.0-10.0","","","","","","","","","","","","","","null","null","null","null","null","null","","","","","","",""
"sailing-trial","43","695005","0.0-11.0-0.0","","","","false","","","","","","","","","","931.8000000007451","","29.5","","3","0","arrowright","1","arrowright","[0.675,0.325,0.15,0.85]","","",""
"sailing-trial","44","697818","0.0-11.0-1.0","","","","false","","","","","","","","","","null","","1065.0999999977648","","3","1","null","null","arrowup","[0.675,0.325,0.15,0.85]","","",""
"sailing-trial","45","700487","0.0-11.0-2.0","","","","false","","","","","","","","","","407","","107.90000000223517","","2","0","arrowright","1","arrowleft","[0.675,0.325,0.15,0.85]","","",""
"sailing-trial","46","703282","0.0-11.0-3.0","","","","false","","","","","","","","","","null","","957","","3","1","null","null","arrowup","[0.675,0.325,0.15,0.85]","","",""
"sailing-trial","47","706480","0.0-11.0-4.0","","","","false","","","","","","","","","","22.600000001490116","","324.0999999977648","","0","1","arrowleft","0","arrowleft","[0.675,0.325,0.15,0.85]","","",""
"sailing-trial","48","708617","0.0-11.0-5.0","","","","false","","","","","","","","","","null","","1081.800000000745","","0","0","null","null","arrowup","[0.675,0.325,0.15,0.85]","","",""
"sailing-trial","49","711411","0.0-11.0-6.0","","","","false","","","","","","","","","","301.80000000074506","","320.9000000022352","","0","0","arrowleft","0","arrowleft","[0.675,0.325,0.15,0.85]","","",""
"sailing-trial","50","714206","0.0-11.0-7.0","","","","false","","","","","","","","","","null","","911.0999999977648","","3","1","null","null","arrowup","[0.675,0.325,0.15,0.85]","","",""
"sailing-trial","51","717811","0.0-11.0-8.0","","","","false","","","","","","","","","","565.6999999992549","","284","","1","1","arrowleft","0","arrowright","[0.675,0.325,0.15,0.85]","","",""
"sailing-trial","52","719974","0.0-11.0-9.0","","","","false","","","","","","","","","","null","","1090.4000000022352","","1","0","null","null","arrowup","[0.675,0.325,0.15,0.85]","","",""
"sailing-trial","53","723374","0.0-11.0-10.0","","","","false","","","","","","","","","","315.5","","42.099999997764826","","3","1","arrowright","1","arrowright","[0.675,0.325,0.15,0.85]","","",""
"sailing-trial","54","726003","0.0-11.0-11.0","","","","false","","","","","","","","","","null","","1420.9000000022352","","2","0","null","null","arrowup","[0.675,0.325,0.15,0.85]","","",""
"sailing-trial","55","728752","0.0-11.0-12.0","","","","false","","","","","","","","","","287","","299.8999999985099","","1","0","arrowleft","0","arrowright","[0.675,0.325,0.15,0.85]","","",""
"sailing-trial","56","730836","0.0-11.0-13.0","","","","false","","","","","","","","","","null","","1036.5","","2","0","null","null","arrowup","[0.675,0.325,0.15,0.85]","","",""
"sailing-trial","57","733839","0.0-11.0-14.0","","","","false","","","","","","","","","","297.9000000022352","","45.099999997764826","","0","1","arrowleft","0","arrowleft","[0.675,0.325,0.15,0.85]","","",""
"sailing-trial","58","736149","0.0-11.0-15.0","","","","false","","","","","","","","","","null","","734.3000000007451","","0","1","null","null","arrowup","[0.675,0.325,0.15,0.85]","","",""
"sailing-trial","59","739220","0.0-11.0-16.0","","","","false","","","","","","","","","","3.399999998509884","","334.19999999925494","","0","1","arrowleft","0","arrowleft","[0.85,0.15,0.325,0.675]","","",""
"sailing-trial","60","741377","0.0-11.0-17.0","","","","false","","","","","","","","","","null","","989.3999999985099","","0","0","null","null","arrowup","[0.85,0.15,0.325,0.675]","","",""
"sailing-trial","61","744785","0.0-11.0-18.0","","","","false","","","","","","","","","","208.19999999925494","","101.69999999925494","","0","1","arrowleft","0","arrowleft","[0.85,0.15,0.325,0.675]","","",""
"sailing-trial","62","746582","0.0-11.0-19.0","","","","false","","","","","","","","","","null","","671","","0","0","null","null","arrowup","[0.85,0.15,0.325,0.675]","","",""
"sailing-trial","63","749672","0.0-11.0-20.0","","","","false","","","","","","","","","","65.40000000223517","","219.5","","0","1","arrowleft","0","arrowleft","[0.85,0.15,0.325,0.675]","","",""
"sailing-trial","64","753061","0.0-11.0-21.0","","","","false","","","","","","","","","","null","","1740.5","","0","1","null","null","arrowup","[0.85,0.15,0.325,0.675]","","",""
"sailing-trial","65","756636","0.0-11.0-22.0","","","","false","","","","","","","","","","781.8000000007451","","34.600000001490116","","0","1","arrowleft","0","arrowleft","[0.85,0.15,0.325,0.675]","","",""
"sailing-trial","66","759601","0.0-11.0-23.0","","","","false","","","","","","","","","","null","","968","","3","0","null","null","arrowup","[0.85,0.15,0.325,0.675]","","",""
"sailing-trial","67","762639","0.0-11.0-24.0","","","","false","","","","","","","","","","241.69999999925494","","90","","0","1","arrowleft","0","arrowleft","[0.85,0.15,0.325,0.675]","","",""
"sailing-trial","68","766120","0.0-11.0-25.0","","","","false","","","","","","","","","","null","","1062.7000000029802","","2","0","null","null","arrowup","[0.85,0.15,0.325,0.675]","","",""
"sailing-trial","69","768901","0.0-11.0-26.0","","","","false","","","","","","","","","","53.19999999925494","","105","","0","1","arrowleft","0","arrowleft","[0.85,0.15,0.325,0.675]","","",""
"sailing-trial","70","772308","0.0-11.0-27.0","","","","false","","","","","","","","","","null","","880.5999999977648","","0","1","null","null","arrowup","[0.85,0.15,0.325,0.675]","","",""
"sailing-trial","71","775556","0.0-11.0-28.0","","","","false","","","","","","","","","","75.30000000074506","","350.6000000014901","","0","1","arrowleft","0","arrowleft","[0.85,0.15,0.325,0.675]","","",""
"sailing-trial","72","778476","0.0-11.0-29.0","","","","false","","","","","","","","","","null","","694.3999999985099","","0","1","null","null","arrowup","[0.85,0.15,0.325,0.675]","","",""
"sailing-trial","73","781575","0.0-11.0-30.0","","","","false","","","","","","","","","","8","","239.70000000298023","","0","1","arrowleft","0","arrowleft","[0.85,0.15,0.325,0.675]","","",""
"sailing-trial","74","784290","0.0-11.0-31.0","","","","false","","","","","","","","","","null","","296.20000000298023","","3","1","null","null","arrowup","[0.85,0.15,0.325,0.675]","","",""
"sailing-trial","75","787238","0.0-11.0-32.0","","","","false","","","","","","","","","","37.400000002235174","","106.39999999850988","","0","1","arrowleft","0","arrowleft","[0.675,0.325,0.15,0.85]","","",""
"sailing-trial","76","788596","0.0-11.0-33.0","","","","false","","","","","","","","","","null","","113.19999999925494","","2","0","null","null","arrowup","[0.675,0.325,0.15,0.85]","","",""
"sailing-trial","77","791586","0.0-11.0-34.0","","","","false","","","","","","","","","","207.70000000298023","","90.30000000074506","","0","1","arrowleft","0","arrowleft","[0.675,0.325,0.15,0.85]","","",""
"sailing-trial","78","793768","0.0-11.0-35.0","","","","false","","","","","","","","","","null","","84.69999999925494","","0","1","null","null","arrowup","[0.675,0.325,0.15,0.85]","","",""
"sailing-trial","79","797174","0.0-11.0-36.0","","","","false","","","","","","","","","","3.899999998509884","","172.10000000149012","","0","0","arrowleft","0","arrowleft","[0.675,0.325,0.15,0.85]","","",""
"sailing-trial","80","800430","0.0-11.0-37.0","","","","false","","","","","","","","","","null","","726.5","","3","1","null","null","arrowup","[0.675,0.325,0.15,0.85]","","",""
"sailing-trial","81","803543","0.0-11.0-38.0","","","","false","","","","","","","","","","106.30000000074506","","83.40000000223517","","0","1","arrowleft","0","arrowleft","[0.675,0.325,0.15,0.85]","","",""
"sailing-trial","82","805352","0.0-11.0-39.0","","","","false","","","","","","","","","","null","","792.6999999992549","","1","0","null","null","arrowup","[0.675,0.325,0.15,0.85]","","",""
"sailing-trial","83","809125","0.0-11.0-40.0","","","","false","","","","","","","","","","116.69999999925494","","934.6999999992549","","0","1","arrowleft","0","arrowleft","[0.675,0.325,0.15,0.85]","","",""
"sailing-trial","84","812416","0.0-11.0-41.0","","","","false","","","","","","","","","","null","","1116.7000000029802","","3","1","null","null","arrowup","[0.675,0.325,0.15,0.85]","","",""
"sailing-trial","85","816181","0.0-11.0-42.0","","","","false","","","","","","","","","","193.20000000298023","","593.2000000029802","","0","1","arrowleft","0","arrowleft","[0.675,0.325,0.15,0.85]","","",""
"sailing-trial","86","819130","0.0-11.0-43.0","","","","false","","","","","","","","","","null","","379.6000000014901","","0","0","null","null","arrowup","[0.675,0.325,0.15,0.85]","","",""
"sailing-trial","87","821567","0.0-11.0-44.0","","","","false","","","","","","","","","","172.39999999850988","","156.29999999701977","","0","0","arrowleft","0","arrowleft","[0.675,0.325,0.15,0.85]","","",""
"sailing-trial","88","824499","0.0-11.0-45.0","","","","false","","","","","","","","","","null","","673.1999999992549","","3","1","null","null","arrowup","[0.675,0.325,0.15,0.85]","","",""
"sailing-trial","89","827579","0.0-11.0-46.0","","","","false","","","","","","","","","","199.5","","289.6000000014901","","3","1","arrowright","1","arrowright","[0.675,0.325,0.15,0.85]","","",""
"sailing-trial","90","830221","0.0-11.0-47.0","","","","false","","","","","","","","","","null","","590.1999999992549","","3","1","null","null","arrowup","[0.675,0.325,0.15,0.85]","","",""
"sailing-trial","91","832893","0.0-11.0-48.0","","","","false","","","","","","","","","","209.59999999776483","","187.10000000149012","","3","0","arrowright","1","arrowright","[0.85,0.15,0.325,0.675]","","",""
"sailing-trial","92","836332","0.0-11.0-49.0","","","","false","","","","","","","","","","null","","631","","1","0","null","null","arrowup","[0.85,0.15,0.325,0.675]","","",""
"sailing-trial","93","839615","0.0-11.0-50.0","","","","false","","","","","","","","","","382","","91.70000000298023","","3","1","arrowright","1","arrowright","[0.85,0.15,0.325,0.675]","","",""
"sailing-trial","94","843696","0.0-11.0-51.0","","","","false","","","","","","","","","","null","","368.20000000298023","","0","1","null","null","arrowup","[0.85,0.15,0.325,0.675]","","",""
"sailing-trial","95","847194","0.0-11.0-52.0","","","","false","","","","","","","","","","621.1999999992549","","50.30000000074506","","3","1","arrowright","1","arrowright","[0.85,0.15,0.325,0.675]","","",""
"sailing-trial","96","850531","0.0-11.0-53.0","","","","false","","","","","","","","","","null","","1569","","0","1","null","null","arrowup","[0.85,0.15,0.325,0.675]","","",""
"sailing-trial","97","854006","0.0-11.0-54.0","","","","false","","","","","","","","","","585.8999999985099","","30.699999999254942","","0","1","arrowleft","0","arrowleft","[0.85,0.15,0.325,0.675]","","",""
"sailing-trial","98","859767","0.0-11.0-55.0","","","","false","","","","","","","","","","null","","2729.800000000745","","2","0","null","null","arrowup","[0.85,0.15,0.325,0.675]","","",""
"sailing-trial","99","863667","0.0-11.0-56.0","","","","false","","","","","","","","","","839.1000000014901","","269.69999999925494","","0","1","arrowleft","0","arrowleft","[0.85,0.15,0.325,0.675]","","",""
"sailing-trial","100","866632","0.0-11.0-57.0","","","","false","","","","","","","","","","null","","909.0999999977648","","3","1","null","null","arrowup","[0.85,0.15,0.325,0.675]","","",""
"sailing-trial","101","869070","0.0-11.0-58.0","","","","false","","","","","","","","","","191.89999999850988","","187.60000000149012","","3","0","arrowright","1","arrowright","[0.85,0.15,0.325,0.675]","","",""
"sailing-trial","102","872302","0.0-11.0-59.0","","","","false","","","","","","","","","","null","","794.7999999970198","","2","1","null","null","arrowup","[0.85,0.15,0.325,0.675]","","",""
"sailing-trial","103","875566","0.0-11.0-60.0","","","","false","","","","","","","","","","2","","214.60000000149012","","0","0","arrowleft","0","arrowleft","[0.85,0.15,0.325,0.675]","","",""
"sailing-trial","104","879573","0.0-11.0-61.0","","","","false","","","","","","","","","","null","","1129.800000000745","","2","0","null","null","arrowup","[0.85,0.15,0.325,0.675]","","",""
"sailing-trial","105","882811","0.0-11.0-62.0","","","","false","","","","","","","","","","317.29999999701977","","139.80000000074506","","0","1","arrowleft","0","arrowleft","[0.85,0.15,0.325,0.675]","","",""
"sailing-trial","106","884887","0.0-11.0-63.0","","","","false","","","","","","","","","","null","","276.69999999925494","","3","1","null","null","arrowup","[0.85,0.15,0.325,0.675]","","",""
"sailing-trial","107","887757","0.0-11.0-64.0","","","","false","","","","","","","","","","60.80000000074506","","33.80000000074506","","3","1","arrowright","1","arrowright","[0.85,0.15,0.325,0.675]","","",""
"sailing-trial","108","889606","0.0-11.0-65.0","","","","false","","","","","","","","","","null","","227.89999999850988","","3","1","null","null","arrowup","[0.85,0.15,0.325,0.675]","","",""
"sailing-trial","109","892765","0.0-11.0-66.0","","","","false","","","","","","","","","","252.5","","126.19999999925494","","0","1","arrowleft","0","arrowleft","[0.85,0.15,0.325,0.675]","","",""
"sailing-trial","110","894485","0.0-11.0-67.0","","","","false","","","","","","","","","","null","","118.30000000074506","","2","1","null","null","arrowup","[0.85,0.15,0.325,0.675]","","",""
"sailing-trial","111","896890","0.0-11.0-68.0","","","","false","","","","","","","","","","75.29999999701977","","224.80000000074506","","3","0","arrowright","1","arrowright","[0.85,0.15,0.325,0.675]","","",""
"sailing-trial","112","898576","0.0-11.0-69.0","","","","false","","","","","","","","","","null","","534.8000000007451","","1","0","null","null","arrowup","[0.85,0.15,0.325,0.675]","","",""
"sailing-trial","113","901998","0.0-11.0-70.0","","","","false","","","","","","","","","","319.1000000014901","","192.89999999850988","","0","1","arrowleft","0","arrowleft","[0.85,0.15,0.325,0.675]","","",""
"sailing-trial","114","904198","0.0-11.0-71.0","","","","false","","","","","","","","","","null","","8.800000000745058","","2","1","null","null","arrowup","[0.85,0.15,0.325,0.675]","","",""
"sailing-trial","115","906615","0.0-11.0-72.0","","","","false","","","","","","","","","","319.5","","30.800000000745058","","2","0","arrowright","1","arrowleft","[0.675,0.325,0.15,0.85]","","",""
"sailing-trial","116","909645","0.0-11.0-73.0","","","","false","","","","","","","","","","null","","920.7000000029802","","1","0","null","null","arrowup","[0.675,0.325,0.15,0.85]","","",""
"sailing-trial","117","913208","0.0-11.0-74.0","","","","false","","","","","","","","","","1228.0999999977648","","49.70000000298023","","0","0","arrowleft","0","arrowleft","[0.675,0.325,0.15,0.85]","","",""
"sailing-trial","118","916394","0.0-11.0-75.0","","","","false","","","","","","","","","","null","","948.8999999985099","","2","0","null","null","arrowup","[0.675,0.325,0.15,0.85]","","",""
"sailing-trial","119","919803","0.0-11.0-76.0","","","","false","","","","","","","","","","133.89999999850988","","112.59999999776483","","0","1","arrowleft","0","arrowleft","[0.675,0.325,0.15,0.85]","","",""
"sailing-trial","120","923072","0.0-11.0-77.0","","","","false","","","","","","","","","","null","","212.19999999925494","","1","0","null","null","arrowup","[0.675,0.325,0.15,0.85]","","",""
"sailing-trial","121","926760","0.0-11.0-78.0","","","","false","","","","","","","","","","798.5","","3.5","","0","1","arrowleft","0","arrowleft","[0.675,0.325,0.15,0.85]","","",""
"sailing-trial","122","928910","0.0-11.0-79.0","","","","false","","","","","","","","","","null","","92","","0","1","null","null","arrowup","[0.675,0.325,0.15,0.85]","","",""
"sailing-trial","123","932545","0.0-11.0-80.0","","","","false","","","","","","","","","","461.69999999925494","","140.19999999925494","","0","1","arrowleft","0","arrowleft","[0.675,0.325,0.15,0.85]","","",""
"sailing-trial","124","935021","0.0-11.0-81.0","","","","false","","","","","","","","","","null","","853.6999999992549","","3","1","null","null","arrowup","[0.675,0.325,0.15,0.85]","","",""
"sailing-trial","125","938103","0.0-11.0-82.0","","","","false","","","","","","","","","","300.8999999985099","","100.30000000074506","","0","1","arrowleft","0","arrowleft","[0.675,0.325,0.15,0.85]","","",""
"sailing-trial","126","939617","0.0-11.0-83.0","","","","false","","","","","","","","","","null","","74.80000000074506","","1","0","null","null","arrowup","[0.675,0.325,0.15,0.85]","","",""
"sailing-trial","127","942606","0.0-11.0-84.0","","","","false","","","","","","","","","","259.80000000074506","","86.40000000223517","","3","1","arrowright","1","arrowright","[0.675,0.325,0.15,0.85]","","",""
"sailing-trial","128","945838","0.0-11.0-85.0","","","","false","","","","","","","","","","null","","64","","1","1","null","null","arrowup","[0.675,0.325,0.15,0.85]","","",""
"sailing-trial","129","948748","0.0-11.0-86.0","","","","false","","","","","","","","","","145.5","","106.30000000074506","","3","1","arrowright","1","arrowright","[0.675,0.325,0.15,0.85]","","",""
"sailing-trial","130","950435","0.0-11.0-87.0","","","","false","","","","","","","","","","null","","0.19999999925494194","","3","1","null","null","arrowup","[0.675,0.325,0.15,0.85]","","",""
"sailing-trial","131","953778","0.0-11.0-88.0","","","","false","","","","","","","","","","119.39999999850988","","89.69999999925494","","0","0","arrowleft","0","arrowleft","[0.675,0.325,0.15,0.85]","","",""
"sailing-trial","132","955315","0.0-11.0-89.0","","","","false","","","","","","","","","","null","","349.9000000022352","","1","0","null","null","arrowup","[0.675,0.325,0.15,0.85]","","",""
"sailing-trial","133","958323","0.0-11.0-90.0","","","","false","","","","","","","","","","149.89999999850988","","626.8000000007451","","3","0","arrowright","1","arrowright","[0.15,0.85,0.675,0.325]","","",""
"sailing-trial","134","959904","0.0-11.0-91.0","","","","false","","","","","","","","","","null","","340","","0","0","null","null","arrowup","[0.15,0.85,0.675,0.325]","","",""
"sailing-trial","135","962636","0.0-11.0-92.0","","","","false","","","","","","","","","","496.3999999985099","","106.60000000149012","","0","0","arrowleft","0","arrowleft","[0.15,0.85,0.675,0.325]","","",""
"sailing-trial","136","965718","0.0-11.0-93.0","","","","false","","","","","","","","","","null","","948","","2","0","null","null","arrowup","[0.15,0.85,0.675,0.325]","","",""
"sailing-trial","137","968785","0.0-11.0-94.0","","","","false","","","","","","","","","","214.79999999701977","","124.09999999776483","","1","1","arrowleft","0","arrowright","[0.15,0.85,0.675,0.325]","","",""
"sailing-trial","138","972056","0.0-11.0-95.0","","","","false","","","","","","","","","","null","","405.5","","3","0","null","null","arrowup","[0.15,0.85,0.675,0.325]","","",""
"sailing-trial","139","974641","0.0-11.0-96.0","","","","false","","","","","","","","","","191.5","","99.5","","1","0","arrowleft","0","arrowright","[0.15,0.85,0.675,0.325]","","",""
"sailing-trial","140","977068","0.0-11.0-97.0","","","","false","","","","","","","","","","null","","829.6999999992549","","2","1","null","null","arrowup","[0.15,0.85,0.675,0.325]","","",""
"sailing-trial","141","980677","0.0-11.0-98.0","","","","false","","","","","","","","","","138.40000000223517","","140.5","","2","1","arrowright","1","arrowleft","[0.15,0.85,0.675,0.325]","","",""
"sailing-trial","142","983330","0.0-11.0-99.0","","","","false","","","","","","","","","","null","","401.5999999977648","","1","1","null","null","arrowup","[0.15,0.85,0.675,0.325]","","",""
"sailing-trial","143","986739","0.0-11.0-100.0","","","","false","","","","","","","","","","253.19999999925494","","73.20000000298023","","3","0","arrowright","1","arrowright","[0.15,0.85,0.675,0.325]","","",""
"sailing-trial","144","988812","0.0-11.0-101.0","","","","false","","","","","","","","","","null","","779.1999999992549","","0","0","null","null","arrowup","[0.15,0.85,0.675,0.325]","","",""
"sailing-trial","145","991760","0.0-11.0-102.0","","","","false","","","","","","","","","","193.90000000223517","","114.60000000149012","","2","1","arrowright","1","arrowleft","[0.15,0.85,0.675,0.325]","","",""
"sailing-trial","146","995906","0.0-11.0-103.0","","","","false","","","","","","","","","","null","","350.5999999977648","","1","1","null","null","arrowup","[0.15,0.85,0.675,0.325]","","",""
"sailing-trial","147","999346","0.0-11.0-104.0","","","","false","","","","","","","","","","1068","","201","","2","0","arrowright","1","arrowleft","[0.15,0.85,0.675,0.325]","","",""
"sailing-trial","148","1001687","0.0-11.0-105.0","","","","false","","","","","","","","","","null","","360.0999999977648","","0","0","null","null","arrowup","[0.15,0.85,0.675,0.325]","","",""
"sailing-trial","149","1004793","0.0-11.0-106.0","","","","false","","","","","","","","","","327.4000000022352","","50.80000000074506","","1","1","arrowleft","0","arrowright","[0.15,0.85,0.675,0.325]","","",""
"sailing-trial","150","1006650","0.0-11.0-107.0","","","","false","","","","","","","","","","null","","134.69999999925494","","1","1","null","null","arrowup","[0.15,0.85,0.675,0.325]","","",""
"sailing-trial","151","1009945","0.0-11.0-108.0","","","","false","","","","","","","","","","294.5","","150.10000000149012","","1","1","arrowleft","0","arrowright","[0.15,0.85,0.675,0.325]","","",""
"sailing-trial","152","1011955","0.0-11.0-109.0","","","","false","","","","","","","","","","null","","168.80000000074506","","2","1","null","null","arrowup","[0.15,0.85,0.675,0.325]","","",""
"sailing-trial","153","1015184","0.0-11.0-110.0","","","","false","","","","","","","","","","959.3999999985099","","67.10000000149012","","1","0","arrowleft","0","arrowright","[0.15,0.85,0.675,0.325]","","",""
"sailing-trial","154","1016750","0.0-11.0-111.0","","","","false","","","","","","","","","","null","","376.1000000014901","","0","0","null","null","arrowup","[0.15,0.85,0.675,0.325]","","",""
"sailing-trial","155","1019615","0.0-11.0-112.0","","","","false","","","","","","","","","","261.69999999925494","","260.20000000298023","","2","0","arrowright","1","arrowleft","[0.85,0.15,0.325,0.675]","","",""
"sailing-trial","156","1021869","0.0-11.0-113.0","","","","false","","","","","","","","","","null","","492.3999999985099","","2","1","null","null","arrowup","[0.85,0.15,0.325,0.675]","","",""
"sailing-trial","157","1024412","0.0-11.0-114.0","","","","false","","","","","","","","","","98.29999999701977","","107.89999999850988","","1","0","arrowleft","0","arrowright","[0.85,0.15,0.325,0.675]","","",""
"sailing-trial","158","1026160","0.0-11.0-115.0","","","","false","","","","","","","","","","null","","386.29999999701977","","3","0","null","null","arrowup","[0.85,0.15,0.325,0.675]","","",""
"sailing-trial","159","1029766","0.0-11.0-116.0","","","","false","","","","","","","","","","355.3999999985099","","51.100000001490116","","2","1","arrowright","1","arrowleft","[0.85,0.15,0.325,0.675]","","",""
"sailing-trial","160","1031007","0.0-11.0-117.0","","","","false","","","","","","","","","","null","","162.80000000074506","","2","0","null","null","arrowup","[0.85,0.15,0.325,0.675]","","",""
"sailing-trial","161","1034424","0.0-11.0-118.0","","","","false","","","","","","","","","","355","","166.10000000149012","","0","1","arrowleft","0","arrowleft","[0.85,0.15,0.325,0.675]","","",""
"sailing-trial","162","1036513","0.0-11.0-119.0","","","","false","","","","","","","","","","null","","34.400000002235174","","0","1","null","null","arrowup","[0.85,0.15,0.325,0.675]","","",""
"sailing-trial","163","1039893","0.0-11.0-120.0","","","","false","","","","","","","","","","509.79999999701977","","223.20000000298023","","0","1","arrowleft","0","arrowleft","[0.85,0.15,0.325,0.675]","","",""
"sailing-trial","164","1042201","0.0-11.0-121.0","","","","false","","","","","","","","","","null","","111.5","","1","0","null","null","arrowup","[0.85,0.15,0.325,0.675]","","",""
"sailing-trial","165","1045789","0.0-11.0-122.0","","","","false","","","","","","","","","","206.60000000149012","","171.20000000298023","","0","1","arrowleft","0","arrowleft","[0.85,0.15,0.325,0.675]","","",""
"sailing-trial","166","1047747","0.0-11.0-123.0","","","","false","","","","","","","","","","null","","0.19999999925494194","","1","0","null","null","arrowup","[0.85,0.15,0.325,0.675]","","",""
"sailing-trial","167","1051253","0.0-11.0-124.0","","","","false","","","","","","","","","","198.59999999776483","","167.5","","0","1","arrowleft","0","arrowleft","[0.85,0.15,0.325,0.675]","","",""
"sailing-trial","168","1052577","0.0-11.0-125.0","","","","false","","","","","","","","","","null","","126.80000000074506","","3","0","null","null","arrowup","[0.85,0.15,0.325,0.675]","","",""
"sailing-trial","169","1055800","0.0-11.0-126.0","","","","false","","","","","","","","","","328.9000000022352","","256.80000000074506","","0","1","arrowleft","0","arrowleft","[0.85,0.15,0.325,0.675]","","",""
"sailing-trial","170","1058050","0.0-11.0-127.0","","","","false","","","","","","","","","","null","","131.5","","3","1","null","null","arrowup","[0.85,0.15,0.325,0.675]","","",""
"sailing-trial","171","1063528","0.0-11.0-128.0","","","","false","","","","","","","","","","255.5","","43.600000001490116","","0","1","arrowleft","0","arrowleft","[0.85,0.15,0.325,0.675]","","",""
"sailing-trial","172","1065993","0.0-11.0-129.0","","","","false","","","","","","","","","","null","","466.1000000014901","","1","0","null","null","arrowup","[0.85,0.15,0.325,0.675]","","",""
"sailing-trial","173","1069594","0.0-11.0-130.0","","","","false","","","","","","","","","","690.1000000014901","","87","","0","1","arrowleft","0","arrowleft","[0.675,0.325,0.15,0.85]","","",""
"sailing-trial","174","1072142","0.0-11.0-131.0","","","","false","","","","","","","","","","null","","356.6000000014901","","2","0","null","null","arrowup","[0.675,0.325,0.15,0.85]","","",""
"sailing-trial","175","1075090","0.0-11.0-132.0","","","","false","","","","","","","","","","132.90000000223517","","91.09999999776483","","3","1","arrowright","1","arrowright","[0.675,0.325,0.15,0.85]","","",""
"sailing-trial","176","1078130","0.0-11.0-133.0","","","","false","","","","","","","","","","null","","269.3999999985099","","2","0","null","null","arrowup","[0.675,0.325,0.15,0.85]","","",""
"sailing-trial","177","1081163","0.0-11.0-134.0","","","","false","","","","","","","","","","154.89999999850988","","1.9000000022351742","","3","1","arrowright","1","arrowright","[0.675,0.325,0.15,0.85]","","",""
"sailing-trial","178","1083869","0.0-11.0-135.0","","","","false","","","","","","","","","","null","","1435.800000000745","","2","0","null","null","arrowup","[0.675,0.325,0.15,0.85]","","",""
"sailing-trial","179","1088165","0.0-11.0-136.0","","","","false","","","","","","","","","","440.19999999925494","","115.80000000074506","","3","1","arrowright","1","arrowright","[0.675,0.325,0.15,0.85]","","",""
"sailing-trial","180","1090729","0.0-11.0-137.0","","","","false","","","","","","","","","","null","","993.5","","1","1","null","null","arrowup","[0.675,0.325,0.15,0.85]","","",""
"sailing-trial","181","1093895","0.0-11.0-138.0","","","","false","","","","","","","","","","281.19999999925494","","28.600000001490116","","0","1","arrowleft","0","arrowleft","[0.675,0.325,0.15,0.85]","","",""
"sailing-trial","182","1095443","0.0-11.0-139.0","","","","false","","","","","","","","","","null","","265.19999999925494","","1","0","null","null","arrowup","[0.675,0.325,0.15,0.85]","","",""
"sailing-trial","183","1099692","0.0-11.0-140.0","","","","false","","","","","","","","","","302","","240.40000000223517","","3","1","arrowright","1","arrowright","[0.675,0.325,0.15,0.85]","","",""
"sailing-trial","184","1101567","0.0-11.0-141.0","","","","false","","","","","","","","","","null","","197.69999999925494","","3","1","null","null","arrowup","[0.675,0.325,0.15,0.85]","","",""
"sailing-trial","185","1106154","0.0-11.0-142.0","","","","false","","","","","","","","","","811.2000000029802","","73","","0","1","arrowleft","0","arrowleft","[0.675,0.325,0.15,0.85]","","",""
"sailing-trial","186","1108694","0.0-11.0-143.0","","","","false","","","","","","","","","","null","","120","","2","0","null","null","arrowup","[0.675,0.325,0.15,0.85]","","",""
"sailing-trial","187","1112816","0.0-11.0-144.0","","","","false","","","","","","","","","","168.89999999850988","","544.3999999985099","","3","1","arrowright","1","arrowright","[0.675,0.325,0.15,0.85]","","",""
"sailing-trial","188","1116125","0.0-11.0-145.0","","","","false","","","","","","","","","","null","","1444.3999999985099","","0","1","null","null","arrowup","[0.675,0.325,0.15,0.85]","","",""
"sailing-trial","189","1119345","0.0-11.0-146.0","","","","false","","","","","","","","","","313.79999999701977","","178.19999999925494","","3","1","arrowright","1","arrowright","[0.675,0.325,0.15,0.85]","","",""
"sailing-trial","190","1122076","0.0-11.0-147.0","","","","false","","","","","","","","","","null","","432.30000000074506","","2","1","null","null","arrowup","[0.675,0.325,0.15,0.85]","","",""
"sailing-trial","191","1125309","0.0-11.0-148.0","","","","false","","","","","","","","","","107.80000000074506","","323.19999999925494","","3","1","arrowright","1","arrowright","[0.675,0.325,0.15,0.85]","","",""
"sailing-trial","192","1126833","0.0-11.0-149.0","","","","false","","","","","","","","","","null","","430.79999999701977","","1","0","null","null","arrowup","[0.675,0.325,0.15,0.85]","","",""
"sailing-trial","193","1129597","0.0-11.0-150.0","","","","false","","","","","","","","","","463.30000000074506","","13","","0","0","arrowleft","0","arrowleft","[0.15,0.85,0.675,0.325]","","",""
"sailing-trial","194","1131763","0.0-11.0-151.0","","","","false","","","","","","","","","","null","","904.6999999992549","","3","0","null","null","arrowup","[0.15,0.85,0.675,0.325]","","",""
"sailing-trial","195","1136327","0.0-11.0-152.0","","","","false","","","","","","","","","","178.69999999925494","","190.60000000149012","","3","0","arrowright","1","arrowright","[0.15,0.85,0.675,0.325]","","",""
"sailing-trial","196","1141814","0.0-11.0-153.0","","","","false","","","","","","","","","","null","","2441.89999999851","","0","0","null","null","arrowup","[0.15,0.85,0.675,0.325]","","",""
"sailing-trial","197","1144646","0.0-11.0-154.0","","","","false","","","","","","","","","","412.8999999985099","","56.400000002235174","","3","0","arrowright","1","arrowright","[0.15,0.85,0.675,0.325]","","",""
"sailing-trial","198","1147600","0.0-11.0-155.0","","","","false","","","","","","","","","","null","","420.6000000014901","","0","0","null","null","arrowup","[0.15,0.85,0.675,0.325]","","",""
"sailing-trial","199","1151602","0.0-11.0-156.0","","","","false","","","","","","","","","","656.4000000022352","","22.899999998509884","","0","0","arrowleft","0","arrowleft","[0.15,0.85,0.675,0.325]","","",""
"sailing-trial","200","1154904","0.0-11.0-157.0","","","","false","","","","","","","","","","null","","359.0999999977648","","0","1","null","null","arrowup","[0.15,0.85,0.675,0.325]","","",""
"sailing-trial","201","1157380","0.0-11.0-158.0","","","","false","","","","","","","","","","225.80000000074506","","82.80000000074506","","3","0","arrowright","1","arrowright","[0.15,0.85,0.675,0.325]","","",""
"sailing-trial","202","1160253","0.0-11.0-159.0","","","","false","","","","","","","","","","null","","1370.699999999255","","2","0","null","null","arrowup","[0.15,0.85,0.675,0.325]","","",""
"sailing-trial","203","1164131","0.0-11.0-160.0","","","","false","","","","","","","","","","139.5","","505.70000000298023","","0","1","arrowleft","0","arrowleft","[0.15,0.85,0.675,0.325]","","",""
"sailing-trial","204","1166031","0.0-11.0-161.0","","","","false","","","","","","","","","","null","","217.80000000074506","","0","0","null","null","arrowup","[0.15,0.85,0.675,0.325]","","",""
"sailing-trial","205","1169162","0.0-11.0-162.0","","","","false","","","","","","","","","","165.59999999776483","","186.5","","3","1","arrowright","1","arrowright","[0.15,0.85,0.675,0.325]","","",""
"sailing-trial","206","1170317","0.0-11.0-163.0","","","","false","","","","","","","","","","null","","57.599999997764826","","0","0","null","null","arrowup","[0.15,0.85,0.675,0.325]","","",""
"sailing-trial","207","1173511","0.0-11.0-164.0","","","","false","","","","","","","","","","230.5","","134.60000000149012","","0","1","arrowleft","0","arrowleft","[0.15,0.85,0.675,0.325]","","",""
"sailing-trial","208","1176092","0.0-11.0-165.0","","","","false","","","","","","","","","","null","","887.2999999970198","","2","1","null","null","arrowup","[0.15,0.85,0.675,0.325]","","",""
"sailing-trial","209","1178516","0.0-11.0-166.0","","","","false","","","","","","","","","","241.20000000298023","","101.89999999850988","","0","0","arrowleft","0","arrowleft","[0.325,0.675,0.85,0.15]","","",""
"sailing-trial","210","1181456","0.0-11.0-167.0","","","","false","","","","","","","","","","null","","622","","1","1","null","null","arrowup","[0.325,0.675,0.85,0.15]","","",""
"sailing-trial","211","1185004","0.0-11.0-168.0","","","","false","","","","","","","","","","193.20000000298023","","28.600000001490116","","3","1","arrowright","1","arrowright","[0.325,0.675,0.85,0.15]","","",""
"sailing-trial","212","1187296","0.0-11.0-169.0","","","","false","","","","","","","","","","null","","93.69999999925494","","2","1","null","null","arrowup","[0.325,0.675,0.85,0.15]","","",""
"sailing-trial","213","1189859","0.0-11.0-170.0","","","","false","","","","","","","","","","88.39999999850988","","47.399999998509884","","3","0","arrowright","1","arrowright","[0.325,0.675,0.85,0.15]","","",""
"sailing-trial","214","1192883","0.0-11.0-171.0","","","","false","","","","","","","","","","null","","990.8000000007451","","1","0","null","null","arrowup","[0.325,0.675,0.85,0.15]","","",""
"sailing-trial","215","1195563","0.0-11.0-172.0","","","","false","","","","","","","","","","139.5","","99.19999999925494","","3","0","arrowright","1","arrowright","[0.325,0.675,0.85,0.15]","","",""
"sailing-trial","216","1197616","0.0-11.0-173.0","","","","false","","","","","","","","","","null","","192.20000000298023","","3","0","null","null","arrowup","[0.325,0.675,0.85,0.15]","","",""
"sailing-trial","217","1200024","0.0-11.0-174.0","","","","false","","","","","","","","","","123.30000000074506","","4","","2","0","arrowright","1","arrowleft","[0.325,0.675,0.85,0.15]","","",""
"sailing-trial","218","1201968","0.0-11.0-175.0","","","","false","","","","","","","","","","null","","460.9000000022352","","0","0","null","null","arrowup","[0.325,0.675,0.85,0.15]","","",""
"sailing-trial","219","1205984","0.0-11.0-176.0","","","","false","","","","","","","","","","966.6999999992549","","190","","1","1","arrowleft","0","arrowright","[0.325,0.675,0.85,0.15]","","",""
"sailing-trial","220","1211004","0.0-11.0-177.0","","","","false","","","","","","","","","","null","","166.5","","2","1","null","null","arrowup","[0.325,0.675,0.85,0.15]","","",""
"sailing-trial","221","1214495","0.0-11.0-178.0","","","","false","","","","","","","","","","755.5","","2.2000000029802322","","1","1","arrowleft","0","arrowright","[0.325,0.675,0.85,0.15]","","",""
"sailing-trial","222","1216817","0.0-11.0-179.0","","","","false","","","","","","","","","","null","","600.6999999992549","","2","1","null","null","arrowup","[0.325,0.675,0.85,0.15]","","",""
"sailing-trial","223","1219432","0.0-11.0-180.0","","","","false","","","","","","","","","","147","","167.5","","1","0","arrowleft","0","arrowright","[0.325,0.675,0.85,0.15]","","",""
"sailing-trial","224","1221996","0.0-11.0-181.0","","","","false","","","","","","","","","","null","","1521.5999999977648","","1","0","null","null","arrowup","[0.325,0.675,0.85,0.15]","","",""
"sailing-trial","225","1225311","0.0-11.0-182.0","","","","false","","","","","","","","","","467.8999999985099","","291.5999999977648","","1","0","arrowleft","0","arrowright","[0.15,0.85,0.675,0.325]","","",""
"sailing-trial","226","1228210","0.0-11.0-183.0","","","","false","","","","","","","","","","null","","1117.6000000014901","","1","1","null","null","arrowup","[0.15,0.85,0.675,0.325]","","",""
"sailing-trial","227","1232805","0.0-11.0-184.0","","","","false","","","","","","","","","","329.80000000074506","","9.400000002235174","","1","1","arrowleft","0","arrowright","[0.15,0.85,0.675,0.325]","","",""
"sailing-trial","228","1235030","0.0-11.0-185.0","","","","false","","","","","","","","","","null","","1068","","3","0","null","null","arrowup","[0.15,0.85,0.675,0.325]","","",""
"sailing-trial","229","1239752","0.0-11.0-186.0","","","","false","","","","","","","","","","318.5999999977648","","109.5","","1","1","arrowleft","0","arrowright","[0.15,0.85,0.675,0.325]","","",""
"sailing-trial","230","1241634","0.0-11.0-187.0","","","","false","","","","","","","","","","null","","320","","2","1","null","null","arrowup","[0.15,0.85,0.675,0.325]","","",""
"sailing-trial","231","1245898","0.0-11.0-188.0","","","","false","","","","","","","","","","561.2000000029802","","186.30000000074506","","1","1","arrowleft","0","arrowright","[0.15,0.85,0.675,0.325]","","",""
"sailing-trial","232","1248490","0.0-11.0-189.0","","","","false","","","","","","","","","","null","","994.3000000007451","","3","0","null","null","arrowup","[0.15,0.85,0.675,0.325]","","",""
"sailing-trial","233","1251811","0.0-11.0-190.0","","","","false","","","","","","","","","","537.6000000014901","","1.5999999977648258","","1","1","arrowleft","0","arrowright","[0.15,0.85,0.675,0.325]","","",""
"sailing-trial","234","1253904","0.0-11.0-191.0","","","","false","","","","","","","","","","null","","888","","3","0","null","null","arrowup","[0.15,0.85,0.675,0.325]","","",""
"sailing-trial","235","1256642","0.0-11.0-192.0","","","","false","","","","","","","","","","337.9000000022352","","152","","1","0","arrowleft","0","arrowright","[0.15,0.85,0.675,0.325]","","",""
"sailing-trial","236","1259739","0.0-11.0-193.0","","","","false","","","","","","","","","","null","","1045.9000000022352","","2","1","null","null","arrowup","[0.15,0.85,0.675,0.325]","","",""
"sailing-trial","237","1263182","0.0-11.0-194.0","","","","false","","","","","","","","","","486.80000000074506","","264.6000000014901","","1","1","arrowleft","0","arrowright","[0.15,0.85,0.675,0.325]","","",""
"sailing-trial","238","1266528","0.0-11.0-195.0","","","","false","","","","","","","","","","null","","1056.0999999977648","","2","0","null","null","arrowup","[0.15,0.85,0.675,0.325]","","",""
"sailing-trial","239","1269899","0.0-11.0-196.0","","","","false","","","","","","","","","","257.19999999925494","","249.09999999776483","","1","1","arrowleft","0","arrowright","[0.15,0.85,0.675,0.325]","","",""
"sailing-trial","240","1273714","0.0-11.0-197.0","","","","false","","","","","","","","","","null","","1624.300000000745","","1","1","null","null","arrowup","[0.15,0.85,0.675,0.325]","","",""
"sailing-trial","241","1276330","0.0-11.0-198.0","","","","false","","","","","","","","","","268.20000000298023","","192.80000000074506","","0","0","arrowleft","0","arrowleft","[0.15,0.85,0.675,0.325]","","",""
"sailing-trial","242","1279072","0.0-11.0-199.0","","","","false","","","","","","","","","","null","","840.0999999977648","","2","1","null","null","arrowup","[0.15,0.85,0.675,0.325]","","",""
"sailing-trial","243","1282659","0.0-11.0-200.0","","","","false","","","","","","","","","","549.3000000007451","","180.89999999850988","","2","1","arrowright","1","arrowleft","[0.85,0.15,0.325,0.675]","","",""
"sailing-trial","244","1284633","0.0-11.0-201.0","","","","false","","","","","","","","","","null","","531.2000000029802","","2","0","null","null","arrowup","[0.85,0.15,0.325,0.675]","","",""
"sailing-trial","245","1288102","0.0-11.0-202.0","","","","false","","","","","","","","","","397.5","","216.69999999925494","","1","1","arrowleft","0","arrowright","[0.85,0.15,0.325,0.675]","","",""
"sailing-trial","246","1290929","0.0-11.0-203.0","","","","false","","","","","","","","","","null","","843.6999999992549","","3","0","null","null","arrowup","[0.85,0.15,0.325,0.675]","","",""
"sailing-trial","247","1294686","0.0-11.0-204.0","","","","false","","","","","","","","","","424","","58.29999999701977","","0","1","arrowleft","0","arrowleft","[0.85,0.15,0.325,0.675]","","",""
"sailing-trial","248","1296233","0.0-11.0-205.0","","","","false","","","","","","","","","","null","","274.8999999985099","","0","0","null","null","arrowup","[0.85,0.15,0.325,0.675]","","",""
"sailing-trial","249","1300601","0.0-11.0-206.0","","","","false","","","","","","","","","","395.19999999925494","","100.80000000074506","","2","1","arrowright","1","arrowleft","[0.85,0.15,0.325,0.675]","","",""
"sailing-trial","250","1303695","0.0-11.0-207.0","","","","false","","","","","","","","","","null","","1175.800000000745","","3","1","null","null","arrowup","[0.85,0.15,0.325,0.675]","","",""
"sailing-trial","251","1307053","0.0-11.0-208.0","","","","false","","","","","","","","","","391.5","","316.3999999985099","","2","1","arrowright","1","arrowleft","[0.85,0.15,0.325,0.675]","","",""
"sailing-trial","252","1308669","0.0-11.0-209.0","","","","false","","","","","","","","","","null","","279.19999999925494","","2","0","null","null","arrowup","[0.85,0.15,0.325,0.675]","","",""
"sailing-trial","253","1311571","0.0-11.0-210.0","","","","false","","","","","","","","","","415.8999999985099","","68.30000000074506","","1","0","arrowleft","0","arrowright","[0.85,0.15,0.325,0.675]","","",""
"sailing-trial","254","1314256","0.0-11.0-211.0","","","","false","","","","","","","","","","null","","878.7000000029802","","2","1","null","null","arrowup","[0.85,0.15,0.325,0.675]","","",""
"sailing-trial","255","1317119","0.0-11.0-212.0","","","","false","","","","","","","","","","378.5","","55","","3","0","arrowright","1","arrowright","[0.85,0.15,0.325,0.675]","","",""
"sailing-trial","256","1319358","0.0-11.0-213.0","","","","false","","","","","","","","","","null","","187.79999999701977","","1","0","null","null","arrowup","[0.85,0.15,0.325,0.675]","","",""
"sailing-trial","257","1323077","0.0-11.0-214.0","","","","false","","","","","","","","","","30.300000000745058","","280.19999999925494","","2","0","arrowright","1","arrowleft","[0.85,0.15,0.325,0.675]","","",""
"sailing-trial","258","1325145","0.0-11.0-215.0","","","","false","","","","","","","","","","null","","268.5","","3","1","null","null","arrowup","[0.85,0.15,0.325,0.675]","","",""
"sailing-trial","259","1328208","0.0-11.0-216.0","","","","false","","","","","","","","","","169.19999999925494","","78.80000000074506","","0","1","arrowleft","0","arrowleft","[0.85,0.15,0.325,0.675]","","",""
"sailing-trial","260","1330106","0.0-11.0-217.0","","","","false","","","","","","","","","","null","","103.90000000223517","","2","0","null","null","arrowup","[0.85,0.15,0.325,0.675]","","",""
"sailing-trial","261","1333567","0.0-11.0-218.0","","","","false","","","","","","","","","","134.30000000074506","","128.19999999925494","","0","0","arrowleft","0","arrowleft","[0.325,0.675,0.85,0.15]","","",""
"sailing-trial","262","1335552","0.0-11.0-219.0","","","","false","","","","","","","","","","null","","187.30000000074506","","3","0","null","null","arrowup","[0.325,0.675,0.85,0.15]","","",""
"sailing-trial","263","1338414","0.0-11.0-220.0","","","","false","","","","","","","","","","327.6000000014901","","58.5","","3","0","arrowright","1","arrowright","[0.325,0.675,0.85,0.15]","","",""
"sailing-trial","264","1340817","0.0-11.0-221.0","","","","false","","","","","","","","","","null","","179.69999999925494","","0","1","null","null","arrowup","[0.325,0.675,0.85,0.15]","","",""
"sailing-trial","265","1344166","0.0-11.0-222.0","","","","false","","","","","","","","","","193.5","","16.099999997764826","","1","1","arrowleft","0","arrowright","[0.325,0.675,0.85,0.15]","","",""
"sailing-trial","266","1347474","0.0-11.0-223.0","","","","false","","","","","","","","","","null","","263.69999999925494","","0","0","null","null","arrowup","[0.325,0.675,0.85,0.15]","","",""
"sailing-trial","267","1350978","0.0-11.0-224.0","","","","false","","","","","","","","","","255.30000000074506","","104.30000000074506","","0","1","arrowleft","0","arrowleft","[0.325,0.675,0.85,0.15]","","",""
"sailing-trial","268","1354108","0.0-11.0-225.0","","","","false","","","","","","","","","","null","","1041.5","","0","1","null","null","arrowup","[0.325,0.675,0.85,0.15]","","",""
"sailing-trial","269","1357656","0.0-11.0-226.0","","","","false","","","","","","","","","","443.80000000074506","","449.30000000074506","","0","1","arrowleft","0","arrowleft","[0.325,0.675,0.85,0.15]","","",""
"sailing-trial","270","1359060","0.0-11.0-227.0","","","","false","","","","","","","","","","null","","57","","0","0","null","null","arrowup","[0.325,0.675,0.85,0.15]","","",""
"sailing-trial","271","1361745","0.0-11.0-228.0","","","","false","","","","","","","","","","282.0999999977648","","107.10000000149012","","3","0","arrowright","1","arrowright","[0.325,0.675,0.85,0.15]","","",""
"sailing-trial","272","1364521","0.0-11.0-229.0","","","","false","","","","","","","","","","null","","705.5999999977648","","2","1","null","null","arrowup","[0.325,0.675,0.85,0.15]","","",""
"sailing-trial","273","1366955","0.0-11.0-230.0","","","","false","","","","","","","","","","113.69999999925494","","27.800000000745058","","0","0","arrowleft","0","arrowleft","[0.325,0.675,0.85,0.15]","","",""
"sailing-trial","274","1369488","0.0-11.0-231.0","","","","false","","","","","","","","","","null","","1294.0999999977648","","3","0","null","null","arrowup","[0.325,0.675,0.85,0.15]","","",""
"sailing-trial","275","1372460","0.0-11.0-232.0","","","","false","","","","","","","","","","106","","736.3999999985099","","3","0","arrowright","1","arrowright","[0.325,0.675,0.85,0.15]","","",""
"sailing-trial","276","1373859","0.0-11.0-233.0","","","","false","","","","","","","","","","null","","302.1000000014901","","3","0","null","null","arrowup","[0.325,0.675,0.85,0.15]","","",""
"sailing-trial","277","1377811","0.0-11.0-234.0","","","","false","","","","","","","","","","387.80000000074506","","163.09999999776483","","0","1","arrowleft","0","arrowleft","[0.325,0.675,0.85,0.15]","","",""
"sailing-trial","278","1380075","0.0-11.0-235.0","","","","false","","","","","","","","","","null","","558.1999999992549","","1","1","null","null","arrowup","[0.325,0.675,0.85,0.15]","","",""
"sailing-trial","279","1384001","0.0-11.0-236.0","","","","false","","","","","","","","","","481.69999999925494","","399","","0","0","arrowleft","0","arrowleft","[0.15,0.85,0.675,0.325]","","",""
"sailing-trial","280","1386473","0.0-11.0-237.0","","","","false","","","","","","","","","","null","","594.9000000022352","","3","0","null","null","arrowup","[0.15,0.85,0.675,0.325]","","",""
"sailing-trial","281","1389967","0.0-11.0-238.0","","","","false","","","","","","","","","","305.6000000014901","","218.20000000298023","","1","1","arrowleft","0","arrowright","[0.15,0.85,0.675,0.325]","","",""
"sailing-trial","282","1391614","0.0-11.0-239.0","","","","false","","","","","","","","","","null","","580.5","","2","0","null","null","arrowup","[0.15,0.85,0.675,0.325]","","",""
"sailing-trial","283","1395469","0.0-11.0-240.0","","","","false","","","","","","","","","","986.1000000014901","","200","","1","1","arrowleft","0","arrowright","[0.15,0.85,0.675,0.325]","","",""
"sailing-trial","284","1398300","0.0-11.0-241.0","","","","false","","","","","","","","","","null","","832.5","","1","1","null","null","arrowup","[0.15,0.85,0.675,0.325]","","",""
"sailing-trial","285","1402126","0.0-11.0-242.0","","","","false","","","","","","","","","","558.3999999985099","","7.299999997019768","","1","1","arrowleft","0","arrowright","[0.15,0.85,0.675,0.325]","","",""
"sailing-trial","286","1403788","0.0-11.0-243.0","","","","false","","","","","","","","","","null","","548.5999999977648","","3","0","null","null","arrowup","[0.15,0.85,0.675,0.325]","","",""
"sailing-trial","287","1407156","0.0-11.0-244.0","","","","false","","","","","","","","","","186.69999999925494","","197.69999999925494","","1","1","arrowleft","0","arrowright","[0.15,0.85,0.675,0.325]","","",""
"sailing-trial","288","1409220","0.0-11.0-245.0","","","","false","","","","","","","","","","null","","532.8000000007451","","3","0","null","null","arrowup","[0.15,0.85,0.675,0.325]","","",""
"sailing-trial","289","1412659","0.0-11.0-246.0","","","","false","","","","","","","","","","480.5","","82.10000000149012","","2","1","arrowright","1","arrowleft","[0.15,0.85,0.675,0.325]","","",""
"sailing-trial","290","1414952","0.0-11.0-247.0","","","","false","","","","","","","","","","null","","325.5","","2","1","null","null","arrowup","[0.15,0.85,0.675,0.325]","","",""
"sailing-trial","291","1417781","0.0-11.0-248.0","","","","false","","","","","","","","","","268.6000000014901","","175.89999999850988","","1","0","arrowleft","0","arrowright","[0.15,0.85,0.675,0.325]","","",""
"sailing-trial","292","1419932","0.0-11.0-249.0","","","","false","","","","","","","","","","null","","592.5999999977648","","1","1","null","null","arrowup","[0.15,0.85,0.675,0.325]","","",""
"sailing-trial","293","1423453","0.0-11.0-250.0","","","","false","","","","","","","","","","435.69999999925494","","50","","2","1","arrowright","1","arrowleft","[0.15,0.85,0.675,0.325]","","",""
"sailing-trial","294","1424968","0.0-11.0-251.0","","","","false","","","","","","","","","","null","","297.8999999985099","","0","0","null","null","arrowup","[0.15,0.85,0.675,0.325]","","",""
"sailing-trial","295","1427807","0.0-11.0-252.0","","","","false","","","","","","","","","","349.1000000014901","","17.5","","1","0","arrowleft","0","arrowright","[0.15,0.85,0.675,0.325]","","",""
"sailing-trial","296","1430282","0.0-11.0-253.0","","","","false","","","","","","","","","","null","","228.69999999925494","","1","1","null","null","arrowup","[0.15,0.85,0.675,0.325]","","",""
"sailing-trial","297","1433064","0.0-11.0-254.0","","","","false","","","","","","","","","","188.5","","8.300000000745058","","2","1","arrowright","1","arrowleft","[0.15,0.85,0.675,0.325]","","",""
"sailing-trial","298","1436446","0.0-11.0-255.0","","","","false","","","","","","","","","","null","","198.80000000074506","","1","1","null","null","arrowup","[0.15,0.85,0.675,0.325]","","",""
"sailing-trial","299","1439809","0.0-11.0-256.0","","","","false","","","","","","","","","","282","","192.19999999925494","","2","1","arrowright","1","arrowleft","[0.325,0.675,0.85,0.15]","","",""
"sailing-trial","300","1441958","0.0-11.0-257.0","","","","false","","","","","","","","","","null","","352.0999999977648","","0","1","null","null","arrowup","[0.325,0.675,0.85,0.15]","","",""
"sailing-trial","301","1445824","0.0-11.0-258.0","","","","false","","","","","","","","","","556","","600.5","","2","1","arrowright","1","arrowleft","[0.325,0.675,0.85,0.15]","","",""
"sailing-trial","302","1449186","0.0-11.0-259.0","","","","false","","","","","","","","","","null","","1709.6000000014901","","0","0","null","null","arrowup","[0.325,0.675,0.85,0.15]","","",""
"sailing-trial","303","1452567","0.0-11.0-260.0","","","","false","","","","","","","","","","274","","225.19999999925494","","1","1","arrowleft","0","arrowright","[0.325,0.675,0.85,0.15]","","",""
"sailing-trial","304","1454677","0.0-11.0-261.0","","","","false","","","","","","","","","","null","","916.8000000007451","","0","0","null","null","arrowup","[0.325,0.675,0.85,0.15]","","",""
"sailing-trial","305","1459478","0.0-11.0-262.0","","","","false","","","","","","","","","","269.3999999985099","","14.199999999254942","","2","1","arrowright","1","arrowleft","[0.325,0.675,0.85,0.15]","","",""
"sailing-trial","306","1461261","0.0-11.0-263.0","","","","false","","","","","","","","","","null","","99.80000000074506","","1","1","null","null","arrowup","[0.325,0.675,0.85,0.15]","","",""
"sailing-trial","307","1464909","0.0-11.0-264.0","","","","false","","","","","","","","","","773.1999999992549","","6.199999999254942","","1","1","arrowleft","0","arrowright","[0.325,0.675,0.85,0.15]","","",""
"sailing-trial","308","1466791","0.0-11.0-265.0","","","","false","","","","","","","","","","null","","160.39999999850988","","1","1","null","null","arrowup","[0.325,0.675,0.85,0.15]","","",""
"sailing-trial","309","1472072","0.0-11.0-266.0","","","","false","","","","","","","","","","255","","16","","2","1","arrowright","1","arrowleft","[0.325,0.675,0.85,0.15]","","",""
"sailing-trial","310","1474703","0.0-11.0-267.0","","","","false","","","","","","","","","","null","","1023.6000000014901","","1","1","null","null","arrowup","[0.325,0.675,0.85,0.15]","","",""
"sailing-trial","311","1478202","0.0-11.0-268.0","","","","false","","","","","","","","","","640.0999999977648","","243","","2","1","arrowright","1","arrowleft","[0.325,0.675,0.85,0.15]","","",""
"sailing-trial","312","1481713","0.0-11.0-269.0","","","","false","","","","","","","","","","null","","1823.199999999255","","0","1","null","null","arrowup","[0.325,0.675,0.85,0.15]","","",""
"sailing-trial","313","1484774","0.0-11.0-270.0","","","","false","","","","","","","","","","421","","11","","2","1","arrowright","1","arrowleft","[0.325,0.675,0.85,0.15]","","",""
"sailing-trial","314","1488821","0.0-11.0-271.0","","","","false","","","","","","","","","","null","","2445.900000002235","","0","0","null","null","arrowup","[0.325,0.675,0.85,0.15]","","",""
"sailing-trial","315","1492496","0.0-11.0-272.0","","","","false","","","","","","","","","","480.69999999925494","","119.80000000074506","","1","1","arrowleft","0","arrowright","[0.325,0.675,0.85,0.15]","","",""
"sailing-trial","316","1496470","0.0-11.0-273.0","","","","false","","","","","","","","","","null","","771.6000000014901","","2","1","null","null","arrowup","[0.325,0.675,0.85,0.15]","","",""
"sailing-trial","317","1500832","0.0-11.0-274.0","","","","false","","","","","","","","","","596.1999999992549","","415.9000000022352","","1","1","arrowleft","0","arrowright","[0.325,0.675,0.85,0.15]","","",""
"sailing-trial","318","1503907","0.0-11.0-275.0","","","","false","","","","","","","","","","null","","751","","3","0","null","null","arrowup","[0.325,0.675,0.85,0.15]","","",""
"sailing-trial","319","1507101","0.0-11.0-276.0","","","","false","","","","","","","","","","750.1999999992549","","355.6000000014901","","0","0","arrowleft","0","arrowleft","[0.675,0.325,0.15,0.85]","","",""
"sailing-trial","320","1509110","0.0-11.0-277.0","","","","false","","","","","","","","","","null","","835.5","","0","0","null","null","arrowup","[0.675,0.325,0.15,0.85]","","",""
"sailing-trial","321","1511823","0.0-11.0-278.0","","","","false","","","","","","","","","","289.5","","226.39999999850988","","2","0","arrowright","1","arrowleft","[0.675,0.325,0.15,0.85]","","",""
"sailing-trial","322","1515387","0.0-11.0-279.0","","","","false","","","","","","","","","","null","","2319.39999999851","","2","0","null","null","arrowup","[0.675,0.325,0.15,0.85]","","",""
"sailing-trial","323","1517944","0.0-11.0-280.0","","","","false","","","","","","","","","","243.40000000223517","","105.59999999776483","","2","0","arrowright","1","arrowleft","[0.675,0.325,0.15,0.85]","","",""
"sailing-trial","324","1520478","0.0-11.0-281.0","","","","false","","","","","","","","","","null","","758.5","","2","1","null","null","arrowup","[0.675,0.325,0.15,0.85]","","",""
"sailing-trial","325","1523624","0.0-11.0-282.0","","","","false","","","","","","","","","","344.80000000074506","","57.69999999925494","","3","1","arrowright","1","arrowright","[0.675,0.325,0.15,0.85]","","",""
"sailing-trial","326","1526154","0.0-11.0-283.0","","","","false","","","","","","","","","","null","","123.5","","0","1","null","null","arrowup","[0.675,0.325,0.15,0.85]","","",""
"sailing-trial","327","1528748","0.0-11.0-284.0","","","","false","","","","","","","","","","130.29999999701977","","159.09999999776483","","0","0","arrowleft","0","arrowleft","[0.675,0.325,0.15,0.85]","","",""
"sailing-trial","328","1531089","0.0-11.0-285.0","","","","false","","","","","","","","","","null","","416.69999999925494","","1","1","null","null","arrowup","[0.675,0.325,0.15,0.85]","","",""
"sailing-trial","329","1534101","0.0-11.0-286.0","","","","false","","","","","","","","","","203","","125.80000000074506","","3","1","arrowright","1","arrowright","[0.675,0.325,0.15,0.85]","","",""
"sailing-trial","330","1536409","0.0-11.0-287.0","","","","false","","","","","","","","","","null","","288.19999999925494","","0","1","null","null","arrowup","[0.675,0.325,0.15,0.85]","","",""
"sailing-trial","331","1539757","0.0-11.0-288.0","","","","false","","","","","","","","","","235.19999999925494","","355.8999999985099","","3","1","arrowright","1","arrowright","[0.675,0.325,0.15,0.85]","","",""
"sailing-trial","332","1544111","0.0-11.0-289.0","","","","false","","","","","","","","","","null","","286.30000000074506","","0","1","null","null","arrowup","[0.675,0.325,0.15,0.85]","","",""
"sailing-trial","333","1547219","0.0-11.0-290.0","","","","false","","","","","","","","","","436.9000000022352","","63.69999999925494","","0","1","arrowleft","0","arrowleft","[0.675,0.325,0.15,0.85]","","",""
"sailing-trial","334","1549173","0.0-11.0-291.0","","","","false","","","","","","","","","","null","","84.5","","3","1","null","null","arrowup","[0.675,0.325,0.15,0.85]","","",""
"sailing-trial","335","1552554","0.0-11.0-292.0","","","","false","","","","","","","","","","299.3999999985099","","49.900000002235174","","3","1","arrowright","1","arrowright","[0.675,0.325,0.15,0.85]","","",""
"sailing-trial","336","1554579","0.0-11.0-293.0","","","","false","","","","","","","","","","null","","181.89999999850988","","3","1","null","null","arrowup","[0.675,0.325,0.15,0.85]","","",""
"sailing-trial","337","1557734","0.0-11.0-294.0","","","","false","","","","","","","","","","29.5","","146.60000000149012","","0","1","arrowleft","0","arrowleft","[0.675,0.325,0.15,0.85]","","",""
"sailing-trial","338","1559713","0.0-11.0-295.0","","","","false","","","","","","","","","","null","","142.69999999925494","","0","1","null","null","arrowup","[0.675,0.325,0.15,0.85]","","",""
"sailing-trial","339","1563114","0.0-11.0-296.0","","","","false","","","","","","","","","","203.5","","30.600000001490116","","3","1","arrowright","1","arrowright","[0.85,0.15,0.325,0.675]","","",""
"sailing-trial","340","1565595","0.0-11.0-297.0","","","","false","","","","","","","","","","null","","862.5","","3","1","null","null","arrowup","[0.85,0.15,0.325,0.675]","","",""
"sailing-trial","341","1568986","0.0-11.0-298.0","","","","false","","","","","","","","","","218.39999999850988","","81.60000000149012","","0","1","arrowleft","0","arrowleft","[0.85,0.15,0.325,0.675]","","",""
"sailing-trial","342","1570609","0.0-11.0-299.0","","","","false","","","","","","","","","","null","","606","","2","0","null","null","arrowup","[0.85,0.15,0.325,0.675]","","",""
"sailing-trial","343","1573757","0.0-11.0-300.0","","","","false","","","","","","","","","","457.30000000074506","","292.69999999925494","","3","0","arrowright","1","arrowright","[0.85,0.15,0.325,0.675]","","",""
"sailing-trial","344","1574938","0.0-11.0-301.0","","","","false","","","","","","","","","","null","","56.899999998509884","","3","0","null","null","arrowup","[0.85,0.15,0.325,0.675]","","",""
"sailing-trial","345","1578837","0.0-11.0-302.0","","","","false","","","","","","","","","","733.8000000007451","","130.19999999925494","","0","1","arrowleft","0","arrowleft","[0.85,0.15,0.325,0.675]","","",""
"sailing-trial","346","1581151","0.0-11.0-303.0","","","","false","","","","","","","","","","null","","162.60000000149012","","1","1","null","null","arrowup","[0.85,0.15,0.325,0.675]","","",""
"sailing-trial","347","1584278","0.0-11.0-304.0","","","","false","","","","","","","","","","204","","263.3999999985099","","0","1","arrowleft","0","arrowleft","[0.85,0.15,0.325,0.675]","","",""
"sailing-trial","348","1588181","0.0-11.0-305.0","","","","false","","","","","","","","","","null","","3.599999997764826","","2","1","null","null","arrowup","[0.85,0.15,0.325,0.675]","","",""
"sailing-trial","349","1591645","0.0-11.0-306.0","","","","false","","","","","","","","","","633.0999999977648","","99.59999999776483","","0","1","arrowleft","0","arrowleft","[0.85,0.15,0.325,0.675]","","",""
"sailing-trial","350","1593955","0.0-11.0-307.0","","","","false","","","","","","","","","","null","","54.5","","3","1","null","null","arrowup","[0.85,0.15,0.325,0.675]","","",""
"sailing-trial","351","1597636","0.0-11.0-308.0","","","","false","","","","","","","","","","295.9000000022352","","696.3999999985099","","0","1","arrowleft","0","arrowleft","[0.85,0.15,0.325,0.675]","","",""
"sailing-trial","352","1599724","0.0-11.0-309.0","","","","false","","","","","","","","","","null","","113","","0","1","null","null","arrowup","[0.85,0.15,0.325,0.675]","","",""
"sailing-trial","353","1602364","0.0-11.0-310.0","","","","false","","","","","","","","","","133","","234.20000000298023","","3","0","arrowright","1","arrowright","[0.85,0.15,0.325,0.675]","","",""
"sailing-trial","354","1605004","0.0-11.0-311.0","","","","false","","","","","","","","","","null","","898.8000000007451","","3","1","null","null","arrowup","[0.85,0.15,0.325,0.675]","","",""
"sailing-trial","355","1607693","0.0-11.0-312.0","","","","false","","","","","","","","","","100.30000000074506","","310.30000000074506","","0","0","arrowleft","0","arrowleft","[0.675,0.325,0.15,0.85]","","",""
"sailing-trial","356","1610069","0.0-11.0-313.0","","","","false","","","","","","","","","","null","","386.29999999701977","","1","1","null","null","arrowup","[0.675,0.325,0.15,0.85]","","",""
"sailing-trial","357","1613408","0.0-11.0-314.0","","","","false","","","","","","","","","","127.09999999776483","","166.39999999850988","","1","0","arrowleft","0","arrowright","[0.675,0.325,0.15,0.85]","","",""
"sailing-trial","358","1615024","0.0-11.0-315.0","","","","false","","","","","","","","","","null","","540.7999999970198","","1","0","null","null","arrowup","[0.675,0.325,0.15,0.85]","","",""
"sailing-trial","359","1617906","0.0-11.0-316.0","","","","false","","","","","","","","","","354.80000000074506","","138.30000000074506","","2","0","arrowright","1","arrowleft","[0.675,0.325,0.15,0.85]","","",""
"sailing-trial","360","1620080","0.0-11.0-317.0","","","","false","","","","","","","","","","null","","209.5","","3","1","null","null","arrowup","[0.675,0.325,0.15,0.85]","","",""
"sailing-trial","361","1623193","0.0-11.0-318.0","","","","false","","","","","","","","","","218.80000000074506","","4.199999999254942","","3","1","arrowright","1","arrowright","[0.675,0.325,0.15,0.85]","","",""
"sailing-trial","362","1625358","0.0-11.0-319.0","","","","false","","","","","","","","","","null","","563.4000000022352","","1","1","null","null","arrowup","[0.675,0.325,0.15,0.85]","","",""
"sailing-trial","363","1627570","0.0-11.0-320.0","","","","false","","","","","","","","","","49.600000001490116","","34","","0","0","arrowleft","0","arrowleft","[0.675,0.325,0.15,0.85]","","",""
"sailing-trial","364","1629400","0.0-11.0-321.0","","","","false","","","","","","","","","","null","","0.20000000298023224","","3","1","null","null","arrowup","[0.675,0.325,0.15,0.85]","","",""
"sailing-trial","365","1632382","0.0-11.0-322.0","","","","false","","","","","","","","","","115.69999999925494","","94.5","","3","1","arrowright","1","arrowright","[0.675,0.325,0.15,0.85]","","",""
"sailing-trial","366","1634521","0.0-11.0-323.0","","","","false","","","","","","","","","","null","","420.80000000074506","","3","1","null","null","arrowup","[0.675,0.325,0.15,0.85]","","",""
"sailing-trial","367","1638016","0.0-11.0-324.0","","","","false","","","","","","","","","","15.5","","398.79999999701977","","3","1","arrowright","1","arrowright","[0.675,0.325,0.15,0.85]","","",""
"sailing-trial","368","1639325","0.0-11.0-325.0","","","","false","","","","","","","","","","null","","182.89999999850988","","0","0","null","null","arrowup","[0.675,0.325,0.15,0.85]","","",""
"sailing-trial","369","1644382","0.0-11.0-326.0","","","","false","","","","","","","","","","224.90000000223517","","138.5","","3","1","arrowright","1","arrowright","[0.675,0.325,0.15,0.85]","","",""
"sailing-trial","370","1646905","0.0-11.0-327.0","","","","false","","","","","","","","","","null","","1394","","1","0","null","null","arrowup","[0.675,0.325,0.15,0.85]","","",""
"sailing-trial","371","1650326","0.0-11.0-328.0","","","","false","","","","","","","","","","233.80000000074506","","226.39999999850988","","3","1","arrowright","1","arrowright","[0.85,0.15,0.325,0.675]","","",""
"sailing-trial","372","1652242","0.0-11.0-329.0","","","","false","","","","","","","","","","null","","779.5","","1","0","null","null","arrowup","[0.85,0.15,0.325,0.675]","","",""
"sailing-trial","373","1656105","0.0-11.0-330.0","","","","false","","","","","","","","","","308.19999999925494","","571.6000000014901","","0","1","arrowleft","0","arrowleft","[0.85,0.15,0.325,0.675]","","",""
"sailing-trial","374","1658651","0.0-11.0-331.0","","","","false","","","","","","","","","","null","","1040.3999999985099","","1","0","null","null","arrowup","[0.85,0.15,0.325,0.675]","","",""
"sailing-trial","375","1661954","0.0-11.0-332.0","","","","false","","","","","","","","","","273.5","","65.69999999925494","","0","1","arrowleft","0","arrowleft","[0.85,0.15,0.325,0.675]","","",""
"sailing-trial","376","1665551","0.0-11.0-333.0","","","","false","","","","","","","","","","null","","1529.2000000029802","","0","1","null","null","arrowup","[0.85,0.15,0.325,0.675]","","",""
"sailing-trial","377","1668875","0.0-11.0-334.0","","","","false","","","","","","","","","","291.69999999925494","","216.30000000074506","","3","0","arrowright","1","arrowright","[0.85,0.15,0.325,0.675]","","",""
"sailing-trial","378","1672430","0.0-11.0-335.0","","","","false","","","","","","","","","","null","","1890.4000000022352","","1","0","null","null","arrowup","[0.85,0.15,0.325,0.675]","","",""
"sailing-trial","379","1675213","0.0-11.0-336.0","","","","false","","","","","","","","","","539.3999999985099","","8.899999998509884","","3","0","arrowright","1","arrowright","[0.85,0.15,0.325,0.675]","","",""
"sailing-trial","380","1678743","0.0-11.0-337.0","","","","false","","","","","","","","","","null","","1472.6000000014901","","0","1","null","null","arrowup","[0.85,0.15,0.325,0.675]","","",""
"sailing-trial","381","1682167","0.0-11.0-338.0","","","","false","","","","","","","","","","601.0999999977648","","222","","0","1","arrowleft","0","arrowleft","[0.85,0.15,0.325,0.675]","","",""
"sailing-trial","382","1685765","0.0-11.0-339.0","","","","false","","","","","","","","","","null","","1282.699999999255","","3","1","null","null","arrowup","[0.85,0.15,0.325,0.675]","","",""
"sailing-trial","383","1688813","0.0-11.0-340.0","","","","false","","","","","","","","","","275.30000000074506","","132.10000000149012","","3","1","arrowright","1","arrowright","[0.85,0.15,0.325,0.675]","","",""
"sailing-trial","384","1690683","0.0-11.0-341.0","","","","false","","","","","","","","","","null","","259.70000000298023","","0","1","null","null","arrowup","[0.85,0.15,0.325,0.675]","","",""
"sailing-trial","385","1694409","0.0-11.0-342.0","","","","false","","","","","","","","","","1059.5999999977648","","28.800000000745058","","0","1","arrowleft","0","arrowleft","[0.85,0.15,0.325,0.675]","","",""
"sailing-trial","386","1696107","0.0-11.0-343.0","","","","false","","","","","","","","","","null","","238.89999999850988","","1","0","null","null","arrowup","[0.85,0.15,0.325,0.675]","","",""
"sailing-trial","387","1700896","0.0-11.0-344.0","","","","false","","","","","","","","","","140.39999999850988","","82.90000000223517","","3","1","arrowright","1","arrowright","[0.675,0.325,0.15,0.85]","","",""
"sailing-trial","388","1703020","0.0-11.0-345.0","","","","false","","","","","","","","","","null","","321.6000000014901","","3","1","null","null","arrowup","[0.675,0.325,0.15,0.85]","","",""
"sailing-trial","389","1705417","0.0-11.0-346.0","","","","false","","","","","","","","","","71.30000000074506","","184.59999999776483","","0","0","arrowleft","0","arrowleft","[0.675,0.325,0.15,0.85]","","",""
"sailing-trial","390","1708550","0.0-11.0-347.0","","","","false","","","","","","","","","","null","","252","","3","1","null","null","arrowup","[0.675,0.325,0.15,0.85]","","",""
"sailing-trial","391","1711538","0.0-11.0-348.0","","","","false","","","","","","","","","","252.39999999850988","","139","","1","1","arrowleft","0","arrowright","[0.675,0.325,0.15,0.85]","","",""
"sailing-trial","392","1713935","0.0-11.0-349.0","","","","false","","","","","","","","","","null","","724.1999999992549","","1","1","null","null","arrowup","[0.675,0.325,0.15,0.85]","","",""
"sailing-trial","393","1718251","0.0-11.0-350.0","","","","false","","","","","","","","","","260.0999999977648","","113.69999999925494","","3","1","arrowright","1","arrowright","[0.675,0.325,0.15,0.85]","","",""
"sailing-trial","394","1721015","0.0-11.0-351.0","","","","false","","","","","","","","","","null","","905.8999999985099","","1","0","null","null","arrowup","[0.675,0.325,0.15,0.85]","","",""
"sailing-trial","395","1724056","0.0-11.0-352.0","","","","false","","","","","","","","","","270.8999999985099","","83.60000000149012","","1","0","arrowleft","0","arrowright","[0.675,0.325,0.15,0.85]","","",""
"sailing-trial","396","1727738","0.0-11.0-353.0","","","","false","","","","","","","","","","null","","1290.199999999255","","2","0","null","null","arrowup","[0.675,0.325,0.15,0.85]","","",""
"sailing-trial","397","1731419","0.0-11.0-354.0","","","","false","","","","","","","","","","228.19999999925494","","184","","2","0","arrowright","1","arrowleft","[0.675,0.325,0.15,0.85]","","",""
"sailing-trial","398","1737232","0.0-11.0-355.0","","","","false","","","","","","","","","","null","","4533.5","","1","0","null","null","arrowup","[0.675,0.325,0.15,0.85]","","",""
"sailing-trial","399","1740382","0.0-11.0-356.0","","","","false","","","","","","","","","","18.399999998509884","","105.39999999850988","","3","1","arrowright","1","arrowright","[0.675,0.325,0.15,0.85]","","",""
"sailing-trial","400","1742692","0.0-11.0-357.0","","","","false","","","","","","","","","","null","","1233.199999999255","","2","0","null","null","arrowup","[0.675,0.325,0.15,0.85]","","",""
"sailing-trial","401","1745986","0.0-11.0-358.0","","","","false","","","","","","","","","","219.30000000074506","","130.59999999776483","","1","0","arrowleft","0","arrowright","[0.675,0.325,0.15,0.85]","","",""
"sailing-trial","402","1748624","0.0-11.0-359.0","","","","false","","","","","","","","","","null","","797.4000000022352","","2","0","null","null","arrowup","[0.675,0.325,0.15,0.85]","","",""
"sailing-trial","403","1750890","0.0-11.0-360.0","","","","false","","","","","","","","","","147.40000000223517","","41.20000000298023","","0","0","arrowleft","0","arrowleft","[0.675,0.325,0.15,0.85]","","",""
"sailing-trial","404","1752789","0.0-11.0-361.0","","","","false","","","","","","","","","","null","","27.700000002980232","","2","0","null","null","arrowup","[0.675,0.325,0.15,0.85]","","",""
"sailing-trial","405","1755946","0.0-11.0-362.0","","","","false","","","","","","","","","","105.90000000223517","","98.59999999776483","","0","1","arrowleft","0","arrowleft","[0.675,0.325,0.15,0.85]","","",""
"sailing-trial","406","1758361","0.0-11.0-363.0","","","","false","","","","","","","","","","null","","215.80000000074506","","2","0","null","null","arrowup","[0.675,0.325,0.15,0.85]","","",""
"sailing-trial","407","1761525","0.0-11.0-364.0","","","","false","","","","","","","","","","79","","266.80000000074506","","3","1","arrowright","1","arrowright","[0.675,0.325,0.15,0.85]","","",""
"sailing-trial","408","1764388","0.0-11.0-365.0","","","","false","","","","","","","","","","null","","307.29999999701977","","3","1","null","null","arrowup","[0.675,0.325,0.15,0.85]","","",""
"sailing-trial","409","1767063","0.0-11.0-366.0","","","","false","","","","","","","","","","144.40000000223517","","100.5","","0","0","arrowleft","0","arrowleft","[0.85,0.15,0.325,0.675]","","",""
"sailing-trial","410","1769687","0.0-11.0-367.0","","","","false","","","","","","","","","","null","","834","","0","1","null","null","arrowup","[0.85,0.15,0.325,0.675]","","",""
"sailing-trial","411","1773300","0.0-11.0-368.0","","","","false","","","","","","","","","","556.1000000014901","","247.39999999850988","","3","1","arrowright","1","arrowright","[0.85,0.15,0.325,0.675]","","",""
"sailing-trial","412","1777556","0.0-11.0-369.0","","","","false","","","","","","","","","","null","","349.69999999925494","","2","0","null","null","arrowup","[0.85,0.15,0.325,0.675]","","",""
"sailing-trial","413","1781840","0.0-11.0-370.0","","","","false","","","","","","","","","","296.6000000014901","","194","","3","1","arrowright","1","arrowright","[0.85,0.15,0.325,0.675]","","",""
"sailing-trial","414","1783027","0.0-11.0-371.0","","","","false","","","","","","","","","","null","","134.60000000149012","","1","0","null","null","arrowup","[0.85,0.15,0.325,0.675]","","",""
"sailing-trial","415","1786043","0.0-11.0-372.0","","","","false","","","","","","","","","","317","","41.80000000074506","","3","1","arrowright","1","arrowright","[0.85,0.15,0.325,0.675]","","",""
"sailing-trial","416","1787533","0.0-11.0-373.0","","","","false","","","","","","","","","","null","","335.4000000022352","","0","0","null","null","arrowup","[0.85,0.15,0.325,0.675]","","",""
"sailing-trial","417","1790596","0.0-11.0-374.0","","","","false","","","","","","","","","","239.60000000149012","","192.19999999925494","","3","1","arrowright","1","arrowright","[0.85,0.15,0.325,0.675]","","",""
"sailing-trial","418","1793195","0.0-11.0-375.0","","","","false","","","","","","","","","","null","","966.5","","0","1","null","null","arrowup","[0.85,0.15,0.325,0.675]","","",""
"sailing-trial","419","1796382","0.0-11.0-376.0","","","","false","","","","","","","","","","384.5","","32.5","","1","1","arrowleft","0","arrowright","[0.85,0.15,0.325,0.675]","","",""
"sailing-trial","420","1798089","0.0-11.0-377.0","","","","false","","","","","","","","","","null","","144.09999999776483","","1","0","null","null","arrowup","[0.85,0.15,0.325,0.675]","","",""
"sailing-trial","421","1801209","0.0-11.0-378.0","","","","false","","","","","","","","","","134.5","","116.59999999776483","","3","1","arrowright","1","arrowright","[0.85,0.15,0.325,0.675]","","",""
"sailing-trial","422","1803744","0.0-11.0-379.0","","","","false","","","","","","","","","","null","","190.89999999850988","","2","1","null","null","arrowup","[0.85,0.15,0.325,0.675]","","",""
"sailing-trial","423","1807359","0.0-11.0-380.0","","","","false","","","","","","","","","","281.5","","131.89999999850988","","3","1","arrowright","1","arrowright","[0.85,0.15,0.325,0.675]","","",""
"sailing-trial","424","1808808","0.0-11.0-381.0","","","","false","","","","","","","","","","null","","128.59999999776483","","3","0","null","null","arrowup","[0.85,0.15,0.325,0.675]","","",""
"sailing-trial","425","1812299","0.0-11.0-382.0","","","","false","","","","","","","","","","232.20000000298023","","593.3999999985099","","1","0","arrowleft","0","arrowright","[0.85,0.15,0.325,0.675]","","",""
"sailing-trial","426","1814137","0.0-11.0-383.0","","","","false","","","","","","","","","","null","","1.800000000745058","","2","1","null","null","arrowup","[0.85,0.15,0.325,0.675]","","",""
"sailing-trial","427","1817320","0.0-11.0-384.0","","","","false","","","","","","","","","","226.29999999701977","","2.300000000745058","","0","1","arrowleft","0","arrowleft","[0.675,0.325,0.15,0.85]","","",""
"sailing-trial","428","1819683","0.0-11.0-385.0","","","","false","","","","","","","","","","null","","56.600000001490116","","3","1","null","null","arrowup","[0.675,0.325,0.15,0.85]","","",""
"sailing-trial","429","1822809","0.0-11.0-386.0","","","","false","","","","","","","","","","226.69999999925494","","82.89999999850988","","3","1","arrowright","1","arrowright","[0.675,0.325,0.15,0.85]","","",""
"sailing-trial","430","1825215","0.0-11.0-387.0","","","","false","","","","","","","","","","null","","78.39999999850988","","1","1","null","null","arrowup","[0.675,0.325,0.15,0.85]","","",""
"sailing-trial","431","1828289","0.0-11.0-388.0","","","","false","","","","","","","","","","157.89999999850988","","149.39999999850988","","0","1","arrowleft","0","arrowleft","[0.675,0.325,0.15,0.85]","","",""
"sailing-trial","432","1830220","0.0-11.0-389.0","","","","false","","","","","","","","","","null","","495.0999999977648","","1","0","null","null","arrowup","[0.675,0.325,0.15,0.85]","","",""
"sailing-trial","433","1833109","0.0-11.0-390.0","","","","false","","","","","","","","","","265.80000000074506","","43.900000002235174","","3","1","arrowright","1","arrowright","[0.675,0.325,0.15,0.85]","","",""
"sailing-trial","434","1834574","0.0-11.0-391.0","","","","false","","","","","","","","","","null","","293.4000000022352","","0","0","null","null","arrowup","[0.675,0.325,0.15,0.85]","","",""
"sailing-trial","435","1838455","0.0-11.0-392.0","","","","false","","","","","","","","","","278.4000000022352","","4.5","","0","1","arrowleft","0","arrowleft","[0.675,0.325,0.15,0.85]","","",""
"sailing-trial","436","1840272","0.0-11.0-393.0","","","","false","","","","","","","","","","null","","70","","3","1","null","null","arrowup","[0.675,0.325,0.15,0.85]","","",""
"sailing-trial","437","1843214","0.0-11.0-394.0","","","","false","","","","","","","","","","88.19999999925494","","244","","3","1","arrowright","1","arrowright","[0.675,0.325,0.15,0.85]","","",""
"sailing-trial","438","1844388","0.0-11.0-395.0","","","","false","","","","","","","","","","null","","5.399999998509884","","2","0","null","null","arrowup","[0.675,0.325,0.15,0.85]","","",""
"sailing-trial","439","1847567","0.0-11.0-396.0","","","","false","","","","","","","","","","300.69999999925494","","120.09999999776483","","0","1","arrowleft","0","arrowleft","[0.675,0.325,0.15,0.85]","","",""
"sailing-trial","440","1849925","0.0-11.0-397.0","","","","false","","","","","","","","","","null","","1129.5","","1","0","null","null","arrowup","[0.675,0.325,0.15,0.85]","","",""
"sailing-trial","441","1853798","0.0-11.0-398.0","","","","false","","","","","","","","","","875.5999999977648","","194.09999999776483","","3","1","arrowright","1","arrowright","[0.675,0.325,0.15,0.85]","","",""
"sailing-trial","442","1857838","0.0-11.0-399.0","","","","false","","","","","","","","","","null","","1950.699999999255","","0","1","null","null","arrowup","[0.675,0.325,0.15,0.85]","","",""
"instructions","443","1864285","0.0-12.0","","","","","","","","","","6445.39999999851","","","","","","","","","","","","","","","","[{""page_index"":0,""viewing_time"":6442.699999999255}]"
"survey-debrief","444","1931616","0.0-13.0","","","","","","","","","","67324.80000000075","","","","","","","","","","","","","","{""difficulty"":""5"",""fun"":""4"",""clarity"":""5"",""strategy"":""go to the best shops in the two islands then if they dont give gold anymore go to the other shops "",""feedback"":""no""}","",""
