"trial_type","trial_index","time_elapsed","internal_node_id","value","metadata","success","timeout","failed_images","failed_audio","failed_video","browser_interaction","low_quality","rt","stimulus","response","button_pressed","island_rt","island_response","boat_rt","boat_response","boat","reward","island_key","island","boat_key","reward_probabilities","responses","num_errors","view_history"
"pavlovia","0","3","0.0-0.0","","","","","","","","","","","","","","","","","","","","","","","","","",""
"call-function","1","3","0.0-1.0","","{""task_version"":""sailing_part1_v1"",""task_condition"":""good"",""boats"":[""B"",""D"",""A"",""C""],""boats_demo"":[""F"",""H"",""G"",""E""],""islands"":[""B"",""A""],""subject_id"":""14530"",""age"":""10"",""gender"":""Male""}","","","","","","","","","","","","","","","","","","","","","","","",""
"preload","2","2191","0.0-2.0","","","true","false","[]","[]","[]","[{""event"":""fullscreenenter"",""trial"":3,""time"":4522}]","false","","","","","","","","","","","","","","","","",""
"fullscreen","3","5513","0.0-3.0","","","true","","","","","","","","","","","","","","","","","","","","","","",""
"audio-keyboard-response","4","8393","0.0-4.0-0.0","","","","","","","","","","2301.3333333333335","audio/beep_loop.wav"," ","","","","","","","","","","","","","",""
"audio-test","5","9578","0.0-4.0-1.0","","","","","","","","","","null","audio/turtle.mp3","","3","","","","","","","","","","","","",""
"audio-test","6","11584","0.0-4.0-2.0","","","","","","","","","","null","audio/shark.mp3","","2","","","","","","","","","","","","",""
"sailing-instructions","7","49002","0.0-5.0-0.0-0.0","","","","","","","","","","","","","","null","null","null","null","null","null","","","","","","",""
"sailing-trial","8","52198","0.0-5.0-0.0-1.0-0.0","","","","false","","","","","","","","","","2067.399999976158","","null","","null","null","arrowleft","0","null","null","","",""
"sailing-trial","9","54763","0.0-5.0-0.0-1.0-1.0","","","","false","","","","","","","","","","1441.5","","null","","null","null","arrowright","1","null","null","","",""
"sailing-trial","10","57698","0.0-5.0-0.0-1.0-2.0","","","","false","","","","","","","","","","1801.6000000238419","","null","","null","null","arrowright","1","null","null","","",""
"sailing-instructions","11","101157","0.0-5.0-0.0-2.0","","","","","","","","","","","","","","null","null","null","null","0","null","","","","","","",""
"sailing-trial","12","107075","0.0-5.0-0.0-3.0-0.0","","","","false","","","","","","","","","","null","","2139.6999999284744","","2","1","null","null","arrowleft","[1,1,1,1]","","",""
"sailing-trial","13","110606","0.0-5.0-0.0-3.0-1.0","","","","false","","","","","","","","","","null","","478.89999997615814","","3","1","null","null","arrowright","[1,1,1,1]","","",""
"sailing-trial","14","114531","0.0-5.0-0.0-3.0-2.0","","","","false","","","","","","","","","","null","","1308.7000000476837","","2","0","null","null","arrowleft","[0,0,0,0]","","",""
"sailing-instructions","15","121932","0.0-5.0-0.0-4.0","","","","","","","","","","","","","","null","null","null","null","null","null","","","","","","",""
"sailing-comprehension","16","140278","0.0-5.0-0.0-5.0","","","","","","","","","","12753.299999952316","","","","","","","","","","","","","","[""true"",""false"",""false"",""true""]","1",""
"sailing-instructions","17","169994","0.0-5.0-0.1-0.1","","","","","","","","","","","","","","null","null","null","null","null","null","","","","","","",""
"sailing-trial","18","171275","0.0-5.0-0.1-1.1-0.1","","","","false","","","","","","","","","","131.90000009536743","","null","","null","null","arrowleft","0","null","null","","",""
"sailing-trial","19","172558","0.0-5.0-0.1-1.1-1.1","","","","false","","","","","","","","","","142.39999997615814","","null","","null","null","arrowright","1","null","null","","",""
"sailing-trial","20","173807","0.0-5.0-0.1-1.1-2.1","","","","false","","","","","","","","","","113.60000002384186","","null","","null","null","arrowright","1","null","null","","",""
"sailing-instructions","21","222153","0.0-5.0-0.1-2.1","","","","","","","","","","","","","","null","null","null","null","0","null","","","","","","",""
"sailing-trial","22","226050","0.0-5.0-0.1-3.1-0.1","","","","false","","","","","","","","","","null","","276.60000002384186","","2","1","null","null","arrowleft","[1,1,1,1]","","",""
"sailing-trial","23","228948","0.0-5.0-0.1-3.1-1.1","","","","false","","","","","","","","","","null","","326.5","","3","1","null","null","arrowright","[1,1,1,1]","","",""
"sailing-trial","24","231225","0.0-5.0-0.1-3.1-2.1","","","","false","","","","","","","","","","null","","9.299999952316284","","3","0","null","null","arrowright","[0,0,0,0]","","",""
"sailing-instructions","25","238284","0.0-5.0-0.1-4.1","","","","","","","","","","","","","","null","null","null","null","null","null","","","","","","",""
"sailing-comprehension","26","247623","0.0-5.0-0.1-5.1","","","","","","","","","","7889.399999976158","","","","","","","","","","","","","","[""true"",""true"",""false"",""true""]","0",""
"sailing-instructions","27","308717","0.0-6.0-0.0-0.0","","","","","","","","","","","","","","null","null","null","null","null","null","","","","","","",""
"sailing-comprehension","28","328452","0.0-6.0-0.0-1.0","","","","","","","","","","18069.399999976158","","","","","","","","","","","","","","[""true"",""false"",""true""]","0",""
"sailing-instructions","29","342004","0.0-7.0-0.0-0.0","","","","","","","","","","","","","","null","null","null","null","null","null","","","","","","",""
"sailing-trial","30","347471","0.0-7.0-0.0-1.0-0.0","","","","false","","","","","","","","","","null","","2442.7000000476837","","0","0","null","null","arrowup","[0.2,0.8,0.2,0.8]","","",""
"sailing-trial","31","351698","0.0-7.0-0.0-1.0-1.0","","","","false","","","","","","","","","","null","","2333.899999976158","","1","1","null","null","arrowup","[0.2,0.8,0.2,0.8]","","",""
"sailing-trial","32","353685","0.0-7.0-0.0-1.0-2.0","","","","false","","","","","","","","","","null","","851.3999999761581","","2","0","null","null","arrowup","[0.2,0.8,0.2,0.8]","","",""
"sailing-trial","33","355968","0.0-7.0-0.0-1.0-3.0","","","","false","","","","","","","","","","null","","659.1999999284744","","3","1","null","null","arrowup","[0.2,0.8,0.2,0.8]","","",""
"sailing-comprehension","34","364914","0.0-7.0-0.0-2.0","","","","","","","","","","7494","","","","","","","","","","","","","","[""false""]","0",""
"sailing-instructions","35","374872","0.0-8.0-0.0-0.0","","","","","","","","","","","","","","null","null","null","null","null","null","","","","","","",""
"sailing-comprehension","36","378416","0.0-8.0-0.0-1.0","","","","","","","","","","2980.100000023842","","","","","","","","","","","","","","[""true""]","0",""
"sailing-instructions","37","399970","0.0-9.0-0.0-0.0","","","","","","","","","","","","","","null","null","null","null","null","null","","","","","","",""
"sailing-trial","38","404594","0.0-9.0-0.0-1.0-0.0","","","","false","","","","","","","","","","907.3999999761581","","606.8000000715256","","2","0","arrowright","1","arrowleft","[0.2,0.8,0.2,0.8]","","",""
"sailing-trial","39","408443","0.0-9.0-0.0-1.0-1.0","","","","false","","","","","","","","","","524.3999999761581","","31.299999952316284","","3","1","arrowright","1","arrowright","[0.2,0.8,0.2,0.8]","","",""
"sailing-trial","40","411619","0.0-9.0-0.0-1.0-2.0","","","","false","","","","","","","","","","null","","1557.1000000238419","","0","0","null","null","arrowup","[0.2,0.8,0.2,0.8]","","",""
"sailing-trial","41","415689","0.0-9.0-0.0-1.0-3.0","","","","false","","","","","","","","","","830.1000000238419","","273.39999997615814","","3","1","arrowright","1","arrowright","[0.2,0.8,0.2,0.8]","","",""
"sailing-trial","42","419204","0.0-9.0-0.0-1.0-4.0","","","","false","","","","","","","","","","null","","1376.3000000715256","","3","1","null","null","arrowup","[0.2,0.8,0.2,0.8]","","",""
"sailing-trial","43","423408","0.0-9.0-0.0-1.0-5.0","","","","false","","","","","","","","","","730.6999999284744","","341.3000000715256","","3","1","arrowright","1","arrowright","[0.2,0.8,0.2,0.8]","","",""
"sailing-instructions","44","446674","0.0-10.0","","","","","","","","","","","","","","null","null","null","null","null","null","","","","","","",""
"sailing-trial","45","451038","0.0-11.0-0.0","","","","false","","","","","","","","","","1550.1000000238419","","174.89999997615814","","2","0","arrowright","1","arrowleft","[0.15,0.85,0.675,0.325]","","",""
"sailing-trial","46","454386","0.0-11.0-1.0","","","","false","","","","","","","","","","null","","1106.3999999761581","","3","1","null","null","arrowup","[0.15,0.85,0.675,0.325]","","",""
"sailing-trial","47","458568","0.0-11.0-2.0","","","","false","","","","","","","","","","589.1000000238419","","660","","3","1","arrowright","1","arrowright","[0.15,0.85,0.675,0.325]","","",""
"sailing-trial","48","462466","0.0-11.0-3.0","","","","false","","","","","","","","","","null","","2099.600000023842","","2","1","null","null","arrowup","[0.15,0.85,0.675,0.325]","","",""
"sailing-trial","49","466497","0.0-11.0-4.0","","","","false","","","","","","","","","","605.2999999523163","","389.3000000715256","","1","1","arrowleft","0","arrowright","[0.15,0.85,0.675,0.325]","","",""
"sailing-trial","50","469173","0.0-11.0-5.0","","","","false","","","","","","","","","","null","","1203.6999999284744","","0","0","null","null","arrowup","[0.15,0.85,0.675,0.325]","","",""
"sailing-trial","51","472350","0.0-11.0-6.0","","","","false","","","","","","","","","","494.7999999523163","","221.30000007152557","","0","0","arrowleft","0","arrowleft","[0.15,0.85,0.675,0.325]","","",""
"sailing-trial","52","475388","0.0-11.0-7.0","","","","false","","","","","","","","","","null","","1163","","3","0","null","null","arrowup","[0.15,0.85,0.675,0.325]","","",""
"sailing-trial","53","479023","0.0-11.0-8.0","","","","false","","","","","","","","","","1170.9000000953674","","161.60000002384186","","3","0","arrowright","1","arrowright","[0.15,0.85,0.675,0.325]","","",""
"sailing-trial","54","482869","0.0-11.0-9.0","","","","false","","","","","","","","","","null","","1007","","3","0","null","null","arrowup","[0.15,0.85,0.675,0.325]","","",""
"sailing-trial","55","487365","0.0-11.0-10.0","","","","false","","","","","","","","","","1614.2999999523163","","366.59999990463257","","3","0","arrowright","1","arrowright","[0.15,0.85,0.675,0.325]","","",""
"sailing-trial","56","489992","0.0-11.0-11.0","","","","false","","","","","","","","","","null","","1034.7000000476837","","1","0","null","null","arrowup","[0.15,0.85,0.675,0.325]","","",""
"sailing-trial","57","494283","0.0-11.0-12.0","","","","false","","","","","","","","","","1269.8999999761581","","222.5","","2","1","arrowright","1","arrowleft","[0.15,0.85,0.675,0.325]","","",""
"sailing-trial","58","497239","0.0-11.0-13.0","","","","false","","","","","","","","","","null","","1091.5","","0","0","null","null","arrowup","[0.15,0.85,0.675,0.325]","","",""
"sailing-trial","59","500573","0.0-11.0-14.0","","","","false","","","","","","","","","","603","","211.09999990463257","","0","0","arrowleft","0","arrowleft","[0.15,0.85,0.675,0.325]","","",""
"sailing-trial","60","503529","0.0-11.0-15.0","","","","false","","","","","","","","","","null","","985.8000000715256","","1","1","null","null","arrowup","[0.15,0.85,0.675,0.325]","","",""
"sailing-trial","61","506777","0.0-11.0-16.0","","","","false","","","","","","","","","","543.7999999523163","","109.39999997615814","","2","1","arrowright","1","arrowleft","[0.325,0.675,0.85,0.15]","","",""
"sailing-trial","62","510692","0.0-11.0-17.0","","","","false","","","","","","","","","","null","","1107.6999999284744","","1","1","null","null","arrowup","[0.325,0.675,0.85,0.15]","","",""
"sailing-trial","63","514640","0.0-11.0-18.0","","","","false","","","","","","","","","","660.6000000238419","","107.29999995231628","","2","1","arrowright","1","arrowleft","[0.325,0.675,0.85,0.15]","","",""
"sailing-trial","64","518075","0.0-11.0-19.0","","","","false","","","","","","","","","","null","","917.9000000953674","","0","0","null","null","arrowup","[0.325,0.675,0.85,0.15]","","",""
"sailing-trial","65","521822","0.0-11.0-20.0","","","","false","","","","","","","","","","707.5","","348.3000000715256","","2","1","arrowright","1","arrowleft","[0.325,0.675,0.85,0.15]","","",""
"sailing-trial","66","525302","0.0-11.0-21.0","","","","false","","","","","","","","","","null","","938.6000000238419","","2","1","null","null","arrowup","[0.325,0.675,0.85,0.15]","","",""
"sailing-trial","67","529600","0.0-11.0-22.0","","","","false","","","","","","","","","","551.8999999761581","","869","","2","1","arrowright","1","arrowleft","[0.325,0.675,0.85,0.15]","","",""
"sailing-trial","68","533484","0.0-11.0-23.0","","","","false","","","","","","","","","","null","","871.2000000476837","","3","0","null","null","arrowup","[0.325,0.675,0.85,0.15]","","",""
"sailing-trial","69","537928","0.0-11.0-24.0","","","","false","","","","","","","","","","1505.7999999523163","","172.60000002384186","","2","1","arrowright","1","arrowleft","[0.325,0.675,0.85,0.15]","","",""
"sailing-trial","70","543309","0.0-11.0-25.0","","","","false","","","","","","","","","","null","","3461.3000000715256","","2","1","null","null","arrowup","[0.325,0.675,0.85,0.15]","","",""
"sailing-trial","71","547623","0.0-11.0-26.0","","","","false","","","","","","","","","","777.1999999284744","","525.3999999761581","","2","1","arrowright","1","arrowleft","[0.325,0.675,0.85,0.15]","","",""
"sailing-trial","72","549983","0.0-11.0-27.0","","","","false","","","","","","","","","","null","","1071.5","","3","0","null","null","arrowup","[0.325,0.675,0.85,0.15]","","",""
"sailing-trial","73","553536","0.0-11.0-28.0","","","","false","","","","","","","","","","739.3000000715256","","295.7000000476837","","2","0","arrowright","1","arrowleft","[0.325,0.675,0.85,0.15]","","",""
"sailing-trial","74","555924","0.0-11.0-29.0","","","","false","","","","","","","","","","null","","902.8999999761581","","3","0","null","null","arrowup","[0.325,0.675,0.85,0.15]","","",""
"sailing-trial","75","559694","0.0-11.0-30.0","","","","false","","","","","","","","","","645.9000000953674","","671.6999999284744","","1","0","arrowleft","0","arrowright","[0.325,0.675,0.85,0.15]","","",""
"sailing-trial","76","562076","0.0-11.0-31.0","","","","false","","","","","","","","","","null","","1011.1999999284744","","3","0","null","null","arrowup","[0.325,0.675,0.85,0.15]","","",""
"sailing-trial","77","565498","0.0-11.0-32.0","","","","false","","","","","","","","","","454.90000009536743","","62.60000002384186","","0","1","arrowleft","0","arrowleft","[0.675,0.325,0.15,0.85]","","",""
"sailing-trial","78","567908","0.0-11.0-33.0","","","","false","","","","","","","","","","null","","876.6999999284744","","2","0","null","null","arrowup","[0.675,0.325,0.15,0.85]","","",""
"sailing-trial","79","571562","0.0-11.0-34.0","","","","false","","","","","","","","","","537.2000000476837","","266.60000002384186","","0","1","arrowleft","0","arrowleft","[0.675,0.325,0.15,0.85]","","",""
"sailing-trial","80","575642","0.0-11.0-35.0","","","","false","","","","","","","","","","null","","1060.6000000238419","","2","0","null","null","arrowup","[0.675,0.325,0.15,0.85]","","",""
"sailing-trial","81","579574","0.0-11.0-36.0","","","","false","","","","","","","","","","454.10000002384186","","412.10000002384186","","0","1","arrowleft","0","arrowleft","[0.675,0.325,0.15,0.85]","","",""
"sailing-trial","82","583174","0.0-11.0-37.0","","","","false","","","","","","","","","","null","","1828.5","","1","1","null","null","arrowup","[0.675,0.325,0.15,0.85]","","",""
"sailing-trial","83","587477","0.0-11.0-38.0","","","","false","","","","","","","","","","586.7000000476837","","1087.6000000238419","","1","0","arrowleft","0","arrowright","[0.675,0.325,0.15,0.85]","","",""
"sailing-trial","84","590619","0.0-11.0-39.0","","","","false","","","","","","","","","","null","","933.1999999284744","","0","1","null","null","arrowup","[0.675,0.325,0.15,0.85]","","",""
"sailing-trial","85","594367","0.0-11.0-40.0","","","","false","","","","","","","","","","623.1000000238419","","215.29999995231628","","0","1","arrowleft","0","arrowleft","[0.675,0.325,0.15,0.85]","","",""
"sailing-trial","86","598534","0.0-11.0-41.0","","","","false","","","","","","","","","","null","","1128.8999999761581","","2","0","null","null","arrowup","[0.675,0.325,0.15,0.85]","","",""
"sailing-trial","87","601818","0.0-11.0-42.0","","","","false","","","","","","","","","","446.10000002384186","","527.7000000476837","","0","0","arrowleft","0","arrowleft","[0.675,0.325,0.15,0.85]","","",""
"sailing-trial","88","605062","0.0-11.0-43.0","","","","false","","","","","","","","","","null","","1157.3999999761581","","3","1","null","null","arrowup","[0.675,0.325,0.15,0.85]","","",""
"sailing-trial","89","608595","0.0-11.0-44.0","","","","false","","","","","","","","","","482.89999997615814","","38.10000002384186","","3","1","arrowright","1","arrowright","[0.675,0.325,0.15,0.85]","","",""
"sailing-trial","90","611016","0.0-11.0-45.0","","","","false","","","","","","","","","","null","","1010.8999999761581","","3","0","null","null","arrowup","[0.675,0.325,0.15,0.85]","","",""
"sailing-trial","91","615907","0.0-11.0-46.0","","","","false","","","","","","","","","","622.5","","1574.7999999523163","","3","1","arrowright","1","arrowright","[0.675,0.325,0.15,0.85]","","",""
"sailing-trial","92","618600","0.0-11.0-47.0","","","","false","","","","","","","","","","null","","927.9000000953674","","2","0","null","null","arrowup","[0.675,0.325,0.15,0.85]","","",""
"sailing-trial","93","621904","0.0-11.0-48.0","","","","false","","","","","","","","","","401.5","","98.79999995231628","","3","1","arrowright","1","arrowright","[0.675,0.325,0.15,0.85]","","",""
"sailing-trial","94","625202","0.0-11.0-49.0","","","","false","","","","","","","","","","null","","722.8000000715256","","3","1","null","null","arrowup","[0.675,0.325,0.15,0.85]","","",""
"sailing-trial","95","628401","0.0-11.0-50.0","","","","false","","","","","","","","","","317.39999997615814","","37","","3","1","arrowright","1","arrowright","[0.675,0.325,0.15,0.85]","","",""
"sailing-trial","96","631050","0.0-11.0-51.0","","","","false","","","","","","","","","","null","","595.0999999046326","","1","1","null","null","arrowup","[0.675,0.325,0.15,0.85]","","",""
"sailing-trial","97","634384","0.0-11.0-52.0","","","","false","","","","","","","","","","521.2999999523163","","212.19999992847443","","3","0","arrowright","1","arrowright","[0.675,0.325,0.15,0.85]","","",""
"sailing-trial","98","637413","0.0-11.0-53.0","","","","false","","","","","","","","","","null","","993.3000000715256","","1","1","null","null","arrowup","[0.675,0.325,0.15,0.85]","","",""
"sailing-trial","99","641344","0.0-11.0-54.0","","","","false","","","","","","","","","","490.40000009536743","","266.10000002384186","","1","1","arrowleft","0","arrowright","[0.325,0.675,0.85,0.15]","","",""
"sailing-trial","100","644565","0.0-11.0-55.0","","","","false","","","","","","","","","","null","","1098.5999999046326","","3","0","null","null","arrowup","[0.325,0.675,0.85,0.15]","","",""
"sailing-trial","101","649843","0.0-11.0-56.0","","","","false","","","","","","","","","","881.2999999523163","","358.7000000476837","","1","0","arrowleft","0","arrowright","[0.325,0.675,0.85,0.15]","","",""
"sailing-trial","102","654189","0.0-11.0-57.0","","","","false","","","","","","","","","","null","","1192","","2","1","null","null","arrowup","[0.325,0.675,0.85,0.15]","","",""
"sailing-trial","103","657706","0.0-11.0-58.0","","","","false","","","","","","","","","","523.5","","310","","0","0","arrowleft","0","arrowleft","[0.325,0.675,0.85,0.15]","","",""
"sailing-trial","104","661135","0.0-11.0-59.0","","","","false","","","","","","","","","","null","","1210.5","","3","0","null","null","arrowup","[0.325,0.675,0.85,0.15]","","",""
"sailing-trial","105","665102","0.0-11.0-60.0","","","","false","","","","","","","","","","555.7000000476837","","128.60000002384186","","2","1","arrowright","1","arrowleft","[0.325,0.675,0.85,0.15]","","",""
"sailing-trial","106","667353","0.0-11.0-61.0","","","","false","","","","","","","","","","null","","861.2000000476837","","3","0","null","null","arrowup","[0.325,0.675,0.85,0.15]","","",""
"sailing-trial","107","670914","0.0-11.0-62.0","","","","false","","","","","","","","","","631","","31","","2","1","arrowright","1","arrowleft","[0.325,0.675,0.85,0.15]","","",""
"sailing-trial","108","674395","0.0-11.0-63.0","","","","false","","","","","","","","","","null","","1362.8999999761581","","1","1","null","null","arrowup","[0.325,0.675,0.85,0.15]","","",""
"sailing-trial","109","678393","0.0-11.0-64.0","","","","false","","","","","","","","","","515.7999999523163","","691.3999999761581","","2","1","arrowright","1","arrowleft","[0.325,0.675,0.85,0.15]","","",""
"sailing-trial","110","681315","0.0-11.0-65.0","","","","false","","","","","","","","","","null","","1627.5999999046326","","3","0","null","null","arrowup","[0.325,0.675,0.85,0.15]","","",""
"sailing-trial","111","684727","0.0-11.0-66.0","","","","false","","","","","","","","","","564.5","","205.89999997615814","","2","0","arrowright","1","arrowleft","[0.325,0.675,0.85,0.15]","","",""
"sailing-trial","112","688571","0.0-11.0-67.0","","","","false","","","","","","","","","","null","","2305.600000023842","","0","0","null","null","arrowup","[0.325,0.675,0.85,0.15]","","",""
"sailing-trial","113","693023","0.0-11.0-68.0","","","","false","","","","","","","","","","1093.0999999046326","","387.39999997615814","","3","0","arrowright","1","arrowright","[0.325,0.675,0.85,0.15]","","",""
"sailing-trial","114","696250","0.0-11.0-69.0","","","","false","","","","","","","","","","null","","1012.4000000953674","","0","0","null","null","arrowup","[0.325,0.675,0.85,0.15]","","",""
"sailing-trial","115","699866","0.0-11.0-70.0","","","","false","","","","","","","","","","395.09999990463257","","434.2000000476837","","2","1","arrowright","1","arrowleft","[0.325,0.675,0.85,0.15]","","",""
"sailing-trial","116","702699","0.0-11.0-71.0","","","","false","","","","","","","","","","null","","764","","0","1","null","null","arrowup","[0.325,0.675,0.85,0.15]","","",""
"sailing-trial","117","706595","0.0-11.0-72.0","","","","false","","","","","","","","","","867","","23.100000023841858","","2","1","arrowright","1","arrowleft","[0.15,0.85,0.675,0.325]","","",""
"sailing-trial","118","710922","0.0-11.0-73.0","","","","false","","","","","","","","","","null","","2615.399999976158","","0","0","null","null","arrowup","[0.15,0.85,0.675,0.325]","","",""
"sailing-trial","119","716276","0.0-11.0-74.0","","","","false","","","","","","","","","","1096.2000000476837","","908","","2","1","arrowright","1","arrowleft","[0.15,0.85,0.675,0.325]","","",""
"sailing-trial","120","719389","0.0-11.0-75.0","","","","false","","","","","","","","","","null","","1204.8999999761581","","0","1","null","null","arrowup","[0.15,0.85,0.675,0.325]","","",""
"sailing-trial","121","723304","0.0-11.0-76.0","","","","false","","","","","","","","","","948","","138.79999995231628","","2","1","arrowright","1","arrowleft","[0.15,0.85,0.675,0.325]","","",""
"sailing-trial","122","726735","0.0-11.0-77.0","","","","false","","","","","","","","","","null","","1215.2999999523163","","1","1","null","null","arrowup","[0.15,0.85,0.675,0.325]","","",""
"sailing-trial","123","731350","0.0-11.0-78.0","","","","false","","","","","","","","","","1372","","258.5","","2","1","arrowright","1","arrowleft","[0.15,0.85,0.675,0.325]","","",""
"sailing-trial","124","734831","0.0-11.0-79.0","","","","false","","","","","","","","","","null","","1391.7000000476837","","1","1","null","null","arrowup","[0.15,0.85,0.675,0.325]","","",""
"sailing-trial","125","738535","0.0-11.0-80.0","","","","false","","","","","","","","","","715.1000000238419","","145.5","","1","0","arrowleft","0","arrowright","[0.15,0.85,0.675,0.325]","","",""
"sailing-trial","126","741032","0.0-11.0-81.0","","","","false","","","","","","","","","","null","","892.2999999523163","","0","0","null","null","arrowup","[0.15,0.85,0.675,0.325]","","",""
"sailing-trial","127","745194","0.0-11.0-82.0","","","","false","","","","","","","","","","531.7999999523163","","641","","2","1","arrowright","1","arrowleft","[0.15,0.85,0.675,0.325]","","",""
"sailing-trial","128","748780","0.0-11.0-83.0","","","","false","","","","","","","","","","null","","1768.1999999284744","","0","0","null","null","arrowup","[0.15,0.85,0.675,0.325]","","",""
"sailing-trial","129","753108","0.0-11.0-84.0","","","","false","","","","","","","","","","1238.9000000953674","","129.10000002384186","","2","0","arrowright","1","arrowleft","[0.15,0.85,0.675,0.325]","","",""
"sailing-trial","130","756171","0.0-11.0-85.0","","","","false","","","","","","","","","","null","","869.5","","2","1","null","null","arrowup","[0.15,0.85,0.675,0.325]","","",""
"sailing-trial","131","759472","0.0-11.0-86.0","","","","false","","","","","","","","","","606.5","","103","","3","0","arrowright","1","arrowright","[0.15,0.85,0.675,0.325]","","",""
"sailing-trial","132","761956","0.0-11.0-87.0","","","","false","","","","","","","","","","null","","942.3000000715256","","0","0","null","null","arrowup","[0.15,0.85,0.675,0.325]","","",""
"sailing-trial","133","764972","0.0-11.0-88.0","","","","false","","","","","","","","","","543.6999999284744","","97.5","","2","0","arrowright","1","arrowleft","[0.325,0.675,0.85,0.15]","","",""
"sailing-trial","134","767337","0.0-11.0-89.0","","","","false","","","","","","","","","","null","","1001.2000000476837","","3","0","null","null","arrowup","[0.325,0.675,0.85,0.15]","","",""
"sailing-trial","135","770483","0.0-11.0-90.0","","","","false","","","","","","","","","","466","","78.10000002384186","","1","0","arrowleft","0","arrowright","[0.325,0.675,0.85,0.15]","","",""
"sailing-trial","136","773395","0.0-11.0-91.0","","","","false","","","","","","","","","","null","","907.3000000715256","","2","1","null","null","arrowup","[0.325,0.675,0.85,0.15]","","",""
"sailing-trial","137","778126","0.0-11.0-92.0","","","","false","","","","","","","","","","973.7000000476837","","418.7999999523163","","1","1","arrowleft","0","arrowright","[0.325,0.675,0.85,0.15]","","",""
"sailing-trial","138","781855","0.0-11.0-93.0","","","","false","","","","","","","","","","null","","2231.2999999523163","","3","0","null","null","arrowup","[0.325,0.675,0.85,0.15]","","",""
"sailing-trial","139","785558","0.0-11.0-94.0","","","","false","","","","","","","","","","591.8999999761581","","179.29999995231628","","2","1","arrowright","1","arrowleft","[0.325,0.675,0.85,0.15]","","",""
"sailing-trial","140","788473","0.0-11.0-95.0","","","","false","","","","","","","","","","null","","963.1000000238419","","2","1","null","null","arrowup","[0.325,0.675,0.85,0.15]","","",""
"sailing-trial","141","792233","0.0-11.0-96.0","","","","false","","","","","","","","","","551","","403.89999997615814","","2","0","arrowright","1","arrowleft","[0.325,0.675,0.85,0.15]","","",""
"sailing-trial","142","795069","0.0-11.0-97.0","","","","false","","","","","","","","","","null","","930.8999999761581","","2","1","null","null","arrowup","[0.325,0.675,0.85,0.15]","","",""
"sailing-trial","143","798366","0.0-11.0-98.0","","","","false","","","","","","","","","","506.2000000476837","","353","","1","0","arrowleft","0","arrowright","[0.325,0.675,0.85,0.15]","","",""
"sailing-trial","144","801482","0.0-11.0-99.0","","","","false","","","","","","","","","","null","","1175.3999999761581","","1","1","null","null","arrowup","[0.325,0.675,0.85,0.15]","","",""
"sailing-trial","145","804910","0.0-11.0-100.0","","","","false","","","","","","","","","","915.8999999761581","","61","","0","0","arrowleft","0","arrowleft","[0.325,0.675,0.85,0.15]","","",""
"sailing-trial","146","807762","0.0-11.0-101.0","","","","false","","","","","","","","","","null","","752.7999999523163","","2","1","null","null","arrowup","[0.325,0.675,0.85,0.15]","","",""
"sailing-trial","147","811844","0.0-11.0-102.0","","","","false","","","","","","","","","","700.6000000238419","","357.90000009536743","","2","1","arrowright","1","arrowleft","[0.325,0.675,0.85,0.15]","","",""
"sailing-trial","148","813613","0.0-11.0-103.0","","","","false","","","","","","","","","","null","","499.39999997615814","","0","0","null","null","arrowup","[0.325,0.675,0.85,0.15]","","",""
"sailing-trial","149","817341","0.0-11.0-104.0","","","","false","","","","","","","","","","805.8000000715256","","106.89999997615814","","2","1","arrowright","1","arrowleft","[0.15,0.85,0.675,0.325]","","",""
"sailing-trial","150","821373","0.0-11.0-105.0","","","","false","","","","","","","","","","null","","1908.1999999284744","","3","1","null","null","arrowup","[0.15,0.85,0.675,0.325]","","",""
"sailing-trial","151","826121","0.0-11.0-106.0","","","","false","","","","","","","","","","1393.6999999284744","","355.3000000715256","","2","1","arrowright","1","arrowleft","[0.15,0.85,0.675,0.325]","","",""
"sailing-trial","152","829036","0.0-11.0-107.0","","","","false","","","","","","","","","","null","","958.3999999761581","","1","1","null","null","arrowup","[0.15,0.85,0.675,0.325]","","",""
"sailing-trial","153","832533","0.0-11.0-108.0","","","","false","","","","","","","","","","633.5","","151.39999997615814","","2","1","arrowright","1","arrowleft","[0.15,0.85,0.675,0.325]","","",""
"sailing-trial","154","835436","0.0-11.0-109.0","","","","false","","","","","","","","","","null","","1438.7999999523163","","2","0","null","null","arrowup","[0.15,0.85,0.675,0.325]","","",""
"sailing-trial","155","841163","0.0-11.0-110.0","","","","false","","","","","","","","","","1960.7000000476837","","489.60000002384186","","2","1","arrowright","1","arrowleft","[0.15,0.85,0.675,0.325]","","",""
"sailing-trial","156","845311","0.0-11.0-111.0","","","","false","","","","","","","","","","null","","1993.3999999761581","","1","1","null","null","arrowup","[0.15,0.85,0.675,0.325]","","",""
"sailing-trial","157","849375","0.0-11.0-112.0","","","","false","","","","","","","","","","607.7999999523163","","438.89999997615814","","1","1","arrowleft","0","arrowright","[0.15,0.85,0.675,0.325]","","",""
"sailing-trial","158","852923","0.0-11.0-113.0","","","","false","","","","","","","","","","null","","1581.8999999761581","","1","1","null","null","arrowup","[0.15,0.85,0.675,0.325]","","",""
"sailing-trial","159","857006","0.0-11.0-114.0","","","","false","","","","","","","","","","710.6999999284744","","237.80000007152557","","1","1","arrowleft","0","arrowright","[0.15,0.85,0.675,0.325]","","",""
"sailing-trial","160","859654","0.0-11.0-115.0","","","","false","","","","","","","","","","null","","720.8999999761581","","0","1","null","null","arrowup","[0.15,0.85,0.675,0.325]","","",""
"sailing-trial","161","862591","0.0-11.0-116.0","","","","false","","","","","","","","","","268.40000009536743","","63.60000002384186","","0","0","arrowleft","0","arrowleft","[0.15,0.85,0.675,0.325]","","",""
"sailing-trial","162","865784","0.0-11.0-117.0","","","","false","","","","","","","","","","null","","1096.6999999284744","","0","1","null","null","arrowup","[0.15,0.85,0.675,0.325]","","",""
"sailing-trial","163","869441","0.0-11.0-118.0","","","","false","","","","","","","","","","429.2000000476837","","172.89999997615814","","0","0","arrowleft","0","arrowleft","[0.15,0.85,0.675,0.325]","","",""
"sailing-trial","164","872349","0.0-11.0-119.0","","","","false","","","","","","","","","","null","","794","","2","1","null","null","arrowup","[0.15,0.85,0.675,0.325]","","",""
"sailing-trial","165","875258","0.0-11.0-120.0","","","","false","","","","","","","","","","415.39999997615814","","55.200000047683716","","0","0","arrowleft","0","arrowleft","[0.15,0.85,0.675,0.325]","","",""
"sailing-trial","166","878394","0.0-11.0-121.0","","","","false","","","","","","","","","","null","","1325.3999999761581","","1","1","null","null","arrowup","[0.15,0.85,0.675,0.325]","","",""
"sailing-trial","167","882159","0.0-11.0-122.0","","","","false","","","","","","","","","","496.60000002384186","","179.39999997615814","","1","1","arrowleft","0","arrowright","[0.325,0.675,0.85,0.15]","","",""
"sailing-trial","168","885191","0.0-11.0-123.0","","","","false","","","","","","","","","","null","","952.7000000476837","","1","1","null","null","arrowup","[0.325,0.675,0.85,0.15]","","",""
"sailing-trial","169","889556","0.0-11.0-124.0","","","","false","","","","","","","","","","589.5","","481.5","","1","1","arrowleft","0","arrowright","[0.325,0.675,0.85,0.15]","","",""
"sailing-trial","170","891697","0.0-11.0-125.0","","","","false","","","","","","","","","","null","","978.6999999284744","","1","0","null","null","arrowup","[0.325,0.675,0.85,0.15]","","",""
"sailing-trial","171","895136","0.0-11.0-126.0","","","","false","","","","","","","","","","627.2000000476837","","11.400000095367432","","1","1","arrowleft","0","arrowright","[0.325,0.675,0.85,0.15]","","",""
"sailing-trial","172","897719","0.0-11.0-127.0","","","","false","","","","","","","","","","null","","965.8999999761581","","1","1","null","null","arrowup","[0.325,0.675,0.85,0.15]","","",""
"sailing-trial","173","900636","0.0-11.0-128.0","","","","false","","","","","","","","","","683.1999999284744","","97.89999997615814","","1","0","arrowleft","0","arrowright","[0.325,0.675,0.85,0.15]","","",""
"sailing-trial","174","902534","0.0-11.0-129.0","","","","false","","","","","","","","","","null","","344","","0","1","null","null","arrowup","[0.325,0.675,0.85,0.15]","","",""
"sailing-trial","175","905513","0.0-11.0-130.0","","","","false","","","","","","","","","","315.5","","29.299999952316284","","1","1","arrowleft","0","arrowright","[0.325,0.675,0.85,0.15]","","",""
"sailing-trial","176","907813","0.0-11.0-131.0","","","","false","","","","","","","","","","null","","721.7999999523163","","2","1","null","null","arrowup","[0.325,0.675,0.85,0.15]","","",""
"sailing-trial","177","910712","0.0-11.0-132.0","","","","false","","","","","","","","","","184.69999992847443","","73.29999995231628","","1","1","arrowleft","0","arrowright","[0.325,0.675,0.85,0.15]","","",""
"sailing-trial","178","913060","0.0-11.0-133.0","","","","false","","","","","","","","","","null","","779.2000000476837","","0","1","null","null","arrowup","[0.325,0.675,0.85,0.15]","","",""
"sailing-trial","179","916608","0.0-11.0-134.0","","","","false","","","","","","","","","","92.60000002384186","","1.100000023841858","","1","1","arrowleft","0","arrowright","[0.325,0.675,0.85,0.15]","","",""
"sailing-trial","180","918259","0.0-11.0-135.0","","","","false","","","","","","","","","","null","","487.5","","2","0","null","null","arrowup","[0.325,0.675,0.85,0.15]","","",""
"sailing-trial","181","921555","0.0-11.0-136.0","","","","false","","","","","","","","","","253","","137.10000002384186","","1","1","arrowleft","0","arrowright","[0.325,0.675,0.85,0.15]","","",""
"sailing-trial","182","924505","0.0-11.0-137.0","","","","false","","","","","","","","","","null","","1125","","0","1","null","null","arrowup","[0.325,0.675,0.85,0.15]","","",""
"sailing-trial","183","929485","0.0-11.0-138.0","","","","false","","","","","","","","","","1701.9000000953674","","327.60000002384186","","1","1","arrowleft","0","arrowright","[0.325,0.675,0.85,0.15]","","",""
"sailing-trial","184","933600","0.0-11.0-139.0","","","","false","","","","","","","","","","null","","2047.3999999761581","","3","1","null","null","arrowup","[0.325,0.675,0.85,0.15]","","",""
"sailing-trial","185","938331","0.0-11.0-140.0","","","","false","","","","","","","","","","1523","","314.6999999284744","","1","1","arrowleft","0","arrowright","[0.15,0.85,0.675,0.325]","","",""
"sailing-trial","186","940146","0.0-11.0-141.0","","","","false","","","","","","","","","","null","","204.70000004768372","","2","1","null","null","arrowup","[0.15,0.85,0.675,0.325]","","",""
"sailing-trial","187","943753","0.0-11.0-142.0","","","","false","","","","","","","","","","1169.6000000238419","","263.90000009536743","","1","0","arrowleft","0","arrowright","[0.15,0.85,0.675,0.325]","","",""
"sailing-trial","188","946676","0.0-11.0-143.0","","","","false","","","","","","","","","","null","","1059","","3","1","null","null","arrowup","[0.15,0.85,0.675,0.325]","","",""
"sailing-trial","189","950877","0.0-11.0-144.0","","","","false","","","","","","","","","","72.09999990463257","","96.09999990463257","","3","0","arrowright","1","arrowright","[0.15,0.85,0.675,0.325]","","",""
"sailing-trial","190","953240","0.0-11.0-145.0","","","","false","","","","","","","","","","null","","18.800000071525574","","1","1","null","null","arrowup","[0.15,0.85,0.675,0.325]","","",""
"sailing-trial","191","957021","0.0-11.0-146.0","","","","false","","","","","","","","","","791.8000000715256","","152.29999995231628","","2","1","arrowright","1","arrowleft","[0.15,0.85,0.675,0.325]","","",""
"sailing-trial","192","959920","0.0-11.0-147.0","","","","false","","","","","","","","","","null","","1080.5","","1","1","null","null","arrowup","[0.15,0.85,0.675,0.325]","","",""
"sailing-trial","193","963212","0.0-11.0-148.0","","","","false","","","","","","","","","","576.2999999523163","","419.60000002384186","","2","0","arrowright","1","arrowleft","[0.15,0.85,0.675,0.325]","","",""
"sailing-trial","194","966400","0.0-11.0-149.0","","","","false","","","","","","","","","","null","","1366.5","","1","1","null","null","arrowup","[0.15,0.85,0.675,0.325]","","",""
"sailing-trial","195","970515","0.0-11.0-150.0","","","","false","","","","","","","","","","530.1999999284744","","139.20000004768372","","1","1","arrowleft","0","arrowright","[0.15,0.85,0.675,0.325]","","",""
"sailing-trial","196","972603","0.0-11.0-151.0","","","","false","","","","","","","","","","null","","970.2999999523163","","3","0","null","null","arrowup","[0.15,0.85,0.675,0.325]","","",""
"sailing-trial","197","975762","0.0-11.0-152.0","","","","false","","","","","","","","","","352.7000000476837","","64.5","","1","1","arrowleft","0","arrowright","[0.15,0.85,0.675,0.325]","","",""
"sailing-trial","198","976948","0.0-11.0-153.0","","","","false","","","","","","","","","","null","","51.300000071525574","","1","0","null","null","arrowup","[0.15,0.85,0.675,0.325]","","",""
"sailing-trial","199","980360","0.0-11.0-154.0","","","","false","","","","","","","","","","374.5","","68.39999997615814","","1","1","arrowleft","0","arrowright","[0.15,0.85,0.675,0.325]","","",""
"sailing-trial","200","982710","0.0-11.0-155.0","","","","false","","","","","","","","","","null","","798.7999999523163","","1","1","null","null","arrowup","[0.15,0.85,0.675,0.325]","","",""
"sailing-trial","201","985337","0.0-11.0-156.0","","","","false","","","","","","","","","","337.7999999523163","","96.39999997615814","","0","0","arrowleft","0","arrowleft","[0.325,0.675,0.85,0.15]","","",""
"sailing-trial","202","987277","0.0-11.0-157.0","","","","false","","","","","","","","","","null","","801.6000000238419","","0","0","null","null","arrowup","[0.325,0.675,0.85,0.15]","","",""
"sailing-trial","203","989927","0.0-11.0-158.0","","","","false","","","","","","","","","","434","","145.89999997615814","","3","0","arrowright","1","arrowright","[0.325,0.675,0.85,0.15]","","",""
"sailing-trial","204","991992","0.0-11.0-159.0","","","","false","","","","","","","","","","null","","883.1000000238419","","0","0","null","null","arrowup","[0.325,0.675,0.85,0.15]","","",""
"sailing-trial","205","995336","0.0-11.0-160.0","","","","false","","","","","","","","","","567.2999999523163","","113.79999995231628","","2","1","arrowright","1","arrowleft","[0.325,0.675,0.85,0.15]","","",""
"sailing-trial","206","998584","0.0-11.0-161.0","","","","false","","","","","","","","","","null","","1545.2000000476837","","2","1","null","null","arrowup","[0.325,0.675,0.85,0.15]","","",""
"sailing-trial","207","1001029","0.0-11.0-162.0","","","","false","","","","","","","","","","208.39999997615814","","149.69999992847443","","2","0","arrowright","1","arrowleft","[0.325,0.675,0.85,0.15]","","",""
"sailing-trial","208","1002950","0.0-11.0-163.0","","","","false","","","","","","","","","","null","","269.3000000715256","","2","1","null","null","arrowup","[0.325,0.675,0.85,0.15]","","",""
"sailing-trial","209","1005258","0.0-11.0-164.0","","","","false","","","","","","","","","","24.300000071525574","","113.80000007152557","","2","0","arrowright","1","arrowleft","[0.325,0.675,0.85,0.15]","","",""
"sailing-trial","210","1007112","0.0-11.0-165.0","","","","false","","","","","","","","","","null","","832.2999999523163","","0","0","null","null","arrowup","[0.325,0.675,0.85,0.15]","","",""
"sailing-trial","211","1010245","0.0-11.0-166.0","","","","false","","","","","","","","","","504.59999990463257","","25.40000009536743","","2","1","arrowright","1","arrowleft","[0.325,0.675,0.85,0.15]","","",""
"sailing-trial","212","1012121","0.0-11.0-167.0","","","","false","","","","","","","","","","null","","823.5","","1","0","null","null","arrowup","[0.325,0.675,0.85,0.15]","","",""
"sailing-trial","213","1014545","0.0-11.0-168.0","","","","false","","","","","","","","","","130","","72.5","","2","0","arrowright","1","arrowleft","[0.325,0.675,0.85,0.15]","","",""
"sailing-trial","214","1017108","0.0-11.0-169.0","","","","false","","","","","","","","","","null","","935.9000000953674","","1","1","null","null","arrowup","[0.325,0.675,0.85,0.15]","","",""
"sailing-trial","215","1019664","0.0-11.0-170.0","","","","false","","","","","","","","","","89.5","","254.39999997615814","","2","0","arrowright","1","arrowleft","[0.325,0.675,0.85,0.15]","","",""
"sailing-trial","216","1022087","0.0-11.0-171.0","","","","false","","","","","","","","","","null","","1377.5999999046326","","3","0","null","null","arrowup","[0.325,0.675,0.85,0.15]","","",""
"sailing-trial","217","1024888","0.0-11.0-172.0","","","","false","","","","","","","","","","125.30000007152557","","104.80000007152557","","2","1","arrowright","1","arrowleft","[0.325,0.675,0.85,0.15]","","",""
"sailing-trial","218","1026688","0.0-11.0-173.0","","","","false","","","","","","","","","","null","","98.5","","1","1","null","null","arrowup","[0.325,0.675,0.85,0.15]","","",""
"sailing-trial","219","1029603","0.0-11.0-174.0","","","","false","","","","","","","","","","55.699999928474426","","174.10000002384186","","2","1","arrowright","1","arrowleft","[0.325,0.675,0.85,0.15]","","",""
"sailing-trial","220","1030958","0.0-11.0-175.0","","","","false","","","","","","","","","","null","","295.39999997615814","","1","0","null","null","arrowup","[0.325,0.675,0.85,0.15]","","",""
"sailing-trial","221","1033389","0.0-11.0-176.0","","","","false","","","","","","","","","","170.70000004768372","","55.799999952316284","","2","0","arrowright","1","arrowleft","[0.15,0.85,0.675,0.325]","","",""
"sailing-trial","222","1034713","0.0-11.0-177.0","","","","false","","","","","","","","","","null","","167","","0","0","null","null","arrowup","[0.15,0.85,0.675,0.325]","","",""
"sailing-trial","223","1038298","0.0-11.0-178.0","","","","false","","","","","","","","","","330","","199.5","","2","1","arrowright","1","arrowleft","[0.15,0.85,0.675,0.325]","","",""
"sailing-trial","224","1041047","0.0-11.0-179.0","","","","false","","","","","","","","","","null","","1039.1999999284744","","2","1","null","null","arrowup","[0.15,0.85,0.675,0.325]","","",""
"sailing-trial","225","1043870","0.0-11.0-180.0","","","","false","","","","","","","","","","440.89999997615814","","164.90000009536743","","2","0","arrowright","1","arrowleft","[0.15,0.85,0.675,0.325]","","",""
"sailing-trial","226","1045441","0.0-11.0-181.0","","","","false","","","","","","","","","","null","","403.2000000476837","","3","0","null","null","arrowup","[0.15,0.85,0.675,0.325]","","",""
"sailing-trial","227","1048186","0.0-11.0-182.0","","","","false","","","","","","","","","","430.10000002384186","","41.800000071525574","","1","0","arrowleft","0","arrowright","[0.15,0.85,0.675,0.325]","","",""
"sailing-trial","228","1050775","0.0-11.0-183.0","","","","false","","","","","","","","","","null","","1001.7000000476837","","3","1","null","null","arrowup","[0.15,0.85,0.675,0.325]","","",""
"sailing-trial","229","1054057","0.0-11.0-184.0","","","","false","","","","","","","","","","438.2000000476837","","148.39999997615814","","3","1","arrowright","1","arrowright","[0.15,0.85,0.675,0.325]","","",""
"sailing-trial","230","1056472","0.0-11.0-185.0","","","","false","","","","","","","","","","null","","843.3999999761581","","2","1","null","null","arrowup","[0.15,0.85,0.675,0.325]","","",""
"sailing-trial","231","1058847","0.0-11.0-186.0","","","","false","","","","","","","","","","24.799999952316284","","152.70000004768372","","3","0","arrowright","1","arrowright","[0.15,0.85,0.675,0.325]","","",""
"sailing-trial","232","1060087","0.0-11.0-187.0","","","","false","","","","","","","","","","null","","110.69999992847443","","0","0","null","null","arrowup","[0.15,0.85,0.675,0.325]","","",""
"sailing-trial","233","1062707","0.0-11.0-188.0","","","","false","","","","","","","","","","460.5","","107.29999995231628","","3","0","arrowright","1","arrowright","[0.15,0.85,0.675,0.325]","","",""
"sailing-trial","234","1064436","0.0-11.0-189.0","","","","false","","","","","","","","","","null","","139","","1","1","null","null","arrowup","[0.15,0.85,0.675,0.325]","","",""
"sailing-trial","235","1067650","0.0-11.0-190.0","","","","false","","","","","","","","","","441.5","","144.10000002384186","","3","1","arrowright","1","arrowright","[0.15,0.85,0.675,0.325]","","",""
"sailing-trial","236","1069367","0.0-11.0-191.0","","","","false","","","","","","","","","","null","","115.70000004768372","","1","1","null","null","arrowup","[0.15,0.85,0.675,0.325]","","",""
"sailing-trial","237","1071824","0.0-11.0-192.0","","","","false","","","","","","","","","","232.89999997615814","","14.899999976158142","","3","0","arrowright","1","arrowright","[0.325,0.675,0.85,0.15]","","",""
"sailing-trial","238","1073592","0.0-11.0-193.0","","","","false","","","","","","","","","","null","","158.79999995231628","","1","1","null","null","arrowup","[0.325,0.675,0.85,0.15]","","",""
"sailing-trial","239","1076160","0.0-11.0-194.0","","","","false","","","","","","","","","","164.10000002384186","","155","","3","0","arrowright","1","arrowright","[0.325,0.675,0.85,0.15]","","",""
"sailing-trial","240","1078162","0.0-11.0-195.0","","","","false","","","","","","","","","","null","","394.3000000715256","","2","1","null","null","arrowup","[0.325,0.675,0.85,0.15]","","",""
"sailing-trial","241","1080894","0.0-11.0-196.0","","","","false","","","","","","","","","","104.29999995231628","","6.399999976158142","","3","1","arrowright","1","arrowright","[0.325,0.675,0.85,0.15]","","",""
"sailing-trial","242","1082711","0.0-11.0-197.0","","","","false","","","","","","","","","","null","","658","","1","0","null","null","arrowup","[0.325,0.675,0.85,0.15]","","",""
"sailing-trial","243","1085741","0.0-11.0-198.0","","","","false","","","","","","","","","","160.89999997615814","","134.20000004768372","","3","1","arrowright","1","arrowright","[0.325,0.675,0.85,0.15]","","",""
"sailing-trial","244","1087473","0.0-11.0-199.0","","","","false","","","","","","","","","","null","","168.30000007152557","","1","1","null","null","arrowup","[0.325,0.675,0.85,0.15]","","",""
"sailing-trial","245","1090803","0.0-11.0-200.0","","","","false","","","","","","","","","","1104.3000000715256","","163.10000002384186","","3","0","arrowright","1","arrowright","[0.325,0.675,0.85,0.15]","","",""
"sailing-trial","246","1092162","0.0-11.0-201.0","","","","false","","","","","","","","","","null","","103.29999995231628","","3","0","null","null","arrowup","[0.325,0.675,0.85,0.15]","","",""
"sailing-trial","247","1094851","0.0-11.0-202.0","","","","false","","","","","","","","","","273.7999999523163","","207.10000002384186","","3","0","arrowright","1","arrowright","[0.325,0.675,0.85,0.15]","","",""
"sailing-trial","248","1096025","0.0-11.0-203.0","","","","false","","","","","","","","","","null","","83","","3","0","null","null","arrowup","[0.325,0.675,0.85,0.15]","","",""
"sailing-trial","249","1099511","0.0-11.0-204.0","","","","false","","","","","","","","","","640.8999999761581","","484.8000000715256","","0","0","arrowleft","0","arrowleft","[0.325,0.675,0.85,0.15]","","",""
"sailing-trial","250","1102065","0.0-11.0-205.0","","","","false","","","","","","","","","","null","","1091","","3","0","null","null","arrowup","[0.325,0.675,0.85,0.15]","","",""
"sailing-trial","251","1106431","0.0-11.0-206.0","","","","false","","","","","","","","","","903.6000000238419","","196.30000007152557","","1","1","arrowleft","0","arrowright","[0.325,0.675,0.85,0.15]","","",""
"sailing-trial","252","1110079","0.0-11.0-207.0","","","","false","","","","","","","","","","null","","1437.1999999284744","","2","1","null","null","arrowup","[0.325,0.675,0.85,0.15]","","",""
"sailing-trial","253","1113861","0.0-11.0-208.0","","","","false","","","","","","","","","","569.5999999046326","","351.7999999523163","","2","1","arrowright","1","arrowleft","[0.325,0.675,0.85,0.15]","","",""
"sailing-trial","254","1116460","0.0-11.0-209.0","","","","false","","","","","","","","","","null","","972.6000000238419","","2","1","null","null","arrowup","[0.325,0.675,0.85,0.15]","","",""
"sailing-trial","255","1119425","0.0-11.0-210.0","","","","false","","","","","","","","","","306.39999997615814","","86.89999997615814","","2","1","arrowright","1","arrowleft","[0.15,0.85,0.675,0.325]","","",""
"sailing-trial","256","1122107","0.0-11.0-211.0","","","","false","","","","","","","","","","null","","974.5","","3","1","null","null","arrowup","[0.15,0.85,0.675,0.325]","","",""
"sailing-trial","257","1125024","0.0-11.0-212.0","","","","false","","","","","","","","","","112","","60.10000002384186","","2","1","arrowright","1","arrowleft","[0.15,0.85,0.675,0.325]","","",""
"sailing-trial","258","1127131","0.0-11.0-213.0","","","","false","","","","","","","","","","null","","1039.5","","2","0","null","null","arrowup","[0.15,0.85,0.675,0.325]","","",""
"sailing-trial","259","1130869","0.0-11.0-214.0","","","","false","","","","","","","","","","877.8000000715256","","134.5","","2","1","arrowright","1","arrowleft","[0.15,0.85,0.675,0.325]","","",""
"sailing-trial","260","1133670","0.0-11.0-215.0","","","","false","","","","","","","","","","null","","1070.2999999523163","","2","1","null","null","arrowup","[0.15,0.85,0.675,0.325]","","",""
"sailing-trial","261","1136634","0.0-11.0-216.0","","","","false","","","","","","","","","","178.89999997615814","","187.90000009536743","","2","1","arrowright","1","arrowleft","[0.15,0.85,0.675,0.325]","","",""
"sailing-trial","262","1138915","0.0-11.0-217.0","","","","false","","","","","","","","","","null","","736.1000000238419","","2","1","null","null","arrowup","[0.15,0.85,0.675,0.325]","","",""
"sailing-trial","263","1142015","0.0-11.0-218.0","","","","false","","","","","","","","","","86.60000002384186","","73.70000004768372","","2","1","arrowright","1","arrowleft","[0.15,0.85,0.675,0.325]","","",""
"sailing-trial","264","1145896","0.0-11.0-219.0","","","","false","","","","","","","","","","null","","2309.5","","2","1","null","null","arrowup","[0.15,0.85,0.675,0.325]","","",""
"sailing-trial","265","1150693","0.0-11.0-220.0","","","","false","","","","","","","","","","1318.1999999284744","","424.1999999284744","","2","1","arrowright","1","arrowleft","[0.15,0.85,0.675,0.325]","","",""
"sailing-trial","266","1152496","0.0-11.0-221.0","","","","false","","","","","","","","","","null","","622.5999999046326","","1","0","null","null","arrowup","[0.15,0.85,0.675,0.325]","","",""
"sailing-trial","267","1155524","0.0-11.0-222.0","","","","false","","","","","","","","","","347.5","","13.5","","2","1","arrowright","1","arrowleft","[0.15,0.85,0.675,0.325]","","",""
"sailing-trial","268","1158774","0.0-11.0-223.0","","","","false","","","","","","","","","","null","","2240.399999976158","","0","0","null","null","arrowup","[0.15,0.85,0.675,0.325]","","",""
"sailing-trial","269","1162238","0.0-11.0-224.0","","","","false","","","","","","","","","","601.8999999761581","","121.5","","2","1","arrowright","1","arrowleft","[0.15,0.85,0.675,0.325]","","",""
"sailing-trial","270","1165169","0.0-11.0-225.0","","","","false","","","","","","","","","","null","","1265.6000000238419","","3","1","null","null","arrowup","[0.15,0.85,0.675,0.325]","","",""
"sailing-trial","271","1168148","0.0-11.0-226.0","","","","false","","","","","","","","","","668.5","","113.60000002384186","","2","0","arrowright","1","arrowleft","[0.15,0.85,0.675,0.325]","","",""
"sailing-trial","272","1171651","0.0-11.0-227.0","","","","false","","","","","","","","","","null","","1879.3000000715256","","2","1","null","null","arrowup","[0.15,0.85,0.675,0.325]","","",""
"sailing-trial","273","1175694","0.0-11.0-228.0","","","","false","","","","","","","","","","1702.1999999284744","","156.19999992847443","","2","0","arrowright","1","arrowleft","[0.15,0.85,0.675,0.325]","","",""
"sailing-trial","274","1178497","0.0-11.0-229.0","","","","false","","","","","","","","","","null","","1123.2999999523163","","1","1","null","null","arrowup","[0.15,0.85,0.675,0.325]","","",""
"sailing-trial","275","1181895","0.0-11.0-230.0","","","","false","","","","","","","","","","714.8999999761581","","128.79999995231628","","2","1","arrowright","1","arrowleft","[0.675,0.325,0.15,0.85]","","",""
"sailing-trial","276","1184458","0.0-11.0-231.0","","","","false","","","","","","","","","","null","","1336.2999999523163","","0","0","null","null","arrowup","[0.675,0.325,0.15,0.85]","","",""
"sailing-trial","277","1187168","0.0-11.0-232.0","","","","false","","","","","","","","","","641.5","","15.100000023841858","","2","0","arrowright","1","arrowleft","[0.675,0.325,0.15,0.85]","","",""
"sailing-trial","278","1189791","0.0-11.0-233.0","","","","false","","","","","","","","","","null","","1047.3000000715256","","0","1","null","null","arrowup","[0.675,0.325,0.15,0.85]","","",""
"sailing-trial","279","1192956","0.0-11.0-234.0","","","","false","","","","","","","","","","295.2000000476837","","52.40000009536743","","0","1","arrowleft","0","arrowleft","[0.675,0.325,0.15,0.85]","","",""
"sailing-trial","280","1196721","0.0-11.0-235.0","","","","false","","","","","","","","","","null","","2048.7999999523163","","3","1","null","null","arrowup","[0.675,0.325,0.15,0.85]","","",""
"sailing-trial","281","1199602","0.0-11.0-236.0","","","","false","","","","","","","","","","127.70000004768372","","3.700000047683716","","0","1","arrowleft","0","arrowleft","[0.675,0.325,0.15,0.85]","","",""
"sailing-trial","282","1200957","0.0-11.0-237.0","","","","false","","","","","","","","","","null","","108.40000009536743","","2","0","null","null","arrowup","[0.675,0.325,0.15,0.85]","","",""
"sailing-trial","283","1203834","0.0-11.0-238.0","","","","false","","","","","","","","","","75.5","","126.40000009536743","","0","1","arrowleft","0","arrowleft","[0.675,0.325,0.15,0.85]","","",""
"sailing-trial","284","1205515","0.0-11.0-239.0","","","","false","","","","","","","","","","null","","58","","3","1","null","null","arrowup","[0.675,0.325,0.15,0.85]","","",""
"sailing-trial","285","1208298","0.0-11.0-240.0","","","","false","","","","","","","","","","95.39999997615814","","51.10000002384186","","0","1","arrowleft","0","arrowleft","[0.675,0.325,0.15,0.85]","","",""
"sailing-trial","286","1209359","0.0-11.0-241.0","","","","false","","","","","","","","","","null","","0","","1","0","null","null","arrowup","[0.675,0.325,0.15,0.85]","","",""
"sailing-trial","287","1212067","0.0-11.0-242.0","","","","false","","","","","","","","","","405.90000009536743","","124.79999995231628","","0","0","arrowleft","0","arrowleft","[0.675,0.325,0.15,0.85]","","",""
"sailing-trial","288","1213588","0.0-11.0-243.0","","","","false","","","","","","","","","","null","","207.39999997615814","","2","0","null","null","arrowup","[0.675,0.325,0.15,0.85]","","",""
"sailing-trial","289","1216280","0.0-11.0-244.0","","","","false","","","","","","","","","","321.5","","205.10000002384186","","0","0","arrowleft","0","arrowleft","[0.675,0.325,0.15,0.85]","","",""
"sailing-trial","290","1218026","0.0-11.0-245.0","","","","false","","","","","","","","","","null","","190.19999992847443","","2","1","null","null","arrowup","[0.675,0.325,0.15,0.85]","","",""
"sailing-trial","291","1220891","0.0-11.0-246.0","","","","false","","","","","","","","","","162.20000004768372","","9.800000071525574","","0","1","arrowleft","0","arrowleft","[0.675,0.325,0.15,0.85]","","",""
"sailing-trial","292","1222092","0.0-11.0-247.0","","","","false","","","","","","","","","","null","","106.09999990463257","","2","0","null","null","arrowup","[0.675,0.325,0.15,0.85]","","",""
"sailing-trial","293","1224670","0.0-11.0-248.0","","","","false","","","","","","","","","","245.89999997615814","","178.5","","0","0","arrowleft","0","arrowleft","[0.675,0.325,0.15,0.85]","","",""
"sailing-trial","294","1226171","0.0-11.0-249.0","","","","false","","","","","","","","","","null","","421.89999997615814","","1","0","null","null","arrowup","[0.675,0.325,0.15,0.85]","","",""
"sailing-trial","295","1230287","0.0-11.0-250.0","","","","false","","","","","","","","","","427.39999997615814","","686.2999999523163","","0","1","arrowleft","0","arrowleft","[0.675,0.325,0.15,0.85]","","",""
"sailing-trial","296","1231528","0.0-11.0-251.0","","","","false","","","","","","","","","","null","","105.09999990463257","","2","0","null","null","arrowup","[0.675,0.325,0.15,0.85]","","",""
"sailing-trial","297","1234584","0.0-11.0-252.0","","","","false","","","","","","","","","","395.39999997615814","","4.600000023841858","","0","1","arrowleft","0","arrowleft","[0.675,0.325,0.15,0.85]","","",""
"sailing-trial","298","1236317","0.0-11.0-253.0","","","","false","","","","","","","","","","null","","65.80000007152557","","0","1","null","null","arrowup","[0.675,0.325,0.15,0.85]","","",""
"sailing-trial","299","1238748","0.0-11.0-254.0","","","","false","","","","","","","","","","182.70000004768372","","10.100000023841858","","0","0","arrowleft","0","arrowleft","[0.325,0.675,0.85,0.15]","","",""
"sailing-trial","300","1240763","0.0-11.0-255.0","","","","false","","","","","","","","","","null","","973.5","","0","0","null","null","arrowup","[0.325,0.675,0.85,0.15]","","",""
"sailing-trial","301","1243612","0.0-11.0-256.0","","","","false","","","","","","","","","","379.2000000476837","","196.09999990463257","","0","0","arrowleft","0","arrowleft","[0.325,0.675,0.85,0.15]","","",""
"sailing-trial","302","1246795","0.0-11.0-257.0","","","","false","","","","","","","","","","null","","1074.1999999284744","","0","1","null","null","arrowup","[0.325,0.675,0.85,0.15]","","",""
"sailing-trial","303","1250443","0.0-11.0-258.0","","","","false","","","","","","","","","","257.8000000715256","","262.5","","3","1","arrowright","1","arrowright","[0.325,0.675,0.85,0.15]","","",""
"sailing-trial","304","1252173","0.0-11.0-259.0","","","","false","","","","","","","","","","null","","661.5999999046326","","0","0","null","null","arrowup","[0.325,0.675,0.85,0.15]","","",""
"sailing-trial","305","1254730","0.0-11.0-260.0","","","","false","","","","","","","","","","449.7999999523163","","25.700000047683716","","3","0","arrowright","1","arrowright","[0.325,0.675,0.85,0.15]","","",""
"sailing-trial","306","1256895","0.0-11.0-261.0","","","","false","","","","","","","","","","null","","1132.7000000476837","","0","0","null","null","arrowup","[0.325,0.675,0.85,0.15]","","",""
"sailing-trial","307","1259278","0.0-11.0-262.0","","","","false","","","","","","","","","","137.5","","85","","3","0","arrowright","1","arrowright","[0.325,0.675,0.85,0.15]","","",""
"sailing-trial","308","1262021","0.0-11.0-263.0","","","","false","","","","","","","","","","null","","893.3999999761581","","0","1","null","null","arrowup","[0.325,0.675,0.85,0.15]","","",""
"sailing-trial","309","1265786","0.0-11.0-264.0","","","","false","","","","","","","","","","503.10000002384186","","443","","2","1","arrowright","1","arrowleft","[0.325,0.675,0.85,0.15]","","",""
"sailing-trial","310","1268447","0.0-11.0-265.0","","","","false","","","","","","","","","","null","","1606.8999999761581","","0","0","null","null","arrowup","[0.325,0.675,0.85,0.15]","","",""
"sailing-trial","311","1271818","0.0-11.0-266.0","","","","false","","","","","","","","","","636","","83.10000002384186","","2","1","arrowright","1","arrowleft","[0.325,0.675,0.85,0.15]","","",""
"sailing-trial","312","1273013","0.0-11.0-267.0","","","","false","","","","","","","","","","null","","59.09999990463257","","3","0","null","null","arrowup","[0.325,0.675,0.85,0.15]","","",""
"sailing-trial","313","1275965","0.0-11.0-268.0","","","","false","","","","","","","","","","211.60000002384186","","40.700000047683716","","2","1","arrowright","1","arrowleft","[0.325,0.675,0.85,0.15]","","",""
"sailing-trial","314","1278198","0.0-11.0-269.0","","","","false","","","","","","","","","","null","","399.39999997615814","","3","1","null","null","arrowup","[0.325,0.675,0.85,0.15]","","",""
"sailing-trial","315","1281096","0.0-11.0-270.0","","","","false","","","","","","","","","","142.89999997615814","","161","","2","1","arrowright","1","arrowleft","[0.15,0.85,0.675,0.325]","","",""
"sailing-trial","316","1282795","0.0-11.0-271.0","","","","false","","","","","","","","","","null","","49.60000002384186","","2","1","null","null","arrowup","[0.15,0.85,0.675,0.325]","","",""
"sailing-trial","317","1285694","0.0-11.0-272.0","","","","false","","","","","","","","","","32.39999997615814","","109.89999997615814","","2","1","arrowright","1","arrowleft","[0.15,0.85,0.675,0.325]","","",""
"sailing-trial","318","1287428","0.0-11.0-273.0","","","","false","","","","","","","","","","null","","596.3999999761581","","0","0","null","null","arrowup","[0.15,0.85,0.675,0.325]","","",""
"sailing-trial","319","1290270","0.0-11.0-274.0","","","","false","","","","","","","","","","395.2999999523163","","141.39999997615814","","3","0","arrowright","1","arrowright","[0.15,0.85,0.675,0.325]","","",""
"sailing-trial","320","1292673","0.0-11.0-275.0","","","","false","","","","","","","","","","null","","824.5","","2","1","null","null","arrowup","[0.15,0.85,0.675,0.325]","","",""
"sailing-trial","321","1295422","0.0-11.0-276.0","","","","false","","","","","","","","","","116","","47.200000047683716","","2","1","arrowright","1","arrowleft","[0.15,0.85,0.675,0.325]","","",""
"sailing-trial","322","1297054","0.0-11.0-277.0","","","","false","","","","","","","","","","null","","24.40000009536743","","1","1","null","null","arrowup","[0.15,0.85,0.675,0.325]","","",""
"sailing-trial","323","1299870","0.0-11.0-278.0","","","","false","","","","","","","","","","156.39999997615814","","14.200000047683716","","2","1","arrowright","1","arrowleft","[0.15,0.85,0.675,0.325]","","",""
"sailing-trial","324","1301172","0.0-11.0-279.0","","","","false","","","","","","","","","","null","","78","","3","0","null","null","arrowup","[0.15,0.85,0.675,0.325]","","",""
"sailing-trial","325","1303934","0.0-11.0-280.0","","","","false","","","","","","","","","","98.29999995231628","","20.799999952316284","","2","1","arrowright","1","arrowleft","[0.15,0.85,0.675,0.325]","","",""
"sailing-trial","326","1305719","0.0-11.0-281.0","","","","false","","","","","","","","","","null","","31.100000023841858","","0","0","null","null","arrowup","[0.15,0.85,0.675,0.325]","","",""
"sailing-trial","327","1309249","0.0-11.0-282.0","","","","false","","","","","","","","","","308.89999997615814","","134.59999990463257","","1","1","arrowleft","0","arrowright","[0.15,0.85,0.675,0.325]","","",""
"sailing-trial","328","1312083","0.0-11.0-283.0","","","","false","","","","","","","","","","null","","1285.7999999523163","","3","0","null","null","arrowup","[0.15,0.85,0.675,0.325]","","",""
"sailing-trial","329","1315416","0.0-11.0-284.0","","","","false","","","","","","","","","","684.0999999046326","","289.2999999523163","","1","0","arrowleft","0","arrowright","[0.15,0.85,0.675,0.325]","","",""
"sailing-trial","330","1318259","0.0-11.0-285.0","","","","false","","","","","","","","","","null","","1013.5","","3","0","null","null","arrowup","[0.15,0.85,0.675,0.325]","","",""
"sailing-trial","331","1321710","0.0-11.0-286.0","","","","false","","","","","","","","","","569.6000000238419","","167.79999995231628","","2","1","arrowright","1","arrowleft","[0.325,0.675,0.85,0.15]","","",""
"sailing-trial","332","1323424","0.0-11.0-287.0","","","","false","","","","","","","","","","null","","100.5","","2","1","null","null","arrowup","[0.325,0.675,0.85,0.15]","","",""
"sailing-trial","333","1326223","0.0-11.0-288.0","","","","false","","","","","","","","","","24.200000047683716","","131.5","","2","1","arrowright","1","arrowleft","[0.325,0.675,0.85,0.15]","","",""
"sailing-trial","334","1327501","0.0-11.0-289.0","","","","false","","","","","","","","","","null","","99.5","","0","0","null","null","arrowup","[0.325,0.675,0.85,0.15]","","",""
"sailing-trial","335","1330354","0.0-11.0-290.0","","","","false","","","","","","","","","","0.10000002384185791","","140.5","","2","1","arrowright","1","arrowleft","[0.325,0.675,0.85,0.15]","","",""
"sailing-trial","336","1331480","0.0-11.0-291.0","","","","false","","","","","","","","","","null","","5.5","","3","0","null","null","arrowup","[0.325,0.675,0.85,0.15]","","",""
"sailing-trial","337","1334302","0.0-11.0-292.0","","","","false","","","","","","","","","","27.600000023841858","","61.199999928474426","","2","1","arrowright","1","arrowleft","[0.325,0.675,0.85,0.15]","","",""
"sailing-trial","338","1335901","0.0-11.0-293.0","","","","false","","","","","","","","","","null","","0.20000004768371582","","3","1","null","null","arrowup","[0.325,0.675,0.85,0.15]","","",""
"sailing-trial","339","1338305","0.0-11.0-294.0","","","","false","","","","","","","","","","158.70000004768372","","46.799999952316284","","2","0","arrowright","1","arrowleft","[0.325,0.675,0.85,0.15]","","",""
"sailing-trial","340","1341232","0.0-11.0-295.0","","","","false","","","","","","","","","","null","","876.6000000238419","","1","1","null","null","arrowup","[0.325,0.675,0.85,0.15]","","",""
"sailing-trial","341","1344597","0.0-11.0-296.0","","","","false","","","","","","","","","","402.39999997615814","","393.7000000476837","","2","1","arrowright","1","arrowleft","[0.325,0.675,0.85,0.15]","","",""
"sailing-trial","342","1346170","0.0-11.0-297.0","","","","false","","","","","","","","","","null","","355.09999990463257","","0","0","null","null","arrowup","[0.325,0.675,0.85,0.15]","","",""
"sailing-trial","343","1349445","0.0-11.0-298.0","","","","false","","","","","","","","","","246.10000002384186","","119.69999992847443","","2","1","arrowright","1","arrowleft","[0.325,0.675,0.85,0.15]","","",""
"sailing-trial","344","1351133","0.0-11.0-299.0","","","","false","","","","","","","","","","null","","496.5","","0","0","null","null","arrowup","[0.325,0.675,0.85,0.15]","","",""
"sailing-trial","345","1354025","0.0-11.0-300.0","","","","false","","","","","","","","","","107.19999992847443","","51.700000047683716","","2","1","arrowright","1","arrowleft","[0.325,0.675,0.85,0.15]","","",""
"sailing-trial","346","1356424","0.0-11.0-301.0","","","","false","","","","","","","","","","null","","826.1999999284744","","2","1","null","null","arrowup","[0.325,0.675,0.85,0.15]","","",""
"sailing-trial","347","1358765","0.0-11.0-302.0","","","","false","","","","","","","","","","87.69999992847443","","10.899999976158142","","2","0","arrowright","1","arrowleft","[0.85,0.15,0.325,0.675]","","",""
"sailing-trial","348","1360511","0.0-11.0-303.0","","","","false","","","","","","","","","","null","","643.8999999761581","","2","0","null","null","arrowup","[0.85,0.15,0.325,0.675]","","",""
"sailing-trial","349","1362908","0.0-11.0-304.0","","","","false","","","","","","","","","","286.8000000715256","","35.89999997615814","","2","0","arrowright","1","arrowleft","[0.85,0.15,0.325,0.675]","","",""
"sailing-trial","350","1365553","0.0-11.0-305.0","","","","false","","","","","","","","","","null","","1006.6000000238419","","1","1","null","null","arrowup","[0.85,0.15,0.325,0.675]","","",""
"sailing-trial","351","1368123","0.0-11.0-306.0","","","","false","","","","","","","","","","156.20000004768372","","123.39999997615814","","2","0","arrowright","1","arrowleft","[0.85,0.15,0.325,0.675]","","",""
"sailing-trial","352","1371284","0.0-11.0-307.0","","","","false","","","","","","","","","","null","","689.4000000953674","","1","1","null","null","arrowup","[0.85,0.15,0.325,0.675]","","",""
"sailing-trial","353","1374882","0.0-11.0-308.0","","","","false","","","","","","","","","","1310.0999999046326","","230","","2","0","arrowright","1","arrowleft","[0.85,0.15,0.325,0.675]","","",""
"sailing-trial","354","1377698","0.0-11.0-309.0","","","","false","","","","","","","","","","null","","958.5","","3","1","null","null","arrowup","[0.85,0.15,0.325,0.675]","","",""
"sailing-trial","355","1380735","0.0-11.0-310.0","","","","false","","","","","","","","","","358.7000000476837","","289.2000000476837","","3","0","arrowright","1","arrowright","[0.85,0.15,0.325,0.675]","","",""
"sailing-trial","356","1383378","0.0-11.0-311.0","","","","false","","","","","","","","","","null","","627.1000000238419","","3","1","null","null","arrowup","[0.85,0.15,0.325,0.675]","","",""
"sailing-trial","357","1386462","0.0-11.0-312.0","","","","false","","","","","","","","","","307.10000002384186","","230.89999997615814","","3","0","arrowright","1","arrowright","[0.85,0.15,0.325,0.675]","","",""
"sailing-trial","358","1388528","0.0-11.0-313.0","","","","false","","","","","","","","","","null","","818.6000000238419","","0","0","null","null","arrowup","[0.85,0.15,0.325,0.675]","","",""
"sailing-trial","359","1391857","0.0-11.0-314.0","","","","false","","","","","","","","","","245.60000002384186","","119.10000002384186","","3","1","arrowright","1","arrowright","[0.85,0.15,0.325,0.675]","","",""
"sailing-trial","360","1394363","0.0-11.0-315.0","","","","false","","","","","","","","","","null","","1199.7999999523163","","3","0","null","null","arrowup","[0.85,0.15,0.325,0.675]","","",""
"sailing-trial","361","1398154","0.0-11.0-316.0","","","","false","","","","","","","","","","333.7999999523163","","258.1999999284744","","3","1","arrowright","1","arrowright","[0.85,0.15,0.325,0.675]","","",""
"sailing-trial","362","1401284","0.0-11.0-317.0","","","","false","","","","","","","","","","null","","1825.6000000238419","","2","0","null","null","arrowup","[0.85,0.15,0.325,0.675]","","",""
"sailing-trial","363","1404934","0.0-11.0-318.0","","","","false","","","","","","","","","","466.7000000476837","","228.39999997615814","","3","1","arrowright","1","arrowright","[0.85,0.15,0.325,0.675]","","",""
"sailing-trial","364","1407533","0.0-11.0-319.0","","","","false","","","","","","","","","","null","","708.6000000238419","","0","1","null","null","arrowup","[0.85,0.15,0.325,0.675]","","",""
"sailing-trial","365","1411914","0.0-11.0-320.0","","","","false","","","","","","","","","","416.39999997615814","","255","","3","1","arrowright","1","arrowright","[0.85,0.15,0.325,0.675]","","",""
"sailing-trial","366","1414012","0.0-11.0-321.0","","","","false","","","","","","","","","","null","","718","","1","0","null","null","arrowup","[0.85,0.15,0.325,0.675]","","",""
"sailing-trial","367","1418245","0.0-11.0-322.0","","","","false","","","","","","","","","","406.89999997615814","","396.2000000476837","","3","1","arrowright","1","arrowright","[0.675,0.325,0.15,0.85]","","",""
"sailing-trial","368","1420676","0.0-11.0-323.0","","","","false","","","","","","","","","","null","","561.1000000238419","","0","1","null","null","arrowup","[0.675,0.325,0.15,0.85]","","",""
"sailing-trial","369","1425027","0.0-11.0-324.0","","","","false","","","","","","","","","","166.30000007152557","","1967","","3","0","arrowright","1","arrowright","[0.675,0.325,0.15,0.85]","","",""
"sailing-trial","370","1427940","0.0-11.0-325.0","","","","false","","","","","","","","","","null","","874.0999999046326","","3","1","null","null","arrowup","[0.675,0.325,0.15,0.85]","","",""
"sailing-trial","371","1430386","0.0-11.0-326.0","","","","false","","","","","","","","","","80.80000007152557","","212.60000002384186","","0","0","arrowleft","0","arrowleft","[0.675,0.325,0.15,0.85]","","",""
"sailing-trial","372","1432533","0.0-11.0-327.0","","","","false","","","","","","","","","","null","","862.2999999523163","","2","0","null","null","arrowup","[0.675,0.325,0.15,0.85]","","",""
"sailing-trial","373","1435542","0.0-11.0-328.0","","","","false","","","","","","","","","","774","","97.59999990463257","","1","0","arrowleft","0","arrowright","[0.675,0.325,0.15,0.85]","","",""
"sailing-trial","374","1437947","0.0-11.0-329.0","","","","false","","","","","","","","","","null","","1062.6000000238419","","3","0","null","null","arrowup","[0.675,0.325,0.15,0.85]","","",""
"sailing-trial","375","1441383","0.0-11.0-330.0","","","","false","","","","","","","","","","600.7000000476837","","127.60000002384186","","3","1","arrowright","1","arrowright","[0.675,0.325,0.15,0.85]","","",""
"sailing-trial","376","1443948","0.0-11.0-331.0","","","","false","","","","","","","","","","null","","856.6999999284744","","0","1","null","null","arrowup","[0.675,0.325,0.15,0.85]","","",""
"sailing-trial","377","1446458","0.0-11.0-332.0","","","","false","","","","","","","","","","34.300000071525574","","49.60000002384186","","3","0","arrowright","1","arrowright","[0.675,0.325,0.15,0.85]","","",""
"sailing-trial","378","1448879","0.0-11.0-333.0","","","","false","","","","","","","","","","null","","850.2000000476837","","1","1","null","null","arrowup","[0.675,0.325,0.15,0.85]","","",""
"sailing-trial","379","1451464","0.0-11.0-334.0","","","","false","","","","","","","","","","386.2000000476837","","72.39999997615814","","1","0","arrowleft","0","arrowright","[0.675,0.325,0.15,0.85]","","",""
"sailing-trial","380","1453193","0.0-11.0-335.0","","","","false","","","","","","","","","","null","","0.09999990463256836","","3","1","null","null","arrowup","[0.675,0.325,0.15,0.85]","","",""
"sailing-trial","381","1455685","0.0-11.0-336.0","","","","false","","","","","","","","","","79.5","","179.69999992847443","","3","0","arrowright","1","arrowright","[0.675,0.325,0.15,0.85]","","",""
"sailing-trial","382","1458241","0.0-11.0-337.0","","","","false","","","","","","","","","","null","","872.8999999761581","","3","1","null","null","arrowup","[0.675,0.325,0.15,0.85]","","",""
"sailing-trial","383","1460960","0.0-11.0-338.0","","","","false","","","","","","","","","","120.20000004768372","","243.80000007152557","","1","0","arrowleft","0","arrowright","[0.675,0.325,0.15,0.85]","","",""
"sailing-trial","384","1463921","0.0-11.0-339.0","","","","false","","","","","","","","","","null","","1390","","0","1","null","null","arrowup","[0.675,0.325,0.15,0.85]","","",""
"sailing-trial","385","1467403","0.0-11.0-340.0","","","","false","","","","","","","","","","728.2999999523163","","70.60000002384186","","0","1","arrowleft","0","arrowleft","[0.85,0.15,0.325,0.675]","","",""
"sailing-trial","386","1469706","0.0-11.0-341.0","","","","false","","","","","","","","","","null","","1143.1000000238419","","1","0","null","null","arrowup","[0.85,0.15,0.325,0.675]","","",""
"sailing-trial","387","1472834","0.0-11.0-342.0","","","","false","","","","","","","","","","118.20000004768372","","345","","0","1","arrowleft","0","arrowleft","[0.85,0.15,0.325,0.675]","","",""
"sailing-trial","388","1474550","0.0-11.0-343.0","","","","false","","","","","","","","","","null","","146.69999992847443","","0","1","null","null","arrowup","[0.85,0.15,0.325,0.675]","","",""
"sailing-trial","389","1478014","0.0-11.0-344.0","","","","false","","","","","","","","","","116.39999997615814","","463","","0","1","arrowleft","0","arrowleft","[0.85,0.15,0.325,0.675]","","",""
"sailing-trial","390","1479256","0.0-11.0-345.0","","","","false","","","","","","","","","","null","","37.60000002384186","","1","0","null","null","arrowup","[0.85,0.15,0.325,0.675]","","",""
"sailing-trial","391","1482112","0.0-11.0-346.0","","","","false","","","","","","","","","","154.30000007152557","","91.39999997615814","","0","1","arrowleft","0","arrowleft","[0.85,0.15,0.325,0.675]","","",""
"sailing-trial","392","1483488","0.0-11.0-347.0","","","","false","","","","","","","","","","null","","181.09999990463257","","2","0","null","null","arrowup","[0.85,0.15,0.325,0.675]","","",""
"sailing-trial","393","1486279","0.0-11.0-348.0","","","","false","","","","","","","","","","48.299999952316284","","60.60000002384186","","0","1","arrowleft","0","arrowleft","[0.85,0.15,0.325,0.675]","","",""
"sailing-trial","394","1487926","0.0-11.0-349.0","","","","false","","","","","","","","","","null","","94.60000002384186","","0","1","null","null","arrowup","[0.85,0.15,0.325,0.675]","","",""
"sailing-trial","395","1490808","0.0-11.0-350.0","","","","false","","","","","","","","","","86","","111.30000007152557","","0","1","arrowleft","0","arrowleft","[0.85,0.15,0.325,0.675]","","",""
"sailing-trial","396","1492104","0.0-11.0-351.0","","","","false","","","","","","","","","","null","","168.19999992847443","","2","0","null","null","arrowup","[0.85,0.15,0.325,0.675]","","",""
"sailing-trial","397","1494338","0.0-11.0-352.0","","","","false","","","","","","","","","","109.89999997615814","","36.5","","0","0","arrowleft","0","arrowleft","[0.85,0.15,0.325,0.675]","","",""
"sailing-trial","398","1495918","0.0-11.0-353.0","","","","false","","","","","","","","","","null","","434.10000002384186","","2","0","null","null","arrowup","[0.85,0.15,0.325,0.675]","","",""
"sailing-trial","399","1498387","0.0-11.0-354.0","","","","false","","","","","","","","","","150.19999992847443","","124.10000002384186","","0","0","arrowleft","0","arrowleft","[0.85,0.15,0.325,0.675]","","",""
"sailing-trial","400","1499618","0.0-11.0-355.0","","","","false","","","","","","","","","","null","","35.5","","3","0","null","null","arrowup","[0.85,0.15,0.325,0.675]","","",""
"sailing-trial","401","1502029","0.0-11.0-356.0","","","","false","","","","","","","","","","109.90000009536743","","164.5","","0","0","arrowleft","0","arrowleft","[0.85,0.15,0.325,0.675]","","",""
"sailing-trial","402","1505358","0.0-11.0-357.0","","","","false","","","","","","","","","","null","","1780.2000000476837","","3","0","null","null","arrowup","[0.85,0.15,0.325,0.675]","","",""
"sailing-trial","403","1509199","0.0-11.0-358.0","","","","false","","","","","","","","","","711.2999999523163","","147.10000002384186","","1","1","arrowleft","0","arrowright","[0.85,0.15,0.325,0.675]","","",""
"sailing-trial","404","1512620","0.0-11.0-359.0","","","","false","","","","","","","","","","null","","1719","","2","0","null","null","arrowup","[0.85,0.15,0.325,0.675]","","",""
"sailing-trial","405","1516128","0.0-11.0-360.0","","","","false","","","","","","","","","","649.0999999046326","","174.5","","1","0","arrowleft","0","arrowright","[0.85,0.15,0.325,0.675]","","",""
"sailing-trial","406","1518561","0.0-11.0-361.0","","","","false","","","","","","","","","","null","","666.2000000476837","","0","1","null","null","arrowup","[0.85,0.15,0.325,0.675]","","",""
"sailing-trial","407","1521245","0.0-11.0-362.0","","","","false","","","","","","","","","","241.79999995231628","","43.200000047683716","","0","0","arrowleft","0","arrowleft","[0.675,0.325,0.15,0.85]","","",""
"sailing-trial","408","1523542","0.0-11.0-363.0","","","","false","","","","","","","","","","null","","681","","2","1","null","null","arrowup","[0.675,0.325,0.15,0.85]","","",""
"sailing-trial","409","1525969","0.0-11.0-364.0","","","","false","","","","","","","","","","234.70000004768372","","67.39999997615814","","2","0","arrowright","1","arrowleft","[0.675,0.325,0.15,0.85]","","",""
"sailing-trial","410","1529306","0.0-11.0-365.0","","","","false","","","","","","","","","","null","","1167.2999999523163","","3","1","null","null","arrowup","[0.675,0.325,0.15,0.85]","","",""
"sailing-trial","411","1533171","0.0-11.0-366.0","","","","false","","","","","","","","","","95.20000004768372","","110.20000004768372","","3","1","arrowright","1","arrowright","[0.675,0.325,0.15,0.85]","","",""
"sailing-trial","412","1535546","0.0-11.0-367.0","","","","false","","","","","","","","","","null","","1269","","2","0","null","null","arrowup","[0.675,0.325,0.15,0.85]","","",""
"sailing-trial","413","1538518","0.0-11.0-368.0","","","","false","","","","","","","","","","107.10000002384186","","82.5","","3","1","arrowright","1","arrowright","[0.675,0.325,0.15,0.85]","","",""
"sailing-trial","414","1539660","0.0-11.0-369.0","","","","false","","","","","","","","","","null","","100.69999992847443","","1","0","null","null","arrowup","[0.675,0.325,0.15,0.85]","","",""
"sailing-trial","415","1542566","0.0-11.0-370.0","","","","false","","","","","","","","","","92","","152.39999997615814","","3","1","arrowright","1","arrowright","[0.675,0.325,0.15,0.85]","","",""
"sailing-trial","416","1543994","0.0-11.0-371.0","","","","false","","","","","","","","","","null","","311.1999999284744","","1","0","null","null","arrowup","[0.675,0.325,0.15,0.85]","","",""
"sailing-trial","417","1546882","0.0-11.0-372.0","","","","false","","","","","","","","","","90.10000002384186","","140.69999992847443","","3","1","arrowright","1","arrowright","[0.675,0.325,0.15,0.85]","","",""
"sailing-trial","418","1548204","0.0-11.0-373.0","","","","false","","","","","","","","","","null","","115.40000009536743","","1","0","null","null","arrowup","[0.675,0.325,0.15,0.85]","","",""
"sailing-trial","419","1551262","0.0-11.0-374.0","","","","false","","","","","","","","","","208.39999997615814","","152.70000004768372","","3","1","arrowright","1","arrowright","[0.675,0.325,0.15,0.85]","","",""
"sailing-trial","420","1552426","0.0-11.0-375.0","","","","false","","","","","","","","","","null","","51.09999990463257","","1","0","null","null","arrowup","[0.675,0.325,0.15,0.85]","","",""
"sailing-trial","421","1555343","0.0-11.0-376.0","","","","false","","","","","","","","","","168.70000004768372","","148","","3","1","arrowright","1","arrowright","[0.675,0.325,0.15,0.85]","","",""
"sailing-trial","422","1557059","0.0-11.0-377.0","","","","false","","","","","","","","","","null","","44","","3","1","null","null","arrowup","[0.675,0.325,0.15,0.85]","","",""
"sailing-trial","423","1562490","0.0-11.0-378.0","","","","false","","","","","","","","","","157.10000002384186","","153.70000004768372","","3","1","arrowright","1","arrowright","[0.675,0.325,0.15,0.85]","","",""
"sailing-trial","424","1564305","0.0-11.0-379.0","","","","false","","","","","","","","","","null","","96.5","","3","1","null","null","arrowup","[0.675,0.325,0.15,0.85]","","",""
"sailing-trial","425","1568921","0.0-11.0-380.0","","","","false","","","","","","","","","","1797","","71.30000007152557","","3","1","arrowright","1","arrowright","[0.675,0.325,0.15,0.85]","","",""
"sailing-trial","426","1570106","0.0-11.0-381.0","","","","false","","","","","","","","","","null","","26.100000023841858","","2","0","null","null","arrowup","[0.675,0.325,0.15,0.85]","","",""
"sailing-trial","427","1572800","0.0-11.0-382.0","","","","false","","","","","","","","","","21.899999976158142","","522.3000000715256","","3","0","arrowright","1","arrowright","[0.15,0.85,0.675,0.325]","","",""
"sailing-trial","428","1574468","0.0-11.0-383.0","","","","false","","","","","","","","","","null","","39.199999928474426","","1","1","null","null","arrowup","[0.15,0.85,0.675,0.325]","","",""
"sailing-trial","429","1577263","0.0-11.0-384.0","","","","false","","","","","","","","","","116.70000004768372","","293.10000002384186","","3","0","arrowright","1","arrowright","[0.15,0.85,0.675,0.325]","","",""
"sailing-trial","430","1579449","0.0-11.0-385.0","","","","false","","","","","","","","","","null","","440.5","","1","1","null","null","arrowup","[0.15,0.85,0.675,0.325]","","",""
"sailing-trial","431","1583248","0.0-11.0-386.0","","","","false","","","","","","","","","","945.7999999523163","","215.70000004768372","","3","0","arrowright","1","arrowright","[0.15,0.85,0.675,0.325]","","",""
"sailing-trial","432","1586292","0.0-11.0-387.0","","","","false","","","","","","","","","","null","","70.09999990463257","","0","0","null","null","arrowup","[0.15,0.85,0.675,0.325]","","",""
"sailing-trial","433","1588622","0.0-11.0-388.0","","","","false","","","","","","","","","","62.300000071525574","","138.19999992847443","","3","0","arrowright","1","arrowright","[0.15,0.85,0.675,0.325]","","",""
"sailing-trial","434","1590025","0.0-11.0-389.0","","","","false","","","","","","","","","","null","","106.29999995231628","","0","0","null","null","arrowup","[0.15,0.85,0.675,0.325]","","",""
"sailing-trial","435","1593232","0.0-11.0-390.0","","","","false","","","","","","","","","","383.89999997615814","","669.5","","3","0","arrowright","1","arrowright","[0.15,0.85,0.675,0.325]","","",""
"sailing-trial","436","1595489","0.0-11.0-391.0","","","","false","","","","","","","","","","null","","937.6000000238419","","0","0","null","null","arrowup","[0.15,0.85,0.675,0.325]","","",""
"sailing-trial","437","1599205","0.0-11.0-392.0","","","","false","","","","","","","","","","353.2000000476837","","25.700000047683716","","1","1","arrowleft","0","arrowright","[0.15,0.85,0.675,0.325]","","",""
"sailing-trial","438","1601135","0.0-11.0-393.0","","","","false","","","","","","","","","","null","","235.70000004768372","","3","0","null","null","arrowup","[0.15,0.85,0.675,0.325]","","",""
"sailing-trial","439","1606187","0.0-11.0-394.0","","","","false","","","","","","","","","","2190.6999999284744","","193.60000002384186","","1","1","arrowleft","0","arrowright","[0.15,0.85,0.675,0.325]","","",""
"sailing-trial","440","1608036","0.0-11.0-395.0","","","","false","","","","","","","","","","null","","134.29999995231628","","2","1","null","null","arrowup","[0.15,0.85,0.675,0.325]","","",""
"sailing-trial","441","1610866","0.0-11.0-396.0","","","","false","","","","","","","","","","108.79999995231628","","19.5","","1","1","arrowleft","0","arrowright","[0.15,0.85,0.675,0.325]","","",""
"sailing-trial","442","1612091","0.0-11.0-397.0","","","","false","","","","","","","","","","null","","20.899999976158142","","0","0","null","null","arrowup","[0.15,0.85,0.675,0.325]","","",""
"sailing-trial","443","1614948","0.0-11.0-398.0","","","","false","","","","","","","","","","137.60000002384186","","3.399999976158142","","1","1","arrowleft","0","arrowright","[0.15,0.85,0.675,0.325]","","",""
"sailing-trial","444","1617647","0.0-11.0-399.0","","","","false","","","","","","","","","","null","","1107.2999999523163","","1","1","null","null","arrowup","[0.15,0.85,0.675,0.325]","","",""
"instructions","445","1624473","0.0-12.0","","","","","","","","","","6824.699999928474","","","","","","","","","","","","","","","","[{""page_index"":0,""viewing_time"":6824}]"
"survey-debrief","446","1644015","0.0-13.0","","","","","","","","","","19540.899999976158","","","","","","","","","","","","","","{""difficulty"":""4"",""fun"":""4"",""clarity"":""5"",""strategy"":""nope"",""feedback"":""nope""}","",""
