"trial_type","trial_index","time_elapsed","internal_node_id","value","metadata","success","timeout","failed_images","failed_audio","failed_video","browser_interaction","low_quality","rt","stimulus","response","button_pressed","island_rt","island_response","boat_rt","boat_response","boat","reward","island_key","island","boat_key","reward_probabilities","responses","num_errors","view_history"
"pavlovia","0","2","0.0-0.0","","","","","","","","","","","","","","","","","","","","","","","","","",""
"call-function","1","3","0.0-1.0","","{""task_version"":""sailing_part1_v1"",""task_condition"":""good"",""boats"":[""A"",""B"",""C"",""D""],""boats_demo"":[""G"",""E"",""H"",""F""],""islands"":[""A"",""B""],""subject_id"":""15423"",""age"":""13"",""gender"":""Male""}","","","","","","","","","","","","","","","","","","","","","","","",""
"preload","2","2470","0.0-2.0","","","true","false","[]","[]","[]","[{""event"":""fullscreenenter"",""trial"":3,""time"":4727}]","false","","","","","","","","","","","","","","","","",""
"fullscreen","3","5712","0.0-3.0","","","true","","","","","","","","","","","","","","","","","","","","","","",""
"audio-keyboard-response","4","8711","0.0-4.0-0.0","","","","","","","","","","2800","audio/beep_loop.wav"," ","","","","","","","","","","","","","",""
"audio-test","5","10729","0.0-4.0-1.0","","","","","","","","","","null","audio/turtle.mp3","","3","","","","","","","","","","","","",""
"audio-test","6","12890","0.0-4.0-2.0","","","","","","","","","","null","audio/shark.mp3","","2","","","","","","","","","","","","",""
"sailing-instructions","7","47211","0.0-5.0-0.0-0.0","","","","","","","","","","","","","","null","null","null","null","null","null","","","","","","",""
"sailing-trial","8","50158","0.0-5.0-0.0-1.0-0.0","","","","false","","","","","","","","","","1814.699999988079","","null","","null","null","arrowleft","0","null","null","","",""
"sailing-trial","9","52304","0.0-5.0-0.0-1.0-1.0","","","","false","","","","","","","","","","1019.6000000238419","","null","","null","null","arrowright","1","null","null","","",""
"sailing-trial","10","55478","0.0-5.0-0.0-1.0-2.0","","","","false","","","","","","","","","","2071.7999999523163","","null","","null","null","arrowleft","0","null","null","","",""
"sailing-instructions","11","94465","0.0-5.0-0.0-2.0","","","","","","","","","","","","","","null","null","null","null","0","null","","","","","","",""
"sailing-trial","12","100467","0.0-5.0-0.0-3.0-0.0","","","","false","","","","","","","","","","null","","2932.600000023842","","2","1","null","null","arrowleft","[1,1,1,1]","","",""
"sailing-trial","13","103912","0.0-5.0-0.0-3.0-1.0","","","","false","","","","","","","","","","null","","824.6000000238419","","3","1","null","null","arrowright","[1,1,1,1]","","",""
"sailing-trial","14","106954","0.0-5.0-0.0-3.0-2.0","","","","false","","","","","","","","","","null","","727.1999999880791","","2","0","null","null","arrowleft","[0,0,0,0]","","",""
"sailing-instructions","15","114028","0.0-5.0-0.0-4.0","","","","","","","","","","","","","","null","null","null","null","null","null","","","","","","",""
"sailing-comprehension","16","128646","0.0-5.0-0.0-5.0","","","","","","","","","","11548.399999976158","","","","","","","","","","","","","","[""true"",""true"",""false"",""true""]","0",""
"sailing-instructions","17","190290","0.0-6.0-0.0-0.0","","","","","","","","","","","","","","null","null","null","null","null","null","","","","","","",""
"sailing-comprehension","18","199843","0.0-6.0-0.0-1.0","","","","","","","","","","7022.100000023842","","","","","","","","","","","","","","[""true"",""false"",""true""]","0",""
"sailing-instructions","19","221687","0.0-7.0-0.0-0.0","","","","","","","","","","","","","","null","null","null","null","null","null","","","","","","",""
"sailing-trial","20","226179","0.0-7.0-0.0-1.0-0.0","","","","false","","","","","","","","","","null","","2104.699999988079","","0","0","null","null","arrowup","[0.2,0.8,0.2,0.8]","","",""
"sailing-trial","21","229762","0.0-7.0-0.0-1.0-1.0","","","","false","","","","","","","","","","null","","1410.800000011921","","1","1","null","null","arrowup","[0.2,0.8,0.2,0.8]","","",""
"sailing-trial","22","232482","0.0-7.0-0.0-1.0-2.0","","","","false","","","","","","","","","","null","","817.6999999880791","","2","1","null","null","arrowup","[0.2,0.8,0.2,0.8]","","",""
"sailing-trial","23","235279","0.0-7.0-0.0-1.0-3.0","","","","false","","","","","","","","","","null","","769.1999999880791","","3","1","null","null","arrowup","[0.2,0.8,0.2,0.8]","","",""
"sailing-comprehension","24","241695","0.0-7.0-0.0-2.0","","","","","","","","","","4738.899999976158","","","","","","","","","","","","","","[""false""]","0",""
"sailing-instructions","25","251708","0.0-8.0-0.0-0.0","","","","","","","","","","","","","","null","null","null","null","null","null","","","","","","",""
"sailing-comprehension","26","255797","0.0-8.0-0.0-1.0","","","","","","","","","","2828.600000023842","","","","","","","","","","","","","","[""true""]","0",""
"sailing-instructions","27","279930","0.0-9.0-0.0-0.0","","","","","","","","","","","","","","null","null","null","null","null","null","","","","","","",""
"sailing-trial","28","283795","0.0-9.0-0.0-1.0-0.0","","","","false","","","","","","","","","","831.6000000238419","","15.600000023841858","","2","0","arrowright","1","arrowleft","[0.2,0.8,0.2,0.8]","","",""
"sailing-trial","29","287595","0.0-9.0-0.0-1.0-1.0","","","","false","","","","","","","","","","496.5","","327.5999999642372","","1","1","arrowleft","0","arrowright","[0.2,0.8,0.2,0.8]","","",""
"sailing-trial","30","290361","0.0-9.0-0.0-1.0-2.0","","","","false","","","","","","","","","","null","","1116.2999999523163","","0","0","null","null","arrowup","[0.2,0.8,0.2,0.8]","","",""
"sailing-trial","31","293690","0.0-9.0-0.0-1.0-3.0","","","","false","","","","","","","","","","526.5999999642372","","420.80000001192093","","2","0","arrowright","1","arrowleft","[0.2,0.8,0.2,0.8]","","",""
"sailing-trial","32","296379","0.0-9.0-0.0-1.0-4.0","","","","false","","","","","","","","","","null","","868.3000000119209","","3","1","null","null","arrowup","[0.2,0.8,0.2,0.8]","","",""
"sailing-trial","33","299678","0.0-9.0-0.0-1.0-5.0","","","","false","","","","","","","","","","521.7000000476837","","296.89999997615814","","1","0","arrowleft","0","arrowright","[0.2,0.8,0.2,0.8]","","",""
"sailing-instructions","34","325139","0.0-10.0","","","","","","","","","","","","","","null","null","null","null","null","null","","","","","","",""
"sailing-trial","35","329530","0.0-11.0-0.0","","","","false","","","","","","","","","","852.3999999761581","","297.69999998807907","","3","1","arrowright","1","arrowright","[0.325,0.675,0.15,0.85]","","",""
"sailing-trial","36","332617","0.0-11.0-1.0","","","","false","","","","","","","","","","null","","1241.0999999642372","","1","1","null","null","arrowup","[0.325,0.675,0.15,0.85]","","",""
"sailing-trial","37","336245","0.0-11.0-2.0","","","","false","","","","","","","","","","431.9000000357628","","97.40000003576279","","0","0","arrowleft","0","arrowleft","[0.325,0.675,0.15,0.85]","","",""
"sailing-trial","38","339013","0.0-11.0-3.0","","","","false","","","","","","","","","","null","","977.9000000357628","","1","1","null","null","arrowup","[0.325,0.675,0.15,0.85]","","",""
"sailing-trial","39","342325","0.0-11.0-4.0","","","","false","","","","","","","","","","510.2999999523163","","377.39999997615814","","3","0","arrowright","1","arrowright","[0.325,0.675,0.15,0.85]","","",""
"sailing-trial","40","344610","0.0-11.0-5.0","","","","false","","","","","","","","","","null","","861.5999999642372","","2","0","null","null","arrowup","[0.325,0.675,0.15,0.85]","","",""
"sailing-trial","41","348740","0.0-11.0-6.0","","","","false","","","","","","","","","","494.5","","1175","","0","0","arrowleft","0","arrowleft","[0.325,0.675,0.15,0.85]","","",""
"sailing-trial","42","351547","0.0-11.0-7.0","","","","false","","","","","","","","","","null","","1017.7999999523163","","3","1","null","null","arrowup","[0.325,0.675,0.15,0.85]","","",""
"sailing-trial","43","355029","0.0-11.0-8.0","","","","false","","","","","","","","","","305.80000001192093","","443","","1","1","arrowleft","0","arrowright","[0.325,0.675,0.15,0.85]","","",""
"sailing-trial","44","357193","0.0-11.0-9.0","","","","false","","","","","","","","","","null","","866.1000000238419","","2","0","null","null","arrowup","[0.325,0.675,0.15,0.85]","","",""
"sailing-trial","45","360109","0.0-11.0-10.0","","","","false","","","","","","","","","","426.89999997615814","","7.599999964237213","","1","0","arrowleft","0","arrowright","[0.325,0.675,0.15,0.85]","","",""
"sailing-trial","46","362432","0.0-11.0-11.0","","","","false","","","","","","","","","","null","","849.3999999761581","","3","0","null","null","arrowup","[0.325,0.675,0.15,0.85]","","",""
"sailing-trial","47","365914","0.0-11.0-12.0","","","","false","","","","","","","","","","466.19999998807907","","548.5","","2","0","arrowright","1","arrowleft","[0.325,0.675,0.15,0.85]","","",""
"sailing-trial","48","368465","0.0-11.0-13.0","","","","false","","","","","","","","","","null","","766.7999999523163","","1","1","null","null","arrowup","[0.325,0.675,0.15,0.85]","","",""
"sailing-trial","49","371897","0.0-11.0-14.0","","","","false","","","","","","","","","","374.80000001192093","","93","","1","1","arrowleft","0","arrowright","[0.325,0.675,0.15,0.85]","","",""
"sailing-trial","50","374331","0.0-11.0-15.0","","","","false","","","","","","","","","","null","","990.8000000119209","","0","0","null","null","arrowup","[0.325,0.675,0.15,0.85]","","",""
"sailing-trial","51","377801","0.0-11.0-16.0","","","","false","","","","","","","","","","483.69999998807907","","531","","1","0","arrowleft","0","arrowright","[0.325,0.675,0.15,0.85]","","",""
"sailing-trial","52","379873","0.0-11.0-17.0","","","","false","","","","","","","","","","null","","791","","2","0","null","null","arrowup","[0.325,0.675,0.15,0.85]","","",""
"sailing-trial","53","383731","0.0-11.0-18.0","","","","false","","","","","","","","","","551.3000000119209","","510.69999998807907","","2","1","arrowright","1","arrowleft","[0.325,0.675,0.15,0.85]","","",""
"sailing-trial","54","386280","0.0-11.0-19.0","","","","false","","","","","","","","","","null","","788.3999999761581","","3","1","null","null","arrowup","[0.325,0.675,0.15,0.85]","","",""
"sailing-trial","55","389484","0.0-11.0-20.0","","","","false","","","","","","","","","","340.80000001192093","","467.69999998807907","","2","0","arrowright","1","arrowleft","[0.325,0.675,0.15,0.85]","","",""
"sailing-trial","56","392013","0.0-11.0-21.0","","","","false","","","","","","","","","","null","","688.6000000238419","","1","1","null","null","arrowup","[0.325,0.675,0.15,0.85]","","",""
"sailing-trial","57","394953","0.0-11.0-22.0","","","","false","","","","","","","","","","353.9000000357628","","250.80000001192093","","3","0","arrowright","1","arrowright","[0.675,0.325,0.85,0.15]","","",""
"sailing-trial","58","396994","0.0-11.0-23.0","","","","false","","","","","","","","","","null","","719.6000000238419","","1","0","null","null","arrowup","[0.675,0.325,0.85,0.15]","","",""
"sailing-trial","59","399835","0.0-11.0-24.0","","","","false","","","","","","","","","","489.30000001192093","","27.399999976158142","","1","0","arrowleft","0","arrowright","[0.675,0.325,0.85,0.15]","","",""
"sailing-trial","60","401832","0.0-11.0-25.0","","","","false","","","","","","","","","","null","","654.6999999880791","","3","0","null","null","arrowup","[0.675,0.325,0.85,0.15]","","",""
"sailing-trial","61","405697","0.0-11.0-26.0","","","","false","","","","","","","","","","649.5","","462.5","","0","1","arrowleft","0","arrowleft","[0.675,0.325,0.85,0.15]","","",""
"sailing-trial","62","407602","0.0-11.0-27.0","","","","false","","","","","","","","","","null","","603.6999999880791","","1","0","null","null","arrowup","[0.675,0.325,0.85,0.15]","","",""
"sailing-trial","63","410893","0.0-11.0-28.0","","","","false","","","","","","","","","","596","","440.7999999523163","","0","0","arrowleft","0","arrowleft","[0.675,0.325,0.85,0.15]","","",""
"sailing-trial","64","413546","0.0-11.0-29.0","","","","false","","","","","","","","","","null","","982.5999999642372","","0","1","null","null","arrowup","[0.675,0.325,0.85,0.15]","","",""
"sailing-trial","65","416897","0.0-11.0-30.0","","","","false","","","","","","","","","","288.5","","56.89999997615814","","2","1","arrowright","1","arrowleft","[0.675,0.325,0.85,0.15]","","",""
"sailing-trial","66","418877","0.0-11.0-31.0","","","","false","","","","","","","","","","null","","669.4000000357628","","3","0","null","null","arrowup","[0.675,0.325,0.85,0.15]","","",""
"sailing-trial","67","422880","0.0-11.0-32.0","","","","false","","","","","","","","","","637.4000000357628","","520.1000000238419","","3","1","arrowright","1","arrowright","[0.675,0.325,0.85,0.15]","","",""
"sailing-trial","68","425463","0.0-11.0-33.0","","","","false","","","","","","","","","","null","","802.0999999642372","","2","1","null","null","arrowup","[0.675,0.325,0.85,0.15]","","",""
"sailing-trial","69","428964","0.0-11.0-34.0","","","","false","","","","","","","","","","192.4000000357628","","538.5","","0","1","arrowleft","0","arrowleft","[0.675,0.325,0.85,0.15]","","",""
"sailing-trial","70","431564","0.0-11.0-35.0","","","","false","","","","","","","","","","null","","831.3999999761581","","0","1","null","null","arrowup","[0.675,0.325,0.85,0.15]","","",""
"sailing-trial","71","434779","0.0-11.0-36.0","","","","false","","","","","","","","","","264.5","","158","","0","1","arrowleft","0","arrowleft","[0.675,0.325,0.85,0.15]","","",""
"sailing-trial","72","438017","0.0-11.0-37.0","","","","false","","","","","","","","","","null","","920.3000000119209","","1","0","null","null","arrowup","[0.675,0.325,0.85,0.15]","","",""
"sailing-trial","73","441297","0.0-11.0-38.0","","","","false","","","","","","","","","","374.80000001192093","","69.09999996423721","","1","1","arrowleft","0","arrowright","[0.675,0.325,0.85,0.15]","","",""
"sailing-trial","74","443407","0.0-11.0-39.0","","","","false","","","","","","","","","","null","","764.0999999642372","","2","0","null","null","arrowup","[0.675,0.325,0.85,0.15]","","",""
"sailing-trial","75","446964","0.0-11.0-40.0","","","","false","","","","","","","","","","591.3999999761581","","101.5","","0","1","arrowleft","0","arrowleft","[0.85,0.15,0.675,0.325]","","",""
"sailing-trial","76","449533","0.0-11.0-41.0","","","","false","","","","","","","","","","null","","964","","0","0","null","null","arrowup","[0.85,0.15,0.675,0.325]","","",""
"sailing-trial","77","452228","0.0-11.0-42.0","","","","false","","","","","","","","","","520.3999999761581","","27.5","","3","0","arrowright","1","arrowright","[0.85,0.15,0.675,0.325]","","",""
"sailing-trial","78","454564","0.0-11.0-43.0","","","","false","","","","","","","","","","null","","1225.5","","3","0","null","null","arrowup","[0.85,0.15,0.675,0.325]","","",""
"sailing-trial","79","458430","0.0-11.0-44.0","","","","false","","","","","","","","","","552.5","","360.19999998807907","","1","1","arrowleft","0","arrowright","[0.85,0.15,0.675,0.325]","","",""
"sailing-trial","80","460584","0.0-11.0-45.0","","","","false","","","","","","","","","","null","","777.5","","1","0","null","null","arrowup","[0.85,0.15,0.675,0.325]","","",""
"sailing-trial","81","463998","0.0-11.0-46.0","","","","false","","","","","","","","","","510.69999998807907","","555.5","","1","0","arrowleft","0","arrowright","[0.85,0.15,0.675,0.325]","","",""
"sailing-trial","82","466613","0.0-11.0-47.0","","","","false","","","","","","","","","","null","","690.9000000357628","","2","1","null","null","arrowup","[0.85,0.15,0.675,0.325]","","",""
"sailing-trial","83","469914","0.0-11.0-48.0","","","","false","","","","","","","","","","467","","277.19999998807907","","0","1","arrowleft","0","arrowleft","[0.85,0.15,0.675,0.325]","","",""
"sailing-trial","84","471692","0.0-11.0-49.0","","","","false","","","","","","","","","","null","","472.5999999642372","","1","0","null","null","arrowup","[0.85,0.15,0.675,0.325]","","",""
"sailing-trial","85","474209","0.0-11.0-50.0","","","","false","","","","","","","","","","324.19999998807907","","14","","3","0","arrowright","1","arrowright","[0.85,0.15,0.675,0.325]","","",""
"sailing-trial","86","476663","0.0-11.0-51.0","","","","false","","","","","","","","","","null","","713.6999999880791","","2","1","null","null","arrowup","[0.85,0.15,0.675,0.325]","","",""
"sailing-trial","87","480395","0.0-11.0-52.0","","","","false","","","","","","","","","","313.30000001192093","","589.5999999642372","","2","1","arrowright","1","arrowleft","[0.85,0.15,0.675,0.325]","","",""
"sailing-trial","88","482679","0.0-11.0-53.0","","","","false","","","","","","","","","","null","","518.4000000357628","","0","1","null","null","arrowup","[0.85,0.15,0.675,0.325]","","",""
"sailing-trial","89","486395","0.0-11.0-54.0","","","","false","","","","","","","","","","498.19999998807907","","671.6999999880791","","1","0","arrowleft","0","arrowright","[0.85,0.15,0.675,0.325]","","",""
"sailing-trial","90","488515","0.0-11.0-55.0","","","","false","","","","","","","","","","null","","676.9000000357628","","3","0","null","null","arrowup","[0.85,0.15,0.675,0.325]","","",""
"sailing-trial","91","491964","0.0-11.0-56.0","","","","false","","","","","","","","","","549.0999999642372","","93.30000001192093","","0","1","arrowleft","0","arrowleft","[0.85,0.15,0.675,0.325]","","",""
"sailing-trial","92","493504","0.0-11.0-57.0","","","","false","","","","","","","","","","null","","273.39999997615814","","3","0","null","null","arrowup","[0.85,0.15,0.675,0.325]","","",""
"sailing-trial","93","496479","0.0-11.0-58.0","","","","false","","","","","","","","","","538.1000000238419","","79.80000001192093","","2","0","arrowright","1","arrowleft","[0.85,0.15,0.675,0.325]","","",""
"sailing-trial","94","498245","0.0-11.0-59.0","","","","false","","","","","","","","","","null","","207.10000002384186","","3","0","null","null","arrowup","[0.85,0.15,0.675,0.325]","","",""
"sailing-trial","95","501284","0.0-11.0-60.0","","","","false","","","","","","","","","","272.69999998807907","","386.10000002384186","","3","0","arrowright","1","arrowright","[0.85,0.15,0.675,0.325]","","",""
"sailing-trial","96","503308","0.0-11.0-61.0","","","","false","","","","","","","","","","null","","795.2999999523163","","0","0","null","null","arrowup","[0.85,0.15,0.675,0.325]","","",""
"sailing-trial","97","506896","0.0-11.0-62.0","","","","false","","","","","","","","","","449.9000000357628","","267.39999997615814","","1","1","arrowleft","0","arrowright","[0.85,0.15,0.675,0.325]","","",""
"sailing-trial","98","508758","0.0-11.0-63.0","","","","false","","","","","","","","","","null","","611.7999999523163","","3","0","null","null","arrowup","[0.85,0.15,0.675,0.325]","","",""
"sailing-trial","99","512763","0.0-11.0-64.0","","","","false","","","","","","","","","","505.60000002384186","","709.1999999880791","","1","1","arrowleft","0","arrowright","[0.675,0.325,0.85,0.15]","","",""
"sailing-trial","100","514534","0.0-11.0-65.0","","","","false","","","","","","","","","","null","","603.5","","1","0","null","null","arrowup","[0.675,0.325,0.85,0.15]","","",""
"sailing-trial","101","517873","0.0-11.0-66.0","","","","false","","","","","","","","","","697.0999999642372","","495.5","","1","0","arrowleft","0","arrowright","[0.675,0.325,0.85,0.15]","","",""
"sailing-trial","102","520262","0.0-11.0-67.0","","","","false","","","","","","","","","","null","","320.69999998807907","","2","1","null","null","arrowup","[0.675,0.325,0.85,0.15]","","",""
"sailing-trial","103","522899","0.0-11.0-68.0","","","","false","","","","","","","","","","498.19999998807907","","17.69999998807907","","2","0","arrowright","1","arrowleft","[0.675,0.325,0.85,0.15]","","",""
"sailing-trial","104","525713","0.0-11.0-69.0","","","","false","","","","","","","","","","null","","774.1999999880791","","2","1","null","null","arrowup","[0.675,0.325,0.85,0.15]","","",""
"sailing-trial","105","529330","0.0-11.0-70.0","","","","false","","","","","","","","","","499.39999997615814","","394.69999998807907","","2","1","arrowright","1","arrowleft","[0.675,0.325,0.85,0.15]","","",""
"sailing-trial","106","531179","0.0-11.0-71.0","","","","false","","","","","","","","","","null","","563.3000000119209","","2","0","null","null","arrowup","[0.675,0.325,0.85,0.15]","","",""
"sailing-trial","107","534612","0.0-11.0-72.0","","","","false","","","","","","","","","","591.7000000476837","","181.5999999642372","","2","1","arrowright","1","arrowleft","[0.675,0.325,0.85,0.15]","","",""
"sailing-trial","108","536463","0.0-11.0-73.0","","","","false","","","","","","","","","","null","","90.89999997615814","","1","1","null","null","arrowup","[0.675,0.325,0.85,0.15]","","",""
"sailing-trial","109","539422","0.0-11.0-74.0","","","","false","","","","","","","","","","316.0999999642372","","318","","1","0","arrowleft","0","arrowright","[0.675,0.325,0.85,0.15]","","",""
"sailing-trial","110","542130","0.0-11.0-75.0","","","","false","","","","","","","","","","null","","778.7000000476837","","2","1","null","null","arrowup","[0.675,0.325,0.85,0.15]","","",""
"sailing-trial","111","545430","0.0-11.0-76.0","","","","false","","","","","","","","","","534.3000000119209","","27.5","","0","1","arrowleft","0","arrowleft","[0.675,0.325,0.85,0.15]","","",""
"sailing-trial","112","547561","0.0-11.0-77.0","","","","false","","","","","","","","","","null","","790","","3","0","null","null","arrowup","[0.675,0.325,0.85,0.15]","","",""
"sailing-trial","113","551046","0.0-11.0-78.0","","","","false","","","","","","","","","","498.30000001192093","","177.30000001192093","","2","1","arrowright","1","arrowleft","[0.675,0.325,0.85,0.15]","","",""
"sailing-trial","114","553680","0.0-11.0-79.0","","","","false","","","","","","","","","","null","","831.5","","2","1","null","null","arrowup","[0.675,0.325,0.85,0.15]","","",""
"sailing-trial","115","556604","0.0-11.0-80.0","","","","false","","","","","","","","","","558.3000000119209","","34.60000002384186","","1","0","arrowleft","0","arrowright","[0.85,0.15,0.675,0.325]","","",""
"sailing-trial","116","559262","0.0-11.0-81.0","","","","false","","","","","","","","","","null","","786.7999999523163","","0","1","null","null","arrowup","[0.85,0.15,0.675,0.325]","","",""
"sailing-trial","117","563196","0.0-11.0-82.0","","","","false","","","","","","","","","","977.7999999523163","","119.39999997615814","","3","1","arrowright","1","arrowright","[0.85,0.15,0.675,0.325]","","",""
"sailing-trial","118","565281","0.0-11.0-83.0","","","","false","","","","","","","","","","null","","316.69999998807907","","2","1","null","null","arrowup","[0.85,0.15,0.675,0.325]","","",""
"sailing-trial","119","568565","0.0-11.0-84.0","","","","false","","","","","","","","","","375.89999997615814","","560.0999999642372","","3","0","arrowright","1","arrowright","[0.85,0.15,0.675,0.325]","","",""
"sailing-trial","120","570467","0.0-11.0-85.0","","","","false","","","","","","","","","","null","","705.5999999642372","","1","0","null","null","arrowup","[0.85,0.15,0.675,0.325]","","",""
"sailing-trial","121","574163","0.0-11.0-86.0","","","","false","","","","","","","","","","791","","151.19999998807907","","2","1","arrowright","1","arrowleft","[0.85,0.15,0.675,0.325]","","",""
"sailing-trial","122","575996","0.0-11.0-87.0","","","","false","","","","","","","","","","null","","137.19999998807907","","0","1","null","null","arrowup","[0.85,0.15,0.675,0.325]","","",""
"sailing-trial","123","579314","0.0-11.0-88.0","","","","false","","","","","","","","","","163.5","","430.60000002384186","","2","1","arrowright","1","arrowleft","[0.85,0.15,0.675,0.325]","","",""
"sailing-trial","124","581024","0.0-11.0-89.0","","","","false","","","","","","","","","","null","","52.5","","1","0","null","null","arrowup","[0.85,0.15,0.675,0.325]","","",""
"sailing-trial","125","584321","0.0-11.0-90.0","","","","false","","","","","","","","","","538.6000000238419","","437.39999997615814","","2","0","arrowright","1","arrowleft","[0.85,0.15,0.675,0.325]","","",""
"sailing-trial","126","586695","0.0-11.0-91.0","","","","false","","","","","","","","","","null","","690.1999999880791","","3","1","null","null","arrowup","[0.85,0.15,0.675,0.325]","","",""
"sailing-trial","127","589486","0.0-11.0-92.0","","","","false","","","","","","","","","","401.89999997615814","","29.19999998807907","","3","0","arrowright","1","arrowright","[0.85,0.15,0.675,0.325]","","",""
"sailing-trial","128","592195","0.0-11.0-93.0","","","","false","","","","","","","","","","null","","889.6999999880791","","0","1","null","null","arrowup","[0.85,0.15,0.675,0.325]","","",""
"sailing-trial","129","595512","0.0-11.0-94.0","","","","false","","","","","","","","","","513.5","","25.69999998807907","","0","1","arrowleft","0","arrowleft","[0.85,0.15,0.675,0.325]","","",""
"sailing-trial","130","597912","0.0-11.0-95.0","","","","false","","","","","","","","","","null","","628.2000000476837","","0","1","null","null","arrowup","[0.85,0.15,0.675,0.325]","","",""
"sailing-trial","131","601414","0.0-11.0-96.0","","","","false","","","","","","","","","","358.5","","418.30000001192093","","0","1","arrowleft","0","arrowleft","[0.675,0.325,0.85,0.15]","","",""
"sailing-trial","132","603947","0.0-11.0-97.0","","","","false","","","","","","","","","","null","","807.1000000238419","","3","1","null","null","arrowup","[0.675,0.325,0.85,0.15]","","",""
"sailing-trial","133","607498","0.0-11.0-98.0","","","","false","","","","","","","","","","434","","358.69999998807907","","0","1","arrowleft","0","arrowleft","[0.675,0.325,0.85,0.15]","","",""
"sailing-trial","134","609504","0.0-11.0-99.0","","","","false","","","","","","","","","","null","","809.8999999761581","","1","0","null","null","arrowup","[0.675,0.325,0.85,0.15]","","",""
"sailing-trial","135","612831","0.0-11.0-100.0","","","","false","","","","","","","","","","497.10000002384186","","119.80000001192093","","3","1","arrowright","1","arrowright","[0.675,0.325,0.85,0.15]","","",""
"sailing-trial","136","614763","0.0-11.0-101.0","","","","false","","","","","","","","","","null","","263.89999997615814","","2","1","null","null","arrowup","[0.675,0.325,0.85,0.15]","","",""
"sailing-trial","137","617981","0.0-11.0-102.0","","","","false","","","","","","","","","","484.69999998807907","","65.30000001192093","","2","1","arrowright","1","arrowleft","[0.675,0.325,0.85,0.15]","","",""
"sailing-trial","138","619347","0.0-11.0-103.0","","","","false","","","","","","","","","","null","","174","","1","0","null","null","arrowup","[0.675,0.325,0.85,0.15]","","",""
"sailing-trial","139","623146","0.0-11.0-104.0","","","","false","","","","","","","","","","870.6000000238419","","285","","2","1","arrowright","1","arrowleft","[0.675,0.325,0.85,0.15]","","",""
"sailing-trial","140","625055","0.0-11.0-105.0","","","","false","","","","","","","","","","null","","722.1000000238419","","2","0","null","null","arrowup","[0.675,0.325,0.85,0.15]","","",""
"sailing-trial","141","628263","0.0-11.0-106.0","","","","false","","","","","","","","","","475.2000000476837","","17","","0","1","arrowleft","0","arrowleft","[0.675,0.325,0.85,0.15]","","",""
"sailing-trial","142","630681","0.0-11.0-107.0","","","","false","","","","","","","","","","null","","704.1999999880791","","2","1","null","null","arrowup","[0.675,0.325,0.85,0.15]","","",""
"sailing-trial","143","633964","0.0-11.0-108.0","","","","false","","","","","","","","","","346.69999998807907","","210.19999998807907","","2","1","arrowright","1","arrowleft","[0.675,0.325,0.85,0.15]","","",""
"sailing-trial","144","635916","0.0-11.0-109.0","","","","false","","","","","","","","","","null","","695.3999999761581","","1","0","null","null","arrowup","[0.675,0.325,0.85,0.15]","","",""
"sailing-trial","145","639346","0.0-11.0-110.0","","","","false","","","","","","","","","","609.5","","51.700000047683716","","2","1","arrowright","1","arrowleft","[0.675,0.325,0.85,0.15]","","",""
"sailing-trial","146","641343","0.0-11.0-111.0","","","","false","","","","","","","","","","null","","726.5","","2","0","null","null","arrowup","[0.675,0.325,0.85,0.15]","","",""
"sailing-trial","147","644588","0.0-11.0-112.0","","","","false","","","","","","","","","","796","","288.89999997615814","","3","0","arrowright","1","arrowright","[0.675,0.325,0.85,0.15]","","",""
"sailing-trial","148","646481","0.0-11.0-113.0","","","","false","","","","","","","","","","null","","707.2000000476837","","3","0","null","null","arrowup","[0.675,0.325,0.85,0.15]","","",""
"sailing-trial","149","649797","0.0-11.0-114.0","","","","false","","","","","","","","","","493","","57.60000002384186","","0","1","arrowleft","0","arrowleft","[0.675,0.325,0.85,0.15]","","",""
"sailing-trial","150","651839","0.0-11.0-115.0","","","","false","","","","","","","","","","null","","853.9000000357628","","0","0","null","null","arrowup","[0.675,0.325,0.85,0.15]","","",""
"sailing-trial","151","655464","0.0-11.0-116.0","","","","false","","","","","","","","","","501.5","","370.69999998807907","","1","1","arrowleft","0","arrowright","[0.15,0.85,0.325,0.675]","","",""
"sailing-trial","152","657472","0.0-11.0-117.0","","","","false","","","","","","","","","","null","","775","","0","0","null","null","arrowup","[0.15,0.85,0.325,0.675]","","",""
"sailing-trial","153","661014","0.0-11.0-118.0","","","","false","","","","","","","","","","479.30000001192093","","323.7999999523163","","1","1","arrowleft","0","arrowright","[0.15,0.85,0.325,0.675]","","",""
"sailing-trial","154","665747","0.0-11.0-119.0","","","","false","","","","","","","","","","null","","1235.199999988079","","1","1","null","null","arrowup","[0.15,0.85,0.325,0.675]","","",""
"sailing-trial","155","669841","0.0-11.0-120.0","","","","false","","","","","","","","","","778.7999999523163","","164.4000000357628","","0","0","arrowleft","0","arrowleft","[0.15,0.85,0.325,0.675]","","",""
"sailing-trial","156","672597","0.0-11.0-121.0","","","","false","","","","","","","","","","null","","597","","2","1","null","null","arrowup","[0.15,0.85,0.325,0.675]","","",""
"sailing-trial","157","675960","0.0-11.0-122.0","","","","false","","","","","","","","","","563.3999999761581","","599.1999999880791","","2","0","arrowright","1","arrowleft","[0.15,0.85,0.325,0.675]","","",""
"sailing-trial","158","678119","0.0-11.0-123.0","","","","false","","","","","","","","","","null","","953.7999999523163","","3","0","null","null","arrowup","[0.15,0.85,0.325,0.675]","","",""
"sailing-trial","159","681398","0.0-11.0-124.0","","","","false","","","","","","","","","","524.8000000119209","","419.7999999523163","","3","0","arrowright","1","arrowright","[0.15,0.85,0.325,0.675]","","",""
"sailing-trial","160","683714","0.0-11.0-125.0","","","","false","","","","","","","","","","null","","581.6999999880791","","1","1","null","null","arrowup","[0.15,0.85,0.325,0.675]","","",""
"sailing-trial","161","686532","0.0-11.0-126.0","","","","false","","","","","","","","","","310.60000002384186","","117","","0","0","arrowleft","0","arrowleft","[0.15,0.85,0.325,0.675]","","",""
"sailing-trial","162","689313","0.0-11.0-127.0","","","","false","","","","","","","","","","null","","711.5","","1","1","null","null","arrowup","[0.15,0.85,0.325,0.675]","","",""
"sailing-trial","163","693381","0.0-11.0-128.0","","","","false","","","","","","","","","","263.9000000357628","","570.4000000357628","","1","1","arrowleft","0","arrowright","[0.15,0.85,0.325,0.675]","","",""
"sailing-trial","164","695813","0.0-11.0-129.0","","","","false","","","","","","","","","","null","","623.1000000238419","","3","1","null","null","arrowup","[0.15,0.85,0.325,0.675]","","",""
"sailing-trial","165","699464","0.0-11.0-130.0","","","","false","","","","","","","","","","689.2999999523163","","69.89999997615814","","3","1","arrowright","1","arrowright","[0.15,0.85,0.325,0.675]","","",""
"sailing-trial","166","702096","0.0-11.0-131.0","","","","false","","","","","","","","","","null","","867.5999999642372","","2","1","null","null","arrowup","[0.15,0.85,0.325,0.675]","","",""
"sailing-trial","167","705263","0.0-11.0-132.0","","","","false","","","","","","","","","","357.89999997615814","","29.099999964237213","","0","1","arrowleft","0","arrowleft","[0.325,0.675,0.15,0.85]","","",""
"sailing-trial","168","708897","0.0-11.0-133.0","","","","false","","","","","","","","","","null","","1925.300000011921","","1","1","null","null","arrowup","[0.325,0.675,0.15,0.85]","","",""
"sailing-trial","169","712530","0.0-11.0-134.0","","","","false","","","","","","","","","","467","","385.2999999523163","","3","1","arrowright","1","arrowright","[0.325,0.675,0.15,0.85]","","",""
"sailing-trial","170","714342","0.0-11.0-135.0","","","","false","","","","","","","","","","null","","558.5","","0","0","null","null","arrowup","[0.325,0.675,0.15,0.85]","","",""
"sailing-trial","171","718164","0.0-11.0-136.0","","","","false","","","","","","","","","","704.5","","203.5","","0","1","arrowleft","0","arrowleft","[0.325,0.675,0.15,0.85]","","",""
"sailing-trial","172","720713","0.0-11.0-137.0","","","","false","","","","","","","","","","null","","843.3999999761581","","3","1","null","null","arrowup","[0.325,0.675,0.15,0.85]","","",""
"sailing-trial","173","724246","0.0-11.0-138.0","","","","false","","","","","","","","","","409","","391.4000000357628","","0","1","arrowleft","0","arrowleft","[0.325,0.675,0.15,0.85]","","",""
"sailing-trial","174","726188","0.0-11.0-139.0","","","","false","","","","","","","","","","null","","768.1000000238419","","0","0","null","null","arrowup","[0.325,0.675,0.15,0.85]","","",""
"sailing-trial","175","729631","0.0-11.0-140.0","","","","false","","","","","","","","","","411.5","","271.7000000476837","","3","1","arrowright","1","arrowright","[0.325,0.675,0.15,0.85]","","",""
"sailing-trial","176","731896","0.0-11.0-141.0","","","","false","","","","","","","","","","null","","224.5999999642372","","0","1","null","null","arrowup","[0.325,0.675,0.15,0.85]","","",""
"sailing-trial","177","735264","0.0-11.0-142.0","","","","false","","","","","","","","","","173.5999999642372","","322.5999999642372","","3","1","arrowright","1","arrowright","[0.325,0.675,0.15,0.85]","","",""
"sailing-trial","178","737282","0.0-11.0-143.0","","","","false","","","","","","","","","","null","","741.0999999642372","","2","0","null","null","arrowup","[0.325,0.675,0.15,0.85]","","",""
"sailing-trial","179","740915","0.0-11.0-144.0","","","","false","","","","","","","","","","538.1999999880791","","340.60000002384186","","3","1","arrowright","1","arrowright","[0.325,0.675,0.15,0.85]","","",""
"sailing-trial","180","743364","0.0-11.0-145.0","","","","false","","","","","","","","","","null","","748.2999999523163","","1","1","null","null","arrowup","[0.325,0.675,0.15,0.85]","","",""
"sailing-trial","181","746697","0.0-11.0-146.0","","","","false","","","","","","","","","","292.4000000357628","","342.4000000357628","","1","1","arrowleft","0","arrowright","[0.325,0.675,0.15,0.85]","","",""
"sailing-trial","182","748755","0.0-11.0-147.0","","","","false","","","","","","","","","","null","","884.4000000357628","","1","0","null","null","arrowup","[0.325,0.675,0.15,0.85]","","",""
"sailing-trial","183","752514","0.0-11.0-148.0","","","","false","","","","","","","","","","511.30000001192093","","578.3999999761581","","3","1","arrowright","1","arrowright","[0.325,0.675,0.15,0.85]","","",""
"sailing-trial","184","755064","0.0-11.0-149.0","","","","false","","","","","","","","","","null","","748","","0","1","null","null","arrowup","[0.325,0.675,0.15,0.85]","","",""
"sailing-trial","185","758088","0.0-11.0-150.0","","","","false","","","","","","","","","","543.0999999642372","","182.69999998807907","","3","0","arrowright","1","arrowright","[0.325,0.675,0.15,0.85]","","",""
"sailing-trial","186","760463","0.0-11.0-151.0","","","","false","","","","","","","","","","null","","707.2999999523163","","3","1","null","null","arrowup","[0.325,0.675,0.15,0.85]","","",""
"sailing-trial","187","763665","0.0-11.0-152.0","","","","false","","","","","","","","","","309.80000001192093","","246.69999998807907","","0","1","arrowleft","0","arrowleft","[0.675,0.325,0.85,0.15]","","",""
"sailing-trial","188","766147","0.0-11.0-153.0","","","","false","","","","","","","","","","null","","705.6999999880791","","2","1","null","null","arrowup","[0.675,0.325,0.85,0.15]","","",""
"sailing-trial","189","769312","0.0-11.0-154.0","","","","false","","","","","","","","","","364.30000001192093","","18.100000023841858","","0","1","arrowleft","0","arrowleft","[0.675,0.325,0.85,0.15]","","",""
"sailing-trial","190","771413","0.0-11.0-155.0","","","","false","","","","","","","","","","null","","803.3999999761581","","2","0","null","null","arrowup","[0.675,0.325,0.85,0.15]","","",""
"sailing-trial","191","774276","0.0-11.0-156.0","","","","false","","","","","","","","","","599.3000000119209","","74.69999998807907","","3","0","arrowright","1","arrowright","[0.675,0.325,0.85,0.15]","","",""
"sailing-trial","192","776388","0.0-11.0-157.0","","","","false","","","","","","","","","","null","","899.6000000238419","","3","0","null","null","arrowup","[0.675,0.325,0.85,0.15]","","",""
"sailing-trial","193","779913","0.0-11.0-158.0","","","","false","","","","","","","","","","566.5","","337.19999998807907","","0","1","arrowleft","0","arrowleft","[0.675,0.325,0.85,0.15]","","",""
"sailing-trial","194","782464","0.0-11.0-159.0","","","","false","","","","","","","","","","null","","758.2000000476837","","2","1","null","null","arrowup","[0.675,0.325,0.85,0.15]","","",""
"sailing-trial","195","785947","0.0-11.0-160.0","","","","false","","","","","","","","","","490.2999999523163","","272.80000001192093","","2","1","arrowright","1","arrowleft","[0.675,0.325,0.85,0.15]","","",""
"sailing-trial","196","787806","0.0-11.0-161.0","","","","false","","","","","","","","","","null","","711.5","","0","0","null","null","arrowup","[0.675,0.325,0.85,0.15]","","",""
"sailing-trial","197","791231","0.0-11.0-162.0","","","","false","","","","","","","","","","515.4000000357628","","164","","2","1","arrowright","1","arrowleft","[0.675,0.325,0.85,0.15]","","",""
"sailing-trial","198","793099","0.0-11.0-163.0","","","","false","","","","","","","","","","null","","646.2999999523163","","3","0","null","null","arrowup","[0.675,0.325,0.85,0.15]","","",""
"sailing-trial","199","796946","0.0-11.0-164.0","","","","false","","","","","","","","","","470.19999998807907","","614.8999999761581","","2","1","arrowright","1","arrowleft","[0.675,0.325,0.85,0.15]","","",""
"sailing-trial","200","798398","0.0-11.0-165.0","","","","false","","","","","","","","","","null","","253.80000001192093","","3","0","null","null","arrowup","[0.675,0.325,0.85,0.15]","","",""
"sailing-trial","201","802315","0.0-11.0-166.0","","","","false","","","","","","","","","","482","","667.4000000357628","","2","1","arrowright","1","arrowleft","[0.675,0.325,0.85,0.15]","","",""
"sailing-trial","202","804246","0.0-11.0-167.0","","","","false","","","","","","","","","","null","","184.10000002384186","","3","1","null","null","arrowup","[0.675,0.325,0.85,0.15]","","",""
"sailing-trial","203","809748","0.0-11.0-168.0","","","","false","","","","","","","","","","628.5999999642372","","2134.5","","2","1","arrowright","1","arrowleft","[0.675,0.325,0.85,0.15]","","",""
"sailing-trial","204","811946","0.0-11.0-169.0","","","","false","","","","","","","","","","null","","1005.8999999761581","","3","0","null","null","arrowup","[0.675,0.325,0.85,0.15]","","",""
"sailing-trial","205","815166","0.0-11.0-170.0","","","","false","","","","","","","","","","634.0999999642372","","214.5999999642372","","2","0","arrowright","1","arrowleft","[0.325,0.675,0.15,0.85]","","",""
"sailing-trial","206","817415","0.0-11.0-171.0","","","","false","","","","","","","","","","null","","588.8999999761581","","0","1","null","null","arrowup","[0.325,0.675,0.15,0.85]","","",""
"sailing-trial","207","820339","0.0-11.0-172.0","","","","false","","","","","","","","","","517.5","","7.100000023841858","","0","0","arrowleft","0","arrowleft","[0.325,0.675,0.15,0.85]","","",""
"sailing-trial","208","822913","0.0-11.0-173.0","","","","false","","","","","","","","","","null","","877.5","","1","1","null","null","arrowup","[0.325,0.675,0.15,0.85]","","",""
"sailing-trial","209","826006","0.0-11.0-174.0","","","","false","","","","","","","","","","416.69999998807907","","245.69999998807907","","1","0","arrowleft","0","arrowright","[0.325,0.675,0.15,0.85]","","",""
"sailing-trial","210","828847","0.0-11.0-175.0","","","","false","","","","","","","","","","null","","872","","2","1","null","null","arrowup","[0.325,0.675,0.15,0.85]","","",""
"sailing-trial","211","832497","0.0-11.0-176.0","","","","false","","","","","","","","","","510.0999999642372","","319.69999998807907","","0","1","arrowleft","0","arrowleft","[0.325,0.675,0.15,0.85]","","",""
"sailing-trial","212","834848","0.0-11.0-177.0","","","","false","","","","","","","","","","null","","674.7000000476837","","3","1","null","null","arrowup","[0.325,0.675,0.15,0.85]","","",""
"sailing-trial","213","837592","0.0-11.0-178.0","","","","false","","","","","","","","","","267.7999999523163","","235.80000001192093","","0","0","arrowleft","0","arrowleft","[0.325,0.675,0.15,0.85]","","",""
"sailing-trial","214","839946","0.0-11.0-179.0","","","","false","","","","","","","","","","null","","669","","3","1","null","null","arrowup","[0.325,0.675,0.15,0.85]","","",""
"sailing-trial","215","843464","0.0-11.0-180.0","","","","false","","","","","","","","","","228.9000000357628","","490.5","","3","1","arrowright","1","arrowright","[0.325,0.675,0.15,0.85]","","",""
"sailing-trial","216","845674","0.0-11.0-181.0","","","","false","","","","","","","","","","null","","692.3000000119209","","1","0","null","null","arrowup","[0.325,0.675,0.15,0.85]","","",""
"sailing-trial","217","848603","0.0-11.0-182.0","","","","false","","","","","","","","","","423.80000001192093","","245","","2","0","arrowright","1","arrowleft","[0.325,0.675,0.15,0.85]","","",""
"sailing-trial","218","851012","0.0-11.0-183.0","","","","false","","","","","","","","","","null","","681.3000000119209","","3","1","null","null","arrowup","[0.325,0.675,0.15,0.85]","","",""
"sailing-trial","219","854263","0.0-11.0-184.0","","","","false","","","","","","","","","","394.7999999523163","","91.30000001192093","","3","1","arrowright","1","arrowright","[0.325,0.675,0.15,0.85]","","",""
"sailing-trial","220","856334","0.0-11.0-185.0","","","","false","","","","","","","","","","null","","861.8000000119209","","1","0","null","null","arrowup","[0.325,0.675,0.15,0.85]","","",""
"sailing-trial","221","859729","0.0-11.0-186.0","","","","false","","","","","","","","","","416.19999998807907","","272","","3","1","arrowright","1","arrowright","[0.325,0.675,0.15,0.85]","","",""
"sailing-trial","222","861251","0.0-11.0-187.0","","","","false","","","","","","","","","","null","","288.5999999642372","","1","0","null","null","arrowup","[0.325,0.675,0.15,0.85]","","",""
"sailing-trial","223","864433","0.0-11.0-188.0","","","","false","","","","","","","","","","495.60000002384186","","418.5","","3","0","arrowright","1","arrowright","[0.85,0.15,0.675,0.325]","","",""
"sailing-trial","224","866730","0.0-11.0-189.0","","","","false","","","","","","","","","","null","","587.3000000119209","","0","1","null","null","arrowup","[0.85,0.15,0.675,0.325]","","",""
"sailing-trial","225","870047","0.0-11.0-190.0","","","","false","","","","","","","","","","253.69999998807907","","328.5999999642372","","0","1","arrowleft","0","arrowleft","[0.85,0.15,0.675,0.325]","","",""
"sailing-trial","226","872230","0.0-11.0-191.0","","","","false","","","","","","","","","","null","","507.4000000357628","","2","1","null","null","arrowup","[0.85,0.15,0.675,0.325]","","",""
"sailing-trial","227","874994","0.0-11.0-192.0","","","","false","","","","","","","","","","483.19999998807907","","95.59999996423721","","1","0","arrowleft","0","arrowright","[0.85,0.15,0.675,0.325]","","",""
"sailing-trial","228","876920","0.0-11.0-193.0","","","","false","","","","","","","","","","null","","707","","0","0","null","null","arrowup","[0.85,0.15,0.675,0.325]","","",""
"sailing-trial","229","880548","0.0-11.0-194.0","","","","false","","","","","","","","","","504.39999997615814","","368.10000002384186","","0","1","arrowleft","0","arrowleft","[0.85,0.15,0.675,0.325]","","",""
"sailing-trial","230","883016","0.0-11.0-195.0","","","","false","","","","","","","","","","null","","1291.0999999642372","","3","0","null","null","arrowup","[0.85,0.15,0.675,0.325]","","",""
"sailing-trial","231","886914","0.0-11.0-196.0","","","","false","","","","","","","","","","578.8999999761581","","42.69999998807907","","0","1","arrowleft","0","arrowleft","[0.85,0.15,0.675,0.325]","","",""
"sailing-trial","232","890464","0.0-11.0-197.0","","","","false","","","","","","","","","","null","","2216","","3","0","null","null","arrowup","[0.85,0.15,0.675,0.325]","","",""
"sailing-trial","233","893704","0.0-11.0-198.0","","","","false","","","","","","","","","","486.60000002384186","","468.19999998807907","","2","0","arrowright","1","arrowleft","[0.85,0.15,0.675,0.325]","","",""
"sailing-trial","234","897014","0.0-11.0-199.0","","","","false","","","","","","","","","","null","","1509.9000000357628","","2","1","null","null","arrowup","[0.85,0.15,0.675,0.325]","","",""
"sailing-trial","235","900436","0.0-11.0-200.0","","","","false","","","","","","","","","","486.19999998807907","","359.30000001192093","","3","0","arrowright","1","arrowright","[0.85,0.15,0.675,0.325]","","",""
"sailing-trial","236","903076","0.0-11.0-201.0","","","","false","","","","","","","","","","null","","1430.300000011921","","1","0","null","null","arrowup","[0.85,0.15,0.675,0.325]","","",""
"sailing-trial","237","906313","0.0-11.0-202.0","","","","false","","","","","","","","","","930.5","","62.39999997615814","","1","0","arrowleft","0","arrowright","[0.85,0.15,0.675,0.325]","","",""
"sailing-trial","238","908965","0.0-11.0-203.0","","","","false","","","","","","","","","","null","","913.8000000119209","","0","1","null","null","arrowup","[0.85,0.15,0.675,0.325]","","",""
"sailing-trial","239","912299","0.0-11.0-204.0","","","","false","","","","","","","","","","342.5","","178.0999999642372","","0","1","arrowleft","0","arrowleft","[0.85,0.15,0.675,0.325]","","",""
"sailing-trial","240","915679","0.0-11.0-205.0","","","","false","","","","","","","","","","null","","1448.8999999761581","","0","1","null","null","arrowup","[0.85,0.15,0.675,0.325]","","",""
"sailing-trial","241","919214","0.0-11.0-206.0","","","","false","","","","","","","","","","569.6999999880791","","100.90000003576279","","0","1","arrowleft","0","arrowleft","[0.85,0.15,0.675,0.325]","","",""
"sailing-trial","242","921488","0.0-11.0-207.0","","","","false","","","","","","","","","","null","","882.3999999761581","","0","0","null","null","arrowup","[0.85,0.15,0.675,0.325]","","",""
"sailing-trial","243","925097","0.0-11.0-208.0","","","","false","","","","","","","","","","733.6000000238419","","53.10000002384186","","2","1","arrowright","1","arrowleft","[0.85,0.15,0.675,0.325]","","",""
"sailing-trial","244","927111","0.0-11.0-209.0","","","","false","","","","","","","","","","null","","760.6000000238419","","3","0","null","null","arrowup","[0.85,0.15,0.675,0.325]","","",""
"sailing-trial","245","930382","0.0-11.0-210.0","","","","false","","","","","","","","","","505.89999997615814","","74.89999997615814","","2","1","arrowright","1","arrowleft","[0.675,0.325,0.85,0.15]","","",""
"sailing-trial","246","932598","0.0-11.0-211.0","","","","false","","","","","","","","","","null","","508.0999999642372","","2","1","null","null","arrowup","[0.675,0.325,0.85,0.15]","","",""
"sailing-trial","247","936180","0.0-11.0-212.0","","","","false","","","","","","","","","","436.80000001192093","","415.5","","2","1","arrowright","1","arrowleft","[0.675,0.325,0.85,0.15]","","",""
"sailing-trial","248","938864","0.0-11.0-213.0","","","","false","","","","","","","","","","null","","1241.3999999761581","","1","0","null","null","arrowup","[0.675,0.325,0.85,0.15]","","",""
"sailing-trial","249","942297","0.0-11.0-214.0","","","","false","","","","","","","","","","607.8000000119209","","41.09999996423721","","0","1","arrowleft","0","arrowleft","[0.675,0.325,0.85,0.15]","","",""
"sailing-trial","250","944579","0.0-11.0-215.0","","","","false","","","","","","","","","","null","","601.9000000357628","","2","1","null","null","arrowup","[0.675,0.325,0.85,0.15]","","",""
"sailing-trial","251","947269","0.0-11.0-216.0","","","","false","","","","","","","","","","269.7000000476837","","208.19999998807907","","0","0","arrowleft","0","arrowleft","[0.675,0.325,0.85,0.15]","","",""
"sailing-trial","252","949564","0.0-11.0-217.0","","","","false","","","","","","","","","","null","","590.7000000476837","","2","1","null","null","arrowup","[0.675,0.325,0.85,0.15]","","",""
"sailing-trial","253","952847","0.0-11.0-218.0","","","","false","","","","","","","","","","434.69999998807907","","119.09999996423721","","2","1","arrowright","1","arrowleft","[0.675,0.325,0.85,0.15]","","",""
"sailing-trial","254","955232","0.0-11.0-219.0","","","","false","","","","","","","","","","null","","705.6000000238419","","2","1","null","null","arrowup","[0.675,0.325,0.85,0.15]","","",""
"sailing-trial","255","958397","0.0-11.0-220.0","","","","false","","","","","","","","","","321","","49.19999998807907","","2","1","arrowright","1","arrowleft","[0.675,0.325,0.85,0.15]","","",""
"sailing-trial","256","959958","0.0-11.0-221.0","","","","false","","","","","","","","","","null","","286","","1","0","null","null","arrowup","[0.675,0.325,0.85,0.15]","","",""
"sailing-trial","257","963197","0.0-11.0-222.0","","","","false","","","","","","","","","","458.69999998807907","","72.09999996423721","","2","1","arrowright","1","arrowleft","[0.675,0.325,0.85,0.15]","","",""
"sailing-trial","258","965081","0.0-11.0-223.0","","","","false","","","","","","","","","","null","","305.7999999523163","","0","1","null","null","arrowup","[0.675,0.325,0.85,0.15]","","",""
"sailing-trial","259","968331","0.0-11.0-224.0","","","","false","","","","","","","","","","263.80000001192093","","256.80000001192093","","2","1","arrowright","1","arrowleft","[0.675,0.325,0.85,0.15]","","",""
"sailing-trial","260","969850","0.0-11.0-225.0","","","","false","","","","","","","","","","null","","361.69999998807907","","0","0","null","null","arrowup","[0.675,0.325,0.85,0.15]","","",""
"sailing-trial","261","972921","0.0-11.0-226.0","","","","false","","","","","","","","","","677.8999999761581","","159.19999998807907","","0","0","arrowleft","0","arrowleft","[0.675,0.325,0.85,0.15]","","",""
"sailing-trial","262","975247","0.0-11.0-227.0","","","","false","","","","","","","","","","null","","742.5","","2","1","null","null","arrowup","[0.675,0.325,0.85,0.15]","","",""
"sailing-trial","263","978649","0.0-11.0-228.0","","","","false","","","","","","","","","","351.5999999642372","","436.80000001192093","","1","1","arrowleft","0","arrowright","[0.85,0.15,0.675,0.325]","","",""
"sailing-trial","264","980814","0.0-11.0-229.0","","","","false","","","","","","","","","","null","","384.19999998807907","","3","1","null","null","arrowup","[0.85,0.15,0.675,0.325]","","",""
"sailing-trial","265","983618","0.0-11.0-230.0","","","","false","","","","","","","","","","552.2000000476837","","112.5","","0","0","arrowleft","0","arrowleft","[0.85,0.15,0.675,0.325]","","",""
"sailing-trial","266","985529","0.0-11.0-231.0","","","","false","","","","","","","","","","null","","872","","3","0","null","null","arrowup","[0.85,0.15,0.675,0.325]","","",""
"sailing-trial","267","988200","0.0-11.0-232.0","","","","false","","","","","","","","","","507.60000002384186","","30.899999976158142","","2","0","arrowright","1","arrowleft","[0.85,0.15,0.675,0.325]","","",""
"sailing-trial","268","990381","0.0-11.0-233.0","","","","false","","","","","","","","","","null","","1155","","1","0","null","null","arrowup","[0.85,0.15,0.675,0.325]","","",""
"sailing-trial","269","994015","0.0-11.0-234.0","","","","false","","","","","","","","","","503.2999999523163","","367.60000002384186","","3","1","arrowright","1","arrowright","[0.85,0.15,0.675,0.325]","","",""
"sailing-trial","270","996065","0.0-11.0-235.0","","","","false","","","","","","","","","","null","","853","","1","0","null","null","arrowup","[0.85,0.15,0.675,0.325]","","",""
"sailing-trial","271","999614","0.0-11.0-236.0","","","","false","","","","","","","","","","544","","142.69999998807907","","3","1","arrowright","1","arrowright","[0.85,0.15,0.675,0.325]","","",""
"sailing-trial","272","1002463","0.0-11.0-237.0","","","","false","","","","","","","","","","null","","594.6999999880791","","0","1","null","null","arrowup","[0.85,0.15,0.675,0.325]","","",""
"sailing-trial","273","1005713","0.0-11.0-238.0","","","","false","","","","","","","","","","442.5","","147.0999999642372","","3","1","arrowright","1","arrowright","[0.85,0.15,0.675,0.325]","","",""
"sailing-trial","274","1007326","0.0-11.0-239.0","","","","false","","","","","","","","","","null","","365.2999999523163","","0","0","null","null","arrowup","[0.85,0.15,0.675,0.325]","","",""
"sailing-trial","275","1010291","0.0-11.0-240.0","","","","false","","","","","","","","","","518.7999999523163","","289.4000000357628","","3","0","arrowright","1","arrowright","[0.85,0.15,0.675,0.325]","","",""
"sailing-trial","276","1012579","0.0-11.0-241.0","","","","false","","","","","","","","","","null","","712.8000000119209","","1","1","null","null","arrowup","[0.85,0.15,0.675,0.325]","","",""
"sailing-trial","277","1015390","0.0-11.0-242.0","","","","false","","","","","","","","","","293.89999997615814","","376.19999998807907","","1","0","arrowleft","0","arrowright","[0.85,0.15,0.675,0.325]","","",""
"sailing-trial","278","1018281","0.0-11.0-243.0","","","","false","","","","","","","","","","null","","1136.2000000476837","","0","1","null","null","arrowup","[0.85,0.15,0.675,0.325]","","",""
"sailing-trial","279","1021715","0.0-11.0-244.0","","","","false","","","","","","","","","","349.2999999523163","","318.39999997615814","","0","1","arrowleft","0","arrowleft","[0.675,0.325,0.85,0.15]","","",""
"sailing-trial","280","1023687","0.0-11.0-245.0","","","","false","","","","","","","","","","null","","844.8999999761581","","0","0","null","null","arrowup","[0.675,0.325,0.85,0.15]","","",""
"sailing-trial","281","1026931","0.0-11.0-246.0","","","","false","","","","","","","","","","546.8000000119209","","178.89999997615814","","2","1","arrowright","1","arrowleft","[0.675,0.325,0.85,0.15]","","",""
"sailing-trial","282","1029329","0.0-11.0-247.0","","","","false","","","","","","","","","","null","","825.8999999761581","","0","1","null","null","arrowup","[0.675,0.325,0.85,0.15]","","",""
"sailing-trial","283","1032235","0.0-11.0-248.0","","","","false","","","","","","","","","","426.30000001192093","","336.2999999523163","","3","0","arrowright","1","arrowright","[0.675,0.325,0.85,0.15]","","",""
"sailing-trial","284","1034631","0.0-11.0-249.0","","","","false","","","","","","","","","","null","","703.6999999880791","","2","1","null","null","arrowup","[0.675,0.325,0.85,0.15]","","",""
"sailing-trial","285","1037496","0.0-11.0-250.0","","","","false","","","","","","","","","","511","","115","","0","0","arrowleft","0","arrowleft","[0.675,0.325,0.85,0.15]","","",""
"sailing-trial","286","1039997","0.0-11.0-251.0","","","","false","","","","","","","","","","null","","727.1999999880791","","0","1","null","null","arrowup","[0.675,0.325,0.85,0.15]","","",""
"sailing-trial","287","1043397","0.0-11.0-252.0","","","","false","","","","","","","","","","445.2000000476837","","209.9000000357628","","0","1","arrowleft","0","arrowleft","[0.675,0.325,0.85,0.15]","","",""
"sailing-trial","288","1046064","0.0-11.0-253.0","","","","false","","","","","","","","","","null","","967.5","","2","1","null","null","arrowup","[0.675,0.325,0.85,0.15]","","",""
"sailing-trial","289","1049197","0.0-11.0-254.0","","","","false","","","","","","","","","","400","","34.89999997615814","","2","1","arrowright","1","arrowleft","[0.675,0.325,0.85,0.15]","","",""
"sailing-trial","290","1051998","0.0-11.0-255.0","","","","false","","","","","","","","","","null","","822.9000000357628","","0","1","null","null","arrowup","[0.675,0.325,0.85,0.15]","","",""
"sailing-trial","291","1054601","0.0-11.0-256.0","","","","false","","","","","","","","","","231.69999998807907","","138.10000002384186","","2","0","arrowright","1","arrowleft","[0.675,0.325,0.85,0.15]","","",""
"sailing-trial","292","1057213","0.0-11.0-257.0","","","","false","","","","","","","","","","null","","956.3999999761581","","2","1","null","null","arrowup","[0.675,0.325,0.85,0.15]","","",""
"sailing-trial","293","1060797","0.0-11.0-258.0","","","","false","","","","","","","","","","622.2999999523163","","358.80000001192093","","3","1","arrowright","1","arrowright","[0.675,0.325,0.85,0.15]","","",""
"sailing-trial","294","1063479","0.0-11.0-259.0","","","","false","","","","","","","","","","null","","951.2999999523163","","2","1","null","null","arrowup","[0.675,0.325,0.85,0.15]","","",""
"sailing-trial","295","1066746","0.0-11.0-260.0","","","","false","","","","","","","","","","379","","156","","3","1","arrowright","1","arrowright","[0.85,0.15,0.675,0.325]","","",""
"sailing-trial","296","1068747","0.0-11.0-261.0","","","","false","","","","","","","","","","null","","288.19999998807907","","3","1","null","null","arrowup","[0.85,0.15,0.675,0.325]","","",""
"sailing-trial","297","1071663","0.0-11.0-262.0","","","","false","","","","","","","","","","365.19999998807907","","43.89999997615814","","3","0","arrowright","1","arrowright","[0.85,0.15,0.675,0.325]","","",""
"sailing-trial","298","1073761","0.0-11.0-263.0","","","","false","","","","","","","","","","null","","788.8999999761581","","1","0","null","null","arrowup","[0.85,0.15,0.675,0.325]","","",""
"sailing-trial","299","1077214","0.0-11.0-264.0","","","","false","","","","","","","","","","537.7000000476837","","108.30000001192093","","2","1","arrowright","1","arrowleft","[0.85,0.15,0.675,0.325]","","",""
"sailing-trial","300","1078730","0.0-11.0-265.0","","","","false","","","","","","","","","","null","","332.89999997615814","","3","0","null","null","arrowup","[0.85,0.15,0.675,0.325]","","",""
"sailing-trial","301","1082279","0.0-11.0-266.0","","","","false","","","","","","","","","","537","","366.4000000357628","","2","1","arrowright","1","arrowleft","[0.85,0.15,0.675,0.325]","","",""
"sailing-trial","302","1084703","0.0-11.0-267.0","","","","false","","","","","","","","","","null","","704.1000000238419","","1","0","null","null","arrowup","[0.85,0.15,0.675,0.325]","","",""
"sailing-trial","303","1088281","0.0-11.0-268.0","","","","false","","","","","","","","","","508.60000002384186","","343.2000000476837","","2","1","arrowright","1","arrowleft","[0.85,0.15,0.675,0.325]","","",""
"sailing-trial","304","1090781","0.0-11.0-269.0","","","","false","","","","","","","","","","null","","873.3000000119209","","0","1","null","null","arrowup","[0.85,0.15,0.675,0.325]","","",""
"sailing-trial","305","1094465","0.0-11.0-270.0","","","","false","","","","","","","","","","417.9000000357628","","359.5","","0","1","arrowleft","0","arrowleft","[0.85,0.15,0.675,0.325]","","",""
"sailing-trial","306","1096463","0.0-11.0-271.0","","","","false","","","","","","","","","","null","","773.7999999523163","","2","0","null","null","arrowup","[0.85,0.15,0.675,0.325]","","",""
"sailing-trial","307","1099795","0.0-11.0-272.0","","","","false","","","","","","","","","","566.7000000476837","","360.2000000476837","","1","0","arrowleft","0","arrowright","[0.85,0.15,0.675,0.325]","","",""
"sailing-trial","308","1102214","0.0-11.0-273.0","","","","false","","","","","","","","","","null","","768.5999999642372","","0","1","null","null","arrowup","[0.85,0.15,0.675,0.325]","","",""
"sailing-trial","309","1105565","0.0-11.0-274.0","","","","false","","","","","","","","","","420.5999999642372","","277.4000000357628","","0","1","arrowleft","0","arrowleft","[0.85,0.15,0.675,0.325]","","",""
"sailing-trial","310","1107763","0.0-11.0-275.0","","","","false","","","","","","","","","","null","","492","","2","1","null","null","arrowup","[0.85,0.15,0.675,0.325]","","",""
"sailing-trial","311","1111297","0.0-11.0-276.0","","","","false","","","","","","","","","","499.7000000476837","","319.5","","0","1","arrowleft","0","arrowleft","[0.85,0.15,0.675,0.325]","","",""
"sailing-trial","312","1113898","0.0-11.0-277.0","","","","false","","","","","","","","","","null","","780.6000000238419","","3","1","null","null","arrowup","[0.85,0.15,0.675,0.325]","","",""
"sailing-trial","313","1116791","0.0-11.0-278.0","","","","false","","","","","","","","","","511.10000002384186","","358.30000001192093","","2","0","arrowright","1","arrowleft","[0.325,0.675,0.15,0.85]","","",""
"sailing-trial","314","1119130","0.0-11.0-279.0","","","","false","","","","","","","","","","null","","763.4000000357628","","3","1","null","null","arrowup","[0.325,0.675,0.15,0.85]","","",""
"sailing-trial","315","1122613","0.0-11.0-280.0","","","","false","","","","","","","","","","535.6000000238419","","190.39999997615814","","3","1","arrowright","1","arrowright","[0.325,0.675,0.15,0.85]","","",""
"sailing-trial","316","1125248","0.0-11.0-281.0","","","","false","","","","","","","","","","null","","793.5","","1","1","null","null","arrowup","[0.325,0.675,0.15,0.85]","","",""
"sailing-trial","317","1128715","0.0-11.0-282.0","","","","false","","","","","","","","","","536.5999999642372","","288.5","","3","1","arrowright","1","arrowright","[0.325,0.675,0.15,0.85]","","",""
"sailing-trial","318","1131030","0.0-11.0-283.0","","","","false","","","","","","","","","","null","","1022.8000000119209","","2","0","null","null","arrowup","[0.325,0.675,0.15,0.85]","","",""
"sailing-trial","319","1135169","0.0-11.0-284.0","","","","false","","","","","","","","","","603.8999999761581","","1245","","0","0","arrowleft","0","arrowleft","[0.325,0.675,0.15,0.85]","","",""
"sailing-trial","320","1137615","0.0-11.0-285.0","","","","false","","","","","","","","","","null","","805.1999999880791","","1","1","null","null","arrowup","[0.325,0.675,0.15,0.85]","","",""
"sailing-trial","321","1141198","0.0-11.0-286.0","","","","false","","","","","","","","","","458.2000000476837","","378.69999998807907","","1","1","arrowleft","0","arrowright","[0.325,0.675,0.15,0.85]","","",""
"sailing-trial","322","1143381","0.0-11.0-287.0","","","","false","","","","","","","","","","null","","544.8000000119209","","3","1","null","null","arrowup","[0.325,0.675,0.15,0.85]","","",""
"sailing-trial","323","1146440","0.0-11.0-288.0","","","","false","","","","","","","","","","320","","438.69999998807907","","1","0","arrowleft","0","arrowright","[0.325,0.675,0.15,0.85]","","",""
"sailing-trial","324","1148656","0.0-11.0-289.0","","","","false","","","","","","","","","","null","","883.6000000238419","","3","0","null","null","arrowup","[0.325,0.675,0.15,0.85]","","",""
"sailing-trial","325","1152398","0.0-11.0-290.0","","","","false","","","","","","","","","","467.39999997615814","","476.60000002384186","","3","1","arrowright","1","arrowright","[0.325,0.675,0.15,0.85]","","",""
"sailing-trial","326","1154544","0.0-11.0-291.0","","","","false","","","","","","","","","","null","","902.5","","0","0","null","null","arrowup","[0.325,0.675,0.15,0.85]","","",""
"sailing-trial","327","1158608","0.0-11.0-292.0","","","","false","","","","","","","","","","719.3000000119209","","334.89999997615814","","1","0","arrowleft","0","arrowright","[0.325,0.675,0.15,0.85]","","",""
"sailing-trial","328","1161015","0.0-11.0-293.0","","","","false","","","","","","","","","","null","","581.3999999761581","","3","1","null","null","arrowup","[0.325,0.675,0.15,0.85]","","",""
"sailing-trial","329","1164281","0.0-11.0-294.0","","","","false","","","","","","","","","","401.19999998807907","","178.30000001192093","","3","1","arrowright","1","arrowright","[0.15,0.85,0.325,0.675]","","",""
"sailing-trial","330","1166222","0.0-11.0-295.0","","","","false","","","","","","","","","","null","","896.4000000357628","","2","0","null","null","arrowup","[0.15,0.85,0.325,0.675]","","",""
"sailing-trial","331","1169136","0.0-11.0-296.0","","","","false","","","","","","","","","","345.9000000357628","","263.60000002384186","","3","0","arrowright","1","arrowright","[0.15,0.85,0.325,0.675]","","",""
"sailing-trial","332","1171481","0.0-11.0-297.0","","","","false","","","","","","","","","","null","","743.1000000238419","","2","1","null","null","arrowup","[0.15,0.85,0.325,0.675]","","",""
"sailing-trial","333","1174921","0.0-11.0-298.0","","","","false","","","","","","","","","","456.7000000476837","","365.5","","2","0","arrowright","1","arrowleft","[0.15,0.85,0.325,0.675]","","",""
"sailing-trial","334","1176956","0.0-11.0-299.0","","","","false","","","","","","","","","","null","","854","","0","0","null","null","arrowup","[0.15,0.85,0.325,0.675]","","",""
"sailing-trial","335","1180230","0.0-11.0-300.0","","","","false","","","","","","","","","","415.69999998807907","","255.5999999642372","","2","1","arrowright","1","arrowleft","[0.15,0.85,0.325,0.675]","","",""
"sailing-trial","336","1182782","0.0-11.0-301.0","","","","false","","","","","","","","","","null","","749.9000000357628","","3","1","null","null","arrowup","[0.15,0.85,0.325,0.675]","","",""
"sailing-trial","337","1185489","0.0-11.0-302.0","","","","false","","","","","","","","","","447.19999998807907","","146.79999995231628","","2","0","arrowright","1","arrowleft","[0.15,0.85,0.325,0.675]","","",""
"sailing-trial","338","1187362","0.0-11.0-303.0","","","","false","","","","","","","","","","null","","685.3999999761581","","0","0","null","null","arrowup","[0.15,0.85,0.325,0.675]","","",""
"sailing-trial","339","1190715","0.0-11.0-304.0","","","","false","","","","","","","","","","472.60000002384186","","325.5","","0","0","arrowleft","0","arrowleft","[0.15,0.85,0.325,0.675]","","",""
"sailing-trial","340","1192915","0.0-11.0-305.0","","","","false","","","","","","","","","","null","","600.4000000357628","","3","1","null","null","arrowup","[0.15,0.85,0.325,0.675]","","",""
"sailing-trial","341","1195964","0.0-11.0-306.0","","","","false","","","","","","","","","","257.5","","209.80000001192093","","3","1","arrowright","1","arrowright","[0.15,0.85,0.325,0.675]","","",""
"sailing-trial","342","1198397","0.0-11.0-307.0","","","","false","","","","","","","","","","null","","691.3999999761581","","2","1","null","null","arrowup","[0.15,0.85,0.325,0.675]","","",""
"sailing-trial","343","1201348","0.0-11.0-308.0","","","","false","","","","","","","","","","331","","3.400000035762787","","3","1","arrowright","1","arrowright","[0.15,0.85,0.325,0.675]","","",""
"sailing-trial","344","1203781","0.0-11.0-309.0","","","","false","","","","","","","","","","null","","707.1000000238419","","1","1","null","null","arrowup","[0.15,0.85,0.325,0.675]","","",""
"sailing-trial","345","1207647","0.0-11.0-310.0","","","","false","","","","","","","","","","429.9000000357628","","766.1999999880791","","3","1","arrowright","1","arrowright","[0.325,0.675,0.15,0.85]","","",""
"sailing-trial","346","1210081","0.0-11.0-311.0","","","","false","","","","","","","","","","null","","710.3999999761581","","3","1","null","null","arrowup","[0.325,0.675,0.15,0.85]","","",""
"sailing-trial","347","1213298","0.0-11.0-312.0","","","","false","","","","","","","","","","480","","168.19999998807907","","3","1","arrowright","1","arrowright","[0.325,0.675,0.15,0.85]","","",""
"sailing-trial","348","1215093","0.0-11.0-313.0","","","","false","","","","","","","","","","null","","731.1000000238419","","3","0","null","null","arrowup","[0.325,0.675,0.15,0.85]","","",""
"sailing-trial","349","1218248","0.0-11.0-314.0","","","","false","","","","","","","","","","429.69999998807907","","204","","3","1","arrowright","1","arrowright","[0.325,0.675,0.15,0.85]","","",""
"sailing-trial","350","1220480","0.0-11.0-315.0","","","","false","","","","","","","","","","null","","644.5999999642372","","1","1","null","null","arrowup","[0.325,0.675,0.15,0.85]","","",""
"sailing-trial","351","1223779","0.0-11.0-316.0","","","","false","","","","","","","","","","319.80000001192093","","280.7999999523163","","1","1","arrowleft","0","arrowright","[0.325,0.675,0.15,0.85]","","",""
"sailing-trial","352","1225566","0.0-11.0-317.0","","","","false","","","","","","","","","","null","","738","","2","0","null","null","arrowup","[0.325,0.675,0.15,0.85]","","",""
"sailing-trial","353","1228865","0.0-11.0-318.0","","","","false","","","","","","","","","","475.80000001192093","","194.10000002384186","","1","1","arrowleft","0","arrowright","[0.325,0.675,0.15,0.85]","","",""
"sailing-trial","354","1230736","0.0-11.0-319.0","","","","false","","","","","","","","","","null","","756.6999999880791","","0","0","null","null","arrowup","[0.325,0.675,0.15,0.85]","","",""
"sailing-trial","355","1234047","0.0-11.0-320.0","","","","false","","","","","","","","","","536.5","","10.699999988079071","","3","1","arrowright","1","arrowright","[0.325,0.675,0.15,0.85]","","",""
"sailing-trial","356","1236056","0.0-11.0-321.0","","","","false","","","","","","","","","","null","","916.3999999761581","","1","0","null","null","arrowup","[0.325,0.675,0.15,0.85]","","",""
"sailing-trial","357","1238752","0.0-11.0-322.0","","","","false","","","","","","","","","","503.69999998807907","","104.10000002384186","","1","0","arrowleft","0","arrowright","[0.325,0.675,0.15,0.85]","","",""
"sailing-trial","358","1240669","0.0-11.0-323.0","","","","false","","","","","","","","","","null","","635.8999999761581","","2","0","null","null","arrowup","[0.325,0.675,0.15,0.85]","","",""
"sailing-trial","359","1243426","0.0-11.0-324.0","","","","false","","","","","","","","","","558.4000000357628","","130.9000000357628","","0","0","arrowleft","0","arrowleft","[0.325,0.675,0.15,0.85]","","",""
"sailing-trial","360","1245227","0.0-11.0-325.0","","","","false","","","","","","","","","","null","","674.2000000476837","","3","0","null","null","arrowup","[0.325,0.675,0.15,0.85]","","",""
"sailing-trial","361","1248035","0.0-11.0-326.0","","","","false","","","","","","","","","","566.3999999761581","","170.69999998807907","","2","0","arrowright","1","arrowleft","[0.15,0.85,0.325,0.675]","","",""
"sailing-trial","362","1250068","0.0-11.0-327.0","","","","false","","","","","","","","","","null","","816.5","","1","0","null","null","arrowup","[0.15,0.85,0.325,0.675]","","",""
"sailing-trial","363","1253281","0.0-11.0-328.0","","","","false","","","","","","","","","","511.69999998807907","","31.200000047683716","","3","1","arrowright","1","arrowright","[0.15,0.85,0.325,0.675]","","",""
"sailing-trial","364","1255714","0.0-11.0-329.0","","","","false","","","","","","","","","","null","","756.3000000119209","","0","1","null","null","arrowup","[0.15,0.85,0.325,0.675]","","",""
"sailing-trial","365","1258059","0.0-11.0-330.0","","","","false","","","","","","","","","","236.0999999642372","","84.59999996423721","","3","0","arrowright","1","arrowright","[0.15,0.85,0.325,0.675]","","",""
"sailing-trial","366","1260780","0.0-11.0-331.0","","","","false","","","","","","","","","","null","","689.7000000476837","","1","1","null","null","arrowup","[0.15,0.85,0.325,0.675]","","",""
"sailing-trial","367","1264280","0.0-11.0-332.0","","","","false","","","","","","","","","","265.19999998807907","","397.5","","1","1","arrowleft","0","arrowright","[0.15,0.85,0.325,0.675]","","",""
"sailing-trial","368","1266546","0.0-11.0-333.0","","","","false","","","","","","","","","","null","","686.8000000119209","","3","1","null","null","arrowup","[0.15,0.85,0.325,0.675]","","",""
"sailing-trial","369","1269764","0.0-11.0-334.0","","","","false","","","","","","","","","","306","","268.80000001192093","","1","1","arrowleft","0","arrowright","[0.15,0.85,0.325,0.675]","","",""
"sailing-trial","370","1272179","0.0-11.0-335.0","","","","false","","","","","","","","","","null","","639","","1","1","null","null","arrowup","[0.15,0.85,0.325,0.675]","","",""
"sailing-trial","371","1275529","0.0-11.0-336.0","","","","false","","","","","","","","","","504.0999999642372","","289.5","","1","1","arrowleft","0","arrowright","[0.15,0.85,0.325,0.675]","","",""
"sailing-trial","372","1277980","0.0-11.0-337.0","","","","false","","","","","","","","","","null","","642.8999999761581","","1","1","null","null","arrowup","[0.15,0.85,0.325,0.675]","","",""
"sailing-trial","373","1281433","0.0-11.0-338.0","","","","false","","","","","","","","","","785.4000000357628","","460.10000002384186","","0","0","arrowleft","0","arrowleft","[0.15,0.85,0.325,0.675]","","",""
"sailing-trial","374","1283019","0.0-11.0-339.0","","","","false","","","","","","","","","","null","","565.2999999523163","","2","0","null","null","arrowup","[0.15,0.85,0.325,0.675]","","",""
"sailing-trial","375","1286281","0.0-11.0-340.0","","","","false","","","","","","","","","","353.5","","291.2000000476837","","1","1","arrowleft","0","arrowright","[0.15,0.85,0.325,0.675]","","",""
"sailing-trial","376","1289531","0.0-11.0-341.0","","","","false","","","","","","","","","","null","","1243.4000000357628","","2","1","null","null","arrowup","[0.15,0.85,0.325,0.675]","","",""
"sailing-trial","377","1292708","0.0-11.0-342.0","","","","false","","","","","","","","","","337.69999998807907","","284.80000001192093","","1","0","arrowleft","0","arrowright","[0.325,0.675,0.15,0.85]","","",""
"sailing-trial","378","1294556","0.0-11.0-343.0","","","","false","","","","","","","","","","null","","658.8000000119209","","2","0","null","null","arrowup","[0.325,0.675,0.15,0.85]","","",""
"sailing-trial","379","1297931","0.0-11.0-344.0","","","","false","","","","","","","","","","427.10000002384186","","196.5","","1","1","arrowleft","0","arrowright","[0.325,0.675,0.15,0.85]","","",""
"sailing-trial","380","1300170","0.0-11.0-345.0","","","","false","","","","","","","","","","null","","963.4000000357628","","0","0","null","null","arrowup","[0.325,0.675,0.15,0.85]","","",""
"sailing-trial","381","1302862","0.0-11.0-346.0","","","","false","","","","","","","","","","396","","223.79999995231628","","1","0","arrowleft","0","arrowright","[0.325,0.675,0.15,0.85]","","",""
"sailing-trial","382","1304635","0.0-11.0-347.0","","","","false","","","","","","","","","","null","","733.1000000238419","","2","0","null","null","arrowup","[0.325,0.675,0.15,0.85]","","",""
"sailing-trial","383","1308263","0.0-11.0-348.0","","","","false","","","","","","","","","","381.5","","250.80000001192093","","1","1","arrowleft","0","arrowright","[0.325,0.675,0.15,0.85]","","",""
"sailing-trial","384","1309872","0.0-11.0-349.0","","","","false","","","","","","","","","","null","","582.6000000238419","","0","0","null","null","arrowup","[0.325,0.675,0.15,0.85]","","",""
"sailing-trial","385","1312907","0.0-11.0-350.0","","","","false","","","","","","","","","","282.69999998807907","","222.69999998807907","","1","0","arrowleft","0","arrowright","[0.325,0.675,0.15,0.85]","","",""
"sailing-trial","386","1315465","0.0-11.0-351.0","","","","false","","","","","","","","","","null","","667.3000000119209","","1","0","null","null","arrowup","[0.325,0.675,0.15,0.85]","","",""
"sailing-trial","387","1318712","0.0-11.0-352.0","","","","false","","","","","","","","","","358.19999998807907","","276.5999999642372","","3","1","arrowright","1","arrowright","[0.325,0.675,0.15,0.85]","","",""
"sailing-trial","388","1321048","0.0-11.0-353.0","","","","false","","","","","","","","","","null","","799.6999999880791","","2","1","null","null","arrowup","[0.325,0.675,0.15,0.85]","","",""
"sailing-trial","389","1323955","0.0-11.0-354.0","","","","false","","","","","","","","","","427.10000002384186","","370.69999998807907","","3","0","arrowright","1","arrowright","[0.325,0.675,0.15,0.85]","","",""
"sailing-trial","390","1326214","0.0-11.0-355.0","","","","false","","","","","","","","","","null","","603.5","","1","1","null","null","arrowup","[0.325,0.675,0.15,0.85]","","",""
"sailing-trial","391","1328732","0.0-11.0-356.0","","","","false","","","","","","","","","","321.69999998807907","","164.10000002384186","","3","0","arrowright","1","arrowright","[0.325,0.675,0.15,0.85]","","",""
"sailing-trial","392","1331231","0.0-11.0-357.0","","","","false","","","","","","","","","","null","","931.3000000119209","","3","1","null","null","arrowup","[0.325,0.675,0.15,0.85]","","",""
"sailing-trial","393","1334482","0.0-11.0-358.0","","","","false","","","","","","","","","","119.5","","482.80000001192093","","3","1","arrowright","1","arrowright","[0.325,0.675,0.15,0.85]","","",""
"sailing-trial","394","1336730","0.0-11.0-359.0","","","","false","","","","","","","","","","null","","658","","0","1","null","null","arrowup","[0.325,0.675,0.15,0.85]","","",""
"sailing-trial","395","1339798","0.0-11.0-360.0","","","","false","","","","","","","","","","314","","192","","3","1","arrowright","1","arrowright","[0.325,0.675,0.15,0.85]","","",""
"sailing-trial","396","1342231","0.0-11.0-361.0","","","","false","","","","","","","","","","null","","874","","0","1","null","null","arrowup","[0.325,0.675,0.15,0.85]","","",""
"sailing-trial","397","1345464","0.0-11.0-362.0","","","","false","","","","","","","","","","323.69999998807907","","333","","3","1","arrowright","1","arrowright","[0.15,0.85,0.325,0.675]","","",""
"sailing-trial","398","1347302","0.0-11.0-363.0","","","","false","","","","","","","","","","null","","794","","3","0","null","null","arrowup","[0.15,0.85,0.325,0.675]","","",""
"sailing-trial","399","1350580","0.0-11.0-364.0","","","","false","","","","","","","","","","561.6999999880791","","192","","1","1","arrowleft","0","arrowright","[0.15,0.85,0.325,0.675]","","",""
"sailing-trial","400","1353071","0.0-11.0-365.0","","","","false","","","","","","","","","","null","","895.5999999642372","","0","0","null","null","arrowup","[0.15,0.85,0.325,0.675]","","",""
"sailing-trial","401","1355683","0.0-11.0-366.0","","","","false","","","","","","","","","","402.69999998807907","","170.69999998807907","","0","0","arrowleft","0","arrowleft","[0.15,0.85,0.325,0.675]","","",""
"sailing-trial","402","1357915","0.0-11.0-367.0","","","","false","","","","","","","","","","null","","654.8000000119209","","1","1","null","null","arrowup","[0.15,0.85,0.325,0.675]","","",""
"sailing-trial","403","1361563","0.0-11.0-368.0","","","","false","","","","","","","","","","416.5","","274.0999999642372","","1","1","arrowleft","0","arrowright","[0.15,0.85,0.325,0.675]","","",""
"sailing-trial","404","1363830","0.0-11.0-369.0","","","","false","","","","","","","","","","null","","661.8000000119209","","3","1","null","null","arrowup","[0.15,0.85,0.325,0.675]","","",""
"sailing-trial","405","1367131","0.0-11.0-370.0","","","","false","","","","","","","","","","367.60000002384186","","337.30000001192093","","1","1","arrowleft","0","arrowright","[0.15,0.85,0.325,0.675]","","",""
"sailing-trial","406","1369497","0.0-11.0-371.0","","","","false","","","","","","","","","","null","","624.6000000238419","","1","1","null","null","arrowup","[0.15,0.85,0.325,0.675]","","",""
"sailing-trial","407","1372205","0.0-11.0-372.0","","","","false","","","","","","","","","","418","","102.39999997615814","","0","0","arrowleft","0","arrowleft","[0.15,0.85,0.325,0.675]","","",""
"sailing-trial","408","1374015","0.0-11.0-373.0","","","","false","","","","","","","","","","null","","710.0999999642372","","0","0","null","null","arrowup","[0.15,0.85,0.325,0.675]","","",""
"sailing-trial","409","1377046","0.0-11.0-374.0","","","","false","","","","","","","","","","738.3000000119209","","203.80000001192093","","2","0","arrowright","1","arrowleft","[0.15,0.85,0.325,0.675]","","",""
"sailing-trial","410","1379598","0.0-11.0-375.0","","","","false","","","","","","","","","","null","","608.2000000476837","","2","1","null","null","arrowup","[0.15,0.85,0.325,0.675]","","",""
"sailing-trial","411","1382470","0.0-11.0-376.0","","","","false","","","","","","","","","","468.7000000476837","","202.10000002384186","","3","0","arrowright","1","arrowright","[0.15,0.85,0.325,0.675]","","",""
"sailing-trial","412","1384735","0.0-11.0-377.0","","","","false","","","","","","","","","","null","","1097","","0","0","null","null","arrowup","[0.15,0.85,0.325,0.675]","","",""
"sailing-trial","413","1388598","0.0-11.0-378.0","","","","false","","","","","","","","","","497.10000002384186","","343.69999998807907","","0","1","arrowleft","0","arrowleft","[0.15,0.85,0.325,0.675]","","",""
"sailing-trial","414","1390902","0.0-11.0-379.0","","","","false","","","","","","","","","","null","","1307.300000011921","","3","0","null","null","arrowup","[0.15,0.85,0.325,0.675]","","",""
"sailing-trial","415","1394199","0.0-11.0-380.0","","","","false","","","","","","","","","","709.2000000476837","","3.400000035762787","","1","1","arrowleft","0","arrowright","[0.15,0.85,0.325,0.675]","","",""
"sailing-trial","416","1396447","0.0-11.0-381.0","","","","false","","","","","","","","","","null","","678.5","","1","1","null","null","arrowup","[0.15,0.85,0.325,0.675]","","",""
"sailing-trial","417","1399105","0.0-11.0-382.0","","","","false","","","","","","","","","","345.39999997615814","","247.69999998807907","","0","0","arrowleft","0","arrowleft","[0.325,0.675,0.15,0.85]","","",""
"sailing-trial","418","1401448","0.0-11.0-383.0","","","","false","","","","","","","","","","null","","756.9000000357628","","3","1","null","null","arrowup","[0.325,0.675,0.15,0.85]","","",""
"sailing-trial","419","1404336","0.0-11.0-384.0","","","","false","","","","","","","","","","345.69999998807907","","361","","0","0","arrowleft","0","arrowleft","[0.325,0.675,0.15,0.85]","","",""
"sailing-trial","420","1406490","0.0-11.0-385.0","","","","false","","","","","","","","","","null","","666.6000000238419","","2","0","null","null","arrowup","[0.325,0.675,0.15,0.85]","","",""
"sailing-trial","421","1409196","0.0-11.0-386.0","","","","false","","","","","","","","","","382.39999997615814","","292.5","","1","0","arrowleft","0","arrowright","[0.325,0.675,0.15,0.85]","","",""
"sailing-trial","422","1412065","0.0-11.0-387.0","","","","false","","","","","","","","","","null","","818","","0","1","null","null","arrowup","[0.325,0.675,0.15,0.85]","","",""
"sailing-trial","423","1415147","0.0-11.0-388.0","","","","false","","","","","","","","","","344","","66.10000002384186","","2","1","arrowright","1","arrowleft","[0.325,0.675,0.15,0.85]","","",""
"sailing-trial","424","1417732","0.0-11.0-389.0","","","","false","","","","","","","","","","null","","787.8000000119209","","0","1","null","null","arrowup","[0.325,0.675,0.15,0.85]","","",""
"sailing-trial","425","1421098","0.0-11.0-390.0","","","","false","","","","","","","","","","401","","300.0999999642372","","2","1","arrowright","1","arrowleft","[0.325,0.675,0.15,0.85]","","",""
"sailing-trial","426","1423865","0.0-11.0-391.0","","","","false","","","","","","","","","","null","","606.5","","1","1","null","null","arrowup","[0.325,0.675,0.15,0.85]","","",""
"sailing-trial","427","1426681","0.0-11.0-392.0","","","","false","","","","","","","","","","389","","315.19999998807907","","2","0","arrowright","1","arrowleft","[0.325,0.675,0.15,0.85]","","",""
"sailing-trial","428","1429131","0.0-11.0-393.0","","","","false","","","","","","","","","","null","","740.8000000119209","","1","1","null","null","arrowup","[0.325,0.675,0.15,0.85]","","",""
"sailing-trial","429","1432948","0.0-11.0-394.0","","","","false","","","","","","","","","","744.6000000238419","","341.89999997615814","","1","1","arrowleft","0","arrowright","[0.325,0.675,0.15,0.85]","","",""
"sailing-trial","430","1435113","0.0-11.0-395.0","","","","false","","","","","","","","","","null","","1011.8999999761581","","0","0","null","null","arrowup","[0.325,0.675,0.15,0.85]","","",""
"sailing-trial","431","1437964","0.0-11.0-396.0","","","","false","","","","","","","","","","485.0999999642372","","288.60000002384186","","1","0","arrowleft","0","arrowright","[0.325,0.675,0.15,0.85]","","",""
"sailing-trial","432","1440220","0.0-11.0-397.0","","","","false","","","","","","","","","","null","","899.2000000476837","","0","0","null","null","arrowup","[0.325,0.675,0.15,0.85]","","",""
"sailing-trial","433","1443563","0.0-11.0-398.0","","","","false","","","","","","","","","","500.39999997615814","","237.9000000357628","","1","1","arrowleft","0","arrowright","[0.325,0.675,0.15,0.85]","","",""
"sailing-trial","434","1445814","0.0-11.0-399.0","","","","false","","","","","","","","","","null","","917.3000000119209","","3","0","null","null","arrowup","[0.325,0.675,0.15,0.85]","","",""
"instructions","435","1448827","0.0-12.0","","","","","","","","","","3012.5","","","","","","","","","","","","","","","","[{""page_index"":0,""viewing_time"":3011.899999976158}]"
"survey-debrief","436","1487299","0.0-13.0","","","","","","","","","","38470.30000001192","","","","","","","","","","","","","","{""difficulty"":""4"",""fun"":""3"",""clarity"":""4"",""strategy"":""I just went to each store, and if they gave me nothing twice in a row I would go to a different store."",""feedback"":""No""}","",""
