"trial_type","trial_index","time_elapsed","internal_node_id","value","metadata","success","timeout","failed_images","failed_audio","failed_video","browser_interaction","low_quality","rt","stimulus","response","button_pressed","island_rt","island_response","boat_rt","boat_response","boat","reward","island_key","island","boat_key","reward_probabilities","responses","num_errors","view_history"
"pavlovia","0","2","0.0-0.0","","","","","","","","","","","","","","","","","","","","","","","","","",""
"call-function","1","2","0.0-1.0","","{""task_version"":""sailing_part1_v1"",""task_condition"":""good"",""boats"":[""B"",""A"",""D"",""C""],""boats_demo"":[""E"",""F"",""H"",""G""],""islands"":[""A"",""B""],""subject_id"":""15163"",""age"":""21"",""gender"":""Male""}","","","","","","","","","","","","","","","","","","","","","","","",""
"preload","2","3349","0.0-2.0","","","true","false","[]","[]","[]","[{""event"":""fullscreenenter"",""trial"":3,""time"":5882}]","false","","","","","","","","","","","","","","","","",""
"fullscreen","3","6865","0.0-3.0","","","true","","","","","","","","","","","","","","","","","","","","","","",""
"audio-keyboard-response","4","8396","0.0-4.0-0.0","","","","","","","","","","821.3333333333334","audio/beep_loop.wav","audiovolumedown","","","","","","","","","","","","","",""
"audio-test","5","11422","0.0-4.0-1.0","","","","","","","","","","null","audio/turtle.mp3","","3","","","","","","","","","","","","",""
"audio-test","6","14087","0.0-4.0-2.0","","","","","","","","","","null","audio/shark.mp3","","2","","","","","","","","","","","","",""
"sailing-instructions","7","45827","0.0-5.0-0.0-0.0","","","","","","","","","","","","","","null","null","null","null","null","null","","","","","","",""
"sailing-trial","8","48597","0.0-5.0-0.0-1.0-0.0","","","","false","","","","","","","","","","1634.2999999970198","","null","","null","null","arrowleft","0","null","null","","",""
"sailing-trial","9","50277","0.0-5.0-0.0-1.0-1.0","","","","false","","","","","","","","","","559.9000000059605","","null","","null","null","arrowright","1","null","null","","",""
"sailing-trial","10","53081","0.0-5.0-0.0-1.0-2.0","","","","false","","","","","","","","","","1691.300000011921","","null","","null","null","arrowright","1","null","null","","",""
"sailing-instructions","11","92084","0.0-5.0-0.0-2.0","","","","","","","","","","","","","","null","null","null","null","0","null","","","","","","",""
"sailing-trial","12","96629","0.0-5.0-0.0-3.0-0.0","","","","false","","","","","","","","","","null","","1923.0999999940395","","2","1","null","null","arrowleft","[1,1,1,1]","","",""
"sailing-trial","13","100230","0.0-5.0-0.0-3.0-1.0","","","","false","","","","","","","","","","null","","1044.7999999970198","","3","1","null","null","arrowright","[1,1,1,1]","","",""
"sailing-trial","14","103811","0.0-5.0-0.0-3.0-2.0","","","","false","","","","","","","","","","null","","1159.5","","3","0","null","null","arrowright","[0,0,0,0]","","",""
"sailing-instructions","15","112346","0.0-5.0-0.0-4.0","","","","","","","","","","","","","","null","null","null","null","null","null","","","","","","",""
"sailing-comprehension","16","128395","0.0-5.0-0.0-5.0","","","","","","","","","","12432.89999999106","","","","","","","","","","","","","","[""true"",""true"",""false"",""true""]","0",""
"sailing-instructions","17","186413","0.0-6.0-0.0-0.0","","","","","","","","","","","","","","null","null","null","null","null","null","","","","","","",""
"sailing-comprehension","18","197472","0.0-6.0-0.0-1.0","","","","","","","","","","9135","","","","","","","","","","","","","","[""true"",""false"",""true""]","0",""
"sailing-instructions","19","210973","0.0-7.0-0.0-0.0","","","","","","","","","","","","","","null","null","null","null","null","null","","","","","","",""
"sailing-trial","20","215256","0.0-7.0-0.0-1.0-0.0","","","","false","","","","","","","","","","null","","2166.4000000059605","","0","0","null","null","arrowup","[0.2,0.8,0.2,0.8]","","",""
"sailing-trial","21","219003","0.0-7.0-0.0-1.0-1.0","","","","false","","","","","","","","","","null","","1790.699999988079","","1","0","null","null","arrowup","[0.2,0.8,0.2,0.8]","","",""
"sailing-trial","22","222082","0.0-7.0-0.0-1.0-2.0","","","","false","","","","","","","","","","null","","1193.4000000059605","","2","0","null","null","arrowup","[0.2,0.8,0.2,0.8]","","",""
"sailing-trial","23","224939","0.0-7.0-0.0-1.0-3.0","","","","false","","","","","","","","","","null","","1005.7999999970198","","3","1","null","null","arrowup","[0.2,0.8,0.2,0.8]","","",""
"sailing-comprehension","24","232917","0.0-7.0-0.0-2.0","","","","","","","","","","6604.4000000059605","","","","","","","","","","","","","","[""false""]","0",""
"sailing-instructions","25","243120","0.0-8.0-0.0-0.0","","","","","","","","","","","","","","null","null","null","null","null","null","","","","","","",""
"sailing-comprehension","26","248081","0.0-8.0-0.0-1.0","","","","","","","","","","3633","","","","","","","","","","","","","","[""true""]","0",""
"sailing-instructions","27","277306","0.0-9.0-0.0-0.0","","","","","","","","","","","","","","null","null","null","null","null","null","","","","","","",""
"sailing-trial","28","282086","0.0-9.0-0.0-1.0-0.0","","","","false","","","","","","","","","","1509.2999999970198","","329.79999999701977","","0","0","arrowleft","0","arrowleft","[0.2,0.8,0.2,0.8]","","",""
"sailing-trial","29","286070","0.0-9.0-0.0-1.0-1.0","","","","false","","","","","","","","","","815","","70.30000001192093","","1","1","arrowleft","0","arrowright","[0.2,0.8,0.2,0.8]","","",""
"sailing-trial","30","288645","0.0-9.0-0.0-1.0-2.0","","","","false","","","","","","","","","","null","","994.8000000119209","","0","0","null","null","arrowup","[0.2,0.8,0.2,0.8]","","",""
"sailing-trial","31","292120","0.0-9.0-0.0-1.0-3.0","","","","false","","","","","","","","","","807.5","","64.1000000089407","","1","0","arrowleft","0","arrowright","[0.2,0.8,0.2,0.8]","","",""
"sailing-trial","32","295237","0.0-9.0-0.0-1.0-4.0","","","","false","","","","","","","","","","null","","1039.7000000029802","","3","1","null","null","arrowup","[0.2,0.8,0.2,0.8]","","",""
"sailing-trial","33","298552","0.0-9.0-0.0-1.0-5.0","","","","false","","","","","","","","","","557","","336","","3","0","arrowright","1","arrowright","[0.2,0.8,0.2,0.8]","","",""
"sailing-instructions","34","337941","0.0-10.0","","","","","","","","","","","","","","null","null","null","null","null","null","","","","","","",""
"sailing-trial","35","342030","0.0-11.0-0.0","","","","false","","","","","","","","","","860.0999999940395","","76.29999999701977","","1","1","arrowleft","0","arrowright","[0.85,0.15,0.325,0.675]","","",""
"sailing-trial","36","344750","0.0-11.0-1.0","","","","false","","","","","","","","","","null","","709.8999999910593","","0","1","null","null","arrowup","[0.85,0.15,0.325,0.675]","","",""
"sailing-trial","37","348898","0.0-11.0-2.0","","","","false","","","","","","","","","","601.2000000029802","","41.19999998807907","","1","0","arrowleft","0","arrowright","[0.85,0.15,0.325,0.675]","","",""
"sailing-trial","38","351499","0.0-11.0-3.0","","","","false","","","","","","","","","","null","","1066.300000011921","","2","0","null","null","arrowup","[0.85,0.15,0.325,0.675]","","",""
"sailing-trial","39","354593","0.0-11.0-4.0","","","","false","","","","","","","","","","535.6000000089407","","269.79999999701977","","0","0","arrowleft","0","arrowleft","[0.85,0.15,0.325,0.675]","","",""
"sailing-trial","40","357082","0.0-11.0-5.0","","","","false","","","","","","","","","","null","","828.0999999940395","","2","0","null","null","arrowup","[0.85,0.15,0.325,0.675]","","",""
"sailing-trial","41","360683","0.0-11.0-6.0","","","","false","","","","","","","","","","504.30000001192093","","252","","2","1","arrowright","1","arrowleft","[0.85,0.15,0.325,0.675]","","",""
"sailing-trial","42","363100","0.0-11.0-7.0","","","","false","","","","","","","","","","null","","973.4000000059605","","2","0","null","null","arrowup","[0.85,0.15,0.325,0.675]","","",""
"sailing-trial","43","366281","0.0-11.0-8.0","","","","false","","","","","","","","","","558.7999999970198","","86.40000000596046","","2","0","arrowright","1","arrowleft","[0.85,0.15,0.325,0.675]","","",""
"sailing-trial","44","368984","0.0-11.0-9.0","","","","false","","","","","","","","","","null","","750.3000000119209","","1","1","null","null","arrowup","[0.85,0.15,0.325,0.675]","","",""
"sailing-trial","45","372247","0.0-11.0-10.0","","","","false","","","","","","","","","","535.7000000029802","","331.5","","3","0","arrowright","1","arrowright","[0.85,0.15,0.325,0.675]","","",""
"sailing-trial","46","374868","0.0-11.0-11.0","","","","false","","","","","","","","","","null","","770.4000000059605","","0","1","null","null","arrowup","[0.85,0.15,0.325,0.675]","","",""
"sailing-trial","47","378300","0.0-11.0-12.0","","","","false","","","","","","","","","","548.2000000029802","","91.59999999403954","","1","1","arrowleft","0","arrowright","[0.85,0.15,0.325,0.675]","","",""
"sailing-trial","48","380601","0.0-11.0-13.0","","","","false","","","","","","","","","","null","","659.2999999970198","","2","0","null","null","arrowup","[0.85,0.15,0.325,0.675]","","",""
"sailing-trial","49","383726","0.0-11.0-14.0","","","","false","","","","","","","","","","484.90000000596046","","38.79999999701977","","1","0","arrowleft","0","arrowright","[0.85,0.15,0.325,0.675]","","",""
"sailing-trial","50","385864","0.0-11.0-15.0","","","","false","","","","","","","","","","null","","732.7000000029802","","3","0","null","null","arrowup","[0.85,0.15,0.325,0.675]","","",""
"sailing-trial","51","389499","0.0-11.0-16.0","","","","false","","","","","","","","","","500.09999999403954","","311.70000000298023","","0","1","arrowleft","0","arrowleft","[0.85,0.15,0.325,0.675]","","",""
"sailing-trial","52","391668","0.0-11.0-17.0","","","","false","","","","","","","","","","null","","590.6000000089407","","2","0","null","null","arrowup","[0.85,0.15,0.325,0.675]","","",""
"sailing-trial","53","395250","0.0-11.0-18.0","","","","false","","","","","","","","","","557.1000000089407","","208.40000000596046","","0","1","arrowleft","0","arrowleft","[0.85,0.15,0.325,0.675]","","",""
"sailing-trial","54","397850","0.0-11.0-19.0","","","","false","","","","","","","","","","null","","719.8999999910593","","0","1","null","null","arrowup","[0.85,0.15,0.325,0.675]","","",""
"sailing-trial","55","401966","0.0-11.0-20.0","","","","false","","","","","","","","","","457.70000000298023","","866.5999999940395","","0","1","arrowleft","0","arrowleft","[0.85,0.15,0.325,0.675]","","",""
"sailing-trial","56","404316","0.0-11.0-21.0","","","","false","","","","","","","","","","null","","537.0999999940395","","0","1","null","null","arrowup","[0.85,0.15,0.325,0.675]","","",""
"sailing-trial","57","407849","0.0-11.0-22.0","","","","false","","","","","","","","","","510.59999999403954","","203.59999999403954","","0","1","arrowleft","0","arrowleft","[0.85,0.15,0.325,0.675]","","",""
"sailing-trial","58","410598","0.0-11.0-23.0","","","","false","","","","","","","","","","null","","940","","0","1","null","null","arrowup","[0.85,0.15,0.325,0.675]","","",""
"sailing-trial","59","414065","0.0-11.0-24.0","","","","false","","","","","","","","","","516.4000000059605","","164.5","","0","1","arrowleft","0","arrowleft","[0.675,0.325,0.15,0.85]","","",""
"sailing-trial","60","416092","0.0-11.0-25.0","","","","false","","","","","","","","","","null","","658.7000000029802","","1","0","null","null","arrowup","[0.675,0.325,0.15,0.85]","","",""
"sailing-trial","61","419284","0.0-11.0-26.0","","","","false","","","","","","","","","","669.2999999970198","","206.79999999701977","","0","0","arrowleft","0","arrowleft","[0.675,0.325,0.15,0.85]","","",""
"sailing-trial","62","422048","0.0-11.0-27.0","","","","false","","","","","","","","","","null","","910.2000000029802","","0","1","null","null","arrowup","[0.675,0.325,0.15,0.85]","","",""
"sailing-trial","63","425147","0.0-11.0-28.0","","","","false","","","","","","","","","","576.4000000059605","","161.90000000596046","","0","0","arrowleft","0","arrowleft","[0.675,0.325,0.15,0.85]","","",""
"sailing-trial","64","427649","0.0-11.0-29.0","","","","false","","","","","","","","","","null","","622.4000000059605","","0","1","null","null","arrowup","[0.675,0.325,0.15,0.85]","","",""
"sailing-trial","65","431714","0.0-11.0-30.0","","","","false","","","","","","","","","","865.5","","487.5","","0","1","arrowleft","0","arrowleft","[0.675,0.325,0.15,0.85]","","",""
"sailing-trial","66","434214","0.0-11.0-31.0","","","","false","","","","","","","","","","null","","594.2999999970198","","3","1","null","null","arrowup","[0.675,0.325,0.15,0.85]","","",""
"sailing-trial","67","437580","0.0-11.0-32.0","","","","false","","","","","","","","","","464.79999999701977","","30.100000008940697","","3","1","arrowright","1","arrowright","[0.675,0.325,0.15,0.85]","","",""
"sailing-trial","68","439724","0.0-11.0-33.0","","","","false","","","","","","","","","","null","","854","","1","0","null","null","arrowup","[0.675,0.325,0.15,0.85]","","",""
"sailing-trial","69","443429","0.0-11.0-34.0","","","","false","","","","","","","","","","473.40000000596046","","250.29999999701977","","3","1","arrowright","1","arrowright","[0.675,0.325,0.15,0.85]","","",""
"sailing-trial","70","445781","0.0-11.0-35.0","","","","false","","","","","","","","","","null","","558.5","","3","1","null","null","arrowup","[0.675,0.325,0.15,0.85]","","",""
"sailing-trial","71","449313","0.0-11.0-36.0","","","","false","","","","","","","","","","507.29999999701977","","284.90000000596046","","3","1","arrowright","1","arrowright","[0.675,0.325,0.15,0.85]","","",""
"sailing-trial","72","451378","0.0-11.0-37.0","","","","false","","","","","","","","","","null","","704.7999999970198","","2","0","null","null","arrowup","[0.675,0.325,0.15,0.85]","","",""
"sailing-trial","73","454597","0.0-11.0-38.0","","","","false","","","","","","","","","","472.5","","269.5","","3","0","arrowright","1","arrowright","[0.675,0.325,0.15,0.85]","","",""
"sailing-trial","74","457163","0.0-11.0-39.0","","","","false","","","","","","","","","","null","","745.5999999940395","","3","1","null","null","arrowup","[0.675,0.325,0.15,0.85]","","",""
"sailing-trial","75","460546","0.0-11.0-40.0","","","","false","","","","","","","","","","468","","126.6000000089407","","3","1","arrowright","1","arrowright","[0.675,0.325,0.15,0.85]","","",""
"sailing-trial","76","463046","0.0-11.0-41.0","","","","false","","","","","","","","","","null","","722.8000000119209","","0","1","null","null","arrowup","[0.675,0.325,0.15,0.85]","","",""
"sailing-trial","77","466333","0.0-11.0-42.0","","","","false","","","","","","","","","","514.8999999910593","","318.20000000298023","","3","0","arrowright","1","arrowright","[0.85,0.15,0.325,0.675]","","",""
"sailing-trial","78","468728","0.0-11.0-43.0","","","","false","","","","","","","","","","null","","578.2000000029802","","0","1","null","null","arrowup","[0.85,0.15,0.325,0.675]","","",""
"sailing-trial","79","471708","0.0-11.0-44.0","","","","false","","","","","","","","","","392.40000000596046","","341.29999999701977","","0","0","arrowleft","0","arrowleft","[0.85,0.15,0.325,0.675]","","",""
"sailing-trial","80","474094","0.0-11.0-45.0","","","","false","","","","","","","","","","null","","549.0999999940395","","2","1","null","null","arrowup","[0.85,0.15,0.325,0.675]","","",""
"sailing-trial","81","477052","0.0-11.0-46.0","","","","false","","","","","","","","","","395.1000000089407","","174.29999999701977","","2","0","arrowright","1","arrowleft","[0.85,0.15,0.325,0.675]","","",""
"sailing-trial","82","479087","0.0-11.0-47.0","","","","false","","","","","","","","","","null","","549.8999999910593","","1","0","null","null","arrowup","[0.85,0.15,0.325,0.675]","","",""
"sailing-trial","83","482863","0.0-11.0-48.0","","","","false","","","","","","","","","","457.5","","567.8000000119209","","3","1","arrowright","1","arrowright","[0.85,0.15,0.325,0.675]","","",""
"sailing-trial","84","484777","0.0-11.0-49.0","","","","false","","","","","","","","","","null","","559.9000000059605","","1","0","null","null","arrowup","[0.85,0.15,0.325,0.675]","","",""
"sailing-trial","85","487900","0.0-11.0-50.0","","","","false","","","","","","","","","","454.8999999910593","","324.79999999701977","","3","0","arrowright","1","arrowright","[0.85,0.15,0.325,0.675]","","",""
"sailing-trial","86","490361","0.0-11.0-51.0","","","","false","","","","","","","","","","null","","622.6999999880791","","0","1","null","null","arrowup","[0.85,0.15,0.325,0.675]","","",""
"sailing-trial","87","493283","0.0-11.0-52.0","","","","false","","","","","","","","","","385.79999999701977","","271.69999998807907","","0","0","arrowleft","0","arrowleft","[0.85,0.15,0.325,0.675]","","",""
"sailing-trial","88","495693","0.0-11.0-53.0","","","","false","","","","","","","","","","null","","601","","1","1","null","null","arrowup","[0.85,0.15,0.325,0.675]","","",""
"sailing-trial","89","498830","0.0-11.0-54.0","","","","false","","","","","","","","","","438.79999999701977","","317.09999999403954","","1","0","arrowleft","0","arrowright","[0.85,0.15,0.325,0.675]","","",""
"sailing-trial","90","501161","0.0-11.0-55.0","","","","false","","","","","","","","","","null","","569","","2","1","null","null","arrowup","[0.85,0.15,0.325,0.675]","","",""
"sailing-trial","91","504711","0.0-11.0-56.0","","","","false","","","","","","","","","","484.79999999701977","","280.29999999701977","","2","1","arrowright","1","arrowleft","[0.85,0.15,0.325,0.675]","","",""
"sailing-trial","92","506868","0.0-11.0-57.0","","","","false","","","","","","","","","","null","","792.3999999910593","","2","0","null","null","arrowup","[0.85,0.15,0.325,0.675]","","",""
"sailing-trial","93","509846","0.0-11.0-58.0","","","","false","","","","","","","","","","470.79999999701977","","270.20000000298023","","2","0","arrowright","1","arrowleft","[0.85,0.15,0.325,0.675]","","",""
"sailing-trial","94","512126","0.0-11.0-59.0","","","","false","","","","","","","","","","null","","897","","1","0","null","null","arrowup","[0.85,0.15,0.325,0.675]","","",""
"sailing-trial","95","515181","0.0-11.0-60.0","","","","false","","","","","","","","","","532.2999999970198","","105.69999998807907","","1","0","arrowleft","0","arrowright","[0.325,0.675,0.85,0.15]","","",""
"sailing-trial","96","517413","0.0-11.0-61.0","","","","false","","","","","","","","","","null","","827.0999999940395","","3","0","null","null","arrowup","[0.325,0.675,0.85,0.15]","","",""
"sailing-trial","97","521248","0.0-11.0-62.0","","","","false","","","","","","","","","","583.7999999970198","","331.3999999910593","","0","1","arrowleft","0","arrowleft","[0.325,0.675,0.85,0.15]","","",""
"sailing-trial","98","523226","0.0-11.0-63.0","","","","false","","","","","","","","","","null","","89.79999999701977","","2","1","null","null","arrowup","[0.325,0.675,0.85,0.15]","","",""
"sailing-trial","99","526080","0.0-11.0-64.0","","","","false","","","","","","","","","","466.6000000089407","","35","","0","0","arrowleft","0","arrowleft","[0.325,0.675,0.85,0.15]","","",""
"sailing-trial","100","528478","0.0-11.0-65.0","","","","false","","","","","","","","","","null","","594.7000000029802","","2","1","null","null","arrowup","[0.325,0.675,0.85,0.15]","","",""
"sailing-trial","101","531825","0.0-11.0-66.0","","","","false","","","","","","","","","","338","","174.70000000298023","","2","1","arrowright","1","arrowleft","[0.325,0.675,0.85,0.15]","","",""
"sailing-trial","102","534172","0.0-11.0-67.0","","","","false","","","","","","","","","","null","","1089.5999999940395","","1","0","null","null","arrowup","[0.325,0.675,0.85,0.15]","","",""
"sailing-trial","103","537203","0.0-11.0-68.0","","","","false","","","","","","","","","","455.20000000298023","","316","","2","0","arrowright","1","arrowleft","[0.325,0.675,0.85,0.15]","","",""
"sailing-trial","104","539276","0.0-11.0-69.0","","","","false","","","","","","","","","","null","","755.3999999910593","","1","0","null","null","arrowup","[0.325,0.675,0.85,0.15]","","",""
"sailing-trial","105","542809","0.0-11.0-70.0","","","","false","","","","","","","","","","490.5","","177.79999999701977","","2","1","arrowright","1","arrowleft","[0.325,0.675,0.85,0.15]","","",""
"sailing-trial","106","545325","0.0-11.0-71.0","","","","false","","","","","","","","","","null","","724.2999999970198","","0","1","null","null","arrowup","[0.325,0.675,0.85,0.15]","","",""
"sailing-trial","107","548759","0.0-11.0-72.0","","","","false","","","","","","","","","","401.19999998807907","","276","","2","1","arrowright","1","arrowleft","[0.325,0.675,0.85,0.15]","","",""
"sailing-trial","108","550698","0.0-11.0-73.0","","","","false","","","","","","","","","","null","","599.7000000029802","","3","0","null","null","arrowup","[0.325,0.675,0.85,0.15]","","",""
"sailing-trial","109","554075","0.0-11.0-74.0","","","","false","","","","","","","","","","387.30000001192093","","309.3999999910593","","2","1","arrowright","1","arrowleft","[0.325,0.675,0.85,0.15]","","",""
"sailing-trial","110","556934","0.0-11.0-75.0","","","","false","","","","","","","","","","null","","681.2000000029802","","3","0","null","null","arrowup","[0.325,0.675,0.85,0.15]","","",""
"sailing-trial","111","559731","0.0-11.0-76.0","","","","false","","","","","","","","","","408.5","","36.29999999701977","","2","0","arrowright","1","arrowleft","[0.325,0.675,0.85,0.15]","","",""
"sailing-trial","112","562059","0.0-11.0-77.0","","","","false","","","","","","","","","","null","","520.2000000029802","","1","1","null","null","arrowup","[0.325,0.675,0.85,0.15]","","",""
"sailing-trial","113","565187","0.0-11.0-78.0","","","","false","","","","","","","","","","488.40000000596046","","39.29999999701977","","1","0","arrowleft","0","arrowright","[0.325,0.675,0.85,0.15]","","",""
"sailing-trial","114","567775","0.0-11.0-79.0","","","","false","","","","","","","","","","null","","811.7999999970198","","1","1","null","null","arrowup","[0.325,0.675,0.85,0.15]","","",""
"sailing-trial","115","571262","0.0-11.0-80.0","","","","false","","","","","","","","","","711.7999999970198","","284.09999999403954","","1","0","arrowleft","0","arrowright","[0.675,0.325,0.15,0.85]","","",""
"sailing-trial","116","574259","0.0-11.0-81.0","","","","false","","","","","","","","","","null","","1234.7000000029802","","0","1","null","null","arrowup","[0.675,0.325,0.15,0.85]","","",""
"sailing-trial","117","577188","0.0-11.0-82.0","","","","false","","","","","","","","","","406","","32.5","","0","0","arrowleft","0","arrowleft","[0.675,0.325,0.15,0.85]","","",""
"sailing-trial","118","581042","0.0-11.0-83.0","","","","false","","","","","","","","","","null","","2117.7000000029802","","1","1","null","null","arrowup","[0.675,0.325,0.15,0.85]","","",""
"sailing-trial","119","583978","0.0-11.0-84.0","","","","false","","","","","","","","","","372.70000000298023","","260.70000000298023","","2","0","arrowright","1","arrowleft","[0.675,0.325,0.15,0.85]","","",""
"sailing-trial","120","585801","0.0-11.0-85.0","","","","false","","","","","","","","","","null","","584.0999999940395","","0","0","null","null","arrowup","[0.675,0.325,0.15,0.85]","","",""
"sailing-trial","121","589339","0.0-11.0-86.0","","","","false","","","","","","","","","","516.5","","278.1000000089407","","1","1","arrowleft","0","arrowright","[0.675,0.325,0.15,0.85]","","",""
"sailing-trial","122","591940","0.0-11.0-87.0","","","","false","","","","","","","","","","null","","830.8000000119209","","3","1","null","null","arrowup","[0.675,0.325,0.15,0.85]","","",""
"sailing-trial","123","594735","0.0-11.0-88.0","","","","false","","","","","","","","","","493.20000000298023","","1.7999999970197678","","1","0","arrowleft","0","arrowright","[0.675,0.325,0.15,0.85]","","",""
"sailing-trial","124","597034","0.0-11.0-89.0","","","","false","","","","","","","","","","null","","842.7000000029802","","1","0","null","null","arrowup","[0.675,0.325,0.15,0.85]","","",""
"sailing-trial","125","600222","0.0-11.0-90.0","","","","false","","","","","","","","","","245.20000000298023","","252.1000000089407","","3","1","arrowright","1","arrowright","[0.675,0.325,0.15,0.85]","","",""
"sailing-trial","126","602024","0.0-11.0-91.0","","","","false","","","","","","","","","","null","","522","","2","0","null","null","arrowup","[0.675,0.325,0.15,0.85]","","",""
"sailing-trial","127","605147","0.0-11.0-92.0","","","","false","","","","","","","","","","477.5","","292","","3","0","arrowright","1","arrowright","[0.675,0.325,0.15,0.85]","","",""
"sailing-trial","128","607238","0.0-11.0-93.0","","","","false","","","","","","","","","","null","","752.4000000059605","","1","0","null","null","arrowup","[0.675,0.325,0.15,0.85]","","",""
"sailing-trial","129","610805","0.0-11.0-94.0","","","","false","","","","","","","","","","370.80000001192093","","431.20000000298023","","0","1","arrowleft","0","arrowleft","[0.675,0.325,0.15,0.85]","","",""
"sailing-trial","130","613106","0.0-11.0-95.0","","","","false","","","","","","","","","","null","","483.8999999910593","","0","1","null","null","arrowup","[0.675,0.325,0.15,0.85]","","",""
"sailing-trial","131","616288","0.0-11.0-96.0","","","","false","","","","","","","","","","372.5","","217","","0","1","arrowleft","0","arrowleft","[0.675,0.325,0.15,0.85]","","",""
"sailing-trial","132","618399","0.0-11.0-97.0","","","","false","","","","","","","","","","null","","873.6000000089407","","0","0","null","null","arrowup","[0.675,0.325,0.15,0.85]","","",""
"sailing-trial","133","621671","0.0-11.0-98.0","","","","false","","","","","","","","","","377.70000000298023","","165.59999999403954","","0","1","arrowleft","0","arrowleft","[0.675,0.325,0.15,0.85]","","",""
"sailing-trial","134","623805","0.0-11.0-99.0","","","","false","","","","","","","","","","null","","366.20000000298023","","0","1","null","null","arrowup","[0.675,0.325,0.15,0.85]","","",""
"sailing-trial","135","626904","0.0-11.0-100.0","","","","false","","","","","","","","","","293.80000001192093","","18.299999997019768","","0","1","arrowleft","0","arrowleft","[0.85,0.15,0.325,0.675]","","",""
"sailing-trial","136","629289","0.0-11.0-101.0","","","","false","","","","","","","","","","null","","793.3999999910593","","0","1","null","null","arrowup","[0.85,0.15,0.325,0.675]","","",""
"sailing-trial","137","632588","0.0-11.0-102.0","","","","false","","","","","","","","","","386.8999999910593","","22.599999994039536","","0","1","arrowleft","0","arrowleft","[0.85,0.15,0.325,0.675]","","",""
"sailing-trial","138","635540","0.0-11.0-103.0","","","","false","","","","","","","","","","null","","944.7000000029802","","2","0","null","null","arrowup","[0.85,0.15,0.325,0.675]","","",""
"sailing-trial","139","638771","0.0-11.0-104.0","","","","false","","","","","","","","","","469.29999999701977","","13.599999994039536","","0","1","arrowleft","0","arrowleft","[0.85,0.15,0.325,0.675]","","",""
"sailing-trial","140","641265","0.0-11.0-105.0","","","","false","","","","","","","","","","null","","693.7999999970198","","0","1","null","null","arrowup","[0.85,0.15,0.325,0.675]","","",""
"sailing-trial","141","644571","0.0-11.0-106.0","","","","false","","","","","","","","","","425.79999999701977","","143.90000000596046","","0","1","arrowleft","0","arrowleft","[0.85,0.15,0.325,0.675]","","",""
"sailing-trial","142","646470","0.0-11.0-107.0","","","","false","","","","","","","","","","null","","578.2000000029802","","2","0","null","null","arrowup","[0.85,0.15,0.325,0.675]","","",""
"sailing-trial","143","649803","0.0-11.0-108.0","","","","false","","","","","","","","","","324.6000000089407","","251.79999999701977","","0","1","arrowleft","0","arrowleft","[0.85,0.15,0.325,0.675]","","",""
"sailing-trial","144","651775","0.0-11.0-109.0","","","","false","","","","","","","","","","null","","726.2999999970198","","1","0","null","null","arrowup","[0.85,0.15,0.325,0.675]","","",""
"sailing-trial","145","655202","0.0-11.0-110.0","","","","false","","","","","","","","","","419.3999999910593","","270.09999999403954","","0","1","arrowleft","0","arrowleft","[0.85,0.15,0.325,0.675]","","",""
"sailing-trial","146","657357","0.0-11.0-111.0","","","","false","","","","","","","","","","null","","884.5","","3","0","null","null","arrowup","[0.85,0.15,0.325,0.675]","","",""
"sailing-trial","147","659992","0.0-11.0-112.0","","","","false","","","","","","","","","","322.79999999701977","","59.099999994039536","","0","0","arrowleft","0","arrowleft","[0.85,0.15,0.325,0.675]","","",""
"sailing-trial","148","662619","0.0-11.0-113.0","","","","false","","","","","","","","","","null","","754.7999999970198","","0","1","null","null","arrowup","[0.85,0.15,0.325,0.675]","","",""
"sailing-trial","149","665835","0.0-11.0-114.0","","","","false","","","","","","","","","","309.29999999701977","","39.5","","0","1","arrowleft","0","arrowleft","[0.85,0.15,0.325,0.675]","","",""
"sailing-trial","150","668657","0.0-11.0-115.0","","","","false","","","","","","","","","","null","","781.6000000089407","","2","0","null","null","arrowup","[0.85,0.15,0.325,0.675]","","",""
"sailing-trial","151","672236","0.0-11.0-116.0","","","","false","","","","","","","","","","493.90000000596046","","280.80000001192093","","0","1","arrowleft","0","arrowleft","[0.85,0.15,0.325,0.675]","","",""
"sailing-trial","152","674818","0.0-11.0-117.0","","","","false","","","","","","","","","","null","","832.5","","1","1","null","null","arrowup","[0.85,0.15,0.325,0.675]","","",""
"sailing-trial","153","678185","0.0-11.0-118.0","","","","false","","","","","","","","","","392","","164.59999999403954","","0","1","arrowleft","0","arrowleft","[0.85,0.15,0.325,0.675]","","",""
"sailing-trial","154","680747","0.0-11.0-119.0","","","","false","","","","","","","","","","null","","762.6000000089407","","2","0","null","null","arrowup","[0.85,0.15,0.325,0.675]","","",""
"sailing-trial","155","683869","0.0-11.0-120.0","","","","false","","","","","","","","","","360.90000000596046","","13.700000002980232","","0","1","arrowleft","0","arrowleft","[0.85,0.15,0.325,0.675]","","",""
"sailing-trial","156","686370","0.0-11.0-121.0","","","","false","","","","","","","","","","null","","725.1000000089407","","0","1","null","null","arrowup","[0.85,0.15,0.325,0.675]","","",""
"sailing-trial","157","689483","0.0-11.0-122.0","","","","false","","","","","","","","","","340.59999999403954","","4.200000002980232","","0","1","arrowleft","0","arrowleft","[0.675,0.325,0.15,0.85]","","",""
"sailing-trial","158","691208","0.0-11.0-123.0","","","","false","","","","","","","","","","null","","504","","0","0","null","null","arrowup","[0.675,0.325,0.15,0.85]","","",""
"sailing-trial","159","694516","0.0-11.0-124.0","","","","false","","","","","","","","","","382.20000000298023","","136.6000000089407","","0","1","arrowleft","0","arrowleft","[0.675,0.325,0.15,0.85]","","",""
"sailing-trial","160","697034","0.0-11.0-125.0","","","","false","","","","","","","","","","null","","638.7000000029802","","0","1","null","null","arrowup","[0.675,0.325,0.15,0.85]","","",""
"sailing-trial","161","699777","0.0-11.0-126.0","","","","false","","","","","","","","","","350.79999999701977","","139.1000000089407","","0","0","arrowleft","0","arrowleft","[0.675,0.325,0.15,0.85]","","",""
"sailing-trial","162","702135","0.0-11.0-127.0","","","","false","","","","","","","","","","null","","596.7000000029802","","0","1","null","null","arrowup","[0.675,0.325,0.15,0.85]","","",""
"sailing-trial","163","705433","0.0-11.0-128.0","","","","false","","","","","","","","","","284.70000000298023","","270.3999999910593","","0","1","arrowleft","0","arrowleft","[0.675,0.325,0.15,0.85]","","",""
"sailing-trial","164","707352","0.0-11.0-129.0","","","","false","","","","","","","","","","null","","886.7000000029802","","1","0","null","null","arrowup","[0.675,0.325,0.15,0.85]","","",""
"sailing-trial","165","710104","0.0-11.0-130.0","","","","false","","","","","","","","","","403.90000000596046","","133","","0","0","arrowleft","0","arrowleft","[0.675,0.325,0.15,0.85]","","",""
"sailing-trial","166","711896","0.0-11.0-131.0","","","","false","","","","","","","","","","null","","554.7999999970198","","1","0","null","null","arrowup","[0.675,0.325,0.15,0.85]","","",""
"sailing-trial","167","715050","0.0-11.0-132.0","","","","false","","","","","","","","","","317.6000000089407","","28.299999997019768","","0","1","arrowleft","0","arrowleft","[0.675,0.325,0.15,0.85]","","",""
"sailing-trial","168","716996","0.0-11.0-133.0","","","","false","","","","","","","","","","null","","633.9000000059605","","2","0","null","null","arrowup","[0.675,0.325,0.15,0.85]","","",""
"sailing-trial","169","720116","0.0-11.0-134.0","","","","false","","","","","","","","","","358.09999999403954","","84.3999999910593","","0","1","arrowleft","0","arrowleft","[0.675,0.325,0.15,0.85]","","",""
"sailing-trial","170","722750","0.0-11.0-135.0","","","","false","","","","","","","","","","null","","883.5","","3","1","null","null","arrowup","[0.675,0.325,0.15,0.85]","","",""
"sailing-trial","171","725735","0.0-11.0-136.0","","","","false","","","","","","","","","","292.20000000298023","","81.6000000089407","","0","1","arrowleft","0","arrowleft","[0.675,0.325,0.15,0.85]","","",""
"sailing-trial","172","728367","0.0-11.0-137.0","","","","false","","","","","","","","","","null","","870.5999999940395","","0","1","null","null","arrowup","[0.675,0.325,0.15,0.85]","","",""
"sailing-trial","173","731667","0.0-11.0-138.0","","","","false","","","","","","","","","","483.79999999701977","","50.8999999910593","","0","1","arrowleft","0","arrowleft","[0.675,0.325,0.15,0.85]","","",""
"sailing-trial","174","735266","0.0-11.0-139.0","","","","false","","","","","","","","","","null","","1772.2000000029802","","0","1","null","null","arrowup","[0.675,0.325,0.15,0.85]","","",""
"sailing-trial","175","738680","0.0-11.0-140.0","","","","false","","","","","","","","","","413.40000000596046","","406.69999998807907","","0","0","arrowleft","0","arrowleft","[0.325,0.675,0.85,0.15]","","",""
"sailing-trial","176","740347","0.0-11.0-141.0","","","","false","","","","","","","","","","null","","401.20000000298023","","0","0","null","null","arrowup","[0.325,0.675,0.85,0.15]","","",""
"sailing-trial","177","743350","0.0-11.0-142.0","","","","false","","","","","","","","","","374","","389.40000000596046","","3","0","arrowright","1","arrowright","[0.325,0.675,0.85,0.15]","","",""
"sailing-trial","178","745336","0.0-11.0-143.0","","","","false","","","","","","","","","","null","","676.8000000119209","","3","0","null","null","arrowup","[0.325,0.675,0.85,0.15]","","",""
"sailing-trial","179","749115","0.0-11.0-144.0","","","","false","","","","","","","","","","542.2999999970198","","179.30000001192093","","2","1","arrowright","1","arrowleft","[0.325,0.675,0.85,0.15]","","",""
"sailing-trial","180","751415","0.0-11.0-145.0","","","","false","","","","","","","","","","null","","524.8999999910593","","2","1","null","null","arrowup","[0.325,0.675,0.85,0.15]","","",""
"sailing-trial","181","754564","0.0-11.0-146.0","","","","false","","","","","","","","","","54.900000005960464","","263.29999999701977","","2","1","arrowright","1","arrowleft","[0.325,0.675,0.85,0.15]","","",""
"sailing-trial","182","756412","0.0-11.0-147.0","","","","false","","","","","","","","","","null","","590.2999999970198","","3","0","null","null","arrowup","[0.325,0.675,0.85,0.15]","","",""
"sailing-trial","183","759682","0.0-11.0-148.0","","","","false","","","","","","","","","","380.59999999403954","","135.5","","2","1","arrowright","1","arrowleft","[0.325,0.675,0.85,0.15]","","",""
"sailing-trial","184","762250","0.0-11.0-149.0","","","","false","","","","","","","","","","null","","786","","3","1","null","null","arrowup","[0.325,0.675,0.85,0.15]","","",""
"sailing-trial","185","765332","0.0-11.0-150.0","","","","false","","","","","","","","","","330.79999999701977","","92.19999998807907","","2","1","arrowright","1","arrowleft","[0.325,0.675,0.85,0.15]","","",""
"sailing-trial","186","767348","0.0-11.0-151.0","","","","false","","","","","","","","","","null","","743.7000000029802","","1","0","null","null","arrowup","[0.325,0.675,0.85,0.15]","","",""
"sailing-trial","187","770565","0.0-11.0-152.0","","","","false","","","","","","","","","","391.5","","166","","2","1","arrowright","1","arrowleft","[0.325,0.675,0.85,0.15]","","",""
"sailing-trial","188","773165","0.0-11.0-153.0","","","","false","","","","","","","","","","null","","846.9000000059605","","3","1","null","null","arrowup","[0.325,0.675,0.85,0.15]","","",""
"sailing-trial","189","776729","0.0-11.0-154.0","","","","false","","","","","","","","","","506.5","","285.19999998807907","","2","1","arrowright","1","arrowleft","[0.325,0.675,0.85,0.15]","","",""
"sailing-trial","190","778739","0.0-11.0-155.0","","","","false","","","","","","","","","","null","","763.3000000119209","","1","0","null","null","arrowup","[0.325,0.675,0.85,0.15]","","",""
"sailing-trial","191","781547","0.0-11.0-156.0","","","","false","","","","","","","","","","481.8999999910593","","122.3999999910593","","2","0","arrowright","1","arrowleft","[0.15,0.85,0.675,0.325]","","",""
"sailing-trial","192","784180","0.0-11.0-157.0","","","","false","","","","","","","","","","null","","890.5","","2","1","null","null","arrowup","[0.15,0.85,0.675,0.325]","","",""
"sailing-trial","193","787125","0.0-11.0-158.0","","","","false","","","","","","","","","","502.6000000089407","","245.09999999403954","","2","0","arrowright","1","arrowleft","[0.15,0.85,0.675,0.325]","","",""
"sailing-trial","194","788963","0.0-11.0-159.0","","","","false","","","","","","","","","","null","","580.3999999910593","","2","0","null","null","arrowup","[0.15,0.85,0.675,0.325]","","",""
"sailing-trial","195","792348","0.0-11.0-160.0","","","","false","","","","","","","","","","425.30000001192093","","193.79999999701977","","1","1","arrowleft","0","arrowright","[0.15,0.85,0.675,0.325]","","",""
"sailing-trial","196","794370","0.0-11.0-161.0","","","","false","","","","","","","","","","null","","754.5","","2","0","null","null","arrowup","[0.15,0.85,0.675,0.325]","","",""
"sailing-trial","197","797746","0.0-11.0-162.0","","","","false","","","","","","","","","","451.09999999403954","","243","","1","1","arrowleft","0","arrowright","[0.15,0.85,0.675,0.325]","","",""
"sailing-trial","198","799956","0.0-11.0-163.0","","","","false","","","","","","","","","","null","","998.1000000089407","","0","0","null","null","arrowup","[0.15,0.85,0.675,0.325]","","",""
"sailing-trial","199","803218","0.0-11.0-164.0","","","","false","","","","","","","","","","437.5","","276.90000000596046","","1","1","arrowleft","0","arrowright","[0.15,0.85,0.675,0.325]","","",""
"sailing-trial","200","805480","0.0-11.0-165.0","","","","false","","","","","","","","","","null","","599.9000000059605","","3","1","null","null","arrowup","[0.15,0.85,0.675,0.325]","","",""
"sailing-trial","201","808678","0.0-11.0-166.0","","","","false","","","","","","","","","","361.69999998807907","","150.30000001192093","","1","1","arrowleft","0","arrowright","[0.15,0.85,0.675,0.325]","","",""
"sailing-trial","202","811029","0.0-11.0-167.0","","","","false","","","","","","","","","","null","","632.5","","3","1","null","null","arrowup","[0.15,0.85,0.675,0.325]","","",""
"sailing-trial","203","814261","0.0-11.0-168.0","","","","false","","","","","","","","","","283.3999999910593","","179.3999999910593","","1","1","arrowleft","0","arrowright","[0.15,0.85,0.675,0.325]","","",""
"sailing-trial","204","816193","0.0-11.0-169.0","","","","false","","","","","","","","","","null","","762.6000000089407","","3","0","null","null","arrowup","[0.15,0.85,0.675,0.325]","","",""
"sailing-trial","205","819596","0.0-11.0-170.0","","","","false","","","","","","","","","","486.79999999701977","","121.40000000596046","","1","1","arrowleft","0","arrowright","[0.15,0.85,0.675,0.325]","","",""
"sailing-trial","206","821479","0.0-11.0-171.0","","","","false","","","","","","","","","","null","","630.0999999940395","","3","0","null","null","arrowup","[0.15,0.85,0.675,0.325]","","",""
"sailing-trial","207","824979","0.0-11.0-172.0","","","","false","","","","","","","","","","266.70000000298023","","323.30000001192093","","1","1","arrowleft","0","arrowright","[0.15,0.85,0.675,0.325]","","",""
"sailing-trial","208","827977","0.0-11.0-173.0","","","","false","","","","","","","","","","null","","808.2999999970198","","3","1","null","null","arrowup","[0.15,0.85,0.675,0.325]","","",""
"sailing-trial","209","830729","0.0-11.0-174.0","","","","false","","","","","","","","","","229.59999999403954","","238.8999999910593","","1","0","arrowleft","0","arrowright","[0.325,0.675,0.85,0.15]","","",""
"sailing-trial","210","833061","0.0-11.0-175.0","","","","false","","","","","","","","","","null","","649.7000000029802","","2","1","null","null","arrowup","[0.325,0.675,0.85,0.15]","","",""
"sailing-trial","211","836077","0.0-11.0-176.0","","","","false","","","","","","","","","","166.79999999701977","","116.59999999403954","","2","1","arrowright","1","arrowleft","[0.325,0.675,0.85,0.15]","","",""
"sailing-trial","212","838074","0.0-11.0-177.0","","","","false","","","","","","","","","","null","","741","","0","0","null","null","arrowup","[0.325,0.675,0.85,0.15]","","",""
"sailing-trial","213","841211","0.0-11.0-178.0","","","","false","","","","","","","","","","187","","9.399999991059303","","2","1","arrowright","1","arrowleft","[0.325,0.675,0.85,0.15]","","",""
"sailing-trial","214","843711","0.0-11.0-179.0","","","","false","","","","","","","","","","null","","790.5","","1","1","null","null","arrowup","[0.325,0.675,0.85,0.15]","","",""
"sailing-trial","215","847210","0.0-11.0-180.0","","","","false","","","","","","","","","","632.7000000029802","","22.700000002980232","","2","1","arrowright","1","arrowleft","[0.325,0.675,0.85,0.15]","","",""
"sailing-trial","216","850289","0.0-11.0-181.0","","","","false","","","","","","","","","","null","","1343.4000000059605","","3","0","null","null","arrowup","[0.325,0.675,0.85,0.15]","","",""
"sailing-trial","217","853023","0.0-11.0-182.0","","","","false","","","","","","","","","","248.59999999403954","","218.29999999701977","","2","0","arrowright","1","arrowleft","[0.325,0.675,0.85,0.15]","","",""
"sailing-trial","218","855327","0.0-11.0-183.0","","","","false","","","","","","","","","","null","","612.7999999970198","","1","1","null","null","arrowup","[0.325,0.675,0.85,0.15]","","",""
"sailing-trial","219","858843","0.0-11.0-184.0","","","","false","","","","","","","","","","686.8000000119209","","133.90000000596046","","1","1","arrowleft","0","arrowright","[0.325,0.675,0.85,0.15]","","",""
"sailing-trial","220","860581","0.0-11.0-185.0","","","","false","","","","","","","","","","null","","552.6999999880791","","0","0","null","null","arrowup","[0.325,0.675,0.85,0.15]","","",""
"sailing-trial","221","863294","0.0-11.0-186.0","","","","false","","","","","","","","","","437.79999999701977","","64.8999999910593","","1","0","arrowleft","0","arrowright","[0.325,0.675,0.85,0.15]","","",""
"sailing-trial","222","866078","0.0-11.0-187.0","","","","false","","","","","","","","","","null","","1044.0999999940395","","1","1","null","null","arrowup","[0.325,0.675,0.85,0.15]","","",""
"sailing-trial","223","869461","0.0-11.0-188.0","","","","false","","","","","","","","","","357.70000000298023","","149.79999999701977","","1","1","arrowleft","0","arrowright","[0.325,0.675,0.85,0.15]","","",""
"sailing-trial","224","871642","0.0-11.0-189.0","","","","false","","","","","","","","","","null","","923.2000000029802","","3","0","null","null","arrowup","[0.325,0.675,0.85,0.15]","","",""
"sailing-trial","225","874791","0.0-11.0-190.0","","","","false","","","","","","","","","","405.8999999910593","","38.8999999910593","","1","1","arrowleft","0","arrowright","[0.15,0.85,0.675,0.325]","","",""
"sailing-trial","226","877210","0.0-11.0-191.0","","","","false","","","","","","","","","","null","","699.2000000029802","","1","1","null","null","arrowup","[0.15,0.85,0.675,0.325]","","",""
"sailing-trial","227","880526","0.0-11.0-192.0","","","","false","","","","","","","","","","482.6000000089407","","135.70000000298023","","1","1","arrowleft","0","arrowright","[0.15,0.85,0.675,0.325]","","",""
"sailing-trial","228","882618","0.0-11.0-193.0","","","","false","","","","","","","","","","null","","813.7000000029802","","3","0","null","null","arrowup","[0.15,0.85,0.675,0.325]","","",""
"sailing-trial","229","885925","0.0-11.0-194.0","","","","false","","","","","","","","","","476.5","","227.6000000089407","","1","1","arrowleft","0","arrowright","[0.15,0.85,0.675,0.325]","","",""
"sailing-trial","230","889642","0.0-11.0-195.0","","","","false","","","","","","","","","","null","","1915.4000000059605","","3","1","null","null","arrowup","[0.15,0.85,0.675,0.325]","","",""
"sailing-trial","231","893141","0.0-11.0-196.0","","","","false","","","","","","","","","","487.80000001192093","","258.1000000089407","","1","1","arrowleft","0","arrowright","[0.15,0.85,0.675,0.325]","","",""
"sailing-trial","232","895675","0.0-11.0-197.0","","","","false","","","","","","","","","","null","","770.8999999910593","","1","1","null","null","arrowup","[0.15,0.85,0.675,0.325]","","",""
"sailing-trial","233","898943","0.0-11.0-198.0","","","","false","","","","","","","","","","407.1000000089407","","99.6000000089407","","1","1","arrowleft","0","arrowright","[0.15,0.85,0.675,0.325]","","",""
"sailing-trial","234","900940","0.0-11.0-199.0","","","","false","","","","","","","","","","null","","734.5","","0","0","null","null","arrowup","[0.15,0.85,0.675,0.325]","","",""
"sailing-trial","235","904309","0.0-11.0-200.0","","","","false","","","","","","","","","","417.8999999910593","","306.90000000596046","","1","1","arrowleft","0","arrowright","[0.15,0.85,0.675,0.325]","","",""
"sailing-trial","236","906674","0.0-11.0-201.0","","","","false","","","","","","","","","","null","","590.0999999940395","","2","1","null","null","arrowup","[0.15,0.85,0.675,0.325]","","",""
"sailing-trial","237","909774","0.0-11.0-202.0","","","","false","","","","","","","","","","208.30000001192093","","145.79999999701977","","1","1","arrowleft","0","arrowright","[0.15,0.85,0.675,0.325]","","",""
"sailing-trial","238","912072","0.0-11.0-203.0","","","","false","","","","","","","","","","null","","1039","","3","0","null","null","arrowup","[0.15,0.85,0.675,0.325]","","",""
"sailing-trial","239","915475","0.0-11.0-204.0","","","","false","","","","","","","","","","373.79999999701977","","403.70000000298023","","1","1","arrowleft","0","arrowright","[0.15,0.85,0.675,0.325]","","",""
"sailing-trial","240","917942","0.0-11.0-205.0","","","","false","","","","","","","","","","null","","758.1000000089407","","2","1","null","null","arrowup","[0.15,0.85,0.675,0.325]","","",""
"sailing-trial","241","920664","0.0-11.0-206.0","","","","false","","","","","","","","","","335.70000000298023","","288.20000000298023","","1","0","arrowleft","0","arrowright","[0.675,0.325,0.15,0.85]","","",""
"sailing-trial","242","923140","0.0-11.0-207.0","","","","false","","","","","","","","","","null","","740.6999999880791","","3","1","null","null","arrowup","[0.675,0.325,0.15,0.85]","","",""
"sailing-trial","243","926258","0.0-11.0-208.0","","","","false","","","","","","","","","","194.1000000089407","","112.19999998807907","","1","1","arrowleft","0","arrowright","[0.675,0.325,0.15,0.85]","","",""
"sailing-trial","244","928889","0.0-11.0-209.0","","","","false","","","","","","","","","","null","","927.7000000029802","","3","1","null","null","arrowup","[0.675,0.325,0.15,0.85]","","",""
"sailing-trial","245","931373","0.0-11.0-210.0","","","","false","","","","","","","","","","358.70000000298023","","99.29999999701977","","1","0","arrowleft","0","arrowright","[0.675,0.325,0.15,0.85]","","",""
"sailing-trial","246","933342","0.0-11.0-211.0","","","","false","","","","","","","","","","null","","743","","3","0","null","null","arrowup","[0.675,0.325,0.15,0.85]","","",""
"sailing-trial","247","936822","0.0-11.0-212.0","","","","false","","","","","","","","","","400.19999998807907","","233.20000000298023","","1","1","arrowleft","0","arrowright","[0.675,0.325,0.15,0.85]","","",""
"sailing-trial","248","938522","0.0-11.0-213.0","","","","false","","","","","","","","","","null","","441.20000000298023","","2","0","null","null","arrowup","[0.675,0.325,0.15,0.85]","","",""
"sailing-trial","249","941186","0.0-11.0-214.0","","","","false","","","","","","","","","","397.20000000298023","","21.399999991059303","","1","0","arrowleft","0","arrowright","[0.675,0.325,0.15,0.85]","","",""
"sailing-trial","250","943807","0.0-11.0-215.0","","","","false","","","","","","","","","","null","","887.2000000029802","","0","1","null","null","arrowup","[0.675,0.325,0.15,0.85]","","",""
"sailing-trial","251","946148","0.0-11.0-216.0","","","","false","","","","","","","","","","154.79999999701977","","26.200000002980232","","0","0","arrowleft","0","arrowleft","[0.675,0.325,0.15,0.85]","","",""
"sailing-trial","252","948471","0.0-11.0-217.0","","","","false","","","","","","","","","","null","","579.5","","1","1","null","null","arrowup","[0.675,0.325,0.15,0.85]","","",""
"sailing-trial","253","951448","0.0-11.0-218.0","","","","false","","","","","","","","","","565.1999999880791","","143.59999999403954","","1","0","arrowleft","0","arrowright","[0.675,0.325,0.15,0.85]","","",""
"sailing-trial","254","953247","0.0-11.0-219.0","","","","false","","","","","","","","","","null","","590.3000000119209","","2","0","null","null","arrowup","[0.675,0.325,0.15,0.85]","","",""
"sailing-trial","255","956555","0.0-11.0-220.0","","","","false","","","","","","","","","","367.90000000596046","","179.40000000596046","","3","1","arrowright","1","arrowright","[0.675,0.325,0.15,0.85]","","",""
"sailing-trial","256","958822","0.0-11.0-221.0","","","","false","","","","","","","","","","null","","523.2000000029802","","3","1","null","null","arrowup","[0.675,0.325,0.15,0.85]","","",""
"sailing-trial","257","961776","0.0-11.0-222.0","","","","false","","","","","","","","","","37.599999994039536","","100.5","","3","0","arrowright","1","arrowright","[0.85,0.15,0.325,0.675]","","",""
"sailing-trial","258","964088","0.0-11.0-223.0","","","","false","","","","","","","","","","null","","462.29999999701977","","2","1","null","null","arrowup","[0.85,0.15,0.325,0.675]","","",""
"sailing-trial","259","967553","0.0-11.0-224.0","","","","false","","","","","","","","","","166","","535","","2","1","arrowright","1","arrowleft","[0.85,0.15,0.325,0.675]","","",""
"sailing-trial","260","970038","0.0-11.0-225.0","","","","false","","","","","","","","","","null","","718.7999999970198","","0","1","null","null","arrowup","[0.85,0.15,0.325,0.675]","","",""
"sailing-trial","261","973079","0.0-11.0-226.0","","","","false","","","","","","","","","","308.09999999403954","","245.40000000596046","","2","0","arrowright","1","arrowleft","[0.85,0.15,0.325,0.675]","","",""
"sailing-trial","262","975008","0.0-11.0-227.0","","","","false","","","","","","","","","","null","","540.2000000029802","","2","0","null","null","arrowup","[0.85,0.15,0.325,0.675]","","",""
"sailing-trial","263","977694","0.0-11.0-228.0","","","","false","","","","","","","","","","277.29999999701977","","158.19999998807907","","3","0","arrowright","1","arrowright","[0.85,0.15,0.325,0.675]","","",""
"sailing-trial","264","980396","0.0-11.0-229.0","","","","false","","","","","","","","","","null","","950.2999999970198","","1","0","null","null","arrowup","[0.85,0.15,0.325,0.675]","","",""
"sailing-trial","265","983754","0.0-11.0-230.0","","","","false","","","","","","","","","","422.79999999701977","","163.40000000596046","","0","1","arrowleft","0","arrowleft","[0.85,0.15,0.325,0.675]","","",""
"sailing-trial","266","985553","0.0-11.0-231.0","","","","false","","","","","","","","","","null","","607.1999999880791","","1","0","null","null","arrowup","[0.85,0.15,0.325,0.675]","","",""
"sailing-trial","267","990554","0.0-11.0-232.0","","","","false","","","","","","","","","","357.80000001192093","","133.59999999403954","","0","1","arrowleft","0","arrowleft","[0.85,0.15,0.325,0.675]","","",""
"sailing-trial","268","992628","0.0-11.0-233.0","","","","false","","","","","","","","","","null","","739.2000000029802","","2","0","null","null","arrowup","[0.85,0.15,0.325,0.675]","","",""
"sailing-trial","269","997285","0.0-11.0-234.0","","","","false","","","","","","","","","","2124.6000000089407","","49.5","","0","0","arrowleft","0","arrowleft","[0.85,0.15,0.325,0.675]","","",""
"sailing-trial","270","999872","0.0-11.0-235.0","","","","false","","","","","","","","","","null","","727.2999999970198","","2","0","null","null","arrowup","[0.85,0.15,0.325,0.675]","","",""
"sailing-trial","271","1002886","0.0-11.0-236.0","","","","false","","","","","","","","","","447.29999999701977","","174.79999999701977","","0","0","arrowleft","0","arrowleft","[0.85,0.15,0.325,0.675]","","",""
"sailing-trial","272","1005022","0.0-11.0-237.0","","","","false","","","","","","","","","","null","","815.7000000029802","","1","0","null","null","arrowup","[0.85,0.15,0.325,0.675]","","",""
"sailing-trial","273","1008536","0.0-11.0-238.0","","","","false","","","","","","","","","","484.8999999910593","","243.69999998807907","","0","1","arrowleft","0","arrowleft","[0.675,0.325,0.15,0.85]","","",""
"sailing-trial","274","1013606","0.0-11.0-239.0","","","","false","","","","","","","","","","null","","2074.7000000029802","","1","0","null","null","arrowup","[0.675,0.325,0.15,0.85]","","",""
"sailing-trial","275","1021522","0.0-11.0-240.0","","","","false","","","","","","","","","","4981.20000000298","","346.79999999701977","","2","0","arrowright","1","arrowleft","[0.675,0.325,0.15,0.85]","","",""
"sailing-trial","276","1023610","0.0-11.0-241.0","","","","false","","","","","","","","","","null","","790.7999999970198","","1","0","null","null","arrowup","[0.675,0.325,0.15,0.85]","","",""
"sailing-trial","277","1027053","0.0-11.0-242.0","","","","false","","","","","","","","","","480.3999999910593","","228","","1","1","arrowleft","0","arrowright","[0.675,0.325,0.15,0.85]","","",""
"sailing-trial","278","1029567","0.0-11.0-243.0","","","","false","","","","","","","","","","null","","868.2000000029802","","1","1","null","null","arrowup","[0.675,0.325,0.15,0.85]","","",""
"sailing-trial","279","1032374","0.0-11.0-244.0","","","","false","","","","","","","","","","81.79999999701977","","451.29999999701977","","1","0","arrowleft","0","arrowright","[0.675,0.325,0.15,0.85]","","",""
"sailing-trial","280","1034440","0.0-11.0-245.0","","","","false","","","","","","","","","","null","","552.2000000029802","","1","0","null","null","arrowup","[0.675,0.325,0.15,0.85]","","",""
"sailing-trial","281","1037634","0.0-11.0-246.0","","","","false","","","","","","","","","","477.70000000298023","","14.5","","0","1","arrowleft","0","arrowleft","[0.675,0.325,0.15,0.85]","","",""
"sailing-trial","282","1039918","0.0-11.0-247.0","","","","false","","","","","","","","","","null","","529.2999999970198","","3","1","null","null","arrowup","[0.675,0.325,0.15,0.85]","","",""
"sailing-trial","283","1043251","0.0-11.0-248.0","","","","false","","","","","","","","","","441.09999999403954","","102.59999999403954","","0","1","arrowleft","0","arrowleft","[0.675,0.325,0.15,0.85]","","",""
"sailing-trial","284","1045569","0.0-11.0-249.0","","","","false","","","","","","","","","","null","","581.0999999940395","","2","1","null","null","arrowup","[0.675,0.325,0.15,0.85]","","",""
"sailing-trial","285","1049002","0.0-11.0-250.0","","","","false","","","","","","","","","","468.5","","262.29999999701977","","0","1","arrowleft","0","arrowleft","[0.675,0.325,0.15,0.85]","","",""
"sailing-trial","286","1051501","0.0-11.0-251.0","","","","false","","","","","","","","","","null","","907.5999999940395","","3","1","null","null","arrowup","[0.675,0.325,0.15,0.85]","","",""
"sailing-trial","287","1054699","0.0-11.0-252.0","","","","false","","","","","","","","","","320.79999999701977","","150","","0","1","arrowleft","0","arrowleft","[0.675,0.325,0.15,0.85]","","",""
"sailing-trial","288","1056910","0.0-11.0-253.0","","","","false","","","","","","","","","","null","","911.5","","2","0","null","null","arrowup","[0.675,0.325,0.15,0.85]","","",""
"sailing-trial","289","1059620","0.0-11.0-254.0","","","","false","","","","","","","","","","427.5","","83.29999999701977","","0","0","arrowleft","0","arrowleft","[0.85,0.15,0.325,0.675]","","",""
"sailing-trial","290","1061632","0.0-11.0-255.0","","","","false","","","","","","","","","","null","","863.7000000029802","","1","0","null","null","arrowup","[0.85,0.15,0.325,0.675]","","",""
"sailing-trial","291","1064900","0.0-11.0-256.0","","","","false","","","","","","","","","","337.3999999910593","","227.79999999701977","","3","1","arrowright","1","arrowright","[0.85,0.15,0.325,0.675]","","",""
"sailing-trial","292","1067150","0.0-11.0-257.0","","","","false","","","","","","","","","","null","","511","","0","1","null","null","arrowup","[0.85,0.15,0.325,0.675]","","",""
"sailing-trial","293","1070199","0.0-11.0-258.0","","","","false","","","","","","","","","","330.5","","3.1000000089406967","","3","1","arrowright","1","arrowright","[0.85,0.15,0.325,0.675]","","",""
"sailing-trial","294","1072817","0.0-11.0-259.0","","","","false","","","","","","","","","","null","","850.8999999910593","","3","1","null","null","arrowup","[0.85,0.15,0.325,0.675]","","",""
"sailing-trial","295","1075966","0.0-11.0-260.0","","","","false","","","","","","","","","","418.8999999910593","","21.299999997019768","","3","1","arrowright","1","arrowright","[0.85,0.15,0.325,0.675]","","",""
"sailing-trial","296","1077841","0.0-11.0-261.0","","","","false","","","","","","","","","","null","","688.0999999940395","","0","0","null","null","arrowup","[0.85,0.15,0.325,0.675]","","",""
"sailing-trial","297","1080915","0.0-11.0-262.0","","","","false","","","","","","","","","","294.20000000298023","","92.79999999701977","","3","1","arrowright","1","arrowright","[0.85,0.15,0.325,0.675]","","",""
"sailing-trial","298","1084015","0.0-11.0-263.0","","","","false","","","","","","","","","","null","","1312.9000000059605","","2","1","null","null","arrowup","[0.85,0.15,0.325,0.675]","","",""
"sailing-trial","299","1087432","0.0-11.0-264.0","","","","false","","","","","","","","","","515.6000000089407","","68.20000000298023","","3","1","arrowright","1","arrowright","[0.85,0.15,0.325,0.675]","","",""
"sailing-trial","300","1090015","0.0-11.0-265.0","","","","false","","","","","","","","","","null","","735","","0","1","null","null","arrowup","[0.85,0.15,0.325,0.675]","","",""
"sailing-trial","301","1093599","0.0-11.0-266.0","","","","false","","","","","","","","","","517.4000000059605","","327.90000000596046","","3","1","arrowright","1","arrowright","[0.85,0.15,0.325,0.675]","","",""
"sailing-trial","302","1095395","0.0-11.0-267.0","","","","false","","","","","","","","","","null","","701.3999999910593","","2","0","null","null","arrowup","[0.85,0.15,0.325,0.675]","","",""
"sailing-trial","303","1098303","0.0-11.0-268.0","","","","false","","","","","","","","","","374.70000000298023","","222.70000000298023","","3","0","arrowright","1","arrowright","[0.85,0.15,0.325,0.675]","","",""
"sailing-trial","304","1100832","0.0-11.0-269.0","","","","false","","","","","","","","","","null","","771.3000000119209","","1","1","null","null","arrowup","[0.85,0.15,0.325,0.675]","","",""
"sailing-trial","305","1103814","0.0-11.0-270.0","","","","false","","","","","","","","","","459.29999999701977","","150.79999999701977","","1","0","arrowleft","0","arrowright","[0.85,0.15,0.325,0.675]","","",""
"sailing-trial","306","1105764","0.0-11.0-271.0","","","","false","","","","","","","","","","null","","573.7000000029802","","3","0","null","null","arrowup","[0.85,0.15,0.325,0.675]","","",""
"sailing-trial","307","1108996","0.0-11.0-272.0","","","","false","","","","","","","","","","384.20000000298023","","81.29999999701977","","0","1","arrowleft","0","arrowleft","[0.675,0.325,0.15,0.85]","","",""
"sailing-trial","308","1111431","0.0-11.0-273.0","","","","false","","","","","","","","","","null","","797.5","","0","1","null","null","arrowup","[0.675,0.325,0.15,0.85]","","",""
"sailing-trial","309","1114169","0.0-11.0-274.0","","","","false","","","","","","","","","","400.5","","111","","0","0","arrowleft","0","arrowleft","[0.675,0.325,0.15,0.85]","","",""
"sailing-trial","310","1116136","0.0-11.0-275.0","","","","false","","","","","","","","","","null","","729.5999999940395","","2","0","null","null","arrowup","[0.675,0.325,0.15,0.85]","","",""
"sailing-trial","311","1119280","0.0-11.0-276.0","","","","false","","","","","","","","","","384.6000000089407","","187.40000000596046","","0","1","arrowleft","0","arrowleft","[0.675,0.325,0.15,0.85]","","",""
"sailing-trial","312","1121031","0.0-11.0-277.0","","","","false","","","","","","","","","","null","","599.6999999880791","","2","0","null","null","arrowup","[0.675,0.325,0.15,0.85]","","",""
"sailing-trial","313","1124263","0.0-11.0-278.0","","","","false","","","","","","","","","","323.59999999403954","","90.09999999403954","","0","1","arrowleft","0","arrowleft","[0.675,0.325,0.15,0.85]","","",""
"sailing-trial","314","1126577","0.0-11.0-279.0","","","","false","","","","","","","","","","null","","1300.2000000029802","","0","0","null","null","arrowup","[0.675,0.325,0.15,0.85]","","",""
"sailing-trial","315","1129979","0.0-11.0-280.0","","","","false","","","","","","","","","","497.70000000298023","","234.29999999701977","","0","1","arrowleft","0","arrowleft","[0.675,0.325,0.15,0.85]","","",""
"sailing-trial","316","1131874","0.0-11.0-281.0","","","","false","","","","","","","","","","null","","667.1999999880791","","1","0","null","null","arrowup","[0.675,0.325,0.15,0.85]","","",""
"sailing-trial","317","1135128","0.0-11.0-282.0","","","","false","","","","","","","","","","365.1000000089407","","266.29999999701977","","0","1","arrowleft","0","arrowleft","[0.675,0.325,0.15,0.85]","","",""
"sailing-trial","318","1138013","0.0-11.0-283.0","","","","false","","","","","","","","","","null","","1096.300000011921","","0","1","null","null","arrowup","[0.675,0.325,0.15,0.85]","","",""
"sailing-trial","319","1141479","0.0-11.0-284.0","","","","false","","","","","","","","","","658.7999999970198","","105.1000000089407","","0","1","arrowleft","0","arrowleft","[0.675,0.325,0.15,0.85]","","",""
"sailing-trial","320","1143878","0.0-11.0-285.0","","","","false","","","","","","","","","","null","","788.0999999940395","","1","1","null","null","arrowup","[0.675,0.325,0.15,0.85]","","",""
"sailing-trial","321","1147263","0.0-11.0-286.0","","","","false","","","","","","","","","","521.7999999970198","","54.099999994039536","","0","1","arrowleft","0","arrowleft","[0.675,0.325,0.15,0.85]","","",""
"sailing-trial","322","1149849","0.0-11.0-287.0","","","","false","","","","","","","","","","null","","986.5999999940395","","2","0","null","null","arrowup","[0.675,0.325,0.15,0.85]","","",""
"sailing-trial","323","1153211","0.0-11.0-288.0","","","","false","","","","","","","","","","754.5","","165.79999999701977","","0","0","arrowleft","0","arrowleft","[0.15,0.85,0.675,0.325]","","",""
"sailing-trial","324","1155895","0.0-11.0-289.0","","","","false","","","","","","","","","","null","","925.7999999970198","","3","1","null","null","arrowup","[0.15,0.85,0.675,0.325]","","",""
"sailing-trial","325","1159661","0.0-11.0-290.0","","","","false","","","","","","","","","","582.5999999940395","","331.79999999701977","","3","1","arrowright","1","arrowright","[0.15,0.85,0.675,0.325]","","",""
"sailing-trial","326","1162037","0.0-11.0-291.0","","","","false","","","","","","","","","","null","","1071","","0","0","null","null","arrowup","[0.15,0.85,0.675,0.325]","","",""
"sailing-trial","327","1166952","0.0-11.0-292.0","","","","false","","","","","","","","","","2525.9000000059605","","144.20000000298023","","0","0","arrowleft","0","arrowleft","[0.15,0.85,0.675,0.325]","","",""
"sailing-trial","328","1169295","0.0-11.0-293.0","","","","false","","","","","","","","","","null","","634.7999999970198","","2","1","null","null","arrowup","[0.15,0.85,0.675,0.325]","","",""
"sailing-trial","329","1172038","0.0-11.0-294.0","","","","false","","","","","","","","","","376.29999999701977","","70.1000000089407","","2","0","arrowright","1","arrowleft","[0.15,0.85,0.675,0.325]","","",""
"sailing-trial","330","1174056","0.0-11.0-295.0","","","","false","","","","","","","","","","null","","749.7000000029802","","3","0","null","null","arrowup","[0.15,0.85,0.675,0.325]","","",""
"sailing-trial","331","1177277","0.0-11.0-296.0","","","","false","","","","","","","","","","330.1000000089407","","101.29999999701977","","1","1","arrowleft","0","arrowright","[0.15,0.85,0.675,0.325]","","",""
"sailing-trial","332","1179495","0.0-11.0-297.0","","","","false","","","","","","","","","","null","","546.3000000119209","","2","1","null","null","arrowup","[0.15,0.85,0.675,0.325]","","",""
"sailing-trial","333","1182626","0.0-11.0-298.0","","","","false","","","","","","","","","","268.8999999910593","","140.3999999910593","","1","1","arrowleft","0","arrowright","[0.15,0.85,0.675,0.325]","","",""
"sailing-trial","334","1184478","0.0-11.0-299.0","","","","false","","","","","","","","","","null","","659.9000000059605","","2","0","null","null","arrowup","[0.15,0.85,0.675,0.325]","","",""
"sailing-trial","335","1187776","0.0-11.0-300.0","","","","false","","","","","","","","","","499.5","","170.30000001192093","","1","1","arrowleft","0","arrowright","[0.15,0.85,0.675,0.325]","","",""
"sailing-trial","336","1190091","0.0-11.0-301.0","","","","false","","","","","","","","","","null","","725.9000000059605","","0","0","null","null","arrowup","[0.15,0.85,0.675,0.325]","","",""
"sailing-trial","337","1193093","0.0-11.0-302.0","","","","false","","","","","","","","","","344.5","","111.1000000089407","","1","1","arrowleft","0","arrowright","[0.15,0.85,0.675,0.325]","","",""
"sailing-trial","338","1194714","0.0-11.0-303.0","","","","false","","","","","","","","","","null","","513.3999999910593","","2","0","null","null","arrowup","[0.15,0.85,0.675,0.325]","","",""
"sailing-trial","339","1197485","0.0-11.0-304.0","","","","false","","","","","","","","","","215.5","","283.6000000089407","","1","0","arrowleft","0","arrowright","[0.85,0.15,0.325,0.675]","","",""
"sailing-trial","340","1199676","0.0-11.0-305.0","","","","false","","","","","","","","","","null","","539.5999999940395","","2","1","null","null","arrowup","[0.85,0.15,0.325,0.675]","","",""
"sailing-trial","341","1202240","0.0-11.0-306.0","","","","false","","","","","","","","","","255.29999999701977","","204.5","","2","0","arrowright","1","arrowleft","[0.85,0.15,0.325,0.675]","","",""
"sailing-trial","342","1204592","0.0-11.0-307.0","","","","false","","","","","","","","","","null","","722","","3","1","null","null","arrowup","[0.85,0.15,0.325,0.675]","","",""
"sailing-trial","343","1207532","0.0-11.0-308.0","","","","false","","","","","","","","","","436.20000000298023","","215.90000000596046","","2","0","arrowright","1","arrowleft","[0.85,0.15,0.325,0.675]","","",""
"sailing-trial","344","1209858","0.0-11.0-309.0","","","","false","","","","","","","","","","null","","709.4000000059605","","0","1","null","null","arrowup","[0.85,0.15,0.325,0.675]","","",""
"sailing-trial","345","1213141","0.0-11.0-310.0","","","","false","","","","","","","","","","175.29999999701977","","81.09999999403954","","3","1","arrowright","1","arrowright","[0.85,0.15,0.325,0.675]","","",""
"sailing-trial","346","1214865","0.0-11.0-311.0","","","","false","","","","","","","","","","null","","625","","2","0","null","null","arrowup","[0.85,0.15,0.325,0.675]","","",""
"sailing-trial","347","1218058","0.0-11.0-312.0","","","","false","","","","","","","","","","263.59999999403954","","75.5","","3","1","arrowright","1","arrowright","[0.85,0.15,0.325,0.675]","","",""
"sailing-trial","348","1220558","0.0-11.0-313.0","","","","false","","","","","","","","","","null","","711.7000000029802","","0","1","null","null","arrowup","[0.85,0.15,0.325,0.675]","","",""
"sailing-trial","349","1223753","0.0-11.0-314.0","","","","false","","","","","","","","","","381.90000000596046","","260.70000000298023","","3","0","arrowright","1","arrowright","[0.85,0.15,0.325,0.675]","","",""
"sailing-trial","350","1225958","0.0-11.0-315.0","","","","false","","","","","","","","","","null","","563.2999999970198","","3","1","null","null","arrowup","[0.85,0.15,0.325,0.675]","","",""
"sailing-trial","351","1228924","0.0-11.0-316.0","","","","false","","","","","","","","","","222","","71.6000000089407","","3","1","arrowright","1","arrowright","[0.85,0.15,0.325,0.675]","","",""
"sailing-trial","352","1231074","0.0-11.0-317.0","","","","false","","","","","","","","","","null","","521.0999999940395","","0","1","null","null","arrowup","[0.85,0.15,0.325,0.675]","","",""
"sailing-trial","353","1234257","0.0-11.0-318.0","","","","false","","","","","","","","","","362.09999999403954","","74.59999999403954","","3","1","arrowright","1","arrowright","[0.85,0.15,0.325,0.675]","","",""
"sailing-trial","354","1237091","0.0-11.0-319.0","","","","false","","","","","","","","","","null","","1170.9000000059605","","3","1","null","null","arrowup","[0.85,0.15,0.325,0.675]","","",""
"sailing-trial","355","1239975","0.0-11.0-320.0","","","","false","","","","","","","","","","78.8999999910593","","214.5","","3","1","arrowright","1","arrowright","[0.85,0.15,0.325,0.675]","","",""
"sailing-trial","356","1241878","0.0-11.0-321.0","","","","false","","","","","","","","","","null","","660","","0","0","null","null","arrowup","[0.85,0.15,0.325,0.675]","","",""
"sailing-trial","357","1244445","0.0-11.0-322.0","","","","false","","","","","","","","","","291.70000000298023","","190.90000000596046","","3","0","arrowright","1","arrowright","[0.85,0.15,0.325,0.675]","","",""
"sailing-trial","358","1246892","0.0-11.0-323.0","","","","false","","","","","","","","","","null","","752.1000000089407","","2","1","null","null","arrowup","[0.85,0.15,0.325,0.675]","","",""
"sailing-trial","359","1249995","0.0-11.0-324.0","","","","false","","","","","","","","","","709.2999999970198","","168.5","","2","0","arrowright","1","arrowleft","[0.675,0.325,0.15,0.85]","","",""
"sailing-trial","360","1251606","0.0-11.0-325.0","","","","false","","","","","","","","","","null","","571.0999999940395","","2","0","null","null","arrowup","[0.675,0.325,0.15,0.85]","","",""
"sailing-trial","361","1254874","0.0-11.0-326.0","","","","false","","","","","","","","","","400.90000000596046","","176.5","","3","1","arrowright","1","arrowright","[0.675,0.325,0.15,0.85]","","",""
"sailing-trial","362","1256876","0.0-11.0-327.0","","","","false","","","","","","","","","","null","","804","","1","0","null","null","arrowup","[0.675,0.325,0.15,0.85]","","",""
"sailing-trial","363","1259989","0.0-11.0-328.0","","","","false","","","","","","","","","","204.40000000596046","","224.09999999403954","","3","1","arrowright","1","arrowright","[0.675,0.325,0.15,0.85]","","",""
"sailing-trial","364","1262127","0.0-11.0-329.0","","","","false","","","","","","","","","","null","","847","","3","0","null","null","arrowup","[0.675,0.325,0.15,0.85]","","",""
"sailing-trial","365","1265272","0.0-11.0-330.0","","","","false","","","","","","","","","","185.79999999701977","","258.90000000596046","","3","1","arrowright","1","arrowright","[0.675,0.325,0.15,0.85]","","",""
"sailing-trial","366","1267791","0.0-11.0-331.0","","","","false","","","","","","","","","","null","","756.7999999970198","","3","1","null","null","arrowup","[0.675,0.325,0.15,0.85]","","",""
"sailing-trial","367","1270572","0.0-11.0-332.0","","","","false","","","","","","","","","","56.70000000298023","","46.400000005960464","","3","1","arrowright","1","arrowright","[0.675,0.325,0.15,0.85]","","",""
"sailing-trial","368","1272940","0.0-11.0-333.0","","","","false","","","","","","","","","","null","","666.6000000089407","","2","1","null","null","arrowup","[0.675,0.325,0.15,0.85]","","",""
"sailing-trial","369","1276024","0.0-11.0-334.0","","","","false","","","","","","","","","","307","","174.09999999403954","","3","1","arrowright","1","arrowright","[0.675,0.325,0.15,0.85]","","",""
"sailing-trial","370","1277743","0.0-11.0-335.0","","","","false","","","","","","","","","","null","","619.7999999970198","","0","0","null","null","arrowup","[0.675,0.325,0.15,0.85]","","",""
"sailing-trial","371","1280556","0.0-11.0-336.0","","","","false","","","","","","","","","","204.5","","69.20000000298023","","3","1","arrowright","1","arrowright","[0.675,0.325,0.15,0.85]","","",""
"sailing-trial","372","1282889","0.0-11.0-337.0","","","","false","","","","","","","","","","null","","788.5","","3","1","null","null","arrowup","[0.675,0.325,0.15,0.85]","","",""
"sailing-trial","373","1285856","0.0-11.0-338.0","","","","false","","","","","","","","","","61.599999994039536","","102.20000000298023","","3","1","arrowright","1","arrowright","[0.675,0.325,0.15,0.85]","","",""
"sailing-trial","374","1287703","0.0-11.0-339.0","","","","false","","","","","","","","","","null","","745.2999999970198","","3","0","null","null","arrowup","[0.675,0.325,0.15,0.85]","","",""
"sailing-trial","375","1290938","0.0-11.0-340.0","","","","false","","","","","","","","","","341.1000000089407","","150.3999999910593","","3","1","arrowright","1","arrowright","[0.675,0.325,0.15,0.85]","","",""
"sailing-trial","376","1293079","0.0-11.0-341.0","","","","false","","","","","","","","","","null","","984.5999999940395","","1","0","null","null","arrowup","[0.675,0.325,0.15,0.85]","","",""
"sailing-trial","377","1296154","0.0-11.0-342.0","","","","false","","","","","","","","","","176.6000000089407","","124.59999999403954","","3","1","arrowright","1","arrowright","[0.675,0.325,0.15,0.85]","","",""
"sailing-trial","378","1298357","0.0-11.0-343.0","","","","false","","","","","","","","","","null","","747.7000000029802","","2","0","null","null","arrowup","[0.675,0.325,0.15,0.85]","","",""
"sailing-trial","379","1301373","0.0-11.0-344.0","","","","false","","","","","","","","","","207.59999999403954","","102.70000000298023","","3","1","arrowright","1","arrowright","[0.675,0.325,0.15,0.85]","","",""
"sailing-trial","380","1303119","0.0-11.0-345.0","","","","false","","","","","","","","","","null","","575.5","","1","0","null","null","arrowup","[0.675,0.325,0.15,0.85]","","",""
"sailing-trial","381","1305802","0.0-11.0-346.0","","","","false","","","","","","","","","","252.3999999910593","","168.70000000298023","","3","0","arrowright","1","arrowright","[0.85,0.15,0.325,0.675]","","",""
"sailing-trial","382","1308038","0.0-11.0-347.0","","","","false","","","","","","","","","","null","","718.5","","2","1","null","null","arrowup","[0.85,0.15,0.325,0.675]","","",""
"sailing-trial","383","1310378","0.0-11.0-348.0","","","","false","","","","","","","","","","38.1000000089407","","49","","2","0","arrowright","1","arrowleft","[0.85,0.15,0.325,0.675]","","",""
"sailing-trial","384","1311953","0.0-11.0-349.0","","","","false","","","","","","","","","","null","","524.5","","1","0","null","null","arrowup","[0.85,0.15,0.325,0.675]","","",""
"sailing-trial","385","1315020","0.0-11.0-350.0","","","","false","","","","","","","","","","842.2000000029802","","161.40000000596046","","0","0","arrowleft","0","arrowleft","[0.85,0.15,0.325,0.675]","","",""
"sailing-trial","386","1317587","0.0-11.0-351.0","","","","false","","","","","","","","","","null","","975.0999999940395","","3","1","null","null","arrowup","[0.85,0.15,0.325,0.675]","","",""
"sailing-trial","387","1320154","0.0-11.0-352.0","","","","false","","","","","","","","","","261.90000000596046","","103.59999999403954","","3","0","arrowright","1","arrowright","[0.85,0.15,0.325,0.675]","","",""
"sailing-trial","388","1322445","0.0-11.0-353.0","","","","false","","","","","","","","","","null","","611.7000000029802","","1","0","null","null","arrowup","[0.85,0.15,0.325,0.675]","","",""
"sailing-trial","389","1325522","0.0-11.0-354.0","","","","false","","","","","","","","","","133.09999999403954","","246.79999999701977","","2","1","arrowright","1","arrowleft","[0.85,0.15,0.325,0.675]","","",""
"sailing-trial","390","1327402","0.0-11.0-355.0","","","","false","","","","","","","","","","null","","713.5","","1","0","null","null","arrowup","[0.85,0.15,0.325,0.675]","","",""
"sailing-trial","391","1330119","0.0-11.0-356.0","","","","false","","","","","","","","","","186.5","","296.69999998807907","","2","0","arrowright","1","arrowleft","[0.85,0.15,0.325,0.675]","","",""
"sailing-trial","392","1332354","0.0-11.0-357.0","","","","false","","","","","","","","","","null","","526.0999999940395","","3","1","null","null","arrowup","[0.85,0.15,0.325,0.675]","","",""
"sailing-trial","393","1334840","0.0-11.0-358.0","","","","false","","","","","","","","","","150.3999999910593","","126","","3","0","arrowright","1","arrowright","[0.85,0.15,0.325,0.675]","","",""
"sailing-trial","394","1336663","0.0-11.0-359.0","","","","false","","","","","","","","","","null","","677.5","","2","0","null","null","arrowup","[0.85,0.15,0.325,0.675]","","",""
"sailing-trial","395","1340236","0.0-11.0-360.0","","","","false","","","","","","","","","","583.9000000059605","","336.20000000298023","","0","1","arrowleft","0","arrowleft","[0.85,0.15,0.325,0.675]","","",""
"sailing-trial","396","1342570","0.0-11.0-361.0","","","","false","","","","","","","","","","null","","803","","0","1","null","null","arrowup","[0.85,0.15,0.325,0.675]","","",""
"sailing-trial","397","1345686","0.0-11.0-362.0","","","","false","","","","","","","","","","360.09999999403954","","11.400000005960464","","0","1","arrowleft","0","arrowleft","[0.85,0.15,0.325,0.675]","","",""
"sailing-trial","398","1347494","0.0-11.0-363.0","","","","false","","","","","","","","","","null","","672.3999999910593","","1","0","null","null","arrowup","[0.85,0.15,0.325,0.675]","","",""
"sailing-trial","399","1350736","0.0-11.0-364.0","","","","false","","","","","","","","","","318.20000000298023","","116.5","","0","1","arrowleft","0","arrowleft","[0.675,0.325,0.15,0.85]","","",""
"sailing-trial","400","1353086","0.0-11.0-365.0","","","","false","","","","","","","","","","null","","618.2000000029802","","3","1","null","null","arrowup","[0.675,0.325,0.15,0.85]","","",""
"sailing-trial","401","1356335","0.0-11.0-366.0","","","","false","","","","","","","","","","373.09999999403954","","80.79999999701977","","0","1","arrowleft","0","arrowleft","[0.675,0.325,0.15,0.85]","","",""
"sailing-trial","402","1358636","0.0-11.0-367.0","","","","false","","","","","","","","","","null","","750.4000000059605","","0","1","null","null","arrowup","[0.675,0.325,0.15,0.85]","","",""
"sailing-trial","403","1361386","0.0-11.0-368.0","","","","false","","","","","","","","","","405.6000000089407","","148.6000000089407","","0","0","arrowleft","0","arrowleft","[0.675,0.325,0.15,0.85]","","",""
"sailing-trial","404","1363801","0.0-11.0-369.0","","","","false","","","","","","","","","","null","","724.7000000029802","","3","1","null","null","arrowup","[0.675,0.325,0.15,0.85]","","",""
"sailing-trial","405","1367418","0.0-11.0-370.0","","","","false","","","","","","","","","","412.09999999403954","","375.3999999910593","","0","1","arrowleft","0","arrowleft","[0.675,0.325,0.15,0.85]","","",""
"sailing-trial","406","1369288","0.0-11.0-371.0","","","","false","","","","","","","","","","null","","654.9000000059605","","1","0","null","null","arrowup","[0.675,0.325,0.15,0.85]","","",""
"sailing-trial","407","1371718","0.0-11.0-372.0","","","","false","","","","","","","","","","216.40000000596046","","129","","0","0","arrowleft","0","arrowleft","[0.675,0.325,0.15,0.85]","","",""
"sailing-trial","408","1373437","0.0-11.0-373.0","","","","false","","","","","","","","","","null","","617.2999999970198","","1","0","null","null","arrowup","[0.675,0.325,0.15,0.85]","","",""
"sailing-trial","409","1376406","0.0-11.0-374.0","","","","false","","","","","","","","","","571.6999999880791","","134.20000000298023","","2","0","arrowright","1","arrowleft","[0.675,0.325,0.15,0.85]","","",""
"sailing-trial","410","1378000","0.0-11.0-375.0","","","","false","","","","","","","","","","null","","585","","1","0","null","null","arrowup","[0.675,0.325,0.15,0.85]","","",""
"sailing-trial","411","1381301","0.0-11.0-376.0","","","","false","","","","","","","","","","415.40000000596046","","256.69999998807907","","3","1","arrowright","1","arrowright","[0.675,0.325,0.15,0.85]","","",""
"sailing-trial","412","1382965","0.0-11.0-377.0","","","","false","","","","","","","","","","null","","641.9000000059605","","2","0","null","null","arrowup","[0.675,0.325,0.15,0.85]","","",""
"sailing-trial","413","1385833","0.0-11.0-378.0","","","","false","","","","","","","","","","194","","26.5","","3","1","arrowright","1","arrowright","[0.675,0.325,0.15,0.85]","","",""
"sailing-trial","414","1388168","0.0-11.0-379.0","","","","false","","","","","","","","","","null","","753","","3","1","null","null","arrowup","[0.675,0.325,0.15,0.85]","","",""
"sailing-trial","415","1390581","0.0-11.0-380.0","","","","false","","","","","","","","","","155.5","","183.8999999910593","","3","0","arrowright","1","arrowright","[0.85,0.15,0.325,0.675]","","",""
"sailing-trial","416","1392766","0.0-11.0-381.0","","","","false","","","","","","","","","","null","","628.7000000029802","","1","1","null","null","arrowup","[0.85,0.15,0.325,0.675]","","",""
"sailing-trial","417","1395984","0.0-11.0-382.0","","","","false","","","","","","","","","","245.40000000596046","","251.70000000298023","","3","1","arrowright","1","arrowright","[0.85,0.15,0.325,0.675]","","",""
"sailing-trial","418","1398318","0.0-11.0-383.0","","","","false","","","","","","","","","","null","","572.2000000029802","","1","1","null","null","arrowup","[0.85,0.15,0.325,0.675]","","",""
"sailing-trial","419","1401517","0.0-11.0-384.0","","","","false","","","","","","","","","","390.5","","19.80000001192093","","3","1","arrowright","1","arrowright","[0.85,0.15,0.325,0.675]","","",""
"sailing-trial","420","1403271","0.0-11.0-385.0","","","","false","","","","","","","","","","null","","539","","1","0","null","null","arrowup","[0.85,0.15,0.325,0.675]","","",""
"sailing-trial","421","1405838","0.0-11.0-386.0","","","","false","","","","","","","","","","199.5","","28.599999994039536","","3","0","arrowright","1","arrowright","[0.85,0.15,0.325,0.675]","","",""
"sailing-trial","422","1408148","0.0-11.0-387.0","","","","false","","","","","","","","","","null","","630.7999999970198","","0","1","null","null","arrowup","[0.85,0.15,0.325,0.675]","","",""
"sailing-trial","423","1410947","0.0-11.0-388.0","","","","false","","","","","","","","","","395.20000000298023","","178.40000000596046","","1","0","arrowleft","0","arrowright","[0.85,0.15,0.325,0.675]","","",""
"sailing-trial","424","1413032","0.0-11.0-389.0","","","","false","","","","","","","","","","null","","574.3999999910593","","3","1","null","null","arrowup","[0.85,0.15,0.325,0.675]","","",""
"sailing-trial","425","1415882","0.0-11.0-390.0","","","","false","","","","","","","","","","60.099999994039536","","58.1000000089407","","3","1","arrowright","1","arrowright","[0.85,0.15,0.325,0.675]","","",""
"sailing-trial","426","1418467","0.0-11.0-391.0","","","","false","","","","","","","","","","null","","887.2999999970198","","3","1","null","null","arrowup","[0.85,0.15,0.325,0.675]","","",""
"sailing-trial","427","1421682","0.0-11.0-392.0","","","","false","","","","","","","","","","190.1000000089407","","112.20000000298023","","3","1","arrowright","1","arrowright","[0.85,0.15,0.325,0.675]","","",""
"sailing-trial","428","1424081","0.0-11.0-393.0","","","","false","","","","","","","","","","null","","671","","0","1","null","null","arrowup","[0.85,0.15,0.325,0.675]","","",""
"sailing-trial","429","1427048","0.0-11.0-394.0","","","","false","","","","","","","","","","76.5","","64.40000000596046","","3","1","arrowright","1","arrowright","[0.85,0.15,0.325,0.675]","","",""
"sailing-trial","430","1429681","0.0-11.0-395.0","","","","false","","","","","","","","","","null","","947","","0","1","null","null","arrowup","[0.85,0.15,0.325,0.675]","","",""
"sailing-trial","431","1432848","0.0-11.0-396.0","","","","false","","","","","","","","","","115","","233.20000000298023","","3","1","arrowright","1","arrowright","[0.85,0.15,0.325,0.675]","","",""
"sailing-trial","432","1435482","0.0-11.0-397.0","","","","false","","","","","","","","","","null","","1007.9000000059605","","3","1","null","null","arrowup","[0.85,0.15,0.325,0.675]","","",""
"sailing-trial","433","1438379","0.0-11.0-398.0","","","","false","","","","","","","","","","62.69999998807907","","117.59999999403954","","3","0","arrowright","1","arrowright","[0.85,0.15,0.325,0.675]","","",""
"sailing-trial","434","1440933","0.0-11.0-399.0","","","","false","","","","","","","","","","null","","825.5","","3","1","null","null","arrowup","[0.85,0.15,0.325,0.675]","","",""
"instructions","435","1441165","0.0-12.0","","","","","","","","","","231.5","","","","","","","","","","","","","","","","[{""page_index"":0,""viewing_time"":231.20000000298023}]"
"survey-debrief","436","1460576","0.0-13.0","","","","","","","","","","19409","","","","","","","","","","","","","","{""difficulty"":""4"",""fun"":""4"",""clarity"":""5"",""strategy"":""no, since there was a time limit on decisions."",""feedback"":""""}","",""
