"trial_type","trial_index","time_elapsed","internal_node_id","value","metadata","success","timeout","failed_images","failed_audio","failed_video","browser_interaction","low_quality","rt","stimulus","response","button_pressed","island_rt","island_response","boat_rt","boat_response","boat","reward","island_key","island","boat_key","reward_probabilities","responses","num_errors","view_history"
"pavlovia","0","2","0.0-0.0","","","","","","","","","","","","","","","","","","","","","","","","","",""
"call-function","1","2","0.0-1.0","","{""task_version"":""sr_pilot_v2"",""task_condition"":""good"",""boats"":[""A"",""D"",""C"",""B""],""boats_demo"":[""E"",""H"",""F"",""G""],""islands"":[""B"",""A""],""subject_id"":""13996"",""age"":""20"",""gender"":""Female""}","","","","","","","","","","","","","","","","","","","","","","","",""
"preload","2","3362","0.0-2.0","","","true","false","[]","[]","[]","[{""event"":""fullscreenenter"",""trial"":3,""time"":4960}]","false","","","","","","","","","","","","","","","","",""
"fullscreen","3","5951","0.0-3.0","","","true","","","","","","","","","","","","","","","","","","","","","","",""
"audio-keyboard-response","4","7217","0.0-4.0-0.0","","","","","","","","","","864","audio/beep_loop.wav"," ","","","","","","","","","","","","","",""
"audio-test","5","9630","0.0-4.0-1.0","","","","","","","","","","null","audio/turtle.mp3","","3","","","","","","","","","","","","",""
"audio-test","6","12083","0.0-4.0-2.0","","","","","","","","","","null","audio/shark.mp3","","2","","","","","","","","","","","","",""
"sailing-instructions","7","41935","0.0-5.0-0.0-0.0","","","","","","","","","","","","","","null","null","null","null","null","null","","","","","","",""
"sailing-trial","8","45723","0.0-5.0-0.0-1.0-0.0","","","","false","","","","","","","","","","2577.0999999046326","","null","","null","null","arrowleft","0","null","null","","",""
"sailing-trial","9","47681","0.0-5.0-0.0-1.0-1.0","","","","false","","","","","","","","","","860.6999998092651","","null","","null","null","arrowright","1","null","null","","",""
"sailing-trial","10","49979","0.0-5.0-0.0-1.0-2.0","","","","false","","","","","","","","","","1091.1999998092651","","null","","null","null","arrowleft","0","null","null","","",""
"sailing-instructions","11","91559","0.0-5.0-0.0-2.0","","","","","","","","","","","","","","null","null","null","null","0","null","","","","","","",""
"sailing-trial","12","97364","0.0-5.0-0.0-3.0-0.0","","","","false","","","","","","","","","","null","","2405.199999809265","","2","1","null","null","arrowleft","[1,1,1,1]","","",""
"sailing-trial","13","100514","0.0-5.0-0.0-3.0-1.0","","","","false","","","","","","","","","","null","","691.2999997138977","","3","1","null","null","arrowright","[1,1,1,1]","","",""
"sailing-trial","14","104278","0.0-5.0-0.0-3.0-2.0","","","","false","","","","","","","","","","null","","896.5999999046326","","2","0","null","null","arrowleft","[0,0,0,0]","","",""
"sailing-instructions","15","111671","0.0-5.0-0.0-4.0","","","","","","","","","","","","","","null","null","null","null","null","null","","","","","","",""
"sailing-comprehension","16","141576","0.0-5.0-0.0-5.0","","","","","","","","","","22697.60000038147","","","","","","","","","","","","","","[""true"",""false"",""true"",""false""]","3",""
"sailing-instructions","17","169241","0.0-5.0-0.1-0.1","","","","","","","","","","","","","","null","null","null","null","null","null","","","","","","",""
"sailing-trial","18","171564","0.0-5.0-0.1-1.1-0.1","","","","false","","","","","","","","","","1216.5999999046326","","null","","null","null","arrowleft","0","null","null","","",""
"sailing-trial","19","173598","0.0-5.0-0.1-1.1-1.1","","","","false","","","","","","","","","","851","","null","","null","null","arrowright","1","null","null","","",""
"sailing-trial","20","175499","0.0-5.0-0.1-1.1-2.1","","","","false","","","","","","","","","","805.2000002861023","","null","","null","null","arrowleft","0","null","null","","",""
"sailing-instructions","21","215804","0.0-5.0-0.1-2.1","","","","","","","","","","","","","","null","null","null","null","0","null","","","","","","",""
"sailing-trial","22","221982","0.0-5.0-0.1-3.1-0.1","","","","false","","","","","","","","","","null","","3000.699999809265","","2","1","null","null","arrowleft","[1,1,1,1]","","",""
"sailing-trial","23","225098","0.0-5.0-0.1-3.1-1.1","","","","false","","","","","","","","","","null","","636.2999997138977","","3","1","null","null","arrowright","[1,1,1,1]","","",""
"sailing-trial","24","227528","0.0-5.0-0.1-3.1-2.1","","","","false","","","","","","","","","","null","","37.69999980926514","","3","0","null","null","arrowright","[0,0,0,0]","","",""
"sailing-instructions","25","236508","0.0-5.0-0.1-4.1","","","","","","","","","","","","","","null","null","null","null","null","null","","","","","","",""
"sailing-comprehension","26","247430","0.0-5.0-0.1-5.1","","","","","","","","","","9225.099999904633","","","","","","","","","","","","","","[""true"",""true"",""false"",""true""]","0",""
"sailing-instructions","27","311971","0.0-6.0-0.0-0.0","","","","","","","","","","","","","","null","null","null","null","null","null","","","","","","",""
"sailing-comprehension","28","324133","0.0-6.0-0.0-1.0","","","","","","","","","","10902.5","","","","","","","","","","","","","","[""true"",""false"",""true""]","0",""
"sailing-instructions","29","339105","0.0-7.0-0.0-0.0","","","","","","","","","","","","","","null","null","null","null","null","null","","","","","","",""
"sailing-trial","30","343833","0.0-7.0-0.0-1.0-0.0","","","","false","","","","","","","","","","null","","2347.3999996185303","","0","0","null","null","arrowup","[0.2,0.8,0.2,0.8]","","",""
"sailing-trial","31","347480","0.0-7.0-0.0-1.0-1.0","","","","false","","","","","","","","","","null","","1598.0999999046326","","1","1","null","null","arrowup","[0.2,0.8,0.2,0.8]","","",""
"sailing-trial","32","349765","0.0-7.0-0.0-1.0-2.0","","","","false","","","","","","","","","","null","","878.5","","2","0","null","null","arrowup","[0.2,0.8,0.2,0.8]","","",""
"sailing-trial","33","352165","0.0-7.0-0.0-1.0-3.0","","","","false","","","","","","","","","","null","","593.6000003814697","","3","1","null","null","arrowup","[0.2,0.8,0.2,0.8]","","",""
"sailing-comprehension","34","361937","0.0-7.0-0.0-2.0","","","","","","","","","","8907.400000095367","","","","","","","","","","","","","","[""true""]","1",""
"sailing-instructions","35","375553","0.0-7.0-0.1-0.1","","","","","","","","","","","","","","null","null","null","null","null","null","","","","","","",""
"sailing-trial","36","378286","0.0-7.0-0.1-1.1-0.1","","","","false","","","","","","","","","","null","","1405.6000003814697","","0","0","null","null","arrowup","[0.2,0.8,0.2,0.8]","","",""
"sailing-trial","37","380610","0.0-7.0-0.1-1.1-1.1","","","","false","","","","","","","","","","null","","574","","1","0","null","null","arrowup","[0.2,0.8,0.2,0.8]","","",""
"sailing-trial","38","382406","0.0-7.0-0.1-1.1-2.1","","","","false","","","","","","","","","","null","","482.40000009536743","","2","0","null","null","arrowup","[0.2,0.8,0.2,0.8]","","",""
"sailing-trial","39","384788","0.0-7.0-0.1-1.1-3.1","","","","false","","","","","","","","","","null","","516.0999999046326","","3","1","null","null","arrowup","[0.2,0.8,0.2,0.8]","","",""
"sailing-comprehension","40","391918","0.0-7.0-0.1-2.1","","","","","","","","","","6063.200000286102","","","","","","","","","","","","","","[""false""]","0",""
"sailing-instructions","41","402196","0.0-8.0-0.0-0.0","","","","","","","","","","","","","","null","null","null","null","null","null","","","","","","",""
"sailing-comprehension","42","405992","0.0-8.0-0.0-1.0","","","","","","","","","","3147.699999809265","","","","","","","","","","","","","","[""true""]","0",""
"sailing-instructions","43","431905","0.0-9.0-0.0-0.0","","","","","","","","","","","","","","null","null","null","null","null","null","","","","","","",""
"sailing-trial","44","437476","0.0-9.0-0.0-1.0-0.0","","","","false","","","","","","","","","","1111.4000000953674","","1285.5","","2","0","arrowright","1","arrowleft","[0.2,0.8,0.2,0.8]","","",""
"sailing-trial","45","441730","0.0-9.0-0.0-1.0-1.0","","","","false","","","","","","","","","","968.6000003814697","","9.400000095367432","","1","1","arrowleft","0","arrowright","[0.2,0.8,0.2,0.8]","","",""
"sailing-trial","46","445879","0.0-9.0-0.0-1.0-2.0","","","","false","","","","","","","","","","null","","2161.2000002861023","","0","0","null","null","arrowup","[0.2,0.8,0.2,0.8]","","",""
"sailing-trial","47","450430","0.0-9.0-0.0-1.0-3.0","","","","false","","","","","","","","","","673.4000000953674","","755.6999998092651","","2","1","arrowright","1","arrowleft","[0.2,0.8,0.2,0.8]","","",""
"sailing-trial","48","453396","0.0-9.0-0.0-1.0-4.0","","","","false","","","","","","","","","","null","","1260","","3","0","null","null","arrowup","[0.2,0.8,0.2,0.8]","","",""
"sailing-trial","49","457975","0.0-9.0-0.0-1.0-5.0","","","","false","","","","","","","","","","815.3000001907349","","1069.6999998092651","","0","0","arrowleft","0","arrowleft","[0.2,0.8,0.2,0.8]","","",""
"sailing-instructions","50","484209","0.0-10.0","","","","","","","","","","","","","","null","null","null","null","null","null","","","","","","",""
"sailing-trial","51","489965","0.0-11.0-0.0","","","","false","","","","","","","","","","1838","","430.5","","2","1","arrowright","1","arrowleft","[0.15,0.85,0.675,0.325]","","",""
"sailing-trial","52","493181","0.0-11.0-1.0","","","","false","","","","","","","","","","null","","1229.4000000953674","","2","1","null","null","arrowup","[0.15,0.85,0.675,0.325]","","",""
"sailing-trial","53","497531","0.0-11.0-2.0","","","","false","","","","","","","","","","721.7999997138977","","470.2999997138977","","2","1","arrowright","1","arrowleft","[0.15,0.85,0.675,0.325]","","",""
"sailing-trial","54","500429","0.0-11.0-3.0","","","","false","","","","","","","","","","null","","985.3000001907349","","3","1","null","null","arrowup","[0.15,0.85,0.675,0.325]","","",""
"sailing-trial","55","504696","0.0-11.0-4.0","","","","false","","","","","","","","","","666.8000001907349","","140.09999990463257","","1","1","arrowleft","0","arrowright","[0.15,0.85,0.675,0.325]","","",""
"sailing-trial","56","507520","0.0-11.0-5.0","","","","false","","","","","","","","","","null","","1190.3000001907349","","2","0","null","null","arrowup","[0.15,0.85,0.675,0.325]","","",""
"sailing-trial","57","510843","0.0-11.0-6.0","","","","false","","","","","","","","","","552.5","","443.69999980926514","","2","0","arrowright","1","arrowleft","[0.15,0.85,0.675,0.325]","","",""
"sailing-trial","58","514347","0.0-11.0-7.0","","","","false","","","","","","","","","","null","","1326.2999997138977","","2","1","null","null","arrowup","[0.15,0.85,0.675,0.325]","","",""
"sailing-trial","59","518748","0.0-11.0-8.0","","","","false","","","","","","","","","","520.5","","542","","0","0","arrowleft","0","arrowleft","[0.15,0.85,0.675,0.325]","","",""
"sailing-trial","60","521627","0.0-11.0-9.0","","","","false","","","","","","","","","","null","","1214.7999997138977","","0","0","null","null","arrowup","[0.15,0.85,0.675,0.325]","","",""
"sailing-trial","61","525147","0.0-11.0-10.0","","","","false","","","","","","","","","","510.59999990463257","","120.09999990463257","","2","0","arrowright","1","arrowleft","[0.15,0.85,0.675,0.325]","","",""
"sailing-trial","62","528082","0.0-11.0-11.0","","","","false","","","","","","","","","","null","","1064.4000000953674","","1","1","null","null","arrowup","[0.15,0.85,0.675,0.325]","","",""
"sailing-trial","63","533048","0.0-11.0-12.0","","","","false","","","","","","","","","","1198.5","","530.1999998092651","","1","1","arrowleft","0","arrowright","[0.15,0.85,0.675,0.325]","","",""
"sailing-trial","64","536813","0.0-11.0-13.0","","","","false","","","","","","","","","","null","","1936.0999999046326","","3","1","null","null","arrowup","[0.15,0.85,0.675,0.325]","","",""
"sailing-trial","65","540440","0.0-11.0-14.0","","","","false","","","","","","","","","","494.5","","213.2000002861023","","3","0","arrowright","1","arrowright","[0.15,0.85,0.675,0.325]","","",""
"sailing-trial","66","543248","0.0-11.0-15.0","","","","false","","","","","","","","","","null","","936.5999999046326","","3","1","null","null","arrowup","[0.15,0.85,0.675,0.325]","","",""
"sailing-trial","67","547646","0.0-11.0-16.0","","","","false","","","","","","","","","","859.8000001907349","","393.40000009536743","","2","1","arrowright","1","arrowleft","[0.15,0.85,0.675,0.325]","","",""
"sailing-trial","68","550564","0.0-11.0-17.0","","","","false","","","","","","","","","","null","","1123.6999998092651","","0","1","null","null","arrowup","[0.15,0.85,0.675,0.325]","","",""
"sailing-trial","69","554449","0.0-11.0-18.0","","","","false","","","","","","","","","","443.69999980926514","","165.69999980926514","","2","1","arrowright","1","arrowleft","[0.15,0.85,0.675,0.325]","","",""
"sailing-trial","70","557064","0.0-11.0-19.0","","","","false","","","","","","","","","","null","","813.7999997138977","","2","1","null","null","arrowup","[0.15,0.85,0.675,0.325]","","",""
"sailing-trial","71","561014","0.0-11.0-20.0","","","","false","","","","","","","","","","582.0999999046326","","483.8999996185303","","1","1","arrowleft","0","arrowright","[0.15,0.85,0.675,0.325]","","",""
"sailing-trial","72","563730","0.0-11.0-21.0","","","","false","","","","","","","","","","null","","859.7999997138977","","3","1","null","null","arrowup","[0.15,0.85,0.675,0.325]","","",""
"sailing-trial","73","567361","0.0-11.0-22.0","","","","false","","","","","","","","","","542.7000002861023","","238.5","","0","0","arrowleft","0","arrowleft","[0.15,0.85,0.675,0.325]","","",""
"sailing-trial","74","570114","0.0-11.0-23.0","","","","false","","","","","","","","","","null","","839.0999999046326","","2","1","null","null","arrowup","[0.15,0.85,0.675,0.325]","","",""
"sailing-trial","75","573980","0.0-11.0-24.0","","","","false","","","","","","","","","","462.1000003814697","","479.59999990463257","","0","1","arrowleft","0","arrowleft","[0.85,0.15,0.325,0.675]","","",""
"sailing-trial","76","576498","0.0-11.0-25.0","","","","false","","","","","","","","","","null","","765.6999998092651","","2","1","null","null","arrowup","[0.85,0.15,0.325,0.675]","","",""
"sailing-trial","77","580280","0.0-11.0-26.0","","","","false","","","","","","","","","","416.09999990463257","","304.30000019073486","","0","1","arrowleft","0","arrowleft","[0.85,0.15,0.325,0.675]","","",""
"sailing-trial","78","582748","0.0-11.0-27.0","","","","false","","","","","","","","","","null","","654.0999999046326","","3","1","null","null","arrowup","[0.85,0.15,0.325,0.675]","","",""
"sailing-trial","79","586565","0.0-11.0-28.0","","","","false","","","","","","","","","","563.8999996185303","","385.09999990463257","","0","1","arrowleft","0","arrowleft","[0.85,0.15,0.325,0.675]","","",""
"sailing-trial","80","590013","0.0-11.0-29.0","","","","false","","","","","","","","","","null","","1474.6999998092651","","0","1","null","null","arrowup","[0.85,0.15,0.325,0.675]","","",""
"sailing-trial","81","594363","0.0-11.0-30.0","","","","false","","","","","","","","","","523.4000000953674","","1032.7999997138977","","0","1","arrowleft","0","arrowleft","[0.85,0.15,0.325,0.675]","","",""
"sailing-trial","82","596592","0.0-11.0-31.0","","","","false","","","","","","","","","","null","","843.9000000953674","","1","0","null","null","arrowup","[0.85,0.15,0.325,0.675]","","",""
"sailing-trial","83","600749","0.0-11.0-32.0","","","","false","","","","","","","","","","513.3999996185303","","414.6000003814697","","0","1","arrowleft","0","arrowleft","[0.85,0.15,0.325,0.675]","","",""
"sailing-trial","84","603547","0.0-11.0-33.0","","","","false","","","","","","","","","","null","","820","","0","1","null","null","arrowup","[0.85,0.15,0.325,0.675]","","",""
"sailing-trial","85","607682","0.0-11.0-34.0","","","","false","","","","","","","","","","581.8999996185303","","875.5","","0","1","arrowleft","0","arrowleft","[0.85,0.15,0.325,0.675]","","",""
"sailing-trial","86","610308","0.0-11.0-35.0","","","","false","","","","","","","","","","null","","1297.3000001907349","","1","0","null","null","arrowup","[0.85,0.15,0.325,0.675]","","",""
"sailing-trial","87","613591","0.0-11.0-36.0","","","","false","","","","","","","","","","414.5","","204.09999990463257","","0","0","arrowleft","0","arrowleft","[0.85,0.15,0.325,0.675]","","",""
"sailing-trial","88","616314","0.0-11.0-37.0","","","","false","","","","","","","","","","null","","889.5999999046326","","1","1","null","null","arrowup","[0.85,0.15,0.325,0.675]","","",""
"sailing-trial","89","620513","0.0-11.0-38.0","","","","false","","","","","","","","","","536.5999999046326","","255","","0","1","arrowleft","0","arrowleft","[0.85,0.15,0.325,0.675]","","",""
"sailing-trial","90","622980","0.0-11.0-39.0","","","","false","","","","","","","","","","null","","671","","0","1","null","null","arrowup","[0.85,0.15,0.325,0.675]","","",""
"sailing-trial","91","626715","0.0-11.0-40.0","","","","false","","","","","","","","","","525.8999996185303","","155.2999997138977","","2","1","arrowright","1","arrowleft","[0.85,0.15,0.325,0.675]","","",""
"sailing-trial","92","629614","0.0-11.0-41.0","","","","false","","","","","","","","","","null","","926.5","","1","1","null","null","arrowup","[0.85,0.15,0.325,0.675]","","",""
"sailing-trial","93","632869","0.0-11.0-42.0","","","","false","","","","","","","","","","546.4000000953674","","435.5","","2","0","arrowright","1","arrowleft","[0.675,0.325,0.15,0.85]","","",""
"sailing-trial","94","635520","0.0-11.0-43.0","","","","false","","","","","","","","","","null","","1349.1999998092651","","2","0","null","null","arrowup","[0.675,0.325,0.15,0.85]","","",""
"sailing-trial","95","639346","0.0-11.0-44.0","","","","false","","","","","","","","","","618.5999999046326","","333.8999996185303","","1","0","arrowleft","0","arrowright","[0.675,0.325,0.15,0.85]","","",""
"sailing-trial","96","642014","0.0-11.0-45.0","","","","false","","","","","","","","","","null","","882.4000000953674","","0","1","null","null","arrowup","[0.675,0.325,0.15,0.85]","","",""
"sailing-trial","97","645980","0.0-11.0-46.0","","","","false","","","","","","","","","","499.59999990463257","","407.5","","3","1","arrowright","1","arrowright","[0.675,0.325,0.15,0.85]","","",""
"sailing-trial","98","648315","0.0-11.0-47.0","","","","false","","","","","","","","","","null","","444.30000019073486","","3","1","null","null","arrowup","[0.675,0.325,0.15,0.85]","","",""
"sailing-trial","99","652131","0.0-11.0-48.0","","","","false","","","","","","","","","","510.8999996185303","","430.7999997138977","","3","1","arrowright","1","arrowright","[0.675,0.325,0.15,0.85]","","",""
"sailing-trial","100","654514","0.0-11.0-49.0","","","","false","","","","","","","","","","null","","457.69999980926514","","3","1","null","null","arrowup","[0.675,0.325,0.15,0.85]","","",""
"sailing-trial","101","658731","0.0-11.0-50.0","","","","false","","","","","","","","","","510.69999980926514","","743.6999998092651","","3","1","arrowright","1","arrowright","[0.675,0.325,0.15,0.85]","","",""
"sailing-trial","102","661407","0.0-11.0-51.0","","","","false","","","","","","","","","","null","","1089.7999997138977","","1","0","null","null","arrowup","[0.675,0.325,0.15,0.85]","","",""
"sailing-trial","103","665081","0.0-11.0-52.0","","","","false","","","","","","","","","","488.19999980926514","","475","","3","0","arrowright","1","arrowright","[0.675,0.325,0.15,0.85]","","",""
"sailing-trial","104","667832","0.0-11.0-53.0","","","","false","","","","","","","","","","null","","910.8000001907349","","2","1","null","null","arrowup","[0.675,0.325,0.15,0.85]","","",""
"sailing-trial","105","671044","0.0-11.0-54.0","","","","false","","","","","","","","","","476.5","","48","","0","0","arrowleft","0","arrowleft","[0.675,0.325,0.15,0.85]","","",""
"sailing-trial","106","673228","0.0-11.0-55.0","","","","false","","","","","","","","","","null","","891","","2","0","null","null","arrowup","[0.675,0.325,0.15,0.85]","","",""
"sailing-trial","107","676931","0.0-11.0-56.0","","","","false","","","","","","","","","","528.2000002861023","","409.59999990463257","","1","0","arrowleft","0","arrowright","[0.675,0.325,0.15,0.85]","","",""
"sailing-trial","108","679980","0.0-11.0-57.0","","","","false","","","","","","","","","","null","","950.4000000953674","","3","1","null","null","arrowup","[0.675,0.325,0.15,0.85]","","",""
"sailing-trial","109","683500","0.0-11.0-58.0","","","","false","","","","","","","","","","604.7000002861023","","411.7999997138977","","1","0","arrowleft","0","arrowright","[0.675,0.325,0.15,0.85]","","",""
"sailing-trial","110","686431","0.0-11.0-59.0","","","","false","","","","","","","","","","null","","955.6000003814697","","3","1","null","null","arrowup","[0.675,0.325,0.15,0.85]","","",""
"sailing-trial","111","690032","0.0-11.0-60.0","","","","false","","","","","","","","","","511.19999980926514","","104","","3","1","arrowright","1","arrowright","[0.85,0.15,0.325,0.675]","","",""
"sailing-trial","112","692432","0.0-11.0-61.0","","","","false","","","","","","","","","","null","","541.0999999046326","","0","1","null","null","arrowup","[0.85,0.15,0.325,0.675]","","",""
"sailing-trial","113","696781","0.0-11.0-62.0","","","","false","","","","","","","","","","675","","199.09999990463257","","0","1","arrowleft","0","arrowleft","[0.85,0.15,0.325,0.675]","","",""
"sailing-trial","114","699280","0.0-11.0-63.0","","","","false","","","","","","","","","","null","","618","","0","1","null","null","arrowup","[0.85,0.15,0.325,0.675]","","",""
"sailing-trial","115","703382","0.0-11.0-64.0","","","","false","","","","","","","","","","537.7999997138977","","619.9000000953674","","0","1","arrowleft","0","arrowleft","[0.85,0.15,0.325,0.675]","","",""
"sailing-trial","116","705847","0.0-11.0-65.0","","","","false","","","","","","","","","","null","","637.7999997138977","","3","1","null","null","arrowup","[0.85,0.15,0.325,0.675]","","",""
"sailing-trial","117","709766","0.0-11.0-66.0","","","","false","","","","","","","","","","543.5","","80.39999961853027","","3","1","arrowright","1","arrowright","[0.85,0.15,0.325,0.675]","","",""
"sailing-trial","118","712513","0.0-11.0-67.0","","","","false","","","","","","","","","","null","","935.7000002861023","","3","1","null","null","arrowup","[0.85,0.15,0.325,0.675]","","",""
"sailing-trial","119","717298","0.0-11.0-68.0","","","","false","","","","","","","","","","944","","55.19999980926514","","2","1","arrowright","1","arrowleft","[0.85,0.15,0.325,0.675]","","",""
"sailing-trial","120","719242","0.0-11.0-69.0","","","","false","","","","","","","","","","null","","650.5999999046326","","0","0","null","null","arrowup","[0.85,0.15,0.325,0.675]","","",""
"sailing-trial","121","723198","0.0-11.0-70.0","","","","false","","","","","","","","","","496.3999996185303","","287.2000002861023","","0","1","arrowleft","0","arrowleft","[0.85,0.15,0.325,0.675]","","",""
"sailing-trial","122","725229","0.0-11.0-71.0","","","","false","","","","","","","","","","null","","736.5999999046326","","3","0","null","null","arrowup","[0.85,0.15,0.325,0.675]","","",""
"sailing-trial","123","728269","0.0-11.0-72.0","","","","false","","","","","","","","","","463.7999997138977","","63","","1","0","arrowleft","0","arrowright","[0.85,0.15,0.325,0.675]","","",""
"sailing-trial","124","731231","0.0-11.0-73.0","","","","false","","","","","","","","","","null","","904.2000002861023","","2","1","null","null","arrowup","[0.85,0.15,0.325,0.675]","","",""
"sailing-trial","125","736265","0.0-11.0-74.0","","","","false","","","","","","","","","","954.6000003814697","","844.2000002861023","","0","1","arrowleft","0","arrowleft","[0.85,0.15,0.325,0.675]","","",""
"sailing-trial","126","739065","0.0-11.0-75.0","","","","false","","","","","","","","","","null","","690.5","","0","1","null","null","arrowup","[0.85,0.15,0.325,0.675]","","",""
"sailing-trial","127","742831","0.0-11.0-76.0","","","","false","","","","","","","","","","529.5999999046326","","320.6000003814697","","3","1","arrowright","1","arrowright","[0.675,0.325,0.15,0.85]","","",""
"sailing-trial","128","745146","0.0-11.0-77.0","","","","false","","","","","","","","","","null","","469.90000009536743","","0","1","null","null","arrowup","[0.675,0.325,0.15,0.85]","","",""
"sailing-trial","129","748513","0.0-11.0-78.0","","","","false","","","","","","","","","","419.80000019073486","","238.2000002861023","","3","1","arrowright","1","arrowright","[0.675,0.325,0.15,0.85]","","",""
"sailing-trial","130","750330","0.0-11.0-79.0","","","","false","","","","","","","","","","null","","681.9000000953674","","3","0","null","null","arrowup","[0.675,0.325,0.15,0.85]","","",""
"sailing-trial","131","754820","0.0-11.0-80.0","","","","false","","","","","","","","","","1067.1999998092651","","776.6999998092651","","1","0","arrowleft","0","arrowright","[0.675,0.325,0.15,0.85]","","",""
"sailing-trial","132","757032","0.0-11.0-81.0","","","","false","","","","","","","","","","null","","923.4000000953674","","0","0","null","null","arrowup","[0.675,0.325,0.15,0.85]","","",""
"sailing-trial","133","760493","0.0-11.0-82.0","","","","false","","","","","","","","","","556.7000002861023","","286.7999997138977","","2","0","arrowright","1","arrowleft","[0.675,0.325,0.15,0.85]","","",""
"sailing-trial","134","763614","0.0-11.0-83.0","","","","false","","","","","","","","","","null","","1240.7000002861023","","1","1","null","null","arrowup","[0.675,0.325,0.15,0.85]","","",""
"sailing-trial","135","767165","0.0-11.0-84.0","","","","false","","","","","","","","","","561.5999999046326","","12","","3","1","arrowright","1","arrowright","[0.675,0.325,0.15,0.85]","","",""
"sailing-trial","136","769781","0.0-11.0-85.0","","","","false","","","","","","","","","","null","","827.6999998092651","","3","1","null","null","arrowup","[0.675,0.325,0.15,0.85]","","",""
"sailing-trial","137","773669","0.0-11.0-86.0","","","","false","","","","","","","","","","733.7999997138977","","450.1000003814697","","2","0","arrowright","1","arrowleft","[0.675,0.325,0.15,0.85]","","",""
"sailing-trial","138","776248","0.0-11.0-87.0","","","","false","","","","","","","","","","null","","665.9000000953674","","3","1","null","null","arrowup","[0.675,0.325,0.15,0.85]","","",""
"sailing-trial","139","780005","0.0-11.0-88.0","","","","false","","","","","","","","","","576.5","","195.69999980926514","","2","0","arrowright","1","arrowleft","[0.675,0.325,0.15,0.85]","","",""
"sailing-trial","140","782880","0.0-11.0-89.0","","","","false","","","","","","","","","","null","","1113.5","","0","1","null","null","arrowup","[0.675,0.325,0.15,0.85]","","",""
"sailing-trial","141","787280","0.0-11.0-90.0","","","","false","","","","","","","","","","741","","885.2999997138977","","3","1","arrowright","1","arrowright","[0.675,0.325,0.15,0.85]","","",""
"sailing-trial","142","789395","0.0-11.0-91.0","","","","false","","","","","","","","","","null","","732.8000001907349","","1","0","null","null","arrowup","[0.675,0.325,0.15,0.85]","","",""
"sailing-trial","143","793013","0.0-11.0-92.0","","","","false","","","","","","","","","","531.7000002861023","","81.90000009536743","","0","1","arrowleft","0","arrowleft","[0.85,0.15,0.325,0.675]","","",""
"sailing-trial","144","795350","0.0-11.0-93.0","","","","false","","","","","","","","","","null","","1053.7000002861023","","2","0","null","null","arrowup","[0.85,0.15,0.325,0.675]","","",""
"sailing-trial","145","799145","0.0-11.0-94.0","","","","false","","","","","","","","","","540.6999998092651","","396.5","","2","0","arrowright","1","arrowleft","[0.85,0.15,0.325,0.675]","","",""
"sailing-trial","146","803494","0.0-11.0-95.0","","","","false","","","","","","","","","","null","","2492.300000190735","","2","0","null","null","arrowup","[0.85,0.15,0.325,0.675]","","",""
"sailing-trial","147","808214","0.0-11.0-96.0","","","","false","","","","","","","","","","816.1999998092651","","174.5","","3","1","arrowright","1","arrowright","[0.85,0.15,0.325,0.675]","","",""
"sailing-trial","148","811282","0.0-11.0-97.0","","","","false","","","","","","","","","","null","","932.3000001907349","","3","1","null","null","arrowup","[0.85,0.15,0.325,0.675]","","",""
"sailing-trial","149","814727","0.0-11.0-98.0","","","","false","","","","","","","","","","705.2999997138977","","169.40000009536743","","1","0","arrowleft","0","arrowright","[0.85,0.15,0.325,0.675]","","",""
"sailing-trial","150","817298","0.0-11.0-99.0","","","","false","","","","","","","","","","null","","719.4000000953674","","3","1","null","null","arrowup","[0.85,0.15,0.325,0.675]","","",""
"sailing-trial","151","821065","0.0-11.0-100.0","","","","false","","","","","","","","","","644.2999997138977","","249.59999990463257","","0","1","arrowleft","0","arrowleft","[0.85,0.15,0.325,0.675]","","",""
"sailing-trial","152","823453","0.0-11.0-101.0","","","","false","","","","","","","","","","null","","970.0999999046326","","1","0","null","null","arrowup","[0.85,0.15,0.325,0.675]","","",""
"sailing-trial","153","827261","0.0-11.0-102.0","","","","false","","","","","","","","","","711.5999999046326","","386.5","","0","0","arrowleft","0","arrowleft","[0.85,0.15,0.325,0.675]","","",""
"sailing-trial","154","829898","0.0-11.0-103.0","","","","false","","","","","","","","","","null","","1301.4000000953674","","1","0","null","null","arrowup","[0.85,0.15,0.325,0.675]","","",""
"sailing-trial","155","833385","0.0-11.0-104.0","","","","false","","","","","","","","","","560.1999998092651","","441.30000019073486","","3","0","arrowright","1","arrowright","[0.85,0.15,0.325,0.675]","","",""
"sailing-trial","156","835646","0.0-11.0-105.0","","","","false","","","","","","","","","","null","","910.5","","1","0","null","null","arrowup","[0.85,0.15,0.325,0.675]","","",""
"sailing-trial","157","838742","0.0-11.0-106.0","","","","false","","","","","","","","","","654.5999999046326","","5.099999904632568","","1","0","arrowleft","0","arrowright","[0.85,0.15,0.325,0.675]","","",""
"sailing-trial","158","840649","0.0-11.0-107.0","","","","false","","","","","","","","","","null","","624.9000000953674","","1","0","null","null","arrowup","[0.85,0.15,0.325,0.675]","","",""
"sailing-trial","159","845619","0.0-11.0-108.0","","","","false","","","","","","","","","","502.5","","379.2999997138977","","2","0","arrowright","1","arrowleft","[0.675,0.325,0.15,0.85]","","",""
"sailing-trial","160","847678","0.0-11.0-109.0","","","","false","","","","","","","","","","null","","692.0999999046326","","0","0","null","null","arrowup","[0.675,0.325,0.15,0.85]","","",""
"sailing-trial","161","852215","0.0-11.0-110.0","","","","false","","","","","","","","","","703.9000000953674","","547.5","","3","1","arrowright","1","arrowright","[0.675,0.325,0.15,0.85]","","",""
"sailing-trial","162","854360","0.0-11.0-111.0","","","","false","","","","","","","","","","null","","792.0999999046326","","0","0","null","null","arrowup","[0.675,0.325,0.15,0.85]","","",""
"sailing-trial","163","859997","0.0-11.0-112.0","","","","false","","","","","","","","","","552.6999998092651","","526.6000003814697","","3","1","arrowright","1","arrowright","[0.675,0.325,0.15,0.85]","","",""
"sailing-trial","164","862076","0.0-11.0-113.0","","","","false","","","","","","","","","","null","","795.7000002861023","","2","0","null","null","arrowup","[0.675,0.325,0.15,0.85]","","",""
"sailing-trial","165","865343","0.0-11.0-114.0","","","","false","","","","","","","","","","515","","310.59999990463257","","3","0","arrowright","1","arrowright","[0.675,0.325,0.15,0.85]","","",""
"sailing-trial","166","867931","0.0-11.0-115.0","","","","false","","","","","","","","","","null","","687.7999997138977","","2","1","null","null","arrowup","[0.675,0.325,0.15,0.85]","","",""
"sailing-trial","167","871271","0.0-11.0-116.0","","","","false","","","","","","","","","","692","","371.2000002861023","","2","0","arrowright","1","arrowleft","[0.675,0.325,0.15,0.85]","","",""
"sailing-trial","168","874098","0.0-11.0-117.0","","","","false","","","","","","","","","","null","","813.9000000953674","","3","1","null","null","arrowup","[0.675,0.325,0.15,0.85]","","",""
"sailing-trial","169","877732","0.0-11.0-118.0","","","","false","","","","","","","","","","904.8000001907349","","70.7000002861023","","3","1","arrowright","1","arrowright","[0.675,0.325,0.15,0.85]","","",""
"sailing-trial","170","879559","0.0-11.0-119.0","","","","false","","","","","","","","","","null","","452.5","","1","0","null","null","arrowup","[0.675,0.325,0.15,0.85]","","",""
"sailing-trial","171","883349","0.0-11.0-120.0","","","","false","","","","","","","","","","588","","627.7999997138977","","0","0","arrowleft","0","arrowleft","[0.675,0.325,0.15,0.85]","","",""
"sailing-trial","172","885593","0.0-11.0-121.0","","","","false","","","","","","","","","","null","","951.0999999046326","","0","0","null","null","arrowup","[0.675,0.325,0.15,0.85]","","",""
"sailing-trial","173","889204","0.0-11.0-122.0","","","","false","","","","","","","","","","603.3000001907349","","428.30000019073486","","2","0","arrowright","1","arrowleft","[0.675,0.325,0.15,0.85]","","",""
"sailing-trial","174","895723","0.0-11.0-123.0","","","","false","","","","","","","","","","null","","4941.800000190735","","2","0","null","null","arrowup","[0.675,0.325,0.15,0.85]","","",""
"sailing-trial","175","900032","0.0-11.0-124.0","","","","false","","","","","","","","","","668.2999997138977","","276.5","","1","1","arrowleft","0","arrowright","[0.325,0.675,0.85,0.15]","","",""
"sailing-trial","176","902302","0.0-11.0-125.0","","","","false","","","","","","","","","","null","","774.5999999046326","","2","0","null","null","arrowup","[0.325,0.675,0.85,0.15]","","",""
"sailing-trial","177","906747","0.0-11.0-126.0","","","","false","","","","","","","","","","763.7999997138977","","533.3000001907349","","1","1","arrowleft","0","arrowright","[0.325,0.675,0.85,0.15]","","",""
"sailing-trial","178","908917","0.0-11.0-127.0","","","","false","","","","","","","","","","null","","656.0999999046326","","0","0","null","null","arrowup","[0.325,0.675,0.85,0.15]","","",""
"sailing-trial","179","914655","0.0-11.0-128.0","","","","false","","","","","","","","","","1193.5","","1787.5","","3","0","arrowright","1","arrowright","[0.325,0.675,0.85,0.15]","","",""
"sailing-trial","180","918030","0.0-11.0-129.0","","","","false","","","","","","","","","","null","","1465.5999999046326","","1","1","null","null","arrowup","[0.325,0.675,0.85,0.15]","","",""
"sailing-trial","181","923147","0.0-11.0-130.0","","","","false","","","","","","","","","","1213.3000001907349","","753.1999998092651","","1","1","arrowleft","0","arrowright","[0.325,0.675,0.85,0.15]","","",""
"sailing-trial","182","926064","0.0-11.0-131.0","","","","false","","","","","","","","","","null","","840.3999996185303","","1","1","null","null","arrowup","[0.325,0.675,0.85,0.15]","","",""
"sailing-trial","183","931080","0.0-11.0-132.0","","","","false","","","","","","","","","","513.6000003814697","","441.7999997138977","","3","1","arrowright","1","arrowright","[0.325,0.675,0.85,0.15]","","",""
"sailing-trial","184","934348","0.0-11.0-133.0","","","","false","","","","","","","","","","null","","1170.8000001907349","","2","1","null","null","arrowup","[0.325,0.675,0.85,0.15]","","",""
"sailing-trial","185","938860","0.0-11.0-134.0","","","","false","","","","","","","","","","494.1000003814697","","30.40000009536743","","1","0","arrowleft","0","arrowright","[0.325,0.675,0.85,0.15]","","",""
"sailing-trial","186","942313","0.0-11.0-135.0","","","","false","","","","","","","","","","null","","1363.5","","1","1","null","null","arrowup","[0.325,0.675,0.85,0.15]","","",""
"sailing-trial","187","946538","0.0-11.0-136.0","","","","false","","","","","","","","","","612.8999996185303","","604.9000000953674","","0","0","arrowleft","0","arrowleft","[0.325,0.675,0.85,0.15]","","",""
"sailing-trial","188","950155","0.0-11.0-137.0","","","","false","","","","","","","","","","null","","2278.5","","0","0","null","null","arrowup","[0.325,0.675,0.85,0.15]","","",""
"sailing-trial","189","957500","0.0-11.0-138.0","","","","false","","","","","","","","","","629.2999997138977","","3902.3999996185303","","3","0","arrowright","1","arrowright","[0.325,0.675,0.85,0.15]","","",""
"sailing-trial","190","962013","0.0-11.0-139.0","","","","false","","","","","","","","","","null","","1056.7000002861023","","1","1","null","null","arrowup","[0.325,0.675,0.85,0.15]","","",""
"sailing-trial","191","968115","0.0-11.0-140.0","","","","false","","","","","","","","","","708.0999999046326","","701.1000003814697","","1","1","arrowleft","0","arrowright","[0.325,0.675,0.85,0.15]","","",""
"sailing-trial","192","972920","0.0-11.0-141.0","","","","false","","","","","","","","","","null","","2978.5999999046326","","0","0","null","null","arrowup","[0.325,0.675,0.85,0.15]","","",""
"sailing-trial","193","978401","0.0-11.0-142.0","","","","false","","","","","","","","","","676.0999999046326","","732.8999996185303","","0","0","arrowleft","0","arrowleft","[0.15,0.85,0.675,0.325]","","",""
"sailing-trial","194","983398","0.0-11.0-143.0","","","","false","","","","","","","","","","null","","2745.199999809265","","1","1","null","null","arrowup","[0.15,0.85,0.675,0.325]","","",""
"sailing-trial","195","987382","0.0-11.0-144.0","","","","false","","","","","","","","","","854.3000001907349","","116.09999990463257","","1","1","arrowleft","0","arrowright","[0.15,0.85,0.675,0.325]","","",""
"sailing-trial","196","992682","0.0-11.0-145.0","","","","false","","","","","","","","","","null","","3467.4000000953674","","0","1","null","null","arrowup","[0.15,0.85,0.675,0.325]","","",""
"sailing-trial","197","996914","0.0-11.0-146.0","","","","false","","","","","","","","","","570","","339.69999980926514","","1","1","arrowleft","0","arrowright","[0.15,0.85,0.675,0.325]","","",""
"sailing-trial","198","999798","0.0-11.0-147.0","","","","false","","","","","","","","","","null","","900.6999998092651","","1","1","null","null","arrowup","[0.15,0.85,0.675,0.325]","","",""
"sailing-trial","199","1004630","0.0-11.0-148.0","","","","false","","","","","","","","","","621.6999998092651","","467","","1","1","arrowleft","0","arrowright","[0.15,0.85,0.675,0.325]","","",""
"sailing-trial","200","1007815","0.0-11.0-149.0","","","","false","","","","","","","","","","null","","1188.3999996185303","","2","1","null","null","arrowup","[0.15,0.85,0.675,0.325]","","",""
"sailing-trial","201","1012147","0.0-11.0-150.0","","","","false","","","","","","","","","","844.8000001907349","","67.30000019073486","","1","1","arrowleft","0","arrowright","[0.15,0.85,0.675,0.325]","","",""
"sailing-trial","202","1014864","0.0-11.0-151.0","","","","false","","","","","","","","","","null","","742.1999998092651","","2","1","null","null","arrowup","[0.15,0.85,0.675,0.325]","","",""
"sailing-trial","203","1019931","0.0-11.0-152.0","","","","false","","","","","","","","","","610.9000000953674","","894.1999998092651","","2","1","arrowright","1","arrowleft","[0.15,0.85,0.675,0.325]","","",""
"sailing-trial","204","1023014","0.0-11.0-153.0","","","","false","","","","","","","","","","null","","1189.0999999046326","","2","1","null","null","arrowup","[0.15,0.85,0.675,0.325]","","",""
"sailing-trial","205","1031582","0.0-11.0-154.0","","","","false","","","","","","","","","","1697.5","","2235.5999999046326","","1","1","arrowleft","0","arrowright","[0.15,0.85,0.675,0.325]","","",""
"sailing-trial","206","1034166","0.0-11.0-155.0","","","","false","","","","","","","","","","null","","1166.6999998092651","","3","0","null","null","arrowup","[0.15,0.85,0.675,0.325]","","",""
"sailing-trial","207","1040428","0.0-11.0-156.0","","","","false","","","","","","","","","","1233.8999996185303","","1089.4000000953674","","1","1","arrowleft","0","arrowright","[0.15,0.85,0.675,0.325]","","",""
"sailing-trial","208","1044066","0.0-11.0-157.0","","","","false","","","","","","","","","","null","","725","","2","1","null","null","arrowup","[0.15,0.85,0.675,0.325]","","",""
"sailing-trial","209","1050115","0.0-11.0-158.0","","","","false","","","","","","","","","","2012.6999998092651","","168.90000009536743","","1","1","arrowleft","0","arrowright","[0.15,0.85,0.675,0.325]","","",""
"sailing-trial","210","1054932","0.0-11.0-159.0","","","","false","","","","","","","","","","null","","2698.5999999046326","","2","1","null","null","arrowup","[0.15,0.85,0.675,0.325]","","",""
"sailing-trial","211","1058628","0.0-11.0-160.0","","","","false","","","","","","","","","","937.8000001907349","","221.2000002861023","","1","0","arrowleft","0","arrowright","[0.85,0.15,0.325,0.675]","","",""
"sailing-trial","212","1061079","0.0-11.0-161.0","","","","false","","","","","","","","","","null","","943.9000000953674","","1","0","null","null","arrowup","[0.85,0.15,0.325,0.675]","","",""
"sailing-trial","213","1071757","0.0-11.0-162.0","","","","false","","","","","","","","","","7609.39999961853","","155.09999990463257","","0","0","arrowleft","0","arrowleft","[0.85,0.15,0.325,0.675]","","",""
"sailing-trial","214","1074297","0.0-11.0-163.0","","","","false","","","","","","","","","","null","","921.9000000953674","","2","0","null","null","arrowup","[0.85,0.15,0.325,0.675]","","",""
"sailing-trial","215","1078465","0.0-11.0-164.0","","","","false","","","","","","","","","","680.0999999046326","","346.8999996185303","","3","1","arrowright","1","arrowright","[0.85,0.15,0.325,0.675]","","",""
"sailing-trial","216","1080801","0.0-11.0-165.0","","","","false","","","","","","","","","","null","","830.8000001907349","","1","0","null","null","arrowup","[0.85,0.15,0.325,0.675]","","",""
"sailing-trial","217","1085297","0.0-11.0-166.0","","","","false","","","","","","","","","","604.9000000953674","","1199.8000001907349","","1","0","arrowleft","0","arrowright","[0.85,0.15,0.325,0.675]","","",""
"sailing-trial","218","1087783","0.0-11.0-167.0","","","","false","","","","","","","","","","null","","1089.6999998092651","","3","0","null","null","arrowup","[0.85,0.15,0.325,0.675]","","",""
"sailing-trial","219","1091526","0.0-11.0-168.0","","","","false","","","","","","","","","","739.3000001907349","","432.30000019073486","","2","0","arrowright","1","arrowleft","[0.85,0.15,0.325,0.675]","","",""
"sailing-trial","220","1093955","0.0-11.0-169.0","","","","false","","","","","","","","","","null","","964.9000000953674","","1","0","null","null","arrowup","[0.85,0.15,0.325,0.675]","","",""
"sailing-trial","221","1097384","0.0-11.0-170.0","","","","false","","","","","","","","","","618.2000002861023","","322.19999980926514","","3","0","arrowright","1","arrowright","[0.85,0.15,0.325,0.675]","","",""
"sailing-trial","222","1099528","0.0-11.0-171.0","","","","false","","","","","","","","","","null","","755.5999999046326","","1","0","null","null","arrowup","[0.85,0.15,0.325,0.675]","","",""
"sailing-trial","223","1104385","0.0-11.0-172.0","","","","false","","","","","","","","","","723.6999998092651","","63.799999713897705","","1","0","arrowleft","0","arrowright","[0.85,0.15,0.325,0.675]","","",""
"sailing-trial","224","1107531","0.0-11.0-173.0","","","","false","","","","","","","","","","null","","1204.8000001907349","","0","1","null","null","arrowup","[0.85,0.15,0.325,0.675]","","",""
"sailing-trial","225","1111564","0.0-11.0-174.0","","","","false","","","","","","","","","","1156.8000001907349","","239","","3","0","arrowright","1","arrowright","[0.85,0.15,0.325,0.675]","","",""
"sailing-trial","226","1114223","0.0-11.0-175.0","","","","false","","","","","","","","","","null","","994.8000001907349","","3","0","null","null","arrowup","[0.85,0.15,0.325,0.675]","","",""
"sailing-trial","227","1117795","0.0-11.0-176.0","","","","false","","","","","","","","","","683.5","","347.30000019073486","","3","0","arrowright","1","arrowright","[0.325,0.675,0.85,0.15]","","",""
"sailing-trial","228","1120576","0.0-11.0-177.0","","","","false","","","","","","","","","","null","","1266.3000001907349","","1","0","null","null","arrowup","[0.325,0.675,0.85,0.15]","","",""
"sailing-trial","229","1124764","0.0-11.0-178.0","","","","false","","","","","","","","","","707.5999999046326","","348.5","","2","1","arrowright","1","arrowleft","[0.325,0.675,0.85,0.15]","","",""
"sailing-trial","230","1128780","0.0-11.0-179.0","","","","false","","","","","","","","","","null","","768.5999999046326","","2","1","null","null","arrowup","[0.325,0.675,0.85,0.15]","","",""
"sailing-trial","231","1133932","0.0-11.0-180.0","","","","false","","","","","","","","","","1680.6999998092651","","480.09999990463257","","1","1","arrowleft","0","arrowright","[0.325,0.675,0.85,0.15]","","",""
"sailing-trial","232","1136482","0.0-11.0-181.0","","","","false","","","","","","","","","","null","","630.4000000953674","","2","1","null","null","arrowup","[0.325,0.675,0.85,0.15]","","",""
"sailing-trial","233","1139826","0.0-11.0-182.0","","","","false","","","","","","","","","","515.3000001907349","","234.5","","1","0","arrowleft","0","arrowright","[0.325,0.675,0.85,0.15]","","",""
"sailing-trial","234","1145284","0.0-11.0-183.0","","","","false","","","","","","","","","","null","","2381.9000000953674","","3","0","null","null","arrowup","[0.325,0.675,0.85,0.15]","","",""
"sailing-trial","235","1149750","0.0-11.0-184.0","","","","false","","","","","","","","","","935.7999997138977","","407.8999996185303","","1","1","arrowleft","0","arrowright","[0.325,0.675,0.85,0.15]","","",""
"sailing-trial","236","1152249","0.0-11.0-185.0","","","","false","","","","","","","","","","null","","1017.2999997138977","","3","0","null","null","arrowup","[0.325,0.675,0.85,0.15]","","",""
"sailing-trial","237","1156081","0.0-11.0-186.0","","","","false","","","","","","","","","","692","","68.2999997138977","","2","1","arrowright","1","arrowleft","[0.325,0.675,0.85,0.15]","","",""
"sailing-trial","238","1158196","0.0-11.0-187.0","","","","false","","","","","","","","","","null","","687.8000001907349","","0","0","null","null","arrowup","[0.325,0.675,0.85,0.15]","","",""
"sailing-trial","239","1162099","0.0-11.0-188.0","","","","false","","","","","","","","","","872.5","","189.69999980926514","","3","0","arrowright","1","arrowright","[0.325,0.675,0.85,0.15]","","",""
"sailing-trial","240","1166043","0.0-11.0-189.0","","","","false","","","","","","","","","","null","","2532.2999997138977","","2","0","null","null","arrowup","[0.325,0.675,0.85,0.15]","","",""
"sailing-trial","241","1170414","0.0-11.0-190.0","","","","false","","","","","","","","","","550.6999998092651","","86.90000009536743","","1","1","arrowleft","0","arrowright","[0.325,0.675,0.85,0.15]","","",""
"sailing-trial","242","1172664","0.0-11.0-191.0","","","","false","","","","","","","","","","null","","781.0999999046326","","1","0","null","null","arrowup","[0.325,0.675,0.85,0.15]","","",""
"sailing-trial","243","1177815","0.0-11.0-192.0","","","","false","","","","","","","","","","1590.8000001907349","","450.09999990463257","","1","1","arrowleft","0","arrowright","[0.325,0.675,0.85,0.15]","","",""
"sailing-trial","244","1180584","0.0-11.0-193.0","","","","false","","","","","","","","","","null","","1110.2999997138977","","3","0","null","null","arrowup","[0.325,0.675,0.85,0.15]","","",""
"sailing-trial","245","1190266","0.0-11.0-194.0","","","","false","","","","","","","","","","5002.200000286102","","256.5","","2","1","arrowright","1","arrowleft","[0.325,0.675,0.85,0.15]","","",""
"sailing-trial","246","1193397","0.0-11.0-195.0","","","","false","","","","","","","","","","null","","1158.7000002861023","","1","1","null","null","arrowup","[0.325,0.675,0.85,0.15]","","",""
"sailing-trial","247","1198081","0.0-11.0-196.0","","","","false","","","","","","","","","","967.5","","121.09999990463257","","1","1","arrowleft","0","arrowright","[0.325,0.675,0.85,0.15]","","",""
"sailing-trial","248","1200968","0.0-11.0-197.0","","","","false","","","","","","","","","","null","","916.8000001907349","","2","1","null","null","arrowup","[0.325,0.675,0.85,0.15]","","",""
"sailing-trial","249","1205449","0.0-11.0-198.0","","","","false","","","","","","","","","","484.40000009536743","","430.7000002861023","","1","1","arrowleft","0","arrowright","[0.15,0.85,0.675,0.325]","","",""
"sailing-trial","250","1208615","0.0-11.0-199.0","","","","false","","","","","","","","","","null","","1185","","3","1","null","null","arrowup","[0.15,0.85,0.675,0.325]","","",""
"sailing-trial","251","1213131","0.0-11.0-200.0","","","","false","","","","","","","","","","570.7999997138977","","204.2999997138977","","2","1","arrowright","1","arrowleft","[0.15,0.85,0.675,0.325]","","",""
"sailing-trial","252","1215814","0.0-11.0-201.0","","","","false","","","","","","","","","","null","","798.4000000953674","","1","1","null","null","arrowup","[0.15,0.85,0.675,0.325]","","",""
"sailing-trial","253","1219708","0.0-11.0-202.0","","","","false","","","","","","","","","","566.3999996185303","","353.7000002861023","","2","0","arrowright","1","arrowleft","[0.15,0.85,0.675,0.325]","","",""
"sailing-trial","254","1223843","0.0-11.0-203.0","","","","false","","","","","","","","","","null","","2728.300000190735","","3","0","null","null","arrowup","[0.15,0.85,0.675,0.325]","","",""
"sailing-trial","255","1228432","0.0-11.0-204.0","","","","false","","","","","","","","","","701.9000000953674","","670.3000001907349","","2","1","arrowright","1","arrowleft","[0.15,0.85,0.675,0.325]","","",""
"sailing-trial","256","1230815","0.0-11.0-205.0","","","","false","","","","","","","","","","null","","565.3999996185303","","1","1","null","null","arrowup","[0.15,0.85,0.675,0.325]","","",""
"sailing-trial","257","1234631","0.0-11.0-206.0","","","","false","","","","","","","","","","429","","304.09999990463257","","2","1","arrowright","1","arrowleft","[0.15,0.85,0.675,0.325]","","",""
"sailing-trial","258","1237183","0.0-11.0-207.0","","","","false","","","","","","","","","","null","","1123.5","","2","0","null","null","arrowup","[0.15,0.85,0.675,0.325]","","",""
"sailing-trial","259","1242331","0.0-11.0-208.0","","","","false","","","","","","","","","","742.5999999046326","","1251.1999998092651","","2","1","arrowright","1","arrowleft","[0.15,0.85,0.675,0.325]","","",""
"sailing-trial","260","1244619","0.0-11.0-209.0","","","","false","","","","","","","","","","null","","899.8000001907349","","2","0","null","null","arrowup","[0.15,0.85,0.675,0.325]","","",""
"sailing-trial","261","1248432","0.0-11.0-210.0","","","","false","","","","","","","","","","543.2000002861023","","4.800000190734863","","1","1","arrowleft","0","arrowright","[0.15,0.85,0.675,0.325]","","",""
"sailing-trial","262","1250639","0.0-11.0-211.0","","","","false","","","","","","","","","","null","","787.1999998092651","","2","0","null","null","arrowup","[0.15,0.85,0.675,0.325]","","",""
"sailing-trial","263","1254118","0.0-11.0-212.0","","","","false","","","","","","","","","","625.1999998092651","","75.90000009536743","","3","0","arrowright","1","arrowright","[0.15,0.85,0.675,0.325]","","",""
"sailing-trial","264","1257997","0.0-11.0-213.0","","","","false","","","","","","","","","","null","","1838.2999997138977","","2","1","null","null","arrowup","[0.15,0.85,0.675,0.325]","","",""
"sailing-trial","265","1263312","0.0-11.0-214.0","","","","false","","","","","","","","","","1182.7999997138977","","408.90000009536743","","1","0","arrowleft","0","arrowright","[0.15,0.85,0.675,0.325]","","",""
"sailing-trial","266","1266064","0.0-11.0-215.0","","","","false","","","","","","","","","","null","","1188.4000000953674","","0","0","null","null","arrowup","[0.15,0.85,0.675,0.325]","","",""
"sailing-trial","267","1271549","0.0-11.0-216.0","","","","false","","","","","","","","","","1770.8000001907349","","701.5999999046326","","0","0","arrowleft","0","arrowleft","[0.15,0.85,0.675,0.325]","","",""
"sailing-trial","268","1274374","0.0-11.0-217.0","","","","false","","","","","","","","","","null","","1093","","3","0","null","null","arrowup","[0.15,0.85,0.675,0.325]","","",""
"sailing-trial","269","1282333","0.0-11.0-218.0","","","","false","","","","","","","","","","3725.699999809265","","276.40000009536743","","2","0","arrowright","1","arrowleft","[0.675,0.325,0.15,0.85]","","",""
"sailing-trial","270","1285499","0.0-11.0-219.0","","","","false","","","","","","","","","","null","","770.0999999046326","","0","1","null","null","arrowup","[0.675,0.325,0.15,0.85]","","",""
"sailing-trial","271","1289497","0.0-11.0-220.0","","","","false","","","","","","","","","","710.0999999046326","","85.40000009536743","","1","1","arrowleft","0","arrowright","[0.675,0.325,0.15,0.85]","","",""
"sailing-trial","272","1292096","0.0-11.0-221.0","","","","false","","","","","","","","","","null","","1083.1999998092651","","0","0","null","null","arrowup","[0.675,0.325,0.15,0.85]","","",""
"sailing-trial","273","1296083","0.0-11.0-222.0","","","","false","","","","","","","","","","687.0999999046326","","297.7000002861023","","1","1","arrowleft","0","arrowright","[0.675,0.325,0.15,0.85]","","",""
"sailing-trial","274","1298057","0.0-11.0-223.0","","","","false","","","","","","","","","","null","","558.5999999046326","","2","0","null","null","arrowup","[0.675,0.325,0.15,0.85]","","",""
"sailing-trial","275","1303432","0.0-11.0-224.0","","","","false","","","","","","","","","","2327.4000000953674","","123.40000009536743","","0","1","arrowleft","0","arrowleft","[0.675,0.325,0.15,0.85]","","",""
"sailing-trial","276","1306232","0.0-11.0-225.0","","","","false","","","","","","","","","","null","","973.8000001907349","","0","1","null","null","arrowup","[0.675,0.325,0.15,0.85]","","",""
"sailing-trial","277","1311281","0.0-11.0-226.0","","","","false","","","","","","","","","","568.2000002861023","","264.3999996185303","","0","1","arrowleft","0","arrowleft","[0.675,0.325,0.15,0.85]","","",""
"sailing-trial","278","1315931","0.0-11.0-227.0","","","","false","","","","","","","","","","null","","843.5","","1","1","null","null","arrowup","[0.675,0.325,0.15,0.85]","","",""
"sailing-trial","279","1320663","0.0-11.0-228.0","","","","false","","","","","","","","","","1361.3999996185303","","546.3999996185303","","2","0","arrowright","1","arrowleft","[0.675,0.325,0.15,0.85]","","",""
"sailing-trial","280","1322824","0.0-11.0-229.0","","","","false","","","","","","","","","","null","","716.7999997138977","","0","0","null","null","arrowup","[0.675,0.325,0.15,0.85]","","",""
"sailing-trial","281","1328332","0.0-11.0-230.0","","","","false","","","","","","","","","","1242.5","","620.4000000953674","","0","1","arrowleft","0","arrowleft","[0.675,0.325,0.15,0.85]","","",""
"sailing-trial","282","1331464","0.0-11.0-231.0","","","","false","","","","","","","","","","null","","991.5","","0","1","null","null","arrowup","[0.675,0.325,0.15,0.85]","","",""
"sailing-trial","283","1335658","0.0-11.0-232.0","","","","false","","","","","","","","","","944.1999998092651","","212.60000038146973","","0","0","arrowleft","0","arrowleft","[0.675,0.325,0.15,0.85]","","",""
"sailing-trial","284","1337793","0.0-11.0-233.0","","","","false","","","","","","","","","","null","","783.4000000953674","","1","0","null","null","arrowup","[0.675,0.325,0.15,0.85]","","",""
"sailing-trial","285","1341037","0.0-11.0-234.0","","","","false","","","","","","","","","","562.5","","288.80000019073486","","2","0","arrowright","1","arrowleft","[0.675,0.325,0.15,0.85]","","",""
"sailing-trial","286","1343162","0.0-11.0-235.0","","","","false","","","","","","","","","","null","","748","","2","0","null","null","arrowup","[0.675,0.325,0.15,0.85]","","",""
"sailing-trial","287","1347013","0.0-11.0-236.0","","","","false","","","","","","","","","","634.5999999046326","","289.40000009536743","","3","0","arrowright","1","arrowright","[0.15,0.85,0.675,0.325]","","",""
"sailing-trial","288","1349700","0.0-11.0-237.0","","","","false","","","","","","","","","","null","","1260.4000000953674","","0","0","null","null","arrowup","[0.15,0.85,0.675,0.325]","","",""
"sailing-trial","289","1353366","0.0-11.0-238.0","","","","false","","","","","","","","","","693.5","","41","","1","1","arrowleft","0","arrowright","[0.15,0.85,0.675,0.325]","","",""
"sailing-trial","290","1355949","0.0-11.0-239.0","","","","false","","","","","","","","","","null","","650.7999997138977","","2","1","null","null","arrowup","[0.15,0.85,0.675,0.325]","","",""
"sailing-trial","291","1360064","0.0-11.0-240.0","","","","false","","","","","","","","","","729.8000001907349","","315","","2","1","arrowright","1","arrowleft","[0.15,0.85,0.675,0.325]","","",""
"sailing-trial","292","1362026","0.0-11.0-241.0","","","","false","","","","","","","","","","null","","566.2999997138977","","2","0","null","null","arrowup","[0.15,0.85,0.675,0.325]","","",""
"sailing-trial","293","1367143","0.0-11.0-242.0","","","","false","","","","","","","","","","2116.9000000953674","","333.69999980926514","","2","0","arrowright","1","arrowleft","[0.15,0.85,0.675,0.325]","","",""
"sailing-trial","294","1369255","0.0-11.0-243.0","","","","false","","","","","","","","","","null","","774.5999999046326","","0","0","null","null","arrowup","[0.15,0.85,0.675,0.325]","","",""
"sailing-trial","295","1372358","0.0-11.0-244.0","","","","false","","","","","","","","","","460.69999980926514","","242.59999990463257","","0","0","arrowleft","0","arrowleft","[0.15,0.85,0.675,0.325]","","",""
"sailing-trial","296","1375147","0.0-11.0-245.0","","","","false","","","","","","","","","","null","","945.2000002861023","","1","1","null","null","arrowup","[0.15,0.85,0.675,0.325]","","",""
"sailing-trial","297","1378364","0.0-11.0-246.0","","","","false","","","","","","","","","","686.3000001907349","","56.59999990463257","","0","0","arrowleft","0","arrowleft","[0.15,0.85,0.675,0.325]","","",""
"sailing-trial","298","1382792","0.0-11.0-247.0","","","","false","","","","","","","","","","null","","3023.9000000953674","","3","0","null","null","arrowup","[0.15,0.85,0.675,0.325]","","",""
"sailing-trial","299","1386837","0.0-11.0-248.0","","","","false","","","","","","","","","","1126.0999999046326","","394.30000019073486","","2","0","arrowright","1","arrowleft","[0.15,0.85,0.675,0.325]","","",""
"sailing-trial","300","1389649","0.0-11.0-249.0","","","","false","","","","","","","","","","null","","839.4000000953674","","2","1","null","null","arrowup","[0.15,0.85,0.675,0.325]","","",""
"sailing-trial","301","1393928","0.0-11.0-250.0","","","","false","","","","","","","","","","985.3000001907349","","624.7000002861023","","2","0","arrowright","1","arrowleft","[0.15,0.85,0.675,0.325]","","",""
"sailing-trial","302","1396649","0.0-11.0-251.0","","","","false","","","","","","","","","","null","","875.2999997138977","","2","1","null","null","arrowup","[0.15,0.85,0.675,0.325]","","",""
"sailing-trial","303","1399948","0.0-11.0-252.0","","","","false","","","","","","","","","","510.5","","173.5","","1","0","arrowleft","0","arrowright","[0.325,0.675,0.85,0.15]","","",""
"sailing-trial","304","1402698","0.0-11.0-253.0","","","","false","","","","","","","","","","null","","879.1999998092651","","1","1","null","null","arrowup","[0.325,0.675,0.85,0.15]","","",""
"sailing-trial","305","1406617","0.0-11.0-254.0","","","","false","","","","","","","","","","707.0999999046326","","138","","1","1","arrowleft","0","arrowright","[0.325,0.675,0.85,0.15]","","",""
"sailing-trial","306","1411997","0.0-11.0-255.0","","","","false","","","","","","","","","","null","","1050","","3","1","null","null","arrowup","[0.325,0.675,0.85,0.15]","","",""
"sailing-trial","307","1419165","0.0-11.0-256.0","","","","false","","","","","","","","","","447.2999997138977","","1441.0999999046326","","2","1","arrowright","1","arrowleft","[0.325,0.675,0.85,0.15]","","",""
"sailing-trial","308","1421798","0.0-11.0-257.0","","","","false","","","","","","","","","","null","","706","","1","1","null","null","arrowup","[0.325,0.675,0.85,0.15]","","",""
"sailing-trial","309","1426165","0.0-11.0-258.0","","","","false","","","","","","","","","","740","","406.59999990463257","","1","1","arrowleft","0","arrowright","[0.325,0.675,0.85,0.15]","","",""
"sailing-trial","310","1430349","0.0-11.0-259.0","","","","false","","","","","","","","","","null","","1986.5","","2","1","null","null","arrowup","[0.325,0.675,0.85,0.15]","","",""
"sailing-trial","311","1434382","0.0-11.0-260.0","","","","false","","","","","","","","","","703.1000003814697","","358.90000009536743","","1","1","arrowleft","0","arrowright","[0.325,0.675,0.85,0.15]","","",""
"sailing-trial","312","1436531","0.0-11.0-261.0","","","","false","","","","","","","","","","null","","759.0999999046326","","1","0","null","null","arrowup","[0.325,0.675,0.85,0.15]","","",""
"sailing-trial","313","1442536","0.0-11.0-262.0","","","","false","","","","","","","","","","1385.8000001907349","","492.59999990463257","","0","0","arrowleft","0","arrowleft","[0.325,0.675,0.85,0.15]","","",""
"sailing-trial","314","1446287","0.0-11.0-263.0","","","","false","","","","","","","","","","null","","2413.5999999046326","","3","0","null","null","arrowup","[0.325,0.675,0.85,0.15]","","",""
"sailing-trial","315","1451665","0.0-11.0-264.0","","","","false","","","","","","","","","","1796.3000001907349","","214.5","","3","1","arrowright","1","arrowright","[0.325,0.675,0.85,0.15]","","",""
"sailing-trial","316","1454200","0.0-11.0-265.0","","","","false","","","","","","","","","","null","","588.5999999046326","","3","0","null","null","arrowup","[0.325,0.675,0.85,0.15]","","",""
"sailing-trial","317","1458458","0.0-11.0-266.0","","","","false","","","","","","","","","","822.2999997138977","","528","","1","0","arrowleft","0","arrowright","[0.325,0.675,0.85,0.15]","","",""
"sailing-trial","318","1461448","0.0-11.0-267.0","","","","false","","","","","","","","","","null","","607.4000000953674","","1","1","null","null","arrowup","[0.325,0.675,0.85,0.15]","","",""
"sailing-trial","319","1465064","0.0-11.0-268.0","","","","false","","","","","","","","","","393.09999990463257","","187.40000009536743","","1","1","arrowleft","0","arrowright","[0.325,0.675,0.85,0.15]","","",""
"sailing-trial","320","1467314","0.0-11.0-269.0","","","","false","","","","","","","","","","null","","842.8999996185303","","3","0","null","null","arrowup","[0.325,0.675,0.85,0.15]","","",""
"sailing-trial","321","1470721","0.0-11.0-270.0","","","","false","","","","","","","","","","744.6999998092651","","239.40000009536743","","1","0","arrowleft","0","arrowright","[0.325,0.675,0.85,0.15]","","",""
"sailing-trial","322","1472934","0.0-11.0-271.0","","","","false","","","","","","","","","","null","","907.0999999046326","","3","0","null","null","arrowup","[0.325,0.675,0.85,0.15]","","",""
"sailing-trial","323","1476598","0.0-11.0-272.0","","","","false","","","","","","","","","","638.6999998092651","","194.59999990463257","","2","1","arrowright","1","arrowleft","[0.15,0.85,0.675,0.325]","","",""
"sailing-trial","324","1479330","0.0-11.0-273.0","","","","false","","","","","","","","","","null","","1236.1000003814697","","3","0","null","null","arrowup","[0.15,0.85,0.675,0.325]","","",""
"sailing-trial","325","1482512","0.0-11.0-274.0","","","","false","","","","","","","","","","546.5","","101.90000009536743","","1","0","arrowleft","0","arrowright","[0.15,0.85,0.675,0.325]","","",""
"sailing-trial","326","1485119","0.0-11.0-275.0","","","","false","","","","","","","","","","null","","966.3000001907349","","3","1","null","null","arrowup","[0.15,0.85,0.675,0.325]","","",""
"sailing-trial","327","1488649","0.0-11.0-276.0","","","","false","","","","","","","","","","418.80000019073486","","77.30000019073486","","1","1","arrowleft","0","arrowright","[0.15,0.85,0.675,0.325]","","",""
"sailing-trial","328","1491341","0.0-11.0-277.0","","","","false","","","","","","","","","","null","","1424.3999996185303","","0","0","null","null","arrowup","[0.15,0.85,0.675,0.325]","","",""
"sailing-trial","329","1494939","0.0-11.0-278.0","","","","false","","","","","","","","","","946.2000002861023","","197.40000009536743","","2","0","arrowright","1","arrowleft","[0.15,0.85,0.675,0.325]","","",""
"sailing-trial","330","1496753","0.0-11.0-279.0","","","","false","","","","","","","","","","null","","568.0999999046326","","0","0","null","null","arrowup","[0.15,0.85,0.675,0.325]","","",""
"sailing-trial","331","1500055","0.0-11.0-280.0","","","","false","","","","","","","","","","508.2000002861023","","248.69999980926514","","3","0","arrowright","1","arrowright","[0.15,0.85,0.675,0.325]","","",""
"sailing-trial","332","1501903","0.0-11.0-281.0","","","","false","","","","","","","","","","null","","623.6999998092651","","3","0","null","null","arrowup","[0.15,0.85,0.675,0.325]","","",""
"sailing-trial","333","1504887","0.0-11.0-282.0","","","","false","","","","","","","","","","524.9000000953674","","262.2999997138977","","0","0","arrowleft","0","arrowleft","[0.15,0.85,0.675,0.325]","","",""
"sailing-trial","334","1506610","0.0-11.0-283.0","","","","false","","","","","","","","","","null","","647.5999999046326","","0","0","null","null","arrowup","[0.15,0.85,0.675,0.325]","","",""
"sailing-trial","335","1509772","0.0-11.0-284.0","","","","false","","","","","","","","","","434.30000019073486","","287.40000009536743","","2","0","arrowright","1","arrowleft","[0.15,0.85,0.675,0.325]","","",""
"sailing-trial","336","1512265","0.0-11.0-285.0","","","","false","","","","","","","","","","null","","610.1999998092651","","0","1","null","null","arrowup","[0.15,0.85,0.675,0.325]","","",""
"sailing-trial","337","1515599","0.0-11.0-286.0","","","","false","","","","","","","","","","397.40000009536743","","278.80000019073486","","1","1","arrowleft","0","arrowright","[0.15,0.85,0.675,0.325]","","",""
"sailing-trial","338","1517765","0.0-11.0-287.0","","","","false","","","","","","","","","","null","","569.2999997138977","","1","1","null","null","arrowup","[0.15,0.85,0.675,0.325]","","",""
"sailing-trial","339","1521342","0.0-11.0-288.0","","","","false","","","","","","","","","","633.6999998092651","","274.2999997138977","","1","0","arrowleft","0","arrowright","[0.325,0.675,0.85,0.15]","","",""
"sailing-trial","340","1524216","0.0-11.0-289.0","","","","false","","","","","","","","","","null","","695.6000003814697","","2","1","null","null","arrowup","[0.325,0.675,0.85,0.15]","","",""
"sailing-trial","341","1528094","0.0-11.0-290.0","","","","false","","","","","","","","","","1078.2999997138977","","299.5","","0","0","arrowleft","0","arrowleft","[0.325,0.675,0.85,0.15]","","",""
"sailing-trial","342","1530916","0.0-11.0-291.0","","","","false","","","","","","","","","","null","","1339.3000001907349","","3","0","null","null","arrowup","[0.325,0.675,0.85,0.15]","","",""
"sailing-trial","343","1535767","0.0-11.0-292.0","","","","false","","","","","","","","","","1423.5","","137.59999990463257","","2","1","arrowright","1","arrowleft","[0.325,0.675,0.85,0.15]","","",""
"sailing-trial","344","1538226","0.0-11.0-293.0","","","","false","","","","","","","","","","null","","981.1999998092651","","1","0","null","null","arrowup","[0.325,0.675,0.85,0.15]","","",""
"sailing-trial","345","1543398","0.0-11.0-294.0","","","","false","","","","","","","","","","895.8000001907349","","1276.4000000953674","","3","1","arrowright","1","arrowright","[0.325,0.675,0.85,0.15]","","",""
"sailing-trial","346","1546210","0.0-11.0-295.0","","","","false","","","","","","","","","","null","","1148.5999999046326","","2","0","null","null","arrowup","[0.325,0.675,0.85,0.15]","","",""
"sailing-trial","347","1551931","0.0-11.0-296.0","","","","false","","","","","","","","","","1549.5","","857.9000000953674","","1","1","arrowleft","0","arrowright","[0.325,0.675,0.85,0.15]","","",""
"sailing-trial","348","1555485","0.0-11.0-297.0","","","","false","","","","","","","","","","null","","1707.9000000953674","","0","0","null","null","arrowup","[0.325,0.675,0.85,0.15]","","",""
"sailing-trial","349","1559199","0.0-11.0-298.0","","","","false","","","","","","","","","","608.2999997138977","","82.90000009536743","","2","1","arrowright","1","arrowleft","[0.325,0.675,0.85,0.15]","","",""
"sailing-trial","350","1562065","0.0-11.0-299.0","","","","false","","","","","","","","","","null","","760.4000000953674","","2","1","null","null","arrowup","[0.325,0.675,0.85,0.15]","","",""
"sailing-trial","351","1566367","0.0-11.0-300.0","","","","false","","","","","","","","","","663.9000000953674","","1039.7999997138977","","3","0","arrowright","1","arrowright","[0.325,0.675,0.85,0.15]","","",""
"sailing-trial","352","1569210","0.0-11.0-301.0","","","","false","","","","","","","","","","null","","946","","0","0","null","null","arrowup","[0.325,0.675,0.85,0.15]","","",""
"sailing-trial","353","1572964","0.0-11.0-302.0","","","","false","","","","","","","","","","733.5","","83","","2","1","arrowright","1","arrowleft","[0.325,0.675,0.85,0.15]","","",""
"sailing-trial","354","1576708","0.0-11.0-303.0","","","","false","","","","","","","","","","null","","2269.5999999046326","","1","0","null","null","arrowup","[0.325,0.675,0.85,0.15]","","",""
"sailing-trial","355","1582432","0.0-11.0-304.0","","","","false","","","","","","","","","","1920.5","","299.09999990463257","","1","1","arrowleft","0","arrowright","[0.325,0.675,0.85,0.15]","","",""
"sailing-trial","356","1584390","0.0-11.0-305.0","","","","false","","","","","","","","","","null","","643.6999998092651","","3","0","null","null","arrowup","[0.325,0.675,0.85,0.15]","","",""
"sailing-trial","357","1588082","0.0-11.0-306.0","","","","false","","","","","","","","","","573.1000003814697","","88.40000009536743","","0","1","arrowleft","0","arrowleft","[0.325,0.675,0.85,0.15]","","",""
"sailing-trial","358","1590514","0.0-11.0-307.0","","","","false","","","","","","","","","","null","","650.7000002861023","","1","1","null","null","arrowup","[0.325,0.675,0.85,0.15]","","",""
"sailing-trial","359","1594631","0.0-11.0-308.0","","","","false","","","","","","","","","","556","","454.80000019073486","","1","1","arrowleft","0","arrowright","[0.15,0.85,0.675,0.325]","","",""
"sailing-trial","360","1597855","0.0-11.0-309.0","","","","false","","","","","","","","","","null","","1719.3000001907349","","3","0","null","null","arrowup","[0.15,0.85,0.675,0.325]","","",""
"sailing-trial","361","1602878","0.0-11.0-310.0","","","","false","","","","","","","","","","2421","","303.7000002861023","","2","0","arrowright","1","arrowleft","[0.15,0.85,0.675,0.325]","","",""
"sailing-trial","362","1605916","0.0-11.0-311.0","","","","false","","","","","","","","","","null","","952.1999998092651","","3","1","null","null","arrowup","[0.15,0.85,0.675,0.325]","","",""
"sailing-trial","363","1612496","0.0-11.0-312.0","","","","false","","","","","","","","","","544.2000002861023","","842.4000000953674","","1","1","arrowleft","0","arrowright","[0.15,0.85,0.675,0.325]","","",""
"sailing-trial","364","1615529","0.0-11.0-313.0","","","","false","","","","","","","","","","null","","818.2999997138977","","0","0","null","null","arrowup","[0.15,0.85,0.675,0.325]","","",""
"sailing-trial","365","1620015","0.0-11.0-314.0","","","","false","","","","","","","","","","699.5","","746.2999997138977","","1","1","arrowleft","0","arrowright","[0.15,0.85,0.675,0.325]","","",""
"sailing-trial","366","1622466","0.0-11.0-315.0","","","","false","","","","","","","","","","null","","643.0999999046326","","2","1","null","null","arrowup","[0.15,0.85,0.675,0.325]","","",""
"sailing-trial","367","1625641","0.0-11.0-316.0","","","","false","","","","","","","","","","777","","12.200000286102295","","2","0","arrowright","1","arrowleft","[0.15,0.85,0.675,0.325]","","",""
"sailing-trial","368","1627458","0.0-11.0-317.0","","","","false","","","","","","","","","","null","","523.3000001907349","","3","0","null","null","arrowup","[0.15,0.85,0.675,0.325]","","",""
"sailing-trial","369","1631231","0.0-11.0-318.0","","","","false","","","","","","","","","","465.90000009536743","","416.5","","2","1","arrowright","1","arrowleft","[0.15,0.85,0.675,0.325]","","",""
"sailing-trial","370","1634465","0.0-11.0-319.0","","","","false","","","","","","","","","","null","","529.0999999046326","","3","1","null","null","arrowup","[0.15,0.85,0.675,0.325]","","",""
"sailing-trial","371","1639515","0.0-11.0-320.0","","","","false","","","","","","","","","","1036.5","","633.7000002861023","","2","1","arrowright","1","arrowleft","[0.15,0.85,0.675,0.325]","","",""
"sailing-trial","372","1642917","0.0-11.0-321.0","","","","false","","","","","","","","","","null","","864.3000001907349","","0","1","null","null","arrowup","[0.15,0.85,0.675,0.325]","","",""
"sailing-trial","373","1650432","0.0-11.0-322.0","","","","false","","","","","","","","","","2610.7999997138977","","862.0999999046326","","1","1","arrowleft","0","arrowright","[0.15,0.85,0.675,0.325]","","",""
"sailing-trial","374","1653028","0.0-11.0-323.0","","","","false","","","","","","","","","","null","","1257.6000003814697","","0","0","null","null","arrowup","[0.15,0.85,0.675,0.325]","","",""
"sailing-trial","375","1658257","0.0-11.0-324.0","","","","false","","","","","","","","","","969.4000000953674","","584","","1","0","arrowleft","0","arrowright","[0.325,0.675,0.85,0.15]","","",""
"sailing-trial","376","1660890","0.0-11.0-325.0","","","","false","","","","","","","","","","null","","1024.5999999046326","","1","0","null","null","arrowup","[0.325,0.675,0.85,0.15]","","",""
"sailing-trial","377","1665331","0.0-11.0-326.0","","","","false","","","","","","","","","","713","","142.59999990463257","","1","1","arrowleft","0","arrowright","[0.325,0.675,0.85,0.15]","","",""
"sailing-trial","378","1669611","0.0-11.0-327.0","","","","false","","","","","","","","","","null","","2099.300000190735","","3","0","null","null","arrowup","[0.325,0.675,0.85,0.15]","","",""
"sailing-trial","379","1675847","0.0-11.0-328.0","","","","false","","","","","","","","","","652.1999998092651","","152.60000038146973","","2","1","arrowright","1","arrowleft","[0.325,0.675,0.85,0.15]","","",""
"sailing-trial","380","1678816","0.0-11.0-329.0","","","","false","","","","","","","","","","null","","922.3000001907349","","1","1","null","null","arrowup","[0.325,0.675,0.85,0.15]","","",""
"sailing-trial","381","1684000","0.0-11.0-330.0","","","","false","","","","","","","","","","495.69999980926514","","1670.7999997138977","","1","1","arrowleft","0","arrowright","[0.325,0.675,0.85,0.15]","","",""
"sailing-trial","382","1686981","0.0-11.0-331.0","","","","false","","","","","","","","","","null","","691.1999998092651","","1","1","null","null","arrowup","[0.325,0.675,0.85,0.15]","","",""
"sailing-trial","383","1691147","0.0-11.0-332.0","","","","false","","","","","","","","","","743.5","","132.09999990463257","","1","1","arrowleft","0","arrowright","[0.325,0.675,0.85,0.15]","","",""
"sailing-trial","384","1693979","0.0-11.0-333.0","","","","false","","","","","","","","","","null","","751.3000001907349","","1","0","null","null","arrowup","[0.325,0.675,0.85,0.15]","","",""
"sailing-trial","385","1697897","0.0-11.0-334.0","","","","false","","","","","","","","","","668.8999996185303","","78.69999980926514","","1","1","arrowleft","0","arrowright","[0.325,0.675,0.85,0.15]","","",""
"sailing-trial","386","1700814","0.0-11.0-335.0","","","","false","","","","","","","","","","null","","1032.2000002861023","","2","1","null","null","arrowup","[0.325,0.675,0.85,0.15]","","",""
"sailing-trial","387","1704246","0.0-11.0-336.0","","","","false","","","","","","","","","","302.59999990463257","","460.2999997138977","","2","0","arrowright","1","arrowleft","[0.325,0.675,0.85,0.15]","","",""
"sailing-trial","388","1707232","0.0-11.0-337.0","","","","false","","","","","","","","","","null","","1098.9000000953674","","1","1","null","null","arrowup","[0.325,0.675,0.85,0.15]","","",""
"sailing-trial","389","1710827","0.0-11.0-338.0","","","","false","","","","","","","","","","649.5999999046326","","344.19999980926514","","3","0","arrowright","1","arrowright","[0.325,0.675,0.85,0.15]","","",""
"sailing-trial","390","1714417","0.0-11.0-339.0","","","","false","","","","","","","","","","null","","1558.8000001907349","","2","1","null","null","arrowup","[0.325,0.675,0.85,0.15]","","",""
"sailing-trial","391","1720515","0.0-11.0-340.0","","","","false","","","","","","","","","","1919.7000002861023","","1036.0999999046326","","1","1","arrowleft","0","arrowright","[0.325,0.675,0.85,0.15]","","",""
"sailing-trial","392","1722694","0.0-11.0-341.0","","","","false","","","","","","","","","","null","","790.3000001907349","","2","0","null","null","arrowup","[0.325,0.675,0.85,0.15]","","",""
"sailing-trial","393","1727116","0.0-11.0-342.0","","","","false","","","","","","","","","","824.5","","548","","1","1","arrowleft","0","arrowright","[0.325,0.675,0.85,0.15]","","",""
"sailing-trial","394","1729746","0.0-11.0-343.0","","","","false","","","","","","","","","","null","","795.3999996185303","","0","0","null","null","arrowup","[0.325,0.675,0.85,0.15]","","",""
"sailing-trial","395","1733782","0.0-11.0-344.0","","","","false","","","","","","","","","","696.7000002861023","","168.7000002861023","","1","1","arrowleft","0","arrowright","[0.15,0.85,0.675,0.325]","","",""
"sailing-trial","396","1737366","0.0-11.0-345.0","","","","false","","","","","","","","","","null","","1277.8999996185303","","3","1","null","null","arrowup","[0.15,0.85,0.675,0.325]","","",""
"sailing-trial","397","1742482","0.0-11.0-346.0","","","","false","","","","","","","","","","1490.2999997138977","","287.09999990463257","","2","1","arrowright","1","arrowleft","[0.15,0.85,0.675,0.325]","","",""
"sailing-trial","398","1745746","0.0-11.0-347.0","","","","false","","","","","","","","","","null","","1069.0999999046326","","2","0","null","null","arrowup","[0.15,0.85,0.675,0.325]","","",""
"sailing-trial","399","1749983","0.0-11.0-348.0","","","","false","","","","","","","","","","496.30000019073486","","146.69999980926514","","1","1","arrowleft","0","arrowright","[0.15,0.85,0.675,0.325]","","",""
"sailing-trial","400","1752372","0.0-11.0-349.0","","","","false","","","","","","","","","","null","","755.5999999046326","","0","0","null","null","arrowup","[0.15,0.85,0.675,0.325]","","",""
"sailing-trial","401","1758731","0.0-11.0-350.0","","","","false","","","","","","","","","","2937.5999999046326","","179.2000002861023","","2","1","arrowright","1","arrowleft","[0.15,0.85,0.675,0.325]","","",""
"sailing-trial","402","1761716","0.0-11.0-351.0","","","","false","","","","","","","","","","null","","833.6000003814697","","0","1","null","null","arrowup","[0.15,0.85,0.675,0.325]","","",""
"sailing-trial","403","1766220","0.0-11.0-352.0","","","","false","","","","","","","","","","1554.1999998092651","","126.40000009536743","","1","0","arrowleft","0","arrowright","[0.15,0.85,0.675,0.325]","","",""
"sailing-trial","404","1769227","0.0-11.0-353.0","","","","false","","","","","","","","","","null","","1497.8999996185303","","3","0","null","null","arrowup","[0.15,0.85,0.675,0.325]","","",""
"sailing-trial","405","1773950","0.0-11.0-354.0","","","","false","","","","","","","","","","796.6999998092651","","1158.0999999046326","","1","0","arrowleft","0","arrowright","[0.15,0.85,0.675,0.325]","","",""
"sailing-trial","406","1776860","0.0-11.0-355.0","","","","false","","","","","","","","","","null","","1218.5","","0","0","null","null","arrowup","[0.15,0.85,0.675,0.325]","","",""
"sailing-trial","407","1781999","0.0-11.0-356.0","","","","false","","","","","","","","","","1435.4000000953674","","308.90000009536743","","3","1","arrowright","1","arrowright","[0.15,0.85,0.675,0.325]","","",""
"sailing-trial","408","1785199","0.0-11.0-357.0","","","","false","","","","","","","","","","null","","995.6999998092651","","3","1","null","null","arrowup","[0.15,0.85,0.675,0.325]","","",""
"sailing-trial","409","1789683","0.0-11.0-358.0","","","","false","","","","","","","","","","1167.3000001907349","","121.69999980926514","","1","1","arrowleft","0","arrowright","[0.15,0.85,0.675,0.325]","","",""
"sailing-trial","410","1792448","0.0-11.0-359.0","","","","false","","","","","","","","","","null","","943.8000001907349","","3","0","null","null","arrowup","[0.15,0.85,0.675,0.325]","","",""
"sailing-trial","411","1795971","0.0-11.0-360.0","","","","false","","","","","","","","","","652.1000003814697","","329.09999990463257","","2","0","arrowright","1","arrowleft","[0.15,0.85,0.675,0.325]","","",""
"sailing-trial","412","1799514","0.0-11.0-361.0","","","","false","","","","","","","","","","null","","1491.4000000953674","","1","1","null","null","arrowup","[0.15,0.85,0.675,0.325]","","",""
"sailing-trial","413","1803547","0.0-11.0-362.0","","","","false","","","","","","","","","","734.2000002861023","","110","","2","1","arrowright","1","arrowleft","[0.15,0.85,0.675,0.325]","","",""
"sailing-trial","414","1806166","0.0-11.0-363.0","","","","false","","","","","","","","","","null","","693.8000001907349","","1","1","null","null","arrowup","[0.15,0.85,0.675,0.325]","","",""
"sailing-trial","415","1810682","0.0-11.0-364.0","","","","false","","","","","","","","","","556.5","","401.30000019073486","","2","1","arrowright","1","arrowleft","[0.15,0.85,0.675,0.325]","","",""
"sailing-trial","416","1813348","0.0-11.0-365.0","","","","false","","","","","","","","","","null","","770.5999999046326","","1","1","null","null","arrowup","[0.15,0.85,0.675,0.325]","","",""
"sailing-trial","417","1817800","0.0-11.0-366.0","","","","false","","","","","","","","","","885.5","","665.8000001907349","","1","1","arrowleft","0","arrowright","[0.325,0.675,0.85,0.15]","","",""
"sailing-trial","418","1820198","0.0-11.0-367.0","","","","false","","","","","","","","","","null","","1039.6999998092651","","3","0","null","null","arrowup","[0.325,0.675,0.85,0.15]","","",""
"sailing-trial","419","1823714","0.0-11.0-368.0","","","","false","","","","","","","","","","602.9000000953674","","21.40000009536743","","2","1","arrowright","1","arrowleft","[0.325,0.675,0.85,0.15]","","",""
"sailing-trial","420","1825887","0.0-11.0-369.0","","","","false","","","","","","","","","","null","","694.5","","0","0","null","null","arrowup","[0.325,0.675,0.85,0.15]","","",""
"sailing-trial","421","1829278","0.0-11.0-370.0","","","","false","","","","","","","","","","741.4000000953674","","38.69999980926514","","3","0","arrowright","1","arrowright","[0.325,0.675,0.85,0.15]","","",""
"sailing-trial","422","1832332","0.0-11.0-371.0","","","","false","","","","","","","","","","null","","1211.2999997138977","","1","1","null","null","arrowup","[0.325,0.675,0.85,0.15]","","",""
"sailing-trial","423","1837048","0.0-11.0-372.0","","","","false","","","","","","","","","","643.3000001907349","","1065.0999999046326","","1","1","arrowleft","0","arrowright","[0.325,0.675,0.85,0.15]","","",""
"sailing-trial","424","1840132","0.0-11.0-373.0","","","","false","","","","","","","","","","null","","799.6999998092651","","2","1","null","null","arrowup","[0.325,0.675,0.85,0.15]","","",""
"sailing-trial","425","1843915","0.0-11.0-374.0","","","","false","","","","","","","","","","558.5999999046326","","173.09999990463257","","1","1","arrowleft","0","arrowright","[0.325,0.675,0.85,0.15]","","",""
"sailing-trial","426","1846017","0.0-11.0-375.0","","","","false","","","","","","","","","","null","","711.3999996185303","","0","0","null","null","arrowup","[0.325,0.675,0.85,0.15]","","",""
"sailing-trial","427","1849698","0.0-11.0-376.0","","","","false","","","","","","","","","","439","","269.7999997138977","","1","1","arrowleft","0","arrowright","[0.325,0.675,0.85,0.15]","","",""
"sailing-trial","428","1852279","0.0-11.0-377.0","","","","false","","","","","","","","","","null","","924.0999999046326","","0","0","null","null","arrowup","[0.325,0.675,0.85,0.15]","","",""
"sailing-trial","429","1856281","0.0-11.0-378.0","","","","false","","","","","","","","","","499.59999990463257","","470.90000009536743","","2","1","arrowright","1","arrowleft","[0.325,0.675,0.85,0.15]","","",""
"sailing-trial","430","1858899","0.0-11.0-379.0","","","","false","","","","","","","","","","null","","706.5","","0","1","null","null","arrowup","[0.325,0.675,0.85,0.15]","","",""
"sailing-trial","431","1863066","0.0-11.0-380.0","","","","false","","","","","","","","","","880","","349.69999980926514","","2","1","arrowright","1","arrowleft","[0.325,0.675,0.85,0.15]","","",""
"sailing-trial","432","1865981","0.0-11.0-381.0","","","","false","","","","","","","","","","null","","698.5","","2","1","null","null","arrowup","[0.325,0.675,0.85,0.15]","","",""
"sailing-trial","433","1870046","0.0-11.0-382.0","","","","false","","","","","","","","","","980.5999999046326","","261.7999997138977","","3","0","arrowright","1","arrowright","[0.15,0.85,0.675,0.325]","","",""
"sailing-trial","434","1872983","0.0-11.0-383.0","","","","false","","","","","","","","","","null","","1000.3000001907349","","1","1","null","null","arrowup","[0.15,0.85,0.675,0.325]","","",""
"sailing-trial","435","1876949","0.0-11.0-384.0","","","","false","","","","","","","","","","766.9000000953674","","251","","1","1","arrowleft","0","arrowright","[0.15,0.85,0.675,0.325]","","",""
"sailing-trial","436","1879581","0.0-11.0-385.0","","","","false","","","","","","","","","","null","","629.7000002861023","","3","1","null","null","arrowup","[0.15,0.85,0.675,0.325]","","",""
"sailing-trial","437","1883982","0.0-11.0-386.0","","","","false","","","","","","","","","","1031.5","","380.30000019073486","","1","1","arrowleft","0","arrowright","[0.15,0.85,0.675,0.325]","","",""
"sailing-trial","438","1887170","0.0-11.0-387.0","","","","false","","","","","","","","","","null","","1013.5","","3","0","null","null","arrowup","[0.15,0.85,0.675,0.325]","","",""
"sailing-trial","439","1891249","0.0-11.0-388.0","","","","false","","","","","","","","","","552.5","","572.9000000953674","","2","1","arrowright","1","arrowleft","[0.15,0.85,0.675,0.325]","","",""
"sailing-trial","440","1893968","0.0-11.0-389.0","","","","false","","","","","","","","","","null","","895.4000000953674","","0","0","null","null","arrowup","[0.15,0.85,0.675,0.325]","","",""
"sailing-trial","441","1899332","0.0-11.0-390.0","","","","false","","","","","","","","","","694","","606.5999999046326","","2","1","arrowright","1","arrowleft","[0.15,0.85,0.675,0.325]","","",""
"sailing-trial","442","1902199","0.0-11.0-391.0","","","","false","","","","","","","","","","null","","804.5999999046326","","2","1","null","null","arrowup","[0.15,0.85,0.675,0.325]","","",""
"sailing-trial","443","1905926","0.0-11.0-392.0","","","","false","","","","","","","","","","473.59999990463257","","241.40000009536743","","2","0","arrowright","1","arrowleft","[0.15,0.85,0.675,0.325]","","",""
"sailing-trial","444","1908344","0.0-11.0-393.0","","","","false","","","","","","","","","","null","","975.1999998092651","","0","0","null","null","arrowup","[0.15,0.85,0.675,0.325]","","",""
"sailing-trial","445","1912171","0.0-11.0-394.0","","","","false","","","","","","","","","","907.8000001907349","","456.19999980926514","","2","0","arrowright","1","arrowleft","[0.15,0.85,0.675,0.325]","","",""
"sailing-trial","446","1914599","0.0-11.0-395.0","","","","false","","","","","","","","","","null","","590.1999998092651","","1","1","null","null","arrowup","[0.15,0.85,0.675,0.325]","","",""
"sailing-trial","447","1918498","0.0-11.0-396.0","","","","false","","","","","","","","","","191.60000038146973","","535.2000002861023","","1","1","arrowleft","0","arrowright","[0.15,0.85,0.675,0.325]","","",""
"sailing-trial","448","1920625","0.0-11.0-397.0","","","","false","","","","","","","","","","null","","850.4000000953674","","0","0","null","null","arrowup","[0.15,0.85,0.675,0.325]","","",""
"sailing-trial","449","1924581","0.0-11.0-398.0","","","","false","","","","","","","","","","549.9000000953674","","405.40000009536743","","1","1","arrowleft","0","arrowright","[0.15,0.85,0.675,0.325]","","",""
"sailing-trial","450","1927015","0.0-11.0-399.0","","","","false","","","","","","","","","","null","","582.7000002861023","","2","1","null","null","arrowup","[0.15,0.85,0.675,0.325]","","",""
"instructions","451","1932551","0.0-12.0","","","","","","","","","","5534.200000286102","","","","","","","","","","","","","","","","[{""page_index"":0,""viewing_time"":5532.099999904633}]"
"survey-debrief","452","1948382","0.0-13.0","","","","","","","","","","15826.400000095367","","","","","","","","","","","","","","{""difficulty"":""4"",""fun"":""1"",""clarity"":""5"",""strategy"":""n/a"",""feedback"":""""}","",""
