"trial_type","trial_index","time_elapsed","internal_node_id","value","metadata","success","timeout","failed_images","failed_audio","failed_video","browser_interaction","low_quality","rt","stimulus","response","button_pressed","island_rt","island_response","boat_rt","boat_response","boat","reward","island_key","island","boat_key","reward_probabilities","responses","num_errors","view_history"
"pavlovia","0","3","0.0-0.0","","","","","","","","","","","","","","","","","","","","","","","","","",""
"call-function","1","3","0.0-1.0","","{""task_version"":""sailing_part1_v1"",""task_condition"":""good"",""boats"":[""C"",""A"",""D"",""B""],""boats_demo"":[""F"",""E"",""G"",""H""],""islands"":[""B"",""A""],""subject_id"":""13951"",""age"":""18"",""gender"":""Male""}","","","","","","","","","","","","","","","","","","","","","","","",""
"preload","2","1406","0.0-2.0","","","true","false","[]","[]","[]","[{""event"":""fullscreenenter"",""trial"":3,""time"":2749}]","false","","","","","","","","","","","","","","","","",""
"fullscreen","3","3738","0.0-3.0","","","true","","","","","","","","","","","","","","","","","","","","","","",""
"audio-keyboard-response","4","5266","0.0-4.0-0.0","","","","","","","","","","1530.6666666666665","audio/beep_loop.wav"," ","","","","","","","","","","","","","",""
"audio-test","5","6585","0.0-4.0-1.0","","","","","","","","","","null","audio/turtle.mp3","","3","","","","","","","","","","","","",""
"audio-test","6","8517","0.0-4.0-2.0","","","","","","","","","","null","audio/shark.mp3","","2","","","","","","","","","","","","",""
"sailing-instructions","7","60171","0.0-5.0-0.0-0.0","","","","","","","","","","","","","","null","null","null","null","null","null","","","","","","",""
"sailing-trial","8","62778","0.0-5.0-0.0-1.0-0.0","","","","false","","","","","","","","","","1491.1000000238419","","null","","null","null","arrowleft","0","null","null","","",""
"sailing-trial","9","64308","0.0-5.0-0.0-1.0-1.0","","","","false","","","","","","","","","","402","","null","","null","null","arrowright","1","null","null","","",""
"sailing-trial","10","66937","0.0-5.0-0.0-1.0-2.0","","","","false","","","","","","","","","","1496","","null","","null","null","arrowright","1","null","null","","",""
"sailing-instructions","11","106967","0.0-5.0-0.0-2.0","","","","","","","","","","","","","","null","null","null","null","0","null","","","","","","",""
"sailing-trial","12","111217","0.0-5.0-0.0-3.0-0.0","","","","false","","","","","","","","","","null","","1379.7999999821186","","2","1","null","null","arrowleft","[1,1,1,1]","","",""
"sailing-trial","13","114048","0.0-5.0-0.0-3.0-1.0","","","","false","","","","","","","","","","null","","465.5","","3","1","null","null","arrowright","[1,1,1,1]","","",""
"sailing-trial","14","116287","0.0-5.0-0.0-3.0-2.0","","","","false","","","","","","","","","","null","","347.59999999403954","","2","0","null","null","arrowleft","[0,0,0,0]","","",""
"sailing-instructions","15","123628","0.0-5.0-0.0-4.0","","","","","","","","","","","","","","null","null","null","null","null","null","","","","","","",""
"sailing-comprehension","16","135369","0.0-5.0-0.0-5.0","","","","","","","","","","10308.299999982119","","","","","","","","","","","","","","[""true"",""true"",""false"",""true""]","0",""
"sailing-instructions","17","195482","0.0-6.0-0.0-0.0","","","","","","","","","","","","","","null","null","null","null","null","null","","","","","","",""
"sailing-comprehension","18","207588","0.0-6.0-0.0-1.0","","","","","","","","","","10426.5","","","","","","","","","","","","","","[""true"",""false"",""true""]","0",""
"sailing-instructions","19","221309","0.0-7.0-0.0-0.0","","","","","","","","","","","","","","null","null","null","null","null","null","","","","","","",""
"sailing-trial","20","224216","0.0-7.0-0.0-1.0-0.0","","","","false","","","","","","","","","","null","","1291","","0","0","null","null","arrowup","[0.2,0.8,0.2,0.8]","","",""
"sailing-trial","21","226567","0.0-7.0-0.0-1.0-1.0","","","","false","","","","","","","","","","null","","600","","1","1","null","null","arrowup","[0.2,0.8,0.2,0.8]","","",""
"sailing-trial","22","227996","0.0-7.0-0.0-1.0-2.0","","","","false","","","","","","","","","","null","","303","","2","0","null","null","arrowup","[0.2,0.8,0.2,0.8]","","",""
"sailing-trial","23","230867","0.0-7.0-0.0-1.0-3.0","","","","false","","","","","","","","","","null","","878.9000000059605","","3","1","null","null","arrowup","[0.2,0.8,0.2,0.8]","","",""
"sailing-comprehension","24","235255","0.0-7.0-0.0-2.0","","","","","","","","","","3397.300000011921","","","","","","","","","","","","","","[""false""]","0",""
"sailing-instructions","25","245447","0.0-8.0-0.0-0.0","","","","","","","","","","","","","","null","null","null","null","null","null","","","","","","",""
"sailing-comprehension","26","248641","0.0-8.0-0.0-1.0","","","","","","","","","","1731.7999999821186","","","","","","","","","","","","","","[""true""]","0",""
"sailing-instructions","27","269821","0.0-9.0-0.0-0.0","","","","","","","","","","","","","","null","null","null","null","null","null","","","","","","",""
"sailing-trial","28","273335","0.0-9.0-0.0-1.0-0.0","","","","false","","","","","","","","","","782.9000000059605","","282.7000000178814","","0","0","arrowleft","0","arrowleft","[0.2,0.8,0.2,0.8]","","",""
"sailing-trial","29","276695","0.0-9.0-0.0-1.0-1.0","","","","false","","","","","","","","","","416.30000001192093","","271","","1","1","arrowleft","0","arrowright","[0.2,0.8,0.2,0.8]","","",""
"sailing-trial","30","279536","0.0-9.0-0.0-1.0-2.0","","","","false","","","","","","","","","","null","","1016.5999999940395","","0","1","null","null","arrowup","[0.2,0.8,0.2,0.8]","","",""
"sailing-trial","31","282767","0.0-9.0-0.0-1.0-3.0","","","","false","","","","","","","","","","237.5","","355.59999999403954","","1","1","arrowleft","0","arrowright","[0.2,0.8,0.2,0.8]","","",""
"sailing-trial","32","285896","0.0-9.0-0.0-1.0-4.0","","","","false","","","","","","","","","","null","","1355.699999988079","","3","1","null","null","arrowup","[0.2,0.8,0.2,0.8]","","",""
"sailing-trial","33","289136","0.0-9.0-0.0-1.0-5.0","","","","false","","","","","","","","","","448.7999999821186","","137.2999999821186","","1","1","arrowleft","0","arrowright","[0.2,0.8,0.2,0.8]","","",""
"sailing-instructions","34","311775","0.0-10.0","","","","","","","","","","","","","","null","null","null","null","null","null","","","","","","",""
"sailing-trial","35","315274","0.0-11.0-0.0","","","","false","","","","","","","","","","901.0999999940395","","128.7999999821186","","0","0","arrowleft","0","arrowleft","[0.325,0.675,0.85,0.15]","","",""
"sailing-trial","36","318165","0.0-11.0-1.0","","","","false","","","","","","","","","","null","","1105.0999999940395","","2","1","null","null","arrowup","[0.325,0.675,0.85,0.15]","","",""
"sailing-trial","37","321895","0.0-11.0-2.0","","","","false","","","","","","","","","","262.69999998807907","","249.80000001192093","","2","1","arrowright","1","arrowleft","[0.325,0.675,0.85,0.15]","","",""
"sailing-trial","38","324024","0.0-11.0-3.0","","","","false","","","","","","","","","","null","","890.6999999880791","","0","0","null","null","arrowup","[0.325,0.675,0.85,0.15]","","",""
"sailing-trial","39","327146","0.0-11.0-4.0","","","","false","","","","","","","","","","325.5","","58.70000001788139","","2","1","arrowright","1","arrowleft","[0.325,0.675,0.85,0.15]","","",""
"sailing-trial","40","329234","0.0-11.0-5.0","","","","false","","","","","","","","","","null","","874.5","","0","0","null","null","arrowup","[0.325,0.675,0.85,0.15]","","",""
"sailing-trial","41","331744","0.0-11.0-6.0","","","","false","","","","","","","","","","150.09999999403954","","257.69999998807907","","2","0","arrowright","1","arrowleft","[0.325,0.675,0.85,0.15]","","",""
"sailing-trial","42","333983","0.0-11.0-7.0","","","","false","","","","","","","","","","null","","887.5999999940395","","3","0","null","null","arrowup","[0.325,0.675,0.85,0.15]","","",""
"sailing-trial","43","337194","0.0-11.0-8.0","","","","false","","","","","","","","","","606.0999999940395","","37.599999994039536","","1","1","arrowleft","0","arrowright","[0.325,0.675,0.85,0.15]","","",""
"sailing-trial","44","339625","0.0-11.0-9.0","","","","false","","","","","","","","","","null","","630.9000000059605","","0","1","null","null","arrowup","[0.325,0.675,0.85,0.15]","","",""
"sailing-trial","45","342644","0.0-11.0-10.0","","","","false","","","","","","","","","","304.30000001192093","","78.40000000596046","","1","1","arrowleft","0","arrowright","[0.325,0.675,0.85,0.15]","","",""
"sailing-trial","46","344362","0.0-11.0-11.0","","","","false","","","","","","","","","","null","","687","","3","0","null","null","arrowup","[0.325,0.675,0.85,0.15]","","",""
"sailing-trial","47","346751","0.0-11.0-12.0","","","","false","","","","","","","","","","250.09999999403954","","27.399999976158142","","1","0","arrowleft","0","arrowright","[0.325,0.675,0.85,0.15]","","",""
"sailing-trial","48","348801","0.0-11.0-13.0","","","","false","","","","","","","","","","null","","898.9000000059605","","0","0","null","null","arrowup","[0.325,0.675,0.85,0.15]","","",""
"sailing-trial","49","351823","0.0-11.0-14.0","","","","false","","","","","","","","","","479.90000000596046","","320.5","","1","0","arrowleft","0","arrowright","[0.325,0.675,0.85,0.15]","","",""
"sailing-trial","50","354204","0.0-11.0-15.0","","","","false","","","","","","","","","","null","","773","","2","1","null","null","arrowup","[0.325,0.675,0.85,0.15]","","",""
"sailing-trial","51","357224","0.0-11.0-16.0","","","","false","","","","","","","","","","146.59999999403954","","79.60000002384186","","2","1","arrowright","1","arrowleft","[0.325,0.675,0.85,0.15]","","",""
"sailing-trial","52","359029","0.0-11.0-17.0","","","","false","","","","","","","","","","null","","686.4000000059605","","0","0","null","null","arrowup","[0.325,0.675,0.85,0.15]","","",""
"sailing-trial","53","361697","0.0-11.0-18.0","","","","false","","","","","","","","","","357.90000000596046","","110","","2","0","arrowright","1","arrowleft","[0.15,0.85,0.675,0.325]","","",""
"sailing-trial","54","364396","0.0-11.0-19.0","","","","false","","","","","","","","","","null","","960.0999999940395","","1","1","null","null","arrowup","[0.15,0.85,0.675,0.325]","","",""
"sailing-trial","55","367635","0.0-11.0-20.0","","","","false","","","","","","","","","","455.80000001192093","","101.19999998807907","","2","1","arrowright","1","arrowleft","[0.15,0.85,0.675,0.325]","","",""
"sailing-trial","56","370165","0.0-11.0-21.0","","","","false","","","","","","","","","","null","","555.8000000119209","","1","1","null","null","arrowup","[0.15,0.85,0.675,0.325]","","",""
"sailing-trial","57","373524","0.0-11.0-22.0","","","","false","","","","","","","","","","407.09999999403954","","248.90000000596046","","1","1","arrowleft","0","arrowright","[0.15,0.85,0.675,0.325]","","",""
"sailing-trial","58","375453","0.0-11.0-23.0","","","","false","","","","","","","","","","null","","628.5","","3","0","null","null","arrowup","[0.15,0.85,0.675,0.325]","","",""
"sailing-trial","59","378565","0.0-11.0-24.0","","","","false","","","","","","","","","","330.80000001192093","","32.79999998211861","","1","1","arrowleft","0","arrowright","[0.15,0.85,0.675,0.325]","","",""
"sailing-trial","60","380444","0.0-11.0-25.0","","","","false","","","","","","","","","","null","","696.4000000059605","","0","0","null","null","arrowup","[0.15,0.85,0.675,0.325]","","",""
"sailing-trial","61","383334","0.0-11.0-26.0","","","","false","","","","","","","","","","282","","61.099999994039536","","1","1","arrowleft","0","arrowright","[0.15,0.85,0.675,0.325]","","",""
"sailing-trial","62","385583","0.0-11.0-27.0","","","","false","","","","","","","","","","null","","525.6999999880791","","3","1","null","null","arrowup","[0.15,0.85,0.675,0.325]","","",""
"sailing-trial","63","388853","0.0-11.0-28.0","","","","false","","","","","","","","","","260.69999998807907","","176.80000001192093","","1","1","arrowleft","0","arrowright","[0.15,0.85,0.675,0.325]","","",""
"sailing-trial","64","391306","0.0-11.0-29.0","","","","false","","","","","","","","","","null","","744.5999999940395","","1","1","null","null","arrowup","[0.15,0.85,0.675,0.325]","","",""
"sailing-trial","65","394534","0.0-11.0-30.0","","","","false","","","","","","","","","","449.5","","92.09999999403954","","1","1","arrowleft","0","arrowright","[0.15,0.85,0.675,0.325]","","",""
"sailing-trial","66","396993","0.0-11.0-31.0","","","","false","","","","","","","","","","null","","747.2999999821186","","1","1","null","null","arrowup","[0.15,0.85,0.675,0.325]","","",""
"sailing-trial","67","400395","0.0-11.0-32.0","","","","false","","","","","","","","","","371.30000001192093","","149.59999999403954","","1","1","arrowleft","0","arrowright","[0.15,0.85,0.675,0.325]","","",""
"sailing-trial","68","402865","0.0-11.0-33.0","","","","false","","","","","","","","","","null","","724.4000000059605","","3","1","null","null","arrowup","[0.15,0.85,0.675,0.325]","","",""
"sailing-trial","69","406043","0.0-11.0-34.0","","","","false","","","","","","","","","","344","","37.5","","1","1","arrowleft","0","arrowright","[0.15,0.85,0.675,0.325]","","",""
"sailing-trial","70","408304","0.0-11.0-35.0","","","","false","","","","","","","","","","null","","561.7000000178814","","2","1","null","null","arrowup","[0.15,0.85,0.675,0.325]","","",""
"sailing-trial","71","410751","0.0-11.0-36.0","","","","false","","","","","","","","","","207","","8.199999988079071","","1","0","arrowleft","0","arrowright","[0.15,0.85,0.675,0.325]","","",""
"sailing-trial","72","413184","0.0-11.0-37.0","","","","false","","","","","","","","","","null","","741.1999999880791","","1","1","null","null","arrowup","[0.15,0.85,0.675,0.325]","","",""
"sailing-trial","73","416366","0.0-11.0-38.0","","","","false","","","","","","","","","","464","","132.10000002384186","","2","0","arrowright","1","arrowleft","[0.85,0.15,0.325,0.675]","","",""
"sailing-trial","74","418864","0.0-11.0-39.0","","","","false","","","","","","","","","","null","","628","","2","1","null","null","arrowup","[0.85,0.15,0.325,0.675]","","",""
"sailing-trial","75","421276","0.0-11.0-40.0","","","","false","","","","","","","","","","211.2999999821186","","10.900000005960464","","1","0","arrowleft","0","arrowright","[0.85,0.15,0.325,0.675]","","",""
"sailing-trial","76","423543","0.0-11.0-41.0","","","","false","","","","","","","","","","null","","597","","1","1","null","null","arrowup","[0.85,0.15,0.325,0.675]","","",""
"sailing-trial","77","426000","0.0-11.0-42.0","","","","false","","","","","","","","","","189.90000000596046","","29.900000005960464","","1","0","arrowleft","0","arrowright","[0.85,0.15,0.325,0.675]","","",""
"sailing-trial","78","427992","0.0-11.0-43.0","","","","false","","","","","","","","","","null","","667.0999999940395","","3","0","null","null","arrowup","[0.85,0.15,0.325,0.675]","","",""
"sailing-trial","79","430431","0.0-11.0-44.0","","","","false","","","","","","","","","","264.89999997615814","","100.09999999403954","","2","0","arrowright","1","arrowleft","[0.85,0.15,0.325,0.675]","","",""
"sailing-trial","80","432584","0.0-11.0-45.0","","","","false","","","","","","","","","","null","","530.5999999940395","","3","1","null","null","arrowup","[0.85,0.15,0.325,0.675]","","",""
"sailing-trial","81","435803","0.0-11.0-46.0","","","","false","","","","","","","","","","416.89999997615814","","92.39999997615814","","0","1","arrowleft","0","arrowleft","[0.85,0.15,0.325,0.675]","","",""
"sailing-trial","82","438073","0.0-11.0-47.0","","","","false","","","","","","","","","","null","","629","","3","1","null","null","arrowup","[0.85,0.15,0.325,0.675]","","",""
"sailing-trial","83","441102","0.0-11.0-48.0","","","","false","","","","","","","","","","244.10000002384186","","75.5","","0","1","arrowleft","0","arrowleft","[0.85,0.15,0.325,0.675]","","",""
"sailing-trial","84","443307","0.0-11.0-49.0","","","","false","","","","","","","","","","null","","545.5999999940395","","1","0","null","null","arrowup","[0.85,0.15,0.325,0.675]","","",""
"sailing-trial","85","446462","0.0-11.0-50.0","","","","false","","","","","","","","","","289.59999999403954","","71.59999999403954","","0","1","arrowleft","0","arrowleft","[0.85,0.15,0.325,0.675]","","",""
"sailing-trial","86","449173","0.0-11.0-51.0","","","","false","","","","","","","","","","null","","945.8000000119209","","2","1","null","null","arrowup","[0.85,0.15,0.325,0.675]","","",""
"sailing-trial","87","451917","0.0-11.0-52.0","","","","false","","","","","","","","","","378.40000000596046","","110.59999999403954","","0","0","arrowleft","0","arrowleft","[0.85,0.15,0.325,0.675]","","",""
"sailing-trial","88","454563","0.0-11.0-53.0","","","","false","","","","","","","","","","null","","892.3000000119209","","3","1","null","null","arrowup","[0.85,0.15,0.325,0.675]","","",""
"sailing-trial","89","457724","0.0-11.0-54.0","","","","false","","","","","","","","","","343","","82.40000000596046","","2","1","arrowright","1","arrowleft","[0.675,0.325,0.15,0.85]","","",""
"sailing-trial","90","460149","0.0-11.0-55.0","","","","false","","","","","","","","","","null","","900.9000000059605","","2","0","null","null","arrowup","[0.675,0.325,0.15,0.85]","","",""
"sailing-trial","91","463522","0.0-11.0-56.0","","","","false","","","","","","","","","","427.59999999403954","","109.7999999821186","","3","1","arrowright","1","arrowright","[0.675,0.325,0.15,0.85]","","",""
"sailing-trial","92","466253","0.0-11.0-57.0","","","","false","","","","","","","","","","null","","1009.6000000238419","","3","1","null","null","arrowup","[0.675,0.325,0.15,0.85]","","",""
"sailing-trial","93","469562","0.0-11.0-58.0","","","","false","","","","","","","","","","469.40000000596046","","74.7999999821186","","3","1","arrowright","1","arrowright","[0.675,0.325,0.15,0.85]","","",""
"sailing-trial","94","471882","0.0-11.0-59.0","","","","false","","","","","","","","","","null","","621.8999999761581","","1","1","null","null","arrowup","[0.675,0.325,0.15,0.85]","","",""
"sailing-trial","95","474225","0.0-11.0-60.0","","","","false","","","","","","","","","","27.5","","99.2999999821186","","3","0","arrowright","1","arrowright","[0.675,0.325,0.15,0.85]","","",""
"sailing-trial","96","476459","0.0-11.0-61.0","","","","false","","","","","","","","","","null","","1049","","2","0","null","null","arrowup","[0.675,0.325,0.15,0.85]","","",""
"sailing-trial","97","479702","0.0-11.0-62.0","","","","false","","","","","","","","","","323.59999999403954","","216.2000000178814","","3","1","arrowright","1","arrowright","[0.675,0.325,0.15,0.85]","","",""
"sailing-trial","98","481593","0.0-11.0-63.0","","","","false","","","","","","","","","","null","","685.1999999880791","","2","0","null","null","arrowup","[0.675,0.325,0.15,0.85]","","",""
"sailing-trial","99","484432","0.0-11.0-64.0","","","","false","","","","","","","","","","227.59999999403954","","5.300000011920929","","3","1","arrowright","1","arrowright","[0.675,0.325,0.15,0.85]","","",""
"sailing-trial","100","486701","0.0-11.0-65.0","","","","false","","","","","","","","","","null","","707.9000000059605","","1","0","null","null","arrowup","[0.675,0.325,0.15,0.85]","","",""
"sailing-trial","101","490384","0.0-11.0-66.0","","","","false","","","","","","","","","","722","","111.69999998807907","","3","1","arrowright","1","arrowright","[0.675,0.325,0.15,0.85]","","",""
"sailing-trial","102","492693","0.0-11.0-67.0","","","","false","","","","","","","","","","null","","530.0999999940395","","3","1","null","null","arrowup","[0.675,0.325,0.15,0.85]","","",""
"sailing-trial","103","495862","0.0-11.0-68.0","","","","false","","","","","","","","","","316.5","","43.69999998807907","","3","1","arrowright","1","arrowright","[0.675,0.325,0.15,0.85]","","",""
"sailing-trial","104","498484","0.0-11.0-69.0","","","","false","","","","","","","","","","null","","803.5999999940395","","3","1","null","null","arrowup","[0.675,0.325,0.15,0.85]","","",""
"sailing-trial","105","501812","0.0-11.0-70.0","","","","false","","","","","","","","","","563.0999999940395","","195.2000000178814","","3","1","arrowright","1","arrowright","[0.15,0.85,0.675,0.325]","","",""
"sailing-trial","106","504172","0.0-11.0-71.0","","","","false","","","","","","","","","","null","","647.2000000178814","","2","1","null","null","arrowup","[0.15,0.85,0.675,0.325]","","",""
"sailing-trial","107","507112","0.0-11.0-72.0","","","","false","","","","","","","","","","264.5","","21.700000017881393","","3","1","arrowright","1","arrowright","[0.15,0.85,0.675,0.325]","","",""
"sailing-trial","108","508955","0.0-11.0-73.0","","","","false","","","","","","","","","","null","","658.9000000059605","","0","0","null","null","arrowup","[0.15,0.85,0.675,0.325]","","",""
"sailing-trial","109","511477","0.0-11.0-74.0","","","","false","","","","","","","","","","206.59999999403954","","92.7000000178814","","3","0","arrowright","1","arrowright","[0.15,0.85,0.675,0.325]","","",""
"sailing-trial","110","513320","0.0-11.0-75.0","","","","false","","","","","","","","","","null","","660.5999999940395","","0","0","null","null","arrowup","[0.15,0.85,0.675,0.325]","","",""
"sailing-trial","111","515868","0.0-11.0-76.0","","","","false","","","","","","","","","","182.2999999821186","","131.69999998807907","","3","0","arrowright","1","arrowright","[0.15,0.85,0.675,0.325]","","",""
"sailing-trial","112","518182","0.0-11.0-77.0","","","","false","","","","","","","","","","null","","655.2999999821186","","2","1","null","null","arrowup","[0.15,0.85,0.675,0.325]","","",""
"sailing-trial","113","521462","0.0-11.0-78.0","","","","false","","","","","","","","","","480.5","","154.5","","2","1","arrowright","1","arrowleft","[0.15,0.85,0.675,0.325]","","",""
"sailing-trial","114","523881","0.0-11.0-79.0","","","","false","","","","","","","","","","null","","687.1999999880791","","2","1","null","null","arrowup","[0.15,0.85,0.675,0.325]","","",""
"sailing-trial","115","526382","0.0-11.0-80.0","","","","false","","","","","","","","","","307.80000001192093","","69.40000000596046","","2","0","arrowright","1","arrowleft","[0.15,0.85,0.675,0.325]","","",""
"sailing-trial","116","528088","0.0-11.0-81.0","","","","false","","","","","","","","","","null","","632.4000000059605","","3","0","null","null","arrowup","[0.15,0.85,0.675,0.325]","","",""
"sailing-trial","117","530490","0.0-11.0-82.0","","","","false","","","","","","","","","","229.7000000178814","","71.7000000178814","","2","0","arrowright","1","arrowleft","[0.15,0.85,0.675,0.325]","","",""
"sailing-trial","118","533171","0.0-11.0-83.0","","","","false","","","","","","","","","","null","","717.9000000059605","","2","1","null","null","arrowup","[0.15,0.85,0.675,0.325]","","",""
"sailing-trial","119","536082","0.0-11.0-84.0","","","","false","","","","","","","","","","204","","64.7999999821186","","1","1","arrowleft","0","arrowright","[0.15,0.85,0.675,0.325]","","",""
"sailing-trial","120","538066","0.0-11.0-85.0","","","","false","","","","","","","","","","null","","593.5","","1","0","null","null","arrowup","[0.15,0.85,0.675,0.325]","","",""
"sailing-trial","121","541112","0.0-11.0-86.0","","","","false","","","","","","","","","","400.7000000178814","","29.900000005960464","","2","1","arrowright","1","arrowleft","[0.15,0.85,0.675,0.325]","","",""
"sailing-trial","122","543104","0.0-11.0-87.0","","","","false","","","","","","","","","","null","","568.7000000178814","","0","0","null","null","arrowup","[0.15,0.85,0.675,0.325]","","",""
"sailing-trial","123","545823","0.0-11.0-88.0","","","","false","","","","","","","","","","451.40000000596046","","89.7000000178814","","2","0","arrowright","1","arrowleft","[0.15,0.85,0.675,0.325]","","",""
"sailing-trial","124","547675","0.0-11.0-89.0","","","","false","","","","","","","","","","null","","635.0999999940395","","2","0","null","null","arrowup","[0.15,0.85,0.675,0.325]","","",""
"sailing-trial","125","550521","0.0-11.0-90.0","","","","false","","","","","","","","","","125.69999998807907","","134.40000000596046","","1","1","arrowleft","0","arrowright","[0.15,0.85,0.675,0.325]","","",""
"sailing-trial","126","552255","0.0-11.0-91.0","","","","false","","","","","","","","","","null","","467.40000000596046","","0","0","null","null","arrowup","[0.15,0.85,0.675,0.325]","","",""
"sailing-trial","127","555401","0.0-11.0-92.0","","","","false","","","","","","","","","","179.90000000596046","","160.5","","1","1","arrowleft","0","arrowright","[0.325,0.675,0.85,0.15]","","",""
"sailing-trial","128","557811","0.0-11.0-93.0","","","","false","","","","","","","","","","null","","596","","1","1","null","null","arrowup","[0.325,0.675,0.85,0.15]","","",""
"sailing-trial","129","560911","0.0-11.0-94.0","","","","false","","","","","","","","","","225.09999999403954","","229","","1","1","arrowleft","0","arrowright","[0.325,0.675,0.85,0.15]","","",""
"sailing-trial","130","563065","0.0-11.0-95.0","","","","false","","","","","","","","","","null","","522.5999999940395","","2","1","null","null","arrowup","[0.325,0.675,0.85,0.15]","","",""
"sailing-trial","131","565960","0.0-11.0-96.0","","","","false","","","","","","","","","","0.19999998807907104","","122.39999997615814","","1","1","arrowleft","0","arrowright","[0.325,0.675,0.85,0.15]","","",""
"sailing-trial","132","567469","0.0-11.0-97.0","","","","false","","","","","","","","","","null","","489.39999997615814","","0","0","null","null","arrowup","[0.325,0.675,0.85,0.15]","","",""
"sailing-trial","133","570860","0.0-11.0-98.0","","","","false","","","","","","","","","","242","","408.90000000596046","","1","1","arrowleft","0","arrowright","[0.325,0.675,0.85,0.15]","","",""
"sailing-trial","134","572911","0.0-11.0-99.0","","","","false","","","","","","","","","","null","","535","","2","1","null","null","arrowup","[0.325,0.675,0.85,0.15]","","",""
"sailing-trial","135","575800","0.0-11.0-100.0","","","","false","","","","","","","","","","212.60000002384186","","25.80000001192093","","1","1","arrowleft","0","arrowright","[0.325,0.675,0.85,0.15]","","",""
"sailing-trial","136","578110","0.0-11.0-101.0","","","","false","","","","","","","","","","null","","535.1999999880791","","1","1","null","null","arrowup","[0.325,0.675,0.85,0.15]","","",""
"sailing-trial","137","580980","0.0-11.0-102.0","","","","false","","","","","","","","","","69.5","","69.40000000596046","","1","1","arrowleft","0","arrowright","[0.325,0.675,0.85,0.15]","","",""
"sailing-trial","138","583181","0.0-11.0-103.0","","","","false","","","","","","","","","","null","","558.7000000178814","","1","1","null","null","arrowup","[0.325,0.675,0.85,0.15]","","",""
"sailing-trial","139","585431","0.0-11.0-104.0","","","","false","","","","","","","","","","64.19999998807907","","78.09999999403954","","1","0","arrowleft","0","arrowright","[0.325,0.675,0.85,0.15]","","",""
"sailing-trial","140","587561","0.0-11.0-105.0","","","","false","","","","","","","","","","null","","453.19999998807907","","1","1","null","null","arrowup","[0.325,0.675,0.85,0.15]","","",""
"sailing-trial","141","590421","0.0-11.0-106.0","","","","false","","","","","","","","","","52.599999994039536","","141.69999998807907","","1","1","arrowleft","0","arrowright","[0.325,0.675,0.85,0.15]","","",""
"sailing-trial","142","592724","0.0-11.0-107.0","","","","false","","","","","","","","","","null","","590.9000000059605","","0","1","null","null","arrowup","[0.325,0.675,0.85,0.15]","","",""
"sailing-trial","143","595451","0.0-11.0-108.0","","","","false","","","","","","","","","","78.09999999403954","","101.89999997615814","","1","1","arrowleft","0","arrowright","[0.325,0.675,0.85,0.15]","","",""
"sailing-trial","144","597781","0.0-11.0-109.0","","","","false","","","","","","","","","","null","","604","","2","1","null","null","arrowup","[0.325,0.675,0.85,0.15]","","",""
"sailing-trial","145","600430","0.0-11.0-110.0","","","","false","","","","","","","","","","220.59999999403954","","120.09999999403954","","1","0","arrowleft","0","arrowright","[0.85,0.15,0.325,0.675]","","",""
"sailing-trial","146","602179","0.0-11.0-111.0","","","","false","","","","","","","","","","null","","450.09999999403954","","1","0","null","null","arrowup","[0.85,0.15,0.325,0.675]","","",""
"sailing-trial","147","605342","0.0-11.0-112.0","","","","false","","","","","","","","","","386.59999999403954","","75.80000001192093","","2","1","arrowright","1","arrowleft","[0.85,0.15,0.325,0.675]","","",""
"sailing-trial","148","607642","0.0-11.0-113.0","","","","false","","","","","","","","","","null","","620.2000000178814","","3","1","null","null","arrowup","[0.85,0.15,0.325,0.675]","","",""
"sailing-trial","149","610366","0.0-11.0-114.0","","","","false","","","","","","","","","","496.2000000178814","","146.30000001192093","","2","0","arrowright","1","arrowleft","[0.85,0.15,0.325,0.675]","","",""
"sailing-trial","150","612510","0.0-11.0-115.0","","","","false","","","","","","","","","","null","","577.7999999821186","","3","1","null","null","arrowup","[0.85,0.15,0.325,0.675]","","",""
"sailing-trial","151","615510","0.0-11.0-116.0","","","","false","","","","","","","","","","211","","62.599999994039536","","3","1","arrowright","1","arrowright","[0.85,0.15,0.325,0.675]","","",""
"sailing-trial","152","617127","0.0-11.0-117.0","","","","false","","","","","","","","","","null","","603","","1","0","null","null","arrowup","[0.85,0.15,0.325,0.675]","","",""
"sailing-trial","153","619705","0.0-11.0-118.0","","","","false","","","","","","","","","","244","","57.5","","3","0","arrowright","1","arrowright","[0.85,0.15,0.325,0.675]","","",""
"sailing-trial","154","621226","0.0-11.0-119.0","","","","false","","","","","","","","","","null","","461.69999998807907","","1","0","null","null","arrowup","[0.85,0.15,0.325,0.675]","","",""
"sailing-trial","155","624161","0.0-11.0-120.0","","","","false","","","","","","","","","","181.69999998807907","","16.69999998807907","","3","1","arrowright","1","arrowright","[0.85,0.15,0.325,0.675]","","",""
"sailing-trial","156","626300","0.0-11.0-121.0","","","","false","","","","","","","","","","null","","500.2999999821186","","2","1","null","null","arrowup","[0.85,0.15,0.325,0.675]","","",""
"sailing-trial","157","629390","0.0-11.0-122.0","","","","false","","","","","","","","","","85.69999998807907","","169.40000000596046","","3","1","arrowright","1","arrowright","[0.85,0.15,0.325,0.675]","","",""
"sailing-trial","158","631019","0.0-11.0-123.0","","","","false","","","","","","","","","","null","","207.19999998807907","","1","0","null","null","arrowup","[0.85,0.15,0.325,0.675]","","",""
"sailing-trial","159","634101","0.0-11.0-124.0","","","","false","","","","","","","","","","259.89999997615814","","167.09999999403954","","3","1","arrowright","1","arrowright","[0.85,0.15,0.325,0.675]","","",""
"sailing-trial","160","636121","0.0-11.0-125.0","","","","false","","","","","","","","","","null","","423.60000002384186","","0","1","null","null","arrowup","[0.85,0.15,0.325,0.675]","","",""
"sailing-trial","161","639263","0.0-11.0-126.0","","","","false","","","","","","","","","","319.90000000596046","","170.90000000596046","","3","1","arrowright","1","arrowright","[0.85,0.15,0.325,0.675]","","",""
"sailing-trial","162","642020","0.0-11.0-127.0","","","","false","","","","","","","","","","null","","1087.9000000059605","","0","1","null","null","arrowup","[0.85,0.15,0.325,0.675]","","",""
"sailing-trial","163","645081","0.0-11.0-128.0","","","","false","","","","","","","","","","411.90000000596046","","19.599999994039536","","3","1","arrowright","1","arrowright","[0.85,0.15,0.325,0.675]","","",""
"sailing-trial","164","647240","0.0-11.0-129.0","","","","false","","","","","","","","","","null","","465.80000001192093","","3","1","null","null","arrowup","[0.85,0.15,0.325,0.675]","","",""
"sailing-trial","165","650520","0.0-11.0-130.0","","","","false","","","","","","","","","","573.4000000059605","","9.400000005960464","","3","1","arrowright","1","arrowright","[0.675,0.325,0.15,0.85]","","",""
"sailing-trial","166","652413","0.0-11.0-131.0","","","","false","","","","","","","","","","null","","801.6999999880791","","1","0","null","null","arrowup","[0.675,0.325,0.15,0.85]","","",""
"sailing-trial","167","655450","0.0-11.0-132.0","","","","false","","","","","","","","","","271.59999999403954","","26.299999982118607","","3","1","arrowright","1","arrowright","[0.675,0.325,0.15,0.85]","","",""
"sailing-trial","168","657232","0.0-11.0-133.0","","","","false","","","","","","","","","","null","","746.9000000059605","","2","0","null","null","arrowup","[0.675,0.325,0.15,0.85]","","",""
"sailing-trial","169","660459","0.0-11.0-134.0","","","","false","","","","","","","","","","322.30000001192093","","24.700000017881393","","3","1","arrowright","1","arrowright","[0.675,0.325,0.15,0.85]","","",""
"sailing-trial","170","662065","0.0-11.0-135.0","","","","false","","","","","","","","","","null","","585","","0","0","null","null","arrowup","[0.675,0.325,0.15,0.85]","","",""
"sailing-trial","171","664989","0.0-11.0-136.0","","","","false","","","","","","","","","","209.30000001192093","","80.40000000596046","","3","1","arrowright","1","arrowright","[0.675,0.325,0.15,0.85]","","",""
"sailing-trial","172","666969","0.0-11.0-137.0","","","","false","","","","","","","","","","null","","344.59999999403954","","3","1","null","null","arrowup","[0.675,0.325,0.15,0.85]","","",""
"sailing-trial","173","669840","0.0-11.0-138.0","","","","false","","","","","","","","","","280.60000002384186","","9.5","","3","1","arrowright","1","arrowright","[0.675,0.325,0.15,0.85]","","",""
"sailing-trial","174","672248","0.0-11.0-139.0","","","","false","","","","","","","","","","null","","798.7999999821186","","1","1","null","null","arrowup","[0.675,0.325,0.15,0.85]","","",""
"sailing-trial","175","675299","0.0-11.0-140.0","","","","false","","","","","","","","","","417.40000000596046","","30.400000005960464","","3","1","arrowright","1","arrowright","[0.675,0.325,0.15,0.85]","","",""
"sailing-trial","176","676954","0.0-11.0-141.0","","","","false","","","","","","","","","","null","","619.7000000178814","","0","0","null","null","arrowup","[0.675,0.325,0.15,0.85]","","",""
"sailing-trial","177","679839","0.0-11.0-142.0","","","","false","","","","","","","","","","335.7000000178814","","22.69999998807907","","3","1","arrowright","1","arrowright","[0.675,0.325,0.15,0.85]","","",""
"sailing-trial","178","681529","0.0-11.0-143.0","","","","false","","","","","","","","","","null","","496.2000000178814","","2","0","null","null","arrowup","[0.675,0.325,0.15,0.85]","","",""
"sailing-trial","179","684369","0.0-11.0-144.0","","","","false","","","","","","","","","","192.5","","8.700000017881393","","3","1","arrowright","1","arrowright","[0.675,0.325,0.15,0.85]","","",""
"sailing-trial","180","685688","0.0-11.0-145.0","","","","false","","","","","","","","","","null","","127","","2","0","null","null","arrowup","[0.675,0.325,0.15,0.85]","","",""
"sailing-trial","181","688529","0.0-11.0-146.0","","","","false","","","","","","","","","","114.19999998807907","","99.89999997615814","","3","1","arrowright","1","arrowright","[0.675,0.325,0.15,0.85]","","",""
"sailing-trial","182","690037","0.0-11.0-147.0","","","","false","","","","","","","","","","null","","485.2999999821186","","2","0","null","null","arrowup","[0.675,0.325,0.15,0.85]","","",""
"sailing-trial","183","692544","0.0-11.0-148.0","","","","false","","","","","","","","","","123.7000000178814","","128.09999999403954","","3","0","arrowright","1","arrowright","[0.675,0.325,0.15,0.85]","","",""
"sailing-trial","184","694330","0.0-11.0-149.0","","","","false","","","","","","","","","","null","","96.69999998807907","","3","1","null","null","arrowup","[0.675,0.325,0.15,0.85]","","",""
"sailing-trial","185","697039","0.0-11.0-150.0","","","","false","","","","","","","","","","68.90000000596046","","4.300000011920929","","3","1","arrowright","1","arrowright","[0.675,0.325,0.15,0.85]","","",""
"sailing-trial","186","699099","0.0-11.0-151.0","","","","false","","","","","","","","","","null","","387.2999999821186","","3","1","null","null","arrowup","[0.675,0.325,0.15,0.85]","","",""
"sailing-trial","187","701919","0.0-11.0-152.0","","","","false","","","","","","","","","","107.5","","9.099999994039536","","3","1","arrowright","1","arrowright","[0.85,0.15,0.325,0.675]","","",""
"sailing-trial","188","703620","0.0-11.0-153.0","","","","false","","","","","","","","","","null","","139","","3","1","null","null","arrowup","[0.85,0.15,0.325,0.675]","","",""
"sailing-trial","189","705847","0.0-11.0-154.0","","","","false","","","","","","","","","","4.5","","141.90000000596046","","3","0","arrowright","1","arrowright","[0.85,0.15,0.325,0.675]","","",""
"sailing-trial","190","707448","0.0-11.0-155.0","","","","false","","","","","","","","","","null","","383.30000001192093","","1","0","null","null","arrowup","[0.85,0.15,0.325,0.675]","","",""
"sailing-trial","191","710328","0.0-11.0-156.0","","","","false","","","","","","","","","","105.5","","97.30000001192093","","3","1","arrowright","1","arrowright","[0.85,0.15,0.325,0.675]","","",""
"sailing-trial","192","712068","0.0-11.0-157.0","","","","false","","","","","","","","","","null","","197.59999999403954","","0","1","null","null","arrowup","[0.85,0.15,0.325,0.675]","","",""
"sailing-trial","193","714959","0.0-11.0-158.0","","","","false","","","","","","","","","","219.69999998807907","","50.599999994039536","","3","1","arrowright","1","arrowright","[0.85,0.15,0.325,0.675]","","",""
"sailing-trial","194","716807","0.0-11.0-159.0","","","","false","","","","","","","","","","null","","194.2000000178814","","3","1","null","null","arrowup","[0.85,0.15,0.325,0.675]","","",""
"sailing-trial","195","719560","0.0-11.0-160.0","","","","false","","","","","","","","","","8.200000017881393","","86.60000002384186","","3","1","arrowright","1","arrowright","[0.85,0.15,0.325,0.675]","","",""
"sailing-trial","196","720789","0.0-11.0-161.0","","","","false","","","","","","","","","","null","","75.09999999403954","","1","0","null","null","arrowup","[0.85,0.15,0.325,0.675]","","",""
"sailing-trial","197","723103","0.0-11.0-162.0","","","","false","","","","","","","","","","132.7999999821186","","95.2999999821186","","3","0","arrowright","1","arrowright","[0.85,0.15,0.325,0.675]","","",""
"sailing-trial","198","724778","0.0-11.0-163.0","","","","false","","","","","","","","","","null","","30.299999982118607","","3","1","null","null","arrowup","[0.85,0.15,0.325,0.675]","","",""
"sailing-trial","199","726980","0.0-11.0-164.0","","","","false","","","","","","","","","","123.40000000596046","","5","","3","0","arrowright","1","arrowright","[0.85,0.15,0.325,0.675]","","",""
"sailing-trial","200","728748","0.0-11.0-165.0","","","","false","","","","","","","","","","null","","80.19999998807907","","3","1","null","null","arrowup","[0.85,0.15,0.325,0.675]","","",""
"sailing-trial","201","731597","0.0-11.0-166.0","","","","false","","","","","","","","","","162.19999998807907","","134.5","","2","1","arrowright","1","arrowleft","[0.85,0.15,0.325,0.675]","","",""
"sailing-trial","202","733288","0.0-11.0-167.0","","","","false","","","","","","","","","","null","","2.5","","3","1","null","null","arrowup","[0.85,0.15,0.325,0.675]","","",""
"sailing-trial","203","735528","0.0-11.0-168.0","","","","false","","","","","","","","","","26.900000005960464","","82.19999998807907","","2","0","arrowright","1","arrowleft","[0.675,0.325,0.15,0.85]","","",""
"sailing-trial","204","736782","0.0-11.0-169.0","","","","false","","","","","","","","","","null","","130.7999999821186","","3","0","null","null","arrowup","[0.675,0.325,0.15,0.85]","","",""
"sailing-trial","205","739388","0.0-11.0-170.0","","","","false","","","","","","","","","","395.39999997615814","","42.599999994039536","","0","0","arrowleft","0","arrowleft","[0.675,0.325,0.15,0.85]","","",""
"sailing-trial","206","740806","0.0-11.0-171.0","","","","false","","","","","","","","","","null","","235","","2","0","null","null","arrowup","[0.675,0.325,0.15,0.85]","","",""
"sailing-trial","207","743698","0.0-11.0-172.0","","","","false","","","","","","","","","","161.7999999821186","","75.5","","3","1","arrowright","1","arrowright","[0.675,0.325,0.15,0.85]","","",""
"sailing-trial","208","745588","0.0-11.0-173.0","","","","false","","","","","","","","","","null","","189.10000002384186","","1","1","null","null","arrowup","[0.675,0.325,0.15,0.85]","","",""
"sailing-trial","209","747894","0.0-11.0-174.0","","","","false","","","","","","","","","","150","","34.19999998807907","","1","0","arrowleft","0","arrowright","[0.675,0.325,0.15,0.85]","","",""
"sailing-trial","210","749598","0.0-11.0-175.0","","","","false","","","","","","","","","","null","","175.59999999403954","","2","1","null","null","arrowup","[0.675,0.325,0.15,0.85]","","",""
"sailing-trial","211","752347","0.0-11.0-176.0","","","","false","","","","","","","","","","0.20000001788139343","","4.800000011920929","","3","1","arrowright","1","arrowright","[0.675,0.325,0.15,0.85]","","",""
"sailing-trial","212","754198","0.0-11.0-177.0","","","","false","","","","","","","","","","null","","272.59999999403954","","1","1","null","null","arrowup","[0.675,0.325,0.15,0.85]","","",""
"sailing-trial","213","756693","0.0-11.0-178.0","","","","false","","","","","","","","","","165.7999999821186","","153","","3","0","arrowright","1","arrowright","[0.675,0.325,0.15,0.85]","","",""
"sailing-trial","214","758668","0.0-11.0-179.0","","","","false","","","","","","","","","","null","","361.80000001192093","","0","1","null","null","arrowup","[0.675,0.325,0.15,0.85]","","",""
"sailing-trial","215","761817","0.0-11.0-180.0","","","","false","","","","","","","","","","66.09999999403954","","181.59999999403954","","3","1","arrowright","1","arrowright","[0.675,0.325,0.15,0.85]","","",""
"sailing-trial","216","763640","0.0-11.0-181.0","","","","false","","","","","","","","","","null","","636.7999999821186","","2","0","null","null","arrowup","[0.675,0.325,0.15,0.85]","","",""
"sailing-trial","217","766070","0.0-11.0-182.0","","","","false","","","","","","","","","","163.19999998807907","","76.5","","3","0","arrowright","1","arrowright","[0.675,0.325,0.15,0.85]","","",""
"sailing-trial","218","767957","0.0-11.0-183.0","","","","false","","","","","","","","","","null","","240.30000001192093","","3","1","null","null","arrowup","[0.675,0.325,0.15,0.85]","","",""
"sailing-trial","219","771386","0.0-11.0-184.0","","","","false","","","","","","","","","","648.1000000238419","","102.09999999403954","","3","1","arrowright","1","arrowright","[0.675,0.325,0.15,0.85]","","",""
"sailing-trial","220","772593","0.0-11.0-185.0","","","","false","","","","","","","","","","null","","185.39999997615814","","1","0","null","null","arrowup","[0.675,0.325,0.15,0.85]","","",""
"sailing-trial","221","775638","0.0-11.0-186.0","","","","false","","","","","","","","","","253","","145.89999997615814","","3","1","arrowright","1","arrowright","[0.675,0.325,0.15,0.85]","","",""
"sailing-trial","222","777658","0.0-11.0-187.0","","","","false","","","","","","","","","","null","","312.30000001192093","","3","1","null","null","arrowup","[0.675,0.325,0.15,0.85]","","",""
"sailing-trial","223","780588","0.0-11.0-188.0","","","","false","","","","","","","","","","69.5","","113.10000002384186","","3","1","arrowright","1","arrowright","[0.675,0.325,0.15,0.85]","","",""
"sailing-trial","224","782645","0.0-11.0-189.0","","","","false","","","","","","","","","","null","","861","","2","0","null","null","arrowup","[0.675,0.325,0.15,0.85]","","",""
"sailing-trial","225","785858","0.0-11.0-190.0","","","","false","","","","","","","","","","168.7000000178814","","363.09999999403954","","3","1","arrowright","1","arrowright","[0.675,0.325,0.15,0.85]","","",""
"sailing-trial","226","787519","0.0-11.0-191.0","","","","false","","","","","","","","","","null","","142.69999998807907","","3","1","null","null","arrowup","[0.675,0.325,0.15,0.85]","","",""
"sailing-trial","227","790268","0.0-11.0-192.0","","","","false","","","","","","","","","","2.800000011920929","","41","","3","1","arrowright","1","arrowright","[0.85,0.15,0.325,0.675]","","",""
"sailing-trial","228","791730","0.0-11.0-193.0","","","","false","","","","","","","","","","null","","74.7999999821186","","1","0","null","null","arrowup","[0.85,0.15,0.325,0.675]","","",""
"sailing-trial","229","794408","0.0-11.0-194.0","","","","false","","","","","","","","","","89.09999999403954","","3","","3","1","arrowright","1","arrowright","[0.85,0.15,0.325,0.675]","","",""
"sailing-trial","230","795585","0.0-11.0-195.0","","","","false","","","","","","","","","","null","","5.799999982118607","","1","0","null","null","arrowup","[0.85,0.15,0.325,0.675]","","",""
"sailing-trial","231","797763","0.0-11.0-196.0","","","","false","","","","","","","","","","2.5","","50.5","","3","0","arrowright","1","arrowright","[0.85,0.15,0.325,0.675]","","",""
"sailing-trial","232","799768","0.0-11.0-197.0","","","","false","","","","","","","","","","null","","439.59999999403954","","0","1","null","null","arrowup","[0.85,0.15,0.325,0.675]","","",""
"sailing-trial","233","802938","0.0-11.0-198.0","","","","false","","","","","","","","","","501.90000000596046","","66.69999998807907","","0","1","arrowleft","0","arrowleft","[0.85,0.15,0.325,0.675]","","",""
"sailing-trial","234","804601","0.0-11.0-199.0","","","","false","","","","","","","","","","null","","530.7000000178814","","1","0","null","null","arrowup","[0.85,0.15,0.325,0.675]","","",""
"sailing-trial","235","807019","0.0-11.0-200.0","","","","false","","","","","","","","","","107.69999998807907","","69.2000000178814","","0","0","arrowleft","0","arrowleft","[0.85,0.15,0.325,0.675]","","",""
"sailing-trial","236","809307","0.0-11.0-201.0","","","","false","","","","","","","","","","null","","663.4000000059605","","2","1","null","null","arrowup","[0.85,0.15,0.325,0.675]","","",""
"sailing-trial","237","811722","0.0-11.0-202.0","","","","false","","","","","","","","","","56.89999997615814","","115.90000000596046","","2","0","arrowright","1","arrowleft","[0.85,0.15,0.325,0.675]","","",""
"sailing-trial","238","813446","0.0-11.0-203.0","","","","false","","","","","","","","","","null","","664.4000000059605","","1","0","null","null","arrowup","[0.85,0.15,0.325,0.675]","","",""
"sailing-trial","239","816798","0.0-11.0-204.0","","","","false","","","","","","","","","","555","","78.80000001192093","","3","1","arrowright","1","arrowright","[0.85,0.15,0.325,0.675]","","",""
"sailing-trial","240","818437","0.0-11.0-205.0","","","","false","","","","","","","","","","null","","88.30000001192093","","0","1","null","null","arrowup","[0.85,0.15,0.325,0.675]","","",""
"sailing-trial","241","822356","0.0-11.0-206.0","","","","false","","","","","","","","","","870.2000000178814","","84","","0","0","arrowleft","0","arrowleft","[0.85,0.15,0.325,0.675]","","",""
"sailing-trial","242","823757","0.0-11.0-207.0","","","","false","","","","","","","","","","null","","239.90000000596046","","3","0","null","null","arrowup","[0.85,0.15,0.325,0.675]","","",""
"sailing-trial","243","828407","0.0-11.0-208.0","","","","false","","","","","","","","","","1834","","152.30000001192093","","2","1","arrowright","1","arrowleft","[0.675,0.325,0.15,0.85]","","",""
"sailing-trial","244","830627","0.0-11.0-209.0","","","","false","","","","","","","","","","null","","566.6999999880791","","1","1","null","null","arrowup","[0.675,0.325,0.15,0.85]","","",""
"sailing-trial","245","832875","0.0-11.0-210.0","","","","false","","","","","","","","","","23.19999998807907","","102.10000002384186","","2","0","arrowright","1","arrowleft","[0.675,0.325,0.15,0.85]","","",""
"sailing-trial","246","834187","0.0-11.0-211.0","","","","false","","","","","","","","","","null","","232.09999999403954","","1","0","null","null","arrowup","[0.675,0.325,0.15,0.85]","","",""
"sailing-trial","247","837287","0.0-11.0-212.0","","","","false","","","","","","","","","","400.90000000596046","","87.90000000596046","","2","1","arrowright","1","arrowleft","[0.675,0.325,0.15,0.85]","","",""
"sailing-trial","248","839326","0.0-11.0-213.0","","","","false","","","","","","","","","","null","","485.5","","1","1","null","null","arrowup","[0.675,0.325,0.15,0.85]","","",""
"sailing-trial","249","841884","0.0-11.0-214.0","","","","false","","","","","","","","","","14.100000023841858","","327.30000001192093","","2","0","arrowright","1","arrowleft","[0.675,0.325,0.15,0.85]","","",""
"sailing-trial","250","843746","0.0-11.0-215.0","","","","false","","","","","","","","","","null","","216.40000000596046","","3","1","null","null","arrowup","[0.675,0.325,0.15,0.85]","","",""
"sailing-trial","251","846487","0.0-11.0-216.0","","","","false","","","","","","","","","","73.10000002384186","","46.400000005960464","","3","1","arrowright","1","arrowright","[0.675,0.325,0.15,0.85]","","",""
"sailing-trial","252","847641","0.0-11.0-217.0","","","","false","","","","","","","","","","null","","13.200000017881393","","1","0","null","null","arrowup","[0.675,0.325,0.15,0.85]","","",""
"sailing-trial","253","850446","0.0-11.0-218.0","","","","false","","","","","","","","","","149.40000000596046","","64.90000000596046","","3","1","arrowright","1","arrowright","[0.675,0.325,0.15,0.85]","","",""
"sailing-trial","254","852126","0.0-11.0-219.0","","","","false","","","","","","","","","","null","","13.400000005960464","","1","1","null","null","arrowup","[0.675,0.325,0.15,0.85]","","",""
"sailing-trial","255","854857","0.0-11.0-220.0","","","","false","","","","","","","","","","23","","116.30000001192093","","3","1","arrowright","1","arrowright","[0.675,0.325,0.15,0.85]","","",""
"sailing-trial","256","856648","0.0-11.0-221.0","","","","false","","","","","","","","","","null","","126","","0","1","null","null","arrowup","[0.675,0.325,0.15,0.85]","","",""
"sailing-trial","257","859486","0.0-11.0-222.0","","","","false","","","","","","","","","","187.59999999403954","","68.40000000596046","","3","1","arrowright","1","arrowright","[0.675,0.325,0.15,0.85]","","",""
"sailing-trial","258","861287","0.0-11.0-223.0","","","","false","","","","","","","","","","null","","165.80000001192093","","3","1","null","null","arrowup","[0.675,0.325,0.15,0.85]","","",""
"sailing-trial","259","863510","0.0-11.0-224.0","","","","false","","","","","","","","","","51.69999998807907","","50.39999997615814","","3","0","arrowright","1","arrowright","[0.325,0.675,0.85,0.15]","","",""
"sailing-trial","260","864628","0.0-11.0-225.0","","","","false","","","","","","","","","","null","","2.699999988079071","","0","0","null","null","arrowup","[0.325,0.675,0.85,0.15]","","",""
"sailing-trial","261","867002","0.0-11.0-226.0","","","","false","","","","","","","","","","186.30000001192093","","14.5","","3","0","arrowright","1","arrowright","[0.325,0.675,0.85,0.15]","","",""
"sailing-trial","262","868726","0.0-11.0-227.0","","","","false","","","","","","","","","","null","","173.19999998807907","","2","1","null","null","arrowup","[0.325,0.675,0.85,0.15]","","",""
"sailing-trial","263","871007","0.0-11.0-228.0","","","","false","","","","","","","","","","25.19999998807907","","60.30000001192093","","3","0","arrowright","1","arrowright","[0.325,0.675,0.85,0.15]","","",""
"sailing-trial","264","872735","0.0-11.0-229.0","","","","false","","","","","","","","","","null","","63.39999997615814","","2","1","null","null","arrowup","[0.325,0.675,0.85,0.15]","","",""
"sailing-trial","265","875536","0.0-11.0-230.0","","","","false","","","","","","","","","","106.19999998807907","","76.90000000596046","","2","1","arrowright","1","arrowleft","[0.325,0.675,0.85,0.15]","","",""
"sailing-trial","266","877146","0.0-11.0-231.0","","","","false","","","","","","","","","","null","","22.399999976158142","","2","1","null","null","arrowup","[0.325,0.675,0.85,0.15]","","",""
"sailing-trial","267","879795","0.0-11.0-232.0","","","","false","","","","","","","","","","72.69999998807907","","19.400000005960464","","2","1","arrowright","1","arrowleft","[0.325,0.675,0.85,0.15]","","",""
"sailing-trial","268","880961","0.0-11.0-233.0","","","","false","","","","","","","","","","null","","66.19999998807907","","0","0","null","null","arrowup","[0.325,0.675,0.85,0.15]","","",""
"sailing-trial","269","883341","0.0-11.0-234.0","","","","false","","","","","","","","","","144.59999999403954","","133","","2","0","arrowright","1","arrowleft","[0.325,0.675,0.85,0.15]","","",""
"sailing-trial","270","884700","0.0-11.0-235.0","","","","false","","","","","","","","","","null","","176.80000001192093","","3","0","null","null","arrowup","[0.325,0.675,0.85,0.15]","","",""
"sailing-trial","271","887715","0.0-11.0-236.0","","","","false","","","","","","","","","","132.90000000596046","","179.19999998807907","","2","1","arrowright","1","arrowleft","[0.325,0.675,0.85,0.15]","","",""
"sailing-trial","272","889547","0.0-11.0-237.0","","","","false","","","","","","","","","","null","","114.19999998807907","","2","1","null","null","arrowup","[0.325,0.675,0.85,0.15]","","",""
"sailing-trial","273","892285","0.0-11.0-238.0","","","","false","","","","","","","","","","27.5","","41","","2","1","arrowright","1","arrowleft","[0.325,0.675,0.85,0.15]","","",""
"sailing-trial","274","894035","0.0-11.0-239.0","","","","false","","","","","","","","","","null","","584.7000000178814","","3","0","null","null","arrowup","[0.325,0.675,0.85,0.15]","","",""
"sailing-trial","275","896797","0.0-11.0-240.0","","","","false","","","","","","","","","","53.20000001788139","","31.100000023841858","","2","1","arrowright","1","arrowleft","[0.325,0.675,0.85,0.15]","","",""
"sailing-trial","276","898081","0.0-11.0-241.0","","","","false","","","","","","","","","","null","","97.40000000596046","","3","0","null","null","arrowup","[0.325,0.675,0.85,0.15]","","",""
"sailing-trial","277","900925","0.0-11.0-242.0","","","","false","","","","","","","","","","177.40000000596046","","135.5","","2","1","arrowright","1","arrowleft","[0.15,0.85,0.675,0.325]","","",""
"sailing-trial","278","902575","0.0-11.0-243.0","","","","false","","","","","","","","","","null","","17.799999982118607","","2","1","null","null","arrowup","[0.15,0.85,0.675,0.325]","","",""
"sailing-trial","279","905674","0.0-11.0-244.0","","","","false","","","","","","","","","","117.10000002384186","","25","","2","0","arrowright","1","arrowleft","[0.15,0.85,0.675,0.325]","","",""
"sailing-trial","280","907364","0.0-11.0-245.0","","","","false","","","","","","","","","","null","","623.8000000119209","","3","0","null","null","arrowup","[0.15,0.85,0.675,0.325]","","",""
"sailing-trial","281","910316","0.0-11.0-246.0","","","","false","","","","","","","","","","166.09999999403954","","230.5","","2","1","arrowright","1","arrowleft","[0.15,0.85,0.675,0.325]","","",""
"sailing-trial","282","911544","0.0-11.0-247.0","","","","false","","","","","","","","","","null","","193.90000000596046","","0","0","null","null","arrowup","[0.15,0.85,0.675,0.325]","","",""
"sailing-trial","283","913882","0.0-11.0-248.0","","","","false","","","","","","","","","","136.59999999403954","","144.5","","2","0","arrowright","1","arrowleft","[0.15,0.85,0.675,0.325]","","",""
"sailing-trial","284","915130","0.0-11.0-249.0","","","","false","","","","","","","","","","null","","103.40000000596046","","0","0","null","null","arrowup","[0.15,0.85,0.675,0.325]","","",""
"sailing-trial","285","917956","0.0-11.0-250.0","","","","false","","","","","","","","","","161.90000000596046","","122.59999999403954","","2","1","arrowright","1","arrowleft","[0.15,0.85,0.675,0.325]","","",""
"sailing-trial","286","919690","0.0-11.0-251.0","","","","false","","","","","","","","","","null","","539.7999999821186","","3","0","null","null","arrowup","[0.15,0.85,0.675,0.325]","","",""
"sailing-trial","287","922557","0.0-11.0-252.0","","","","false","","","","","","","","","","160.60000002384186","","29.399999976158142","","1","1","arrowleft","0","arrowright","[0.15,0.85,0.675,0.325]","","",""
"sailing-trial","288","924381","0.0-11.0-253.0","","","","false","","","","","","","","","","null","","587.0999999940395","","0","0","null","null","arrowup","[0.15,0.85,0.675,0.325]","","",""
"sailing-trial","289","927136","0.0-11.0-254.0","","","","false","","","","","","","","","","29.30000001192093","","87.59999999403954","","1","1","arrowleft","0","arrowright","[0.15,0.85,0.675,0.325]","","",""
"sailing-trial","290","928624","0.0-11.0-255.0","","","","false","","","","","","","","","","null","","456","","0","0","null","null","arrowup","[0.15,0.85,0.675,0.325]","","",""
"sailing-trial","291","931495","0.0-11.0-256.0","","","","false","","","","","","","","","","54.70000001788139","","127.59999999403954","","1","1","arrowleft","0","arrowright","[0.15,0.85,0.675,0.325]","","",""
"sailing-trial","292","932788","0.0-11.0-257.0","","","","false","","","","","","","","","","null","","254.90000000596046","","2","0","null","null","arrowup","[0.15,0.85,0.675,0.325]","","",""
"sailing-trial","293","935765","0.0-11.0-258.0","","","","false","","","","","","","","","","114.09999999403954","","182.59999999403954","","1","1","arrowleft","0","arrowright","[0.325,0.675,0.85,0.15]","","",""
"sailing-trial","294","937656","0.0-11.0-259.0","","","","false","","","","","","","","","","null","","180.09999999403954","","1","1","null","null","arrowup","[0.325,0.675,0.85,0.15]","","",""
"sailing-trial","295","940575","0.0-11.0-260.0","","","","false","","","","","","","","","","187.59999999403954","","47.900000005960464","","1","1","arrowleft","0","arrowright","[0.325,0.675,0.85,0.15]","","",""
"sailing-trial","296","941967","0.0-11.0-261.0","","","","false","","","","","","","","","","null","","171.40000000596046","","1","0","null","null","arrowup","[0.325,0.675,0.85,0.15]","","",""
"sailing-trial","297","944807","0.0-11.0-262.0","","","","false","","","","","","","","","","79.90000000596046","","153.5","","1","1","arrowleft","0","arrowright","[0.325,0.675,0.85,0.15]","","",""
"sailing-trial","298","946614","0.0-11.0-263.0","","","","false","","","","","","","","","","null","","124.69999998807907","","0","1","null","null","arrowup","[0.325,0.675,0.85,0.15]","","",""
"sailing-trial","299","949446","0.0-11.0-264.0","","","","false","","","","","","","","","","14.599999994039536","","114.59999999403954","","1","1","arrowleft","0","arrowright","[0.325,0.675,0.85,0.15]","","",""
"sailing-trial","300","951136","0.0-11.0-265.0","","","","false","","","","","","","","","","null","","92.2999999821186","","2","1","null","null","arrowup","[0.325,0.675,0.85,0.15]","","",""
"sailing-trial","301","953925","0.0-11.0-266.0","","","","false","","","","","","","","","","48.900000005960464","","32","","1","1","arrowleft","0","arrowright","[0.325,0.675,0.85,0.15]","","",""
"sailing-trial","302","955071","0.0-11.0-267.0","","","","false","","","","","","","","","","null","","98.60000002384186","","2","0","null","null","arrowup","[0.325,0.675,0.85,0.15]","","",""
"sailing-trial","303","957725","0.0-11.0-268.0","","","","false","","","","","","","","","","50.79999998211861","","4.300000011920929","","1","1","arrowleft","0","arrowright","[0.325,0.675,0.85,0.15]","","",""
"sailing-trial","304","959324","0.0-11.0-269.0","","","","false","","","","","","","","","","null","","4.5","","3","1","null","null","arrowup","[0.325,0.675,0.85,0.15]","","",""
"sailing-trial","305","962135","0.0-11.0-270.0","","","","false","","","","","","","","","","79.2000000178814","","16.400000005960464","","1","1","arrowleft","0","arrowright","[0.325,0.675,0.85,0.15]","","",""
"sailing-trial","306","963332","0.0-11.0-271.0","","","","false","","","","","","","","","","null","","75.19999998807907","","0","0","null","null","arrowup","[0.325,0.675,0.85,0.15]","","",""
"sailing-trial","307","965967","0.0-11.0-272.0","","","","false","","","","","","","","","","12.400000005960464","","58.099999994039536","","1","1","arrowleft","0","arrowright","[0.325,0.675,0.85,0.15]","","",""
"sailing-trial","308","968013","0.0-11.0-273.0","","","","false","","","","","","","","","","null","","149.90000000596046","","2","1","null","null","arrowup","[0.325,0.675,0.85,0.15]","","",""
"sailing-trial","309","970916","0.0-11.0-274.0","","","","false","","","","","","","","","","130.5","","79.5","","1","1","arrowleft","0","arrowright","[0.15,0.85,0.675,0.325]","","",""
"sailing-trial","310","971999","0.0-11.0-275.0","","","","false","","","","","","","","","","null","","44","","0","0","null","null","arrowup","[0.15,0.85,0.675,0.325]","","",""
"sailing-trial","311","974794","0.0-11.0-276.0","","","","false","","","","","","","","","","41.39999997615814","","174.40000000596046","","1","1","arrowleft","0","arrowright","[0.15,0.85,0.675,0.325]","","",""
"sailing-trial","312","976128","0.0-11.0-277.0","","","","false","","","","","","","","","","null","","164.60000002384186","","0","0","null","null","arrowup","[0.15,0.85,0.675,0.325]","","",""
"sailing-trial","313","979084","0.0-11.0-278.0","","","","false","","","","","","","","","","96","","159.40000000596046","","1","1","arrowleft","0","arrowright","[0.15,0.85,0.675,0.325]","","",""
"sailing-trial","314","981015","0.0-11.0-279.0","","","","false","","","","","","","","","","null","","145.90000000596046","","2","1","null","null","arrowup","[0.15,0.85,0.675,0.325]","","",""
"sailing-trial","315","983885","0.0-11.0-280.0","","","","false","","","","","","","","","","124","","70.5","","1","1","arrowleft","0","arrowright","[0.15,0.85,0.675,0.325]","","",""
"sailing-trial","316","985053","0.0-11.0-281.0","","","","false","","","","","","","","","","null","","135.10000002384186","","0","0","null","null","arrowup","[0.15,0.85,0.675,0.325]","","",""
"sailing-trial","317","987944","0.0-11.0-282.0","","","","false","","","","","","","","","","49.80000001192093","","84.90000000596046","","1","1","arrowleft","0","arrowright","[0.15,0.85,0.675,0.325]","","",""
"sailing-trial","318","989604","0.0-11.0-283.0","","","","false","","","","","","","","","","null","","100","","0","1","null","null","arrowup","[0.15,0.85,0.675,0.325]","","",""
"sailing-trial","319","992364","0.0-11.0-284.0","","","","false","","","","","","","","","","150.5","","35.400000005960464","","1","1","arrowleft","0","arrowright","[0.15,0.85,0.675,0.325]","","",""
"sailing-trial","320","993537","0.0-11.0-285.0","","","","false","","","","","","","","","","null","","9","","2","0","null","null","arrowup","[0.15,0.85,0.675,0.325]","","",""
"sailing-trial","321","996254","0.0-11.0-286.0","","","","false","","","","","","","","","","67.90000000596046","","92.2999999821186","","1","1","arrowleft","0","arrowright","[0.15,0.85,0.675,0.325]","","",""
"sailing-trial","322","997844","0.0-11.0-287.0","","","","false","","","","","","","","","","null","","18.399999976158142","","1","1","null","null","arrowup","[0.15,0.85,0.675,0.325]","","",""
"sailing-trial","323","1001103","0.0-11.0-288.0","","","","false","","","","","","","","","","24.900000005960464","","281.5","","1","1","arrowleft","0","arrowright","[0.15,0.85,0.675,0.325]","","",""
"sailing-trial","324","1002886","0.0-11.0-289.0","","","","false","","","","","","","","","","null","","30.80000001192093","","2","1","null","null","arrowup","[0.15,0.85,0.675,0.325]","","",""
"sailing-trial","325","1005094","0.0-11.0-290.0","","","","false","","","","","","","","","","7","","90.69999998807907","","1","0","arrowleft","0","arrowright","[0.15,0.85,0.675,0.325]","","",""
"sailing-trial","326","1006363","0.0-11.0-291.0","","","","false","","","","","","","","","","null","","136.80000001192093","","0","0","null","null","arrowup","[0.15,0.85,0.675,0.325]","","",""
"sailing-trial","327","1009575","0.0-11.0-292.0","","","","false","","","","","","","","","","481.30000001192093","","121","","1","1","arrowleft","0","arrowright","[0.325,0.675,0.85,0.15]","","",""
"sailing-trial","328","1011294","0.0-11.0-293.0","","","","false","","","","","","","","","","null","","42.900000005960464","","2","1","null","null","arrowup","[0.325,0.675,0.85,0.15]","","",""
"sailing-trial","329","1013588","0.0-11.0-294.0","","","","false","","","","","","","","","","91.59999999403954","","79.5","","1","0","arrowleft","0","arrowright","[0.325,0.675,0.85,0.15]","","",""
"sailing-trial","330","1015416","0.0-11.0-295.0","","","","false","","","","","","","","","","null","","147.30000001192093","","1","1","null","null","arrowup","[0.325,0.675,0.85,0.15]","","",""
"sailing-trial","331","1017604","0.0-11.0-296.0","","","","false","","","","","","","","","","86.89999997615814","","49.5","","1","0","arrowleft","0","arrowright","[0.325,0.675,0.85,0.15]","","",""
"sailing-trial","332","1018756","0.0-11.0-297.0","","","","false","","","","","","","","","","null","","58.5","","3","0","null","null","arrowup","[0.325,0.675,0.85,0.15]","","",""
"sailing-trial","333","1021503","0.0-11.0-298.0","","","","false","","","","","","","","","","2.800000011920929","","13.199999988079071","","2","1","arrowright","1","arrowleft","[0.325,0.675,0.85,0.15]","","",""
"sailing-trial","334","1023413","0.0-11.0-299.0","","","","false","","","","","","","","","","null","","187.90000000596046","","2","1","null","null","arrowup","[0.325,0.675,0.85,0.15]","","",""
"sailing-trial","335","1026273","0.0-11.0-300.0","","","","false","","","","","","","","","","101.7000000178814","","160.40000000596046","","2","1","arrowright","1","arrowleft","[0.325,0.675,0.85,0.15]","","",""
"sailing-trial","336","1028115","0.0-11.0-301.0","","","","false","","","","","","","","","","null","","636","","1","0","null","null","arrowup","[0.325,0.675,0.85,0.15]","","",""
"sailing-trial","337","1031043","0.0-11.0-302.0","","","","false","","","","","","","","","","170.5","","95.2999999821186","","2","1","arrowright","1","arrowleft","[0.325,0.675,0.85,0.15]","","",""
"sailing-trial","338","1032168","0.0-11.0-303.0","","","","false","","","","","","","","","","null","","64.90000000596046","","1","0","null","null","arrowup","[0.325,0.675,0.85,0.15]","","",""
"sailing-trial","339","1035362","0.0-11.0-304.0","","","","false","","","","","","","","","","87.7999999821186","","184.59999999403954","","2","1","arrowright","1","arrowleft","[0.325,0.675,0.85,0.15]","","",""
"sailing-trial","340","1037112","0.0-11.0-305.0","","","","false","","","","","","","","","","null","","110.19999998807907","","1","1","null","null","arrowup","[0.325,0.675,0.85,0.15]","","",""
"sailing-trial","341","1039952","0.0-11.0-306.0","","","","false","","","","","","","","","","103.69999998807907","","12.699999988079071","","2","1","arrowright","1","arrowleft","[0.325,0.675,0.85,0.15]","","",""
"sailing-trial","342","1041702","0.0-11.0-307.0","","","","false","","","","","","","","","","null","","195.40000000596046","","2","1","null","null","arrowup","[0.325,0.675,0.85,0.15]","","",""
"sailing-trial","343","1044373","0.0-11.0-308.0","","","","false","","","","","","","","","","2.800000011920929","","70.39999997615814","","2","1","arrowright","1","arrowleft","[0.325,0.675,0.85,0.15]","","",""
"sailing-trial","344","1045933","0.0-11.0-309.0","","","","false","","","","","","","","","","null","","31","","0","1","null","null","arrowup","[0.325,0.675,0.85,0.15]","","",""
"sailing-trial","345","1048763","0.0-11.0-310.0","","","","false","","","","","","","","","","87.30000001192093","","33.30000001192093","","2","1","arrowright","1","arrowleft","[0.325,0.675,0.85,0.15]","","",""
"sailing-trial","346","1050001","0.0-11.0-311.0","","","","false","","","","","","","","","","null","","85.30000001192093","","2","0","null","null","arrowup","[0.325,0.675,0.85,0.15]","","",""
"sailing-trial","347","1052445","0.0-11.0-312.0","","","","false","","","","","","","","","","225","","91.80000001192093","","2","0","arrowright","1","arrowleft","[0.15,0.85,0.675,0.325]","","",""
"sailing-trial","348","1053734","0.0-11.0-313.0","","","","false","","","","","","","","","","null","","133","","0","0","null","null","arrowup","[0.15,0.85,0.675,0.325]","","",""
"sailing-trial","349","1056592","0.0-11.0-314.0","","","","false","","","","","","","","","","134.2999999821186","","90.90000000596046","","1","1","arrowleft","0","arrowright","[0.15,0.85,0.675,0.325]","","",""
"sailing-trial","350","1058482","0.0-11.0-315.0","","","","false","","","","","","","","","","null","","153.09999999403954","","3","1","null","null","arrowup","[0.15,0.85,0.675,0.325]","","",""
"sailing-trial","351","1061183","0.0-11.0-316.0","","","","false","","","","","","","","","","5.5","","116.5","","1","1","arrowleft","0","arrowright","[0.15,0.85,0.675,0.325]","","",""
"sailing-trial","352","1062527","0.0-11.0-317.0","","","","false","","","","","","","","","","null","","116.19999998807907","","2","0","null","null","arrowup","[0.15,0.85,0.675,0.325]","","",""
"sailing-trial","353","1065413","0.0-11.0-318.0","","","","false","","","","","","","","","","47.70000001788139","","135.5","","1","1","arrowleft","0","arrowright","[0.15,0.85,0.675,0.325]","","",""
"sailing-trial","354","1067132","0.0-11.0-319.0","","","","false","","","","","","","","","","null","","19.599999994039536","","1","1","null","null","arrowup","[0.15,0.85,0.675,0.325]","","",""
"sailing-trial","355","1069489","0.0-11.0-320.0","","","","false","","","","","","","","","","173.40000000596046","","19.5","","1","0","arrowleft","0","arrowright","[0.15,0.85,0.675,0.325]","","",""
"sailing-trial","356","1070868","0.0-11.0-321.0","","","","false","","","","","","","","","","null","","230.19999998807907","","0","0","null","null","arrowup","[0.15,0.85,0.675,0.325]","","",""
"sailing-trial","357","1073862","0.0-11.0-322.0","","","","false","","","","","","","","","","210","","128.59999999403954","","1","1","arrowleft","0","arrowright","[0.15,0.85,0.675,0.325]","","",""
"sailing-trial","358","1075028","0.0-11.0-323.0","","","","false","","","","","","","","","","null","","75.59999999403954","","3","0","null","null","arrowup","[0.15,0.85,0.675,0.325]","","",""
"sailing-trial","359","1077903","0.0-11.0-324.0","","","","false","","","","","","","","","","150","","20.19999998807907","","1","1","arrowleft","0","arrowright","[0.15,0.85,0.675,0.325]","","",""
"sailing-trial","360","1079132","0.0-11.0-325.0","","","","false","","","","","","","","","","null","","64.10000002384186","","0","0","null","null","arrowup","[0.15,0.85,0.675,0.325]","","",""
"sailing-trial","361","1081971","0.0-11.0-326.0","","","","false","","","","","","","","","","96","","172.2000000178814","","1","1","arrowleft","0","arrowright","[0.15,0.85,0.675,0.325]","","",""
"sailing-trial","362","1083086","0.0-11.0-327.0","","","","false","","","","","","","","","","null","","3.4000000059604645","","0","0","null","null","arrowup","[0.15,0.85,0.675,0.325]","","",""
"sailing-trial","363","1085529","0.0-11.0-328.0","","","","false","","","","","","","","","","137.2000000178814","","134.90000000596046","","1","0","arrowleft","0","arrowright","[0.675,0.325,0.15,0.85]","","",""
"sailing-trial","364","1087222","0.0-11.0-329.0","","","","false","","","","","","","","","","null","","84","","0","1","null","null","arrowup","[0.675,0.325,0.15,0.85]","","",""
"sailing-trial","365","1090111","0.0-11.0-330.0","","","","false","","","","","","","","","","65.30000001192093","","144.30000001192093","","1","0","arrowleft","0","arrowright","[0.675,0.325,0.15,0.85]","","",""
"sailing-trial","366","1091732","0.0-11.0-331.0","","","","false","","","","","","","","","","null","","71.30000001192093","","0","1","null","null","arrowup","[0.675,0.325,0.15,0.85]","","",""
"sailing-trial","367","1094512","0.0-11.0-332.0","","","","false","","","","","","","","","","87.80000001192093","","121.2000000178814","","1","1","arrowleft","0","arrowright","[0.675,0.325,0.15,0.85]","","",""
"sailing-trial","368","1096252","0.0-11.0-333.0","","","","false","","","","","","","","","","null","","60.900000005960464","","0","1","null","null","arrowup","[0.675,0.325,0.15,0.85]","","",""
"sailing-trial","369","1099032","0.0-11.0-334.0","","","","false","","","","","","","","","","98.5","","126.09999999403954","","0","1","arrowleft","0","arrowleft","[0.675,0.325,0.15,0.85]","","",""
"sailing-trial","370","1100592","0.0-11.0-335.0","","","","false","","","","","","","","","","null","","7.899999976158142","","1","1","null","null","arrowup","[0.675,0.325,0.15,0.85]","","",""
"sailing-trial","371","1103000","0.0-11.0-336.0","","","","false","","","","","","","","","","249.60000002384186","","59.79999998211861","","0","0","arrowleft","0","arrowleft","[0.675,0.325,0.15,0.85]","","",""
"sailing-trial","372","1104840","0.0-11.0-337.0","","","","false","","","","","","","","","","null","","164.59999999403954","","1","1","null","null","arrowup","[0.675,0.325,0.15,0.85]","","",""
"sailing-trial","373","1107681","0.0-11.0-338.0","","","","false","","","","","","","","","","165","","119.80000001192093","","1","1","arrowleft","0","arrowright","[0.675,0.325,0.15,0.85]","","",""
"sailing-trial","374","1109440","0.0-11.0-339.0","","","","false","","","","","","","","","","null","","97.40000000596046","","2","1","null","null","arrowup","[0.675,0.325,0.15,0.85]","","",""
"sailing-trial","375","1111634","0.0-11.0-340.0","","","","false","","","","","","","","","","132.10000002384186","","13.800000011920929","","1","0","arrowleft","0","arrowright","[0.675,0.325,0.15,0.85]","","",""
"sailing-trial","376","1113361","0.0-11.0-341.0","","","","false","","","","","","","","","","null","","187","","3","1","null","null","arrowup","[0.675,0.325,0.15,0.85]","","",""
"sailing-trial","377","1116000","0.0-11.0-342.0","","","","false","","","","","","","","","","5.5","","41.20000001788139","","2","1","arrowright","1","arrowleft","[0.675,0.325,0.15,0.85]","","",""
"sailing-trial","378","1117712","0.0-11.0-343.0","","","","false","","","","","","","","","","null","","159","","2","1","null","null","arrowup","[0.675,0.325,0.15,0.85]","","",""
"sailing-trial","379","1119935","0.0-11.0-344.0","","","","false","","","","","","","","","","131.80000001192093","","38.30000001192093","","2","0","arrowright","1","arrowleft","[0.675,0.325,0.15,0.85]","","",""
"sailing-trial","380","1121822","0.0-11.0-345.0","","","","false","","","","","","","","","","null","","250.2000000178814","","3","1","null","null","arrowup","[0.675,0.325,0.15,0.85]","","",""
"sailing-trial","381","1124302","0.0-11.0-346.0","","","","false","","","","","","","","","","191.30000001192093","","162.30000001192093","","3","0","arrowright","1","arrowright","[0.85,0.15,0.325,0.675]","","",""
"sailing-trial","382","1125662","0.0-11.0-347.0","","","","false","","","","","","","","","","null","","183.7000000178814","","0","0","null","null","arrowup","[0.85,0.15,0.325,0.675]","","",""
"sailing-trial","383","1128481","0.0-11.0-348.0","","","","false","","","","","","","","","","60.900000005960464","","95.69999998807907","","3","1","arrowright","1","arrowright","[0.85,0.15,0.325,0.675]","","",""
"sailing-trial","384","1129780","0.0-11.0-349.0","","","","false","","","","","","","","","","null","","110.19999998807907","","2","0","null","null","arrowup","[0.85,0.15,0.325,0.675]","","",""
"sailing-trial","385","1132010","0.0-11.0-350.0","","","","false","","","","","","","","","","36.5","","118.2000000178814","","3","0","arrowright","1","arrowright","[0.85,0.15,0.325,0.675]","","",""
"sailing-trial","386","1133761","0.0-11.0-351.0","","","","false","","","","","","","","","","null","","49","","0","1","null","null","arrowup","[0.85,0.15,0.325,0.675]","","",""
"sailing-trial","387","1136611","0.0-11.0-352.0","","","","false","","","","","","","","","","109.09999999403954","","36.30000001192093","","3","1","arrowright","1","arrowright","[0.85,0.15,0.325,0.675]","","",""
"sailing-trial","388","1138432","0.0-11.0-353.0","","","","false","","","","","","","","","","null","","125.69999998807907","","0","1","null","null","arrowup","[0.85,0.15,0.325,0.675]","","",""
"sailing-trial","389","1140696","0.0-11.0-354.0","","","","false","","","","","","","","","","70.5","","103.7999999821186","","1","0","arrowleft","0","arrowright","[0.85,0.15,0.325,0.675]","","",""
"sailing-trial","390","1141931","0.0-11.0-355.0","","","","false","","","","","","","","","","null","","97.09999999403954","","1","0","null","null","arrowup","[0.85,0.15,0.325,0.675]","","",""
"sailing-trial","391","1144821","0.0-11.0-356.0","","","","false","","","","","","","","","","52.29999998211861","","108.40000000596046","","3","1","arrowright","1","arrowright","[0.85,0.15,0.325,0.675]","","",""
"sailing-trial","392","1146481","0.0-11.0-357.0","","","","false","","","","","","","","","","null","","122.09999999403954","","3","1","null","null","arrowup","[0.85,0.15,0.325,0.675]","","",""
"sailing-trial","393","1149363","0.0-11.0-358.0","","","","false","","","","","","","","","","8.099999994039536","","171.80000001192093","","3","1","arrowright","1","arrowright","[0.85,0.15,0.325,0.675]","","",""
"sailing-trial","394","1151003","0.0-11.0-359.0","","","","false","","","","","","","","","","null","","101.30000001192093","","3","1","null","null","arrowup","[0.85,0.15,0.325,0.675]","","",""
"sailing-trial","395","1153337","0.0-11.0-360.0","","","","false","","","","","","","","","","50.19999998807907","","128.09999999403954","","3","0","arrowright","1","arrowright","[0.85,0.15,0.325,0.675]","","",""
"sailing-trial","396","1155151","0.0-11.0-361.0","","","","false","","","","","","","","","","null","","199.30000001192093","","1","1","null","null","arrowup","[0.85,0.15,0.325,0.675]","","",""
"sailing-trial","397","1157921","0.0-11.0-362.0","","","","false","","","","","","","","","","200.30000001192093","","35.900000005960464","","3","1","arrowright","1","arrowright","[0.85,0.15,0.325,0.675]","","",""
"sailing-trial","398","1159226","0.0-11.0-363.0","","","","false","","","","","","","","","","null","","165.30000001192093","","2","0","null","null","arrowup","[0.85,0.15,0.325,0.675]","","",""
"sailing-trial","399","1162061","0.0-11.0-364.0","","","","false","","","","","","","","","","104.60000002384186","","36.900000005960464","","3","1","arrowright","1","arrowright","[0.85,0.15,0.325,0.675]","","",""
"sailing-trial","400","1163971","0.0-11.0-365.0","","","","false","","","","","","","","","","null","","208.69999998807907","","0","1","null","null","arrowup","[0.85,0.15,0.325,0.675]","","",""
"sailing-trial","401","1166321","0.0-11.0-366.0","","","","false","","","","","","","","","","174.09999999403954","","9.199999988079071","","3","0","arrowright","1","arrowright","[0.15,0.85,0.675,0.325]","","",""
"sailing-trial","402","1168001","0.0-11.0-367.0","","","","false","","","","","","","","","","null","","24","","3","1","null","null","arrowup","[0.15,0.85,0.675,0.325]","","",""
"sailing-trial","403","1170487","0.0-11.0-368.0","","","","false","","","","","","","","","","169.59999999403954","","90.90000000596046","","3","0","arrowright","1","arrowright","[0.15,0.85,0.675,0.325]","","",""
"sailing-trial","404","1172241","0.0-11.0-369.0","","","","false","","","","","","","","","","null","","82.30000001192093","","2","1","null","null","arrowup","[0.15,0.85,0.675,0.325]","","",""
"sailing-trial","405","1175061","0.0-11.0-370.0","","","","false","","","","","","","","","","50.900000005960464","","104.59999999403954","","1","1","arrowleft","0","arrowright","[0.15,0.85,0.675,0.325]","","",""
"sailing-trial","406","1176781","0.0-11.0-371.0","","","","false","","","","","","","","","","null","","145.59999999403954","","0","1","null","null","arrowup","[0.15,0.85,0.675,0.325]","","",""
"sailing-trial","407","1179470","0.0-11.0-372.0","","","","false","","","","","","","","","","9.700000017881393","","72","","1","1","arrowleft","0","arrowright","[0.15,0.85,0.675,0.325]","","",""
"sailing-trial","408","1181252","0.0-11.0-373.0","","","","false","","","","","","","","","","null","","83.7999999821186","","1","1","null","null","arrowup","[0.15,0.85,0.675,0.325]","","",""
"sailing-trial","409","1183960","0.0-11.0-374.0","","","","false","","","","","","","","","","52.70000001788139","","109.09999999403954","","1","1","arrowleft","0","arrowright","[0.15,0.85,0.675,0.325]","","",""
"sailing-trial","410","1185172","0.0-11.0-375.0","","","","false","","","","","","","","","","null","","11.5","","3","0","null","null","arrowup","[0.15,0.85,0.675,0.325]","","",""
"sailing-trial","411","1187991","0.0-11.0-376.0","","","","false","","","","","","","","","","147.09999999403954","","96.5","","1","1","arrowleft","0","arrowright","[0.15,0.85,0.675,0.325]","","",""
"sailing-trial","412","1189329","0.0-11.0-377.0","","","","false","","","","","","","","","","null","","140.59999999403954","","0","0","null","null","arrowup","[0.15,0.85,0.675,0.325]","","",""
"sailing-trial","413","1192080","0.0-11.0-378.0","","","","false","","","","","","","","","","67.40000000596046","","6","","1","1","arrowleft","0","arrowright","[0.15,0.85,0.675,0.325]","","",""
"sailing-trial","414","1193243","0.0-11.0-379.0","","","","false","","","","","","","","","","null","","35.69999998807907","","0","0","null","null","arrowup","[0.15,0.85,0.675,0.325]","","",""
"sailing-trial","415","1195490","0.0-11.0-380.0","","","","false","","","","","","","","","","42","","27.69999998807907","","1","0","arrowleft","0","arrowright","[0.15,0.85,0.675,0.325]","","",""
"sailing-trial","416","1197270","0.0-11.0-381.0","","","","false","","","","","","","","","","null","","91.2999999821186","","2","1","null","null","arrowup","[0.15,0.85,0.675,0.325]","","",""
"sailing-trial","417","1200120","0.0-11.0-382.0","","","","false","","","","","","","","","","27.5","","259.5","","2","1","arrowright","1","arrowleft","[0.15,0.85,0.675,0.325]","","",""
"sailing-trial","418","1201661","0.0-11.0-383.0","","","","false","","","","","","","","","","null","","9.099999994039536","","1","1","null","null","arrowup","[0.15,0.85,0.675,0.325]","","",""
"sailing-trial","419","1203849","0.0-11.0-384.0","","","","false","","","","","","","","","","53.20000001788139","","11.900000005960464","","2","0","arrowright","1","arrowleft","[0.325,0.675,0.85,0.15]","","",""
"sailing-trial","420","1205036","0.0-11.0-385.0","","","","false","","","","","","","","","","null","","14.299999982118607","","3","0","null","null","arrowup","[0.325,0.675,0.85,0.15]","","",""
"sailing-trial","421","1207349","0.0-11.0-386.0","","","","false","","","","","","","","","","81.2999999821186","","124.80000001192093","","3","0","arrowright","1","arrowright","[0.325,0.675,0.85,0.15]","","",""
"sailing-trial","422","1209140","0.0-11.0-387.0","","","","false","","","","","","","","","","null","","93","","1","1","null","null","arrowup","[0.325,0.675,0.85,0.15]","","",""
"sailing-trial","423","1211871","0.0-11.0-388.0","","","","false","","","","","","","","","","36.900000005960464","","113.5","","1","1","arrowleft","0","arrowright","[0.325,0.675,0.85,0.15]","","",""
"sailing-trial","424","1213002","0.0-11.0-389.0","","","","false","","","","","","","","","","null","","91.30000001192093","","1","0","null","null","arrowup","[0.325,0.675,0.85,0.15]","","",""
"sailing-trial","425","1215391","0.0-11.0-390.0","","","","false","","","","","","","","","","114.40000000596046","","148.69999998807907","","1","0","arrowleft","0","arrowright","[0.325,0.675,0.85,0.15]","","",""
"sailing-trial","426","1216628","0.0-11.0-391.0","","","","false","","","","","","","","","","null","","76.30000001192093","","3","0","null","null","arrowup","[0.325,0.675,0.85,0.15]","","",""
"sailing-trial","427","1218992","0.0-11.0-392.0","","","","false","","","","","","","","","","97.09999999403954","","81.5","","0","0","arrowleft","0","arrowleft","[0.325,0.675,0.85,0.15]","","",""
"sailing-trial","428","1220126","0.0-11.0-393.0","","","","false","","","","","","","","","","null","","35.79999998211861","","3","0","null","null","arrowup","[0.325,0.675,0.85,0.15]","","",""
"sailing-trial","429","1222850","0.0-11.0-394.0","","","","false","","","","","","","","","","89.69999998807907","","64.7999999821186","","2","1","arrowright","1","arrowleft","[0.325,0.675,0.85,0.15]","","",""
"sailing-trial","430","1224689","0.0-11.0-395.0","","","","false","","","","","","","","","","null","","164.30000001192093","","2","1","null","null","arrowup","[0.325,0.675,0.85,0.15]","","",""
"sailing-trial","431","1227560","0.0-11.0-396.0","","","","false","","","","","","","","","","131.80000001192093","","96.69999998807907","","2","1","arrowright","1","arrowleft","[0.325,0.675,0.85,0.15]","","",""
"sailing-trial","432","1228706","0.0-11.0-397.0","","","","false","","","","","","","","","","null","","118.89999997615814","","0","0","null","null","arrowup","[0.325,0.675,0.85,0.15]","","",""
"sailing-trial","433","1231880","0.0-11.0-398.0","","","","false","","","","","","","","","","490.10000002384186","","130.7000000178814","","2","1","arrowright","1","arrowleft","[0.325,0.675,0.85,0.15]","","",""
"sailing-trial","434","1233470","0.0-11.0-399.0","","","","false","","","","","","","","","","null","","8.400000005960464","","3","1","null","null","arrowup","[0.325,0.675,0.85,0.15]","","",""
"instructions","435","1233676","0.0-12.0","","","","","","","","","","204.59999999403954","","","","","","","","","","","","","","","","[{""page_index"":0,""viewing_time"":204.30000001192093}]"
"survey-debrief","436","1270118","0.0-13.0","","","","","","","","","","36440","","","","","","","","","","","","","","{""difficulty"":""5"",""fun"":""2"",""clarity"":""5"",""strategy"":""I just kept track of whether or not I thought the luck of one store was changing, and if it had good odds I stuck with it until it changed."",""feedback"":""""}","",""
