"trial_type","trial_index","time_elapsed","internal_node_id","value","metadata","success","timeout","failed_images","failed_audio","failed_video","browser_interaction","low_quality","rt","stimulus","response","button_pressed","island_rt","island_response","boat_rt","boat_response","boat","reward","island_key","island","boat_key","reward_probabilities","responses","num_errors","view_history"
"pavlovia","0","5","0.0-0.0","","","","","","","","","","","","","","","","","","","","","","","","","",""
"call-function","1","5","0.0-1.0","","{""task_version"":""sailing_part1_v1"",""task_condition"":""good"",""boats"":[""D"",""B"",""A"",""C""],""boats_demo"":[""H"",""F"",""G"",""E""],""islands"":[""A"",""B""],""subject_id"":""14568"",""age"":""20"",""gender"":""Male""}","","","","","","","","","","","","","","","","","","","","","","","",""
"preload","2","5819","0.0-2.0","","","true","false","[]","[]","[]","[{""event"":""fullscreenenter"",""trial"":3,""time"":7433}]","false","","","","","","","","","","","","","","","","",""
"fullscreen","3","8399","0.0-3.0","","","true","","","","","","","","","","","","","","","","","","","","","","",""
"audio-keyboard-response","4","10427","0.0-4.0-0.0","","","","","","","","","","2029.333333333332","audio/beep_loop.wav"," ","","","","","","","","","","","","","",""
"audio-test","5","12985","0.0-4.0-1.0","","","","","","","","","","null","audio/turtle.mp3","","3","","","","","","","","","","","","",""
"audio-test","6","15688","0.0-4.0-2.0","","","","","","","","","","null","audio/shark.mp3","","2","","","","","","","","","","","","",""
"sailing-instructions","7","45988","0.0-5.0-0.0-0.0","","","","","","","","","","","","","","null","null","null","null","null","null","","","","","","",""
"sailing-trial","8","48948","0.0-5.0-0.0-1.0-0.0","","","","false","","","","","","","","","","1813.3999999761581","","null","","null","null","arrowleft","0","null","null","","",""
"sailing-trial","9","50866","0.0-5.0-0.0-1.0-1.0","","","","false","","","","","","","","","","782.8000000119209","","null","","null","null","arrowright","1","null","null","","",""
"sailing-trial","10","53030","0.0-5.0-0.0-1.0-2.0","","","","false","","","","","","","","","","1018.9000000357628","","null","","null","null","arrowleft","0","null","null","","",""
"sailing-instructions","11","92710","0.0-5.0-0.0-2.0","","","","","","","","","","","","","","null","null","null","null","0","null","","","","","","",""
"sailing-trial","12","98080","0.0-5.0-0.0-3.0-0.0","","","","false","","","","","","","","","","null","","1646","","2","1","null","null","arrowleft","[1,1,1,1]","","",""
"sailing-trial","13","101573","0.0-5.0-0.0-3.0-1.0","","","","false","","","","","","","","","","null","","765.3999999761581","","3","1","null","null","arrowright","[1,1,1,1]","","",""
"sailing-trial","14","104986","0.0-5.0-0.0-3.0-2.0","","","","false","","","","","","","","","","null","","574.3000000119209","","3","0","null","null","arrowright","[0,0,0,0]","","",""
"sailing-instructions","15","112280","0.0-5.0-0.0-4.0","","","","","","","","","","","","","","null","null","null","null","null","null","","","","","","",""
"sailing-comprehension","16","125893","0.0-5.0-0.0-5.0","","","","","","","","","","8678.399999976158","","","","","","","","","","","","","","[""true"",""false"",""false"",""true""]","1",""
"sailing-instructions","17","154588","0.0-5.0-0.1-0.1","","","","","","","","","","","","","","null","null","null","null","null","null","","","","","","",""
"sailing-trial","18","156444","0.0-5.0-0.1-1.1-0.1","","","","false","","","","","","","","","","725.6000000238419","","null","","null","null","arrowleft","0","null","null","","",""
"sailing-trial","19","158032","0.0-5.0-0.1-1.1-1.1","","","","false","","","","","","","","","","453.30000001192093","","null","","null","null","arrowright","1","null","null","","",""
"sailing-trial","20","159664","0.0-5.0-0.1-1.1-2.1","","","","false","","","","","","","","","","496.5","","null","","null","null","arrowleft","0","null","null","","",""
"sailing-instructions","21","199195","0.0-5.0-0.1-2.1","","","","","","","","","","","","","","null","null","null","null","0","null","","","","","","",""
"sailing-trial","22","202162","0.0-5.0-0.1-3.1-0.1","","","","false","","","","","","","","","","null","","192.19999998807907","","2","1","null","null","arrowleft","[1,1,1,1]","","",""
"sailing-trial","23","205307","0.0-5.0-0.1-3.1-1.1","","","","false","","","","","","","","","","null","","778.5","","3","1","null","null","arrowright","[1,1,1,1]","","",""
"sailing-trial","24","207386","0.0-5.0-0.1-3.1-2.1","","","","false","","","","","","","","","","null","","254.4000000357628","","3","0","null","null","arrowright","[0,0,0,0]","","",""
"sailing-instructions","25","214626","0.0-5.0-0.1-4.1","","","","","","","","","","","","","","null","null","null","null","null","null","","","","","","",""
"sailing-comprehension","26","224908","0.0-5.0-0.1-5.1","","","","","","","","","","5566","","","","","","","","","","","","","","[""true"",""true"",""false"",""true""]","0",""
"sailing-instructions","27","285016","0.0-6.0-0.0-0.0","","","","","","","","","","","","","","null","null","null","null","null","null","","","","","","",""
"sailing-comprehension","28","293709","0.0-6.0-0.0-1.0","","","","","","","","","","7949.399999976158","","","","","","","","","","","","","","[""true"",""false"",""true""]","0",""
"sailing-instructions","29","308015","0.0-7.0-0.0-0.0","","","","","","","","","","","","","","null","null","null","null","null","null","","","","","","",""
"sailing-trial","30","313923","0.0-7.0-0.0-1.0-0.0","","","","false","","","","","","","","","","null","","3034.7999999523163","","0","0","null","null","arrowup","[0.2,0.8,0.2,0.8]","","",""
"sailing-trial","31","317529","0.0-7.0-0.0-1.0-1.0","","","","false","","","","","","","","","","null","","1406.199999988079","","1","0","null","null","arrowup","[0.2,0.8,0.2,0.8]","","",""
"sailing-trial","32","321000","0.0-7.0-0.0-1.0-2.0","","","","false","","","","","","","","","","null","","1439.3999999761581","","2","0","null","null","arrowup","[0.2,0.8,0.2,0.8]","","",""
"sailing-trial","33","324527","0.0-7.0-0.0-1.0-3.0","","","","false","","","","","","","","","","null","","946.6999999880791","","3","1","null","null","arrowup","[0.2,0.8,0.2,0.8]","","",""
"sailing-comprehension","34","329261","0.0-7.0-0.0-2.0","","","","","","","","","","3879.600000023842","","","","","","","","","","","","","","[""false""]","0",""
"sailing-instructions","35","339772","0.0-8.0-0.0-0.0","","","","","","","","","","","","","","null","null","null","null","null","null","","","","","","",""
"sailing-comprehension","36","343633","0.0-8.0-0.0-1.0","","","","","","","","","","3161","","","","","","","","","","","","","","[""true""]","0",""
"sailing-instructions","37","371101","0.0-9.0-0.0-0.0","","","","","","","","","","","","","","null","null","null","null","null","null","","","","","","",""
"sailing-trial","38","378147","0.0-9.0-0.0-1.0-0.0","","","","false","","","","","","","","","","1234.699999988079","","1351","","0","0","arrowleft","0","arrowleft","[0.2,0.8,0.2,0.8]","","",""
"sailing-trial","39","383277","0.0-9.0-0.0-1.0-1.0","","","","false","","","","","","","","","","855.5999999642372","","394.0999999642372","","1","1","arrowleft","0","arrowright","[0.2,0.8,0.2,0.8]","","",""
"sailing-trial","40","387383","0.0-9.0-0.0-1.0-2.0","","","","false","","","","","","","","","","null","","2011.9000000357628","","0","0","null","null","arrowup","[0.2,0.8,0.2,0.8]","","",""
"sailing-trial","41","391529","0.0-9.0-0.0-1.0-3.0","","","","false","","","","","","","","","","1103.800000011921","","213.5","","1","0","arrowleft","0","arrowright","[0.2,0.8,0.2,0.8]","","",""
"sailing-trial","42","395319","0.0-9.0-0.0-1.0-4.0","","","","false","","","","","","","","","","null","","1915.8999999761581","","3","0","null","null","arrowup","[0.2,0.8,0.2,0.8]","","",""
"sailing-trial","43","399485","0.0-9.0-0.0-1.0-5.0","","","","false","","","","","","","","","","806.9000000357628","","45.19999998807907","","2","0","arrowright","1","arrowleft","[0.2,0.8,0.2,0.8]","","",""
"sailing-instructions","44","423640","0.0-10.0","","","","","","","","","","","","","","null","null","null","null","null","null","","","","","","",""
"sailing-trial","45","428354","0.0-11.0-0.0","","","","false","","","","","","","","","","1069.699999988079","","247.5","","0","0","arrowleft","0","arrowleft","[0.15,0.85,0.675,0.325]","","",""
"sailing-trial","46","431633","0.0-11.0-1.0","","","","false","","","","","","","","","","null","","1719.699999988079","","0","0","null","null","arrowup","[0.15,0.85,0.675,0.325]","","",""
"sailing-trial","47","436382","0.0-11.0-2.0","","","","false","","","","","","","","","","752.5999999642372","","179.69999998807907","","1","1","arrowleft","0","arrowright","[0.15,0.85,0.675,0.325]","","",""
"sailing-trial","48","440638","0.0-11.0-3.0","","","","false","","","","","","","","","","null","","1398.699999988079","","1","1","null","null","arrowup","[0.15,0.85,0.675,0.325]","","",""
"sailing-trial","49","444521","0.0-11.0-4.0","","","","false","","","","","","","","","","600","","216.4000000357628","","1","1","arrowleft","0","arrowright","[0.15,0.85,0.675,0.325]","","",""
"sailing-trial","50","447655","0.0-11.0-5.0","","","","false","","","","","","","","","","null","","1171.9000000357628","","1","1","null","null","arrowup","[0.15,0.85,0.675,0.325]","","",""
"sailing-trial","51","451767","0.0-11.0-6.0","","","","false","","","","","","","","","","620.2000000476837","","358.5999999642372","","1","1","arrowleft","0","arrowright","[0.15,0.85,0.675,0.325]","","",""
"sailing-trial","52","455276","0.0-11.0-7.0","","","","false","","","","","","","","","","null","","1742.800000011921","","0","0","null","null","arrowup","[0.15,0.85,0.675,0.325]","","",""
"sailing-trial","53","459343","0.0-11.0-8.0","","","","false","","","","","","","","","","800.1999999880791","","128.29999995231628","","1","1","arrowleft","0","arrowright","[0.15,0.85,0.675,0.325]","","",""
"sailing-trial","54","462367","0.0-11.0-9.0","","","","false","","","","","","","","","","null","","1317.699999988079","","3","0","null","null","arrowup","[0.15,0.85,0.675,0.325]","","",""
"sailing-trial","55","466018","0.0-11.0-10.0","","","","false","","","","","","","","","","834.3000000119209","","95.5","","1","0","arrowleft","0","arrowright","[0.15,0.85,0.675,0.325]","","",""
"sailing-trial","56","468576","0.0-11.0-11.0","","","","false","","","","","","","","","","null","","1173.8999999761581","","3","0","null","null","arrowup","[0.15,0.85,0.675,0.325]","","",""
"sailing-trial","57","472195","0.0-11.0-12.0","","","","false","","","","","","","","","","591.8999999761581","","8.699999988079071","","1","1","arrowleft","0","arrowright","[0.15,0.85,0.675,0.325]","","",""
"sailing-trial","58","474913","0.0-11.0-13.0","","","","false","","","","","","","","","","null","","1158.2000000476837","","0","0","null","null","arrowup","[0.15,0.85,0.675,0.325]","","",""
"sailing-trial","59","478796","0.0-11.0-14.0","","","","false","","","","","","","","","","674.5","","159","","1","1","arrowleft","0","arrowright","[0.15,0.85,0.675,0.325]","","",""
"sailing-trial","60","480991","0.0-11.0-15.0","","","","false","","","","","","","","","","null","","841.6000000238419","","0","0","null","null","arrowup","[0.15,0.85,0.675,0.325]","","",""
"sailing-trial","61","484563","0.0-11.0-16.0","","","","false","","","","","","","","","","739.6999999880791","","30.400000035762787","","1","0","arrowleft","0","arrowright","[0.85,0.15,0.325,0.675]","","",""
"sailing-trial","62","487368","0.0-11.0-17.0","","","","false","","","","","","","","","","null","","850.0999999642372","","3","1","null","null","arrowup","[0.85,0.15,0.325,0.675]","","",""
"sailing-trial","63","490307","0.0-11.0-18.0","","","","false","","","","","","","","","","428.69999998807907","","12.399999976158142","","1","0","arrowleft","0","arrowright","[0.85,0.15,0.325,0.675]","","",""
"sailing-trial","64","492640","0.0-11.0-19.0","","","","false","","","","","","","","","","null","","841.1999999880791","","3","0","null","null","arrowup","[0.85,0.15,0.325,0.675]","","",""
"sailing-trial","65","496586","0.0-11.0-20.0","","","","false","","","","","","","","","","638.7999999523163","","852.3000000119209","","1","0","arrowleft","0","arrowright","[0.85,0.15,0.325,0.675]","","",""
"sailing-trial","66","499452","0.0-11.0-21.0","","","","false","","","","","","","","","","null","","1402.5999999642372","","2","0","null","null","arrowup","[0.85,0.15,0.325,0.675]","","",""
"sailing-trial","67","503100","0.0-11.0-22.0","","","","false","","","","","","","","","","615.0999999642372","","45.69999998807907","","3","1","arrowright","1","arrowright","[0.85,0.15,0.325,0.675]","","",""
"sailing-trial","68","505647","0.0-11.0-23.0","","","","false","","","","","","","","","","null","","1092.199999988079","","3","0","null","null","arrowup","[0.85,0.15,0.325,0.675]","","",""
"sailing-trial","69","509883","0.0-11.0-24.0","","","","false","","","","","","","","","","645","","547.5","","3","1","arrowright","1","arrowright","[0.85,0.15,0.325,0.675]","","",""
"sailing-trial","70","512620","0.0-11.0-25.0","","","","false","","","","","","","","","","null","","838.0999999642372","","3","1","null","null","arrowup","[0.85,0.15,0.325,0.675]","","",""
"sailing-trial","71","516519","0.0-11.0-26.0","","","","false","","","","","","","","","","487.19999998807907","","453.30000001192093","","3","1","arrowright","1","arrowright","[0.85,0.15,0.325,0.675]","","",""
"sailing-trial","72","520631","0.0-11.0-27.0","","","","false","","","","","","","","","","null","","2268.599999964237","","0","1","null","null","arrowup","[0.85,0.15,0.325,0.675]","","",""
"sailing-trial","73","524244","0.0-11.0-28.0","","","","false","","","","","","","","","","634.6000000238419","","1.100000023841858","","3","1","arrowright","1","arrowright","[0.85,0.15,0.325,0.675]","","",""
"sailing-trial","74","526546","0.0-11.0-29.0","","","","false","","","","","","","","","","null","","874.6000000238419","","1","0","null","null","arrowup","[0.85,0.15,0.325,0.675]","","",""
"sailing-trial","75","531118","0.0-11.0-30.0","","","","false","","","","","","","","","","663.5999999642372","","1333.5","","3","0","arrowright","1","arrowright","[0.85,0.15,0.325,0.675]","","",""
"sailing-trial","76","533576","0.0-11.0-31.0","","","","false","","","","","","","","","","null","","1035.199999988079","","0","0","null","null","arrowup","[0.85,0.15,0.325,0.675]","","",""
"sailing-trial","77","536856","0.0-11.0-32.0","","","","false","","","","","","","","","","643.6999999880791","","101.90000003576279","","3","0","arrowright","1","arrowright","[0.85,0.15,0.325,0.675]","","",""
"sailing-trial","78","539208","0.0-11.0-33.0","","","","false","","","","","","","","","","null","","1040.199999988079","","2","0","null","null","arrowup","[0.85,0.15,0.325,0.675]","","",""
"sailing-trial","79","542858","0.0-11.0-34.0","","","","false","","","","","","","","","","648.3999999761581","","1.5999999642372131","","3","1","arrowright","1","arrowright","[0.675,0.325,0.15,0.85]","","",""
"sailing-trial","80","546321","0.0-11.0-35.0","","","","false","","","","","","","","","","null","","1554.199999988079","","2","1","null","null","arrowup","[0.675,0.325,0.15,0.85]","","",""
"sailing-trial","81","549532","0.0-11.0-36.0","","","","false","","","","","","","","","","407.30000001192093","","108.39999997615814","","3","0","arrowright","1","arrowright","[0.675,0.325,0.15,0.85]","","",""
"sailing-trial","82","551774","0.0-11.0-37.0","","","","false","","","","","","","","","","null","","970.8000000119209","","1","0","null","null","arrowup","[0.675,0.325,0.15,0.85]","","",""
"sailing-trial","83","555938","0.0-11.0-38.0","","","","false","","","","","","","","","","550","","1127.8999999761581","","1","0","arrowleft","0","arrowright","[0.675,0.325,0.15,0.85]","","",""
"sailing-trial","84","559595","0.0-11.0-39.0","","","","false","","","","","","","","","","null","","1909.699999988079","","3","1","null","null","arrowup","[0.675,0.325,0.15,0.85]","","",""
"sailing-trial","85","564057","0.0-11.0-40.0","","","","false","","","","","","","","","","299.19999998807907","","1264.300000011921","","3","1","arrowright","1","arrowright","[0.675,0.325,0.15,0.85]","","",""
"sailing-trial","86","567066","0.0-11.0-41.0","","","","false","","","","","","","","","","null","","993.8000000119209","","3","1","null","null","arrowup","[0.675,0.325,0.15,0.85]","","",""
"sailing-trial","87","570949","0.0-11.0-42.0","","","","false","","","","","","","","","","724.9000000357628","","185.9000000357628","","3","1","arrowright","1","arrowright","[0.675,0.325,0.15,0.85]","","",""
"sailing-trial","88","573756","0.0-11.0-43.0","","","","false","","","","","","","","","","null","","1175","","2","0","null","null","arrowup","[0.675,0.325,0.15,0.85]","","",""
"sailing-trial","89","577601","0.0-11.0-44.0","","","","false","","","","","","","","","","660.9000000357628","","558.4000000357628","","3","0","arrowright","1","arrowright","[0.675,0.325,0.15,0.85]","","",""
"sailing-trial","90","580684","0.0-11.0-45.0","","","","false","","","","","","","","","","null","","1165.300000011921","","1","1","null","null","arrowup","[0.675,0.325,0.15,0.85]","","",""
"sailing-trial","91","584202","0.0-11.0-46.0","","","","false","","","","","","","","","","491.19999998807907","","125.90000003576279","","3","1","arrowright","1","arrowright","[0.675,0.325,0.15,0.85]","","",""
"sailing-trial","92","586528","0.0-11.0-47.0","","","","false","","","","","","","","","","null","","914.3999999761581","","1","0","null","null","arrowup","[0.675,0.325,0.15,0.85]","","",""
"sailing-trial","93","590141","0.0-11.0-48.0","","","","false","","","","","","","","","","624.6000000238419","","41.69999998807907","","3","1","arrowright","1","arrowright","[0.675,0.325,0.15,0.85]","","",""
"sailing-trial","94","592711","0.0-11.0-49.0","","","","false","","","","","","","","","","null","","636.1000000238419","","1","1","null","null","arrowup","[0.675,0.325,0.15,0.85]","","",""
"sailing-trial","95","596535","0.0-11.0-50.0","","","","false","","","","","","","","","","415.39999997615814","","441.4000000357628","","3","1","arrowright","1","arrowright","[0.85,0.15,0.325,0.675]","","",""
"sailing-trial","96","598933","0.0-11.0-51.0","","","","false","","","","","","","","","","null","","564.6000000238419","","3","1","null","null","arrowup","[0.85,0.15,0.325,0.675]","","",""
"sailing-trial","97","602398","0.0-11.0-52.0","","","","false","","","","","","","","","","388.19999998807907","","105","","3","1","arrowright","1","arrowright","[0.85,0.15,0.325,0.675]","","",""
"sailing-trial","98","604405","0.0-11.0-53.0","","","","false","","","","","","","","","","null","","672.6000000238419","","1","0","null","null","arrowup","[0.85,0.15,0.325,0.675]","","",""
"sailing-trial","99","608091","0.0-11.0-54.0","","","","false","","","","","","","","","","616.5","","109.80000001192093","","3","1","arrowright","1","arrowright","[0.85,0.15,0.325,0.675]","","",""
"sailing-trial","100","610622","0.0-11.0-55.0","","","","false","","","","","","","","","","null","","691.1000000238419","","3","1","null","null","arrowup","[0.85,0.15,0.325,0.675]","","",""
"sailing-trial","101","613849","0.0-11.0-56.0","","","","false","","","","","","","","","","476.80000001192093","","20.200000047683716","","3","0","arrowright","1","arrowright","[0.85,0.15,0.325,0.675]","","",""
"sailing-trial","102","615896","0.0-11.0-57.0","","","","false","","","","","","","","","","null","","682.5","","1","0","null","null","arrowup","[0.85,0.15,0.325,0.675]","","",""
"sailing-trial","103","619463","0.0-11.0-58.0","","","","false","","","","","","","","","","590","","63.60000002384186","","3","1","arrowright","1","arrowright","[0.85,0.15,0.325,0.675]","","",""
"sailing-trial","104","621469","0.0-11.0-59.0","","","","false","","","","","","","","","","null","","673.4000000357628","","2","0","null","null","arrowup","[0.85,0.15,0.325,0.675]","","",""
"sailing-trial","105","625293","0.0-11.0-60.0","","","","false","","","","","","","","","","569.1999999880791","","285.2000000476837","","3","1","arrowright","1","arrowright","[0.85,0.15,0.325,0.675]","","",""
"sailing-trial","106","627876","0.0-11.0-61.0","","","","false","","","","","","","","","","null","","757.3000000119209","","0","1","null","null","arrowup","[0.85,0.15,0.325,0.675]","","",""
"sailing-trial","107","631367","0.0-11.0-62.0","","","","false","","","","","","","","","","486.9000000357628","","17.80000001192093","","3","1","arrowright","1","arrowright","[0.85,0.15,0.325,0.675]","","",""
"sailing-trial","108","634014","0.0-11.0-63.0","","","","false","","","","","","","","","","null","","816.8999999761581","","3","1","null","null","arrowup","[0.85,0.15,0.325,0.675]","","",""
"sailing-trial","109","637544","0.0-11.0-64.0","","","","false","","","","","","","","","","496.19999998807907","","58","","3","1","arrowright","1","arrowright","[0.85,0.15,0.325,0.675]","","",""
"sailing-trial","110","640258","0.0-11.0-65.0","","","","false","","","","","","","","","","null","","881.6000000238419","","1","1","null","null","arrowup","[0.85,0.15,0.325,0.675]","","",""
"sailing-trial","111","643984","0.0-11.0-66.0","","","","false","","","","","","","","","","455.0999999642372","","635.9000000357628","","3","0","arrowright","1","arrowright","[0.85,0.15,0.325,0.675]","","",""
"sailing-trial","112","646668","0.0-11.0-67.0","","","","false","","","","","","","","","","null","","830.1999999880791","","3","1","null","null","arrowup","[0.85,0.15,0.325,0.675]","","",""
"sailing-trial","113","649802","0.0-11.0-68.0","","","","false","","","","","","","","","","556.3999999761581","","130.5","","3","0","arrowright","1","arrowright","[0.85,0.15,0.325,0.675]","","",""
"sailing-trial","114","651964","0.0-11.0-69.0","","","","false","","","","","","","","","","null","","807.6999999880791","","0","0","null","null","arrowup","[0.85,0.15,0.325,0.675]","","",""
"sailing-trial","115","655574","0.0-11.0-70.0","","","","false","","","","","","","","","","555.6000000238419","","69.40000003576279","","3","1","arrowright","1","arrowright","[0.85,0.15,0.325,0.675]","","",""
"sailing-trial","116","657487","0.0-11.0-71.0","","","","false","","","","","","","","","","null","","487.89999997615814","","2","0","null","null","arrowup","[0.85,0.15,0.325,0.675]","","",""
"sailing-trial","117","660670","0.0-11.0-72.0","","","","false","","","","","","","","","","720.6000000238419","","13.699999988079071","","3","0","arrowright","1","arrowright","[0.85,0.15,0.325,0.675]","","",""
"sailing-trial","118","662731","0.0-11.0-73.0","","","","false","","","","","","","","","","null","","743.6999999880791","","1","0","null","null","arrowup","[0.85,0.15,0.325,0.675]","","",""
"sailing-trial","119","666251","0.0-11.0-74.0","","","","false","","","","","","","","","","516.1999999880791","","17.5","","3","1","arrowright","1","arrowright","[0.15,0.85,0.675,0.325]","","",""
"sailing-trial","120","668378","0.0-11.0-75.0","","","","false","","","","","","","","","","null","","721.6000000238419","","0","0","null","null","arrowup","[0.15,0.85,0.675,0.325]","","",""
"sailing-trial","121","671521","0.0-11.0-76.0","","","","false","","","","","","","","","","640.8999999761581","","36.59999996423721","","3","0","arrowright","1","arrowright","[0.15,0.85,0.675,0.325]","","",""
"sailing-trial","122","673613","0.0-11.0-77.0","","","","false","","","","","","","","","","null","","628.5","","2","0","null","null","arrowup","[0.15,0.85,0.675,0.325]","","",""
"sailing-trial","123","678139","0.0-11.0-78.0","","","","false","","","","","","","","","","832.8999999761581","","584.9000000357628","","2","1","arrowright","1","arrowleft","[0.15,0.85,0.675,0.325]","","",""
"sailing-trial","124","680650","0.0-11.0-79.0","","","","false","","","","","","","","","","null","","682.5999999642372","","2","1","null","null","arrowup","[0.15,0.85,0.675,0.325]","","",""
"sailing-trial","125","684040","0.0-11.0-80.0","","","","false","","","","","","","","","","468.60000002384186","","468.5","","2","0","arrowright","1","arrowleft","[0.15,0.85,0.675,0.325]","","",""
"sailing-trial","126","686563","0.0-11.0-81.0","","","","false","","","","","","","","","","null","","617.5999999642372","","2","1","null","null","arrowup","[0.15,0.85,0.675,0.325]","","",""
"sailing-trial","127","689930","0.0-11.0-82.0","","","","false","","","","","","","","","","440.10000002384186","","487.7000000476837","","2","0","arrowright","1","arrowleft","[0.15,0.85,0.675,0.325]","","",""
"sailing-trial","128","691959","0.0-11.0-83.0","","","","false","","","","","","","","","","null","","647.8000000119209","","0","0","null","null","arrowup","[0.15,0.85,0.675,0.325]","","",""
"sailing-trial","129","695467","0.0-11.0-84.0","","","","false","","","","","","","","","","674.3000000119209","","428.19999998807907","","2","0","arrowright","1","arrowleft","[0.15,0.85,0.675,0.325]","","",""
"sailing-trial","130","697478","0.0-11.0-85.0","","","","false","","","","","","","","","","null","","716.9000000357628","","0","0","null","null","arrowup","[0.15,0.85,0.675,0.325]","","",""
"sailing-trial","131","701312","0.0-11.0-86.0","","","","false","","","","","","","","","","574.3000000119209","","286.0999999642372","","2","1","arrowright","1","arrowleft","[0.15,0.85,0.675,0.325]","","",""
"sailing-trial","132","703157","0.0-11.0-87.0","","","","false","","","","","","","","","","null","","504.60000002384186","","0","0","null","null","arrowup","[0.15,0.85,0.675,0.325]","","",""
"sailing-trial","133","706825","0.0-11.0-88.0","","","","false","","","","","","","","","","498.9000000357628","","232.9000000357628","","2","1","arrowright","1","arrowleft","[0.15,0.85,0.675,0.325]","","",""
"sailing-trial","134","709503","0.0-11.0-89.0","","","","false","","","","","","","","","","null","","825.8000000119209","","1","1","null","null","arrowup","[0.15,0.85,0.675,0.325]","","",""
"sailing-trial","135","713369","0.0-11.0-90.0","","","","false","","","","","","","","","","530.6999999880791","","421.4000000357628","","2","1","arrowright","1","arrowleft","[0.325,0.675,0.85,0.15]","","",""
"sailing-trial","136","715730","0.0-11.0-91.0","","","","false","","","","","","","","","","null","","512.1000000238419","","2","1","null","null","arrowup","[0.325,0.675,0.85,0.15]","","",""
"sailing-trial","137","719745","0.0-11.0-92.0","","","","false","","","","","","","","","","539.2000000476837","","572","","2","1","arrowright","1","arrowleft","[0.325,0.675,0.85,0.15]","","",""
"sailing-trial","138","722659","0.0-11.0-93.0","","","","false","","","","","","","","","","null","","1019.1999999880791","","3","1","null","null","arrowup","[0.325,0.675,0.85,0.15]","","",""
"sailing-trial","139","726152","0.0-11.0-94.0","","","","false","","","","","","","","","","474.5","","2.399999976158142","","2","1","arrowright","1","arrowleft","[0.325,0.675,0.85,0.15]","","",""
"sailing-trial","140","729054","0.0-11.0-95.0","","","","false","","","","","","","","","","null","","1015.6999999880791","","3","1","null","null","arrowup","[0.325,0.675,0.85,0.15]","","",""
"sailing-trial","141","733009","0.0-11.0-96.0","","","","false","","","","","","","","","","455.2999999523163","","685","","2","1","arrowright","1","arrowleft","[0.325,0.675,0.85,0.15]","","",""
"sailing-trial","142","735690","0.0-11.0-97.0","","","","false","","","","","","","","","","null","","803.5","","3","1","null","null","arrowup","[0.325,0.675,0.85,0.15]","","",""
"sailing-trial","143","739304","0.0-11.0-98.0","","","","false","","","","","","","","","","415.39999997615814","","14.100000023841858","","2","1","arrowright","1","arrowleft","[0.325,0.675,0.85,0.15]","","",""
"sailing-trial","144","741482","0.0-11.0-99.0","","","","false","","","","","","","","","","null","","826.5","","1","0","null","null","arrowup","[0.325,0.675,0.85,0.15]","","",""
"sailing-trial","145","745467","0.0-11.0-100.0","","","","false","","","","","","","","","","721.7999999523163","","332.2999999523163","","2","1","arrowright","1","arrowleft","[0.325,0.675,0.85,0.15]","","",""
"sailing-trial","146","747913","0.0-11.0-101.0","","","","false","","","","","","","","","","null","","576.1000000238419","","3","1","null","null","arrowup","[0.325,0.675,0.85,0.15]","","",""
"sailing-trial","147","751339","0.0-11.0-102.0","","","","false","","","","","","","","","","462.39999997615814","","53.89999997615814","","2","1","arrowright","1","arrowleft","[0.325,0.675,0.85,0.15]","","",""
"sailing-trial","148","753236","0.0-11.0-103.0","","","","false","","","","","","","","","","null","","509.60000002384186","","3","0","null","null","arrowup","[0.325,0.675,0.85,0.15]","","",""
"sailing-trial","149","756720","0.0-11.0-104.0","","","","false","","","","","","","","","","593.0999999642372","","2.699999988079071","","2","1","arrowright","1","arrowleft","[0.325,0.675,0.85,0.15]","","",""
"sailing-trial","150","759048","0.0-11.0-105.0","","","","false","","","","","","","","","","null","","914.7999999523163","","1","0","null","null","arrowup","[0.325,0.675,0.85,0.15]","","",""
"sailing-trial","151","762664","0.0-11.0-106.0","","","","false","","","","","","","","","","615.3999999761581","","77.5","","2","1","arrowright","1","arrowleft","[0.325,0.675,0.85,0.15]","","",""
"sailing-trial","152","765346","0.0-11.0-107.0","","","","false","","","","","","","","","","null","","859.8999999761581","","2","1","null","null","arrowup","[0.325,0.675,0.85,0.15]","","",""
"sailing-trial","153","768250","0.0-11.0-108.0","","","","false","","","","","","","","","","321.5","","16.30000001192093","","2","0","arrowright","1","arrowleft","[0.325,0.675,0.85,0.15]","","",""
"sailing-trial","154","770417","0.0-11.0-109.0","","","","false","","","","","","","","","","null","","788.3999999761581","","3","0","null","null","arrowup","[0.325,0.675,0.85,0.15]","","",""
"sailing-trial","155","774666","0.0-11.0-110.0","","","","false","","","","","","","","","","749.7999999523163","","483.69999998807907","","2","1","arrowright","1","arrowleft","[0.15,0.85,0.675,0.325]","","",""
"sailing-trial","156","776757","0.0-11.0-111.0","","","","false","","","","","","","","","","null","","741.1000000238419","","0","0","null","null","arrowup","[0.15,0.85,0.675,0.325]","","",""
"sailing-trial","157","780400","0.0-11.0-112.0","","","","false","","","","","","","","","","584.1000000238419","","16.80000001192093","","2","1","arrowright","1","arrowleft","[0.15,0.85,0.675,0.325]","","",""
"sailing-trial","158","782520","0.0-11.0-113.0","","","","false","","","","","","","","","","null","","731.3999999761581","","2","0","null","null","arrowup","[0.15,0.85,0.675,0.325]","","",""
"sailing-trial","159","786423","0.0-11.0-114.0","","","","false","","","","","","","","","","528.3000000119209","","482.30000001192093","","2","1","arrowright","1","arrowleft","[0.15,0.85,0.675,0.325]","","",""
"sailing-trial","160","788969","0.0-11.0-115.0","","","","false","","","","","","","","","","null","","647","","1","1","null","null","arrowup","[0.15,0.85,0.675,0.325]","","",""
"sailing-trial","161","792799","0.0-11.0-116.0","","","","false","","","","","","","","","","484","","449.0999999642372","","2","1","arrowright","1","arrowleft","[0.15,0.85,0.675,0.325]","","",""
"sailing-trial","162","795399","0.0-11.0-117.0","","","","false","","","","","","","","","","null","","725","","1","1","null","null","arrowup","[0.15,0.85,0.675,0.325]","","",""
"sailing-trial","163","799359","0.0-11.0-118.0","","","","false","","","","","","","","","","642.5","","447.5","","2","1","arrowright","1","arrowleft","[0.15,0.85,0.675,0.325]","","",""
"sailing-trial","164","802109","0.0-11.0-119.0","","","","false","","","","","","","","","","null","","1293.5999999642372","","3","0","null","null","arrowup","[0.15,0.85,0.675,0.325]","","",""
"sailing-trial","165","806234","0.0-11.0-120.0","","","","false","","","","","","","","","","660","","410.19999998807907","","2","1","arrowright","1","arrowleft","[0.15,0.85,0.675,0.325]","","",""
"sailing-trial","166","808699","0.0-11.0-121.0","","","","false","","","","","","","","","","null","","1085.8999999761581","","0","0","null","null","arrowup","[0.15,0.85,0.675,0.325]","","",""
"sailing-trial","167","812279","0.0-11.0-122.0","","","","false","","","","","","","","","","606","","379.5","","2","0","arrowright","1","arrowleft","[0.15,0.85,0.675,0.325]","","",""
"sailing-trial","168","814880","0.0-11.0-123.0","","","","false","","","","","","","","","","null","","728.7999999523163","","3","1","null","null","arrowup","[0.15,0.85,0.675,0.325]","","",""
"sailing-trial","169","818306","0.0-11.0-124.0","","","","false","","","","","","","","","","401.80000001192093","","68.80000001192093","","2","1","arrowright","1","arrowleft","[0.15,0.85,0.675,0.325]","","",""
"sailing-trial","170","820917","0.0-11.0-125.0","","","","false","","","","","","","","","","null","","1008.1999999880791","","0","0","null","null","arrowup","[0.15,0.85,0.675,0.325]","","",""
"sailing-trial","171","824538","0.0-11.0-126.0","","","","false","","","","","","","","","","662.5","","34.69999998807907","","2","1","arrowright","1","arrowleft","[0.15,0.85,0.675,0.325]","","",""
"sailing-trial","172","827313","0.0-11.0-127.0","","","","false","","","","","","","","","","null","","913.2999999523163","","1","1","null","null","arrowup","[0.15,0.85,0.675,0.325]","","",""
"sailing-trial","173","830793","0.0-11.0-128.0","","","","false","","","","","","","","","","445.7999999523163","","42.89999997615814","","2","1","arrowright","1","arrowleft","[0.15,0.85,0.675,0.325]","","",""
"sailing-trial","174","832777","0.0-11.0-129.0","","","","false","","","","","","","","","","null","","574.5","","1","0","null","null","arrowup","[0.15,0.85,0.675,0.325]","","",""
"sailing-trial","175","836393","0.0-11.0-130.0","","","","false","","","","","","","","","","622.1999999880791","","16.69999998807907","","2","1","arrowright","1","arrowleft","[0.15,0.85,0.675,0.325]","","",""
"sailing-trial","176","839101","0.0-11.0-131.0","","","","false","","","","","","","","","","null","","799.5999999642372","","1","1","null","null","arrowup","[0.15,0.85,0.675,0.325]","","",""
"sailing-trial","177","843296","0.0-11.0-132.0","","","","false","","","","","","","","","","523.3999999761581","","400.60000002384186","","2","1","arrowright","1","arrowleft","[0.325,0.675,0.85,0.15]","","",""
"sailing-trial","178","846464","0.0-11.0-133.0","","","","false","","","","","","","","","","null","","1260.699999988079","","1","1","null","null","arrowup","[0.325,0.675,0.85,0.15]","","",""
"sailing-trial","179","849929","0.0-11.0-134.0","","","","false","","","","","","","","","","542","","20.69999998807907","","2","1","arrowright","1","arrowleft","[0.325,0.675,0.85,0.15]","","",""
"sailing-trial","180","851900","0.0-11.0-135.0","","","","false","","","","","","","","","","null","","570.9000000357628","","1","0","null","null","arrowup","[0.325,0.675,0.85,0.15]","","",""
"sailing-trial","181","855982","0.0-11.0-136.0","","","","false","","","","","","","","","","676.1999999880791","","455.10000002384186","","2","1","arrowright","1","arrowleft","[0.325,0.675,0.85,0.15]","","",""
"sailing-trial","182","858363","0.0-11.0-137.0","","","","false","","","","","","","","","","null","","495.2999999523163","","2","1","null","null","arrowup","[0.325,0.675,0.85,0.15]","","",""
"sailing-trial","183","861759","0.0-11.0-138.0","","","","false","","","","","","","","","","461.60000002384186","","38.90000003576279","","2","1","arrowright","1","arrowleft","[0.325,0.675,0.85,0.15]","","",""
"sailing-trial","184","863657","0.0-11.0-139.0","","","","false","","","","","","","","","","null","","565.3999999761581","","3","0","null","null","arrowup","[0.325,0.675,0.85,0.15]","","",""
"sailing-trial","185","867339","0.0-11.0-140.0","","","","false","","","","","","","","","","698","","44.30000001192093","","2","1","arrowright","1","arrowleft","[0.325,0.675,0.85,0.15]","","",""
"sailing-trial","186","869380","0.0-11.0-141.0","","","","false","","","","","","","","","","null","","728.3000000119209","","1","0","null","null","arrowup","[0.325,0.675,0.85,0.15]","","",""
"sailing-trial","187","872981","0.0-11.0-142.0","","","","false","","","","","","","","","","666.8000000119209","","53.80000001192093","","2","1","arrowright","1","arrowleft","[0.325,0.675,0.85,0.15]","","",""
"sailing-trial","188","875894","0.0-11.0-143.0","","","","false","","","","","","","","","","null","","1008.5","","1","1","null","null","arrowup","[0.325,0.675,0.85,0.15]","","",""
"sailing-trial","189","879308","0.0-11.0-144.0","","","","false","","","","","","","","","","359.80000001192093","","15.100000023841858","","2","1","arrowright","1","arrowleft","[0.325,0.675,0.85,0.15]","","",""
"sailing-trial","190","881927","0.0-11.0-145.0","","","","false","","","","","","","","","","null","","680.8000000119209","","0","1","null","null","arrowup","[0.325,0.675,0.85,0.15]","","",""
"sailing-trial","191","885639","0.0-11.0-146.0","","","","false","","","","","","","","","","366.2999999523163","","485.80000001192093","","2","1","arrowright","1","arrowleft","[0.325,0.675,0.85,0.15]","","",""
"sailing-trial","192","888315","0.0-11.0-147.0","","","","false","","","","","","","","","","null","","788.1999999880791","","1","1","null","null","arrowup","[0.325,0.675,0.85,0.15]","","",""
"sailing-trial","193","892280","0.0-11.0-148.0","","","","false","","","","","","","","","","424.30000001192093","","559.6999999880791","","2","1","arrowright","1","arrowleft","[0.15,0.85,0.675,0.325]","","",""
"sailing-trial","194","894775","0.0-11.0-149.0","","","","false","","","","","","","","","","null","","578.5","","2","1","null","null","arrowup","[0.15,0.85,0.675,0.325]","","",""
"sailing-trial","195","898257","0.0-11.0-150.0","","","","false","","","","","","","","","","437.5","","13.800000011920929","","2","1","arrowright","1","arrowleft","[0.15,0.85,0.675,0.325]","","",""
"sailing-trial","196","900652","0.0-11.0-151.0","","","","false","","","","","","","","","","null","","496.19999998807907","","2","1","null","null","arrowup","[0.15,0.85,0.675,0.325]","","",""
"sailing-trial","197","904482","0.0-11.0-152.0","","","","false","","","","","","","","","","443.89999997615814","","511.30000001192093","","2","1","arrowright","1","arrowleft","[0.15,0.85,0.675,0.325]","","",""
"sailing-trial","198","907162","0.0-11.0-153.0","","","","false","","","","","","","","","","null","","820.5999999642372","","0","1","null","null","arrowup","[0.15,0.85,0.675,0.325]","","",""
"sailing-trial","199","911394","0.0-11.0-154.0","","","","false","","","","","","","","","","362.5999999642372","","450.10000002384186","","2","1","arrowright","1","arrowleft","[0.15,0.85,0.675,0.325]","","",""
"sailing-trial","200","914088","0.0-11.0-155.0","","","","false","","","","","","","","","","null","","832.4000000357628","","2","1","null","null","arrowup","[0.15,0.85,0.675,0.325]","","",""
"sailing-trial","201","918449","0.0-11.0-156.0","","","","false","","","","","","","","","","455.4000000357628","","482.5999999642372","","2","0","arrowright","1","arrowleft","[0.15,0.85,0.675,0.325]","","",""
"sailing-trial","202","920695","0.0-11.0-157.0","","","","false","","","","","","","","","","null","","845.5","","3","0","null","null","arrowup","[0.15,0.85,0.675,0.325]","","",""
"sailing-trial","203","924677","0.0-11.0-158.0","","","","false","","","","","","","","","","560.6000000238419","","406.0999999642372","","2","1","arrowright","1","arrowleft","[0.15,0.85,0.675,0.325]","","",""
"sailing-trial","204","927058","0.0-11.0-159.0","","","","false","","","","","","","","","","null","","468.0999999642372","","2","1","null","null","arrowup","[0.15,0.85,0.675,0.325]","","",""
"sailing-trial","205","932136","0.0-11.0-160.0","","","","false","","","","","","","","","","394.69999998807907","","1748.199999988079","","2","1","arrowright","1","arrowleft","[0.15,0.85,0.675,0.325]","","",""
"sailing-trial","206","934713","0.0-11.0-161.0","","","","false","","","","","","","","","","null","","1175.300000011921","","3","0","null","null","arrowup","[0.15,0.85,0.675,0.325]","","",""
"sailing-trial","207","938413","0.0-11.0-162.0","","","","false","","","","","","","","","","661.2999999523163","","98.09999996423721","","2","1","arrowright","1","arrowleft","[0.15,0.85,0.675,0.325]","","",""
"sailing-trial","208","941234","0.0-11.0-163.0","","","","false","","","","","","","","","","null","","934.9000000357628","","2","1","null","null","arrowup","[0.15,0.85,0.675,0.325]","","",""
"sailing-trial","209","944165","0.0-11.0-164.0","","","","false","","","","","","","","","","459.5999999642372","","22.399999976158142","","2","0","arrowright","1","arrowleft","[0.15,0.85,0.675,0.325]","","",""
"sailing-trial","210","946987","0.0-11.0-165.0","","","","false","","","","","","","","","","null","","893.5999999642372","","1","1","null","null","arrowup","[0.15,0.85,0.675,0.325]","","",""
"sailing-trial","211","950768","0.0-11.0-166.0","","","","false","","","","","","","","","","356.60000002384186","","529.5","","2","1","arrowright","1","arrowleft","[0.325,0.675,0.85,0.15]","","",""
"sailing-trial","212","953097","0.0-11.0-167.0","","","","false","","","","","","","","","","null","","951.6000000238419","","1","0","null","null","arrowup","[0.325,0.675,0.85,0.15]","","",""
"sailing-trial","213","956777","0.0-11.0-168.0","","","","false","","","","","","","","","","695","","16.19999998807907","","2","1","arrowright","1","arrowleft","[0.325,0.675,0.85,0.15]","","",""
"sailing-trial","214","958738","0.0-11.0-169.0","","","","false","","","","","","","","","","null","","563.5","","0","0","null","null","arrowup","[0.325,0.675,0.85,0.15]","","",""
"sailing-trial","215","962506","0.0-11.0-170.0","","","","false","","","","","","","","","","617.3000000119209","","163","","2","1","arrowright","1","arrowleft","[0.325,0.675,0.85,0.15]","","",""
"sailing-trial","216","966016","0.0-11.0-171.0","","","","false","","","","","","","","","","null","","2055.5","","3","0","null","null","arrowup","[0.325,0.675,0.85,0.15]","","",""
"sailing-trial","217","969848","0.0-11.0-172.0","","","","false","","","","","","","","","","708.5999999642372","","179.19999998807907","","2","1","arrowright","1","arrowleft","[0.325,0.675,0.85,0.15]","","",""
"sailing-trial","218","971675","0.0-11.0-173.0","","","","false","","","","","","","","","","null","","454.39999997615814","","0","0","null","null","arrowup","[0.325,0.675,0.85,0.15]","","",""
"sailing-trial","219","975466","0.0-11.0-174.0","","","","false","","","","","","","","","","694.1999999880791","","75.90000003576279","","2","1","arrowright","1","arrowleft","[0.325,0.675,0.85,0.15]","","",""
"sailing-trial","220","977907","0.0-11.0-175.0","","","","false","","","","","","","","","","null","","546.2999999523163","","1","1","null","null","arrowup","[0.325,0.675,0.85,0.15]","","",""
"sailing-trial","221","981088","0.0-11.0-176.0","","","","false","","","","","","","","","","414.10000002384186","","91.79999995231628","","2","0","arrowright","1","arrowleft","[0.325,0.675,0.85,0.15]","","",""
"sailing-trial","222","983708","0.0-11.0-177.0","","","","false","","","","","","","","","","null","","719.1999999880791","","2","1","null","null","arrowup","[0.325,0.675,0.85,0.15]","","",""
"sailing-trial","223","987486","0.0-11.0-178.0","","","","false","","","","","","","","","","446.30000001192093","","375.80000001192093","","2","1","arrowright","1","arrowleft","[0.325,0.675,0.85,0.15]","","",""
"sailing-trial","224","989408","0.0-11.0-179.0","","","","false","","","","","","","","","","null","","533.8000000119209","","0","0","null","null","arrowup","[0.325,0.675,0.85,0.15]","","",""
"sailing-trial","225","993208","0.0-11.0-180.0","","","","false","","","","","","","","","","668.6000000238419","","21.30000001192093","","2","1","arrowright","1","arrowleft","[0.325,0.675,0.85,0.15]","","",""
"sailing-trial","226","995118","0.0-11.0-181.0","","","","false","","","","","","","","","","null","","476.19999998807907","","0","0","null","null","arrowup","[0.325,0.675,0.85,0.15]","","",""
"sailing-trial","227","998869","0.0-11.0-182.0","","","","false","","","","","","","","","","750.8000000119209","","62.5","","2","1","arrowright","1","arrowleft","[0.325,0.675,0.85,0.15]","","",""
"sailing-trial","228","1001142","0.0-11.0-183.0","","","","false","","","","","","","","","","null","","689.1999999880791","","1","0","null","null","arrowup","[0.325,0.675,0.85,0.15]","","",""
"sailing-trial","229","1004562","0.0-11.0-184.0","","","","false","","","","","","","","","","804.1999999880791","","174.5","","2","0","arrowright","1","arrowleft","[0.85,0.15,0.325,0.675]","","",""
"sailing-trial","230","1007168","0.0-11.0-185.0","","","","false","","","","","","","","","","null","","685.6000000238419","","0","1","null","null","arrowup","[0.85,0.15,0.325,0.675]","","",""
"sailing-trial","231","1010054","0.0-11.0-186.0","","","","false","","","","","","","","","","383.0999999642372","","22.69999998807907","","2","0","arrowright","1","arrowleft","[0.85,0.15,0.325,0.675]","","",""
"sailing-trial","232","1012759","0.0-11.0-187.0","","","","false","","","","","","","","","","null","","861.8999999761581","","0","1","null","null","arrowup","[0.85,0.15,0.325,0.675]","","",""
"sailing-trial","233","1016401","0.0-11.0-188.0","","","","false","","","","","","","","","","380.80000001192093","","377.19999998807907","","2","1","arrowright","1","arrowleft","[0.85,0.15,0.325,0.675]","","",""
"sailing-trial","234","1018370","0.0-11.0-189.0","","","","false","","","","","","","","","","null","","498.19999998807907","","0","0","null","null","arrowup","[0.85,0.15,0.325,0.675]","","",""
"sailing-trial","235","1022049","0.0-11.0-190.0","","","","false","","","","","","","","","","658.9000000357628","","70.30000001192093","","2","1","arrowright","1","arrowleft","[0.85,0.15,0.325,0.675]","","",""
"sailing-trial","236","1024071","0.0-11.0-191.0","","","","false","","","","","","","","","","null","","651.2999999523163","","1","0","null","null","arrowup","[0.85,0.15,0.325,0.675]","","",""
"sailing-trial","237","1027280","0.0-11.0-192.0","","","","false","","","","","","","","","","644.3000000119209","","17.399999976158142","","2","0","arrowright","1","arrowleft","[0.85,0.15,0.325,0.675]","","",""
"sailing-trial","238","1029416","0.0-11.0-193.0","","","","false","","","","","","","","","","null","","884.8999999761581","","1","0","null","null","arrowup","[0.85,0.15,0.325,0.675]","","",""
"sailing-trial","239","1033049","0.0-11.0-194.0","","","","false","","","","","","","","","","550.9000000357628","","144","","0","1","arrowleft","0","arrowleft","[0.85,0.15,0.325,0.675]","","",""
"sailing-trial","240","1035347","0.0-11.0-195.0","","","","false","","","","","","","","","","null","","436.39999997615814","","2","1","null","null","arrowup","[0.85,0.15,0.325,0.675]","","",""
"sailing-trial","241","1038780","0.0-11.0-196.0","","","","false","","","","","","","","","","337.19999998807907","","143.89999997615814","","0","1","arrowleft","0","arrowleft","[0.85,0.15,0.325,0.675]","","",""
"sailing-trial","242","1040600","0.0-11.0-197.0","","","","false","","","","","","","","","","null","","470.80000001192093","","2","0","null","null","arrowup","[0.85,0.15,0.325,0.675]","","",""
"sailing-trial","243","1044589","0.0-11.0-198.0","","","","false","","","","","","","","","","629.1000000238419","","419.89999997615814","","0","1","arrowleft","0","arrowleft","[0.85,0.15,0.325,0.675]","","",""
"sailing-trial","244","1046969","0.0-11.0-199.0","","","","false","","","","","","","","","","null","","570.1999999880791","","3","1","null","null","arrowup","[0.85,0.15,0.325,0.675]","","",""
"sailing-trial","245","1050397","0.0-11.0-200.0","","","","false","","","","","","","","","","390.19999998807907","","106.60000002384186","","0","1","arrowleft","0","arrowleft","[0.85,0.15,0.325,0.675]","","",""
"sailing-trial","246","1052211","0.0-11.0-201.0","","","","false","","","","","","","","","","null","","416.80000001192093","","2","0","null","null","arrowup","[0.85,0.15,0.325,0.675]","","",""
"sailing-trial","247","1055439","0.0-11.0-202.0","","","","false","","","","","","","","","","677.6000000238419","","101.79999995231628","","0","0","arrowleft","0","arrowleft","[0.85,0.15,0.325,0.675]","","",""
"sailing-trial","248","1057683","0.0-11.0-203.0","","","","false","","","","","","","","","","null","","877.7000000476837","","2","0","null","null","arrowup","[0.85,0.15,0.325,0.675]","","",""
"sailing-trial","249","1061639","0.0-11.0-204.0","","","","false","","","","","","","","","","578.5","","446.0999999642372","","0","1","arrowleft","0","arrowleft","[0.675,0.325,0.15,0.85]","","",""
"sailing-trial","250","1063663","0.0-11.0-205.0","","","","false","","","","","","","","","","null","","631.2000000476837","","2","0","null","null","arrowup","[0.675,0.325,0.15,0.85]","","",""
"sailing-trial","251","1066840","0.0-11.0-206.0","","","","false","","","","","","","","","","634.9000000357628","","40.80000001192093","","0","0","arrowleft","0","arrowleft","[0.675,0.325,0.15,0.85]","","",""
"sailing-trial","252","1069345","0.0-11.0-207.0","","","","false","","","","","","","","","","null","","630.5","","3","1","null","null","arrowup","[0.675,0.325,0.15,0.85]","","",""
"sailing-trial","253","1072615","0.0-11.0-208.0","","","","false","","","","","","","","","","251","","52.10000002384186","","0","1","arrowleft","0","arrowleft","[0.675,0.325,0.15,0.85]","","",""
"sailing-trial","254","1074988","0.0-11.0-209.0","","","","false","","","","","","","","","","null","","530","","1","1","null","null","arrowup","[0.675,0.325,0.15,0.85]","","",""
"sailing-trial","255","1078165","0.0-11.0-210.0","","","","false","","","","","","","","","","316.69999998807907","","373.69999998807907","","0","0","arrowleft","0","arrowleft","[0.675,0.325,0.15,0.85]","","",""
"sailing-trial","256","1080632","0.0-11.0-211.0","","","","false","","","","","","","","","","null","","590.5999999642372","","3","1","null","null","arrowup","[0.675,0.325,0.15,0.85]","","",""
"sailing-trial","257","1083880","0.0-11.0-212.0","","","","false","","","","","","","","","","302.10000002384186","","1.300000011920929","","0","1","arrowleft","0","arrowleft","[0.675,0.325,0.15,0.85]","","",""
"sailing-trial","258","1085756","0.0-11.0-213.0","","","","false","","","","","","","","","","null","","444.2999999523163","","2","0","null","null","arrowup","[0.675,0.325,0.15,0.85]","","",""
"sailing-trial","259","1089440","0.0-11.0-214.0","","","","false","","","","","","","","","","574.8000000119209","","108.19999998807907","","0","1","arrowleft","0","arrowleft","[0.675,0.325,0.15,0.85]","","",""
"sailing-trial","260","1092239","0.0-11.0-215.0","","","","false","","","","","","","","","","null","","877.5","","0","1","null","null","arrowup","[0.675,0.325,0.15,0.85]","","",""
"sailing-trial","261","1095896","0.0-11.0-216.0","","","","false","","","","","","","","","","293.60000002384186","","431.80000001192093","","0","0","arrowleft","0","arrowleft","[0.675,0.325,0.15,0.85]","","",""
"sailing-trial","262","1098045","0.0-11.0-217.0","","","","false","","","","","","","","","","null","","754.3999999761581","","1","0","null","null","arrowup","[0.675,0.325,0.15,0.85]","","",""
"sailing-trial","263","1101306","0.0-11.0-218.0","","","","false","","","","","","","","","","629.3999999761581","","91.10000002384186","","0","0","arrowleft","0","arrowleft","[0.675,0.325,0.15,0.85]","","",""
"sailing-trial","264","1103776","0.0-11.0-219.0","","","","false","","","","","","","","","","null","","528.9000000357628","","0","1","null","null","arrowup","[0.675,0.325,0.15,0.85]","","",""
"sailing-trial","265","1107026","0.0-11.0-220.0","","","","false","","","","","","","","","","300.0999999642372","","36.60000002384186","","0","1","arrowleft","0","arrowleft","[0.85,0.15,0.325,0.675]","","",""
"sailing-trial","266","1109470","0.0-11.0-221.0","","","","false","","","","","","","","","","null","","625.6999999880791","","1","1","null","null","arrowup","[0.85,0.15,0.325,0.675]","","",""
"sailing-trial","267","1113638","0.0-11.0-222.0","","","","false","","","","","","","","","","1150.2999999523163","","596.1999999880791","","2","0","arrowright","1","arrowleft","[0.85,0.15,0.325,0.675]","","",""
"sailing-trial","268","1116448","0.0-11.0-223.0","","","","false","","","","","","","","","","null","","992.5","","2","1","null","null","arrowup","[0.85,0.15,0.325,0.675]","","",""
"sailing-trial","269","1119867","0.0-11.0-224.0","","","","false","","","","","","","","","","439.89999997615814","","555.8999999761581","","1","0","arrowleft","0","arrowright","[0.85,0.15,0.325,0.675]","","",""
"sailing-trial","270","1121934","0.0-11.0-225.0","","","","false","","","","","","","","","","null","","741.1000000238419","","2","0","null","null","arrowup","[0.85,0.15,0.325,0.675]","","",""
"sailing-trial","271","1125038","0.0-11.0-226.0","","","","false","","","","","","","","","","607.3999999761581","","56.19999998807907","","0","0","arrowleft","0","arrowleft","[0.85,0.15,0.325,0.675]","","",""
"sailing-trial","272","1127222","0.0-11.0-227.0","","","","false","","","","","","","","","","null","","834.7000000476837","","1","0","null","null","arrowup","[0.85,0.15,0.325,0.675]","","",""
"sailing-trial","273","1130889","0.0-11.0-228.0","","","","false","","","","","","","","","","570.3000000119209","","160.9000000357628","","3","1","arrowright","1","arrowright","[0.85,0.15,0.325,0.675]","","",""
"sailing-trial","274","1133211","0.0-11.0-229.0","","","","false","","","","","","","","","","null","","469.89999997615814","","1","1","null","null","arrowup","[0.85,0.15,0.325,0.675]","","",""
"sailing-trial","275","1136662","0.0-11.0-230.0","","","","false","","","","","","","","","","342.5","","102.5","","3","1","arrowright","1","arrowright","[0.85,0.15,0.325,0.675]","","",""
"sailing-trial","276","1138382","0.0-11.0-231.0","","","","false","","","","","","","","","","null","","424.39999997615814","","2","0","null","null","arrowup","[0.85,0.15,0.325,0.675]","","",""
"sailing-trial","277","1142136","0.0-11.0-232.0","","","","false","","","","","","","","","","714","","77.80000001192093","","3","1","arrowright","1","arrowright","[0.85,0.15,0.325,0.675]","","",""
"sailing-trial","278","1144487","0.0-11.0-233.0","","","","false","","","","","","","","","","null","","533.6999999880791","","3","1","null","null","arrowup","[0.85,0.15,0.325,0.675]","","",""
"sailing-trial","279","1148101","0.0-11.0-234.0","","","","false","","","","","","","","","","305.80000001192093","","358.30000001192093","","3","1","arrowright","1","arrowright","[0.85,0.15,0.325,0.675]","","",""
"sailing-trial","280","1150497","0.0-11.0-235.0","","","","false","","","","","","","","","","null","","569.2999999523163","","3","1","null","null","arrowup","[0.85,0.15,0.325,0.675]","","",""
"sailing-trial","281","1153572","0.0-11.0-236.0","","","","false","","","","","","","","","","285.80000001192093","","334.80000001192093","","3","0","arrowright","1","arrowright","[0.85,0.15,0.325,0.675]","","",""
"sailing-trial","282","1155568","0.0-11.0-237.0","","","","false","","","","","","","","","","null","","685.1999999880791","","2","0","null","null","arrowup","[0.85,0.15,0.325,0.675]","","",""
"sailing-trial","283","1159204","0.0-11.0-238.0","","","","false","","","","","","","","","","624.1000000238419","","49.69999998807907","","3","1","arrowright","1","arrowright","[0.675,0.325,0.15,0.85]","","",""
"sailing-trial","284","1161004","0.0-11.0-239.0","","","","false","","","","","","","","","","null","","512.1999999880791","","1","0","null","null","arrowup","[0.675,0.325,0.15,0.85]","","",""
"sailing-trial","285","1164663","0.0-11.0-240.0","","","","false","","","","","","","","","","705.8999999761581","","53.09999996423721","","3","1","arrowright","1","arrowright","[0.675,0.325,0.15,0.85]","","",""
"sailing-trial","286","1167047","0.0-11.0-241.0","","","","false","","","","","","","","","","null","","511.80000001192093","","3","1","null","null","arrowup","[0.675,0.325,0.15,0.85]","","",""
"sailing-trial","287","1170723","0.0-11.0-242.0","","","","false","","","","","","","","","","348.5","","439.10000002384186","","3","1","arrowright","1","arrowright","[0.675,0.325,0.15,0.85]","","",""
"sailing-trial","288","1172595","0.0-11.0-243.0","","","","false","","","","","","","","","","null","","510.2999999523163","","2","0","null","null","arrowup","[0.675,0.325,0.15,0.85]","","",""
"sailing-trial","289","1175582","0.0-11.0-244.0","","","","false","","","","","","","","","","575.6000000238419","","31.600000023841858","","3","0","arrowright","1","arrowright","[0.675,0.325,0.15,0.85]","","",""
"sailing-trial","290","1177527","0.0-11.0-245.0","","","","false","","","","","","","","","","null","","569.3000000119209","","1","0","null","null","arrowup","[0.675,0.325,0.15,0.85]","","",""
"sailing-trial","291","1181363","0.0-11.0-246.0","","","","false","","","","","","","","","","567","","440.7999999523163","","3","1","arrowright","1","arrowright","[0.675,0.325,0.15,0.85]","","",""
"sailing-trial","292","1183348","0.0-11.0-247.0","","","","false","","","","","","","","","","null","","648","","2","0","null","null","arrowup","[0.675,0.325,0.15,0.85]","","",""
"sailing-trial","293","1187040","0.0-11.0-248.0","","","","false","","","","","","","","","","624.5","","72.5","","3","1","arrowright","1","arrowright","[0.675,0.325,0.15,0.85]","","",""
"sailing-trial","294","1188733","0.0-11.0-249.0","","","","false","","","","","","","","","","null","","375.60000002384186","","2","0","null","null","arrowup","[0.675,0.325,0.15,0.85]","","",""
"sailing-trial","295","1192401","0.0-11.0-250.0","","","","false","","","","","","","","","","625.1999999880791","","94.5","","3","1","arrowright","1","arrowright","[0.675,0.325,0.15,0.85]","","",""
"sailing-trial","296","1194279","0.0-11.0-251.0","","","","false","","","","","","","","","","null","","497.30000001192093","","2","0","null","null","arrowup","[0.675,0.325,0.15,0.85]","","",""
"sailing-trial","297","1197912","0.0-11.0-252.0","","","","false","","","","","","","","","","644","","46.30000001192093","","3","1","arrowright","1","arrowright","[0.675,0.325,0.15,0.85]","","",""
"sailing-trial","298","1200176","0.0-11.0-253.0","","","","false","","","","","","","","","","null","","464.2000000476837","","3","1","null","null","arrowup","[0.675,0.325,0.15,0.85]","","",""
"sailing-trial","299","1203490","0.0-11.0-254.0","","","","false","","","","","","","","","","338.19999998807907","","37.10000002384186","","3","1","arrowright","1","arrowright","[0.675,0.325,0.15,0.85]","","",""
"sailing-trial","300","1205804","0.0-11.0-255.0","","","","false","","","","","","","","","","null","","470.5999999642372","","0","1","null","null","arrowup","[0.675,0.325,0.15,0.85]","","",""
"sailing-trial","301","1209249","0.0-11.0-256.0","","","","false","","","","","","","","","","312.30000001192093","","464.10000002384186","","3","0","arrowright","1","arrowright","[0.15,0.85,0.675,0.325]","","",""
"sailing-trial","302","1211864","0.0-11.0-257.0","","","","false","","","","","","","","","","null","","801.2999999523163","","2","1","null","null","arrowup","[0.15,0.85,0.675,0.325]","","",""
"sailing-trial","303","1215208","0.0-11.0-258.0","","","","false","","","","","","","","","","347.5","","436.89999997615814","","3","0","arrowright","1","arrowright","[0.15,0.85,0.675,0.325]","","",""
"sailing-trial","304","1217678","0.0-11.0-259.0","","","","false","","","","","","","","","","null","","614.7999999523163","","2","1","null","null","arrowup","[0.15,0.85,0.675,0.325]","","",""
"sailing-trial","305","1221796","0.0-11.0-260.0","","","","false","","","","","","","","","","675.6999999880791","","552.3999999761581","","2","1","arrowright","1","arrowleft","[0.15,0.85,0.675,0.325]","","",""
"sailing-trial","306","1223837","0.0-11.0-261.0","","","","false","","","","","","","","","","null","","709.1999999880791","","1","0","null","null","arrowup","[0.15,0.85,0.675,0.325]","","",""
"sailing-trial","307","1226897","0.0-11.0-262.0","","","","false","","","","","","","","","","582.3000000119209","","74.19999998807907","","2","0","arrowright","1","arrowleft","[0.15,0.85,0.675,0.325]","","",""
"sailing-trial","308","1229484","0.0-11.0-263.0","","","","false","","","","","","","","","","null","","762.9000000357628","","1","1","null","null","arrowup","[0.15,0.85,0.675,0.325]","","",""
"sailing-trial","309","1232760","0.0-11.0-264.0","","","","false","","","","","","","","","","339.89999997615814","","13.700000047683716","","2","1","arrowright","1","arrowleft","[0.15,0.85,0.675,0.325]","","",""
"sailing-trial","310","1235207","0.0-11.0-265.0","","","","false","","","","","","","","","","null","","617.5","","2","1","null","null","arrowup","[0.15,0.85,0.675,0.325]","","",""
"sailing-trial","311","1238541","0.0-11.0-266.0","","","","false","","","","","","","","","","412","","55.60000002384186","","2","1","arrowright","1","arrowleft","[0.15,0.85,0.675,0.325]","","",""
"sailing-trial","312","1240362","0.0-11.0-267.0","","","","false","","","","","","","","","","null","","448","","0","0","null","null","arrowup","[0.15,0.85,0.675,0.325]","","",""
"sailing-trial","313","1244232","0.0-11.0-268.0","","","","false","","","","","","","","","","901.6999999880791","","34.30000001192093","","2","1","arrowright","1","arrowleft","[0.15,0.85,0.675,0.325]","","",""
"sailing-trial","314","1246009","0.0-11.0-269.0","","","","false","","","","","","","","","","null","","460","","0","0","null","null","arrowup","[0.15,0.85,0.675,0.325]","","",""
"sailing-trial","315","1250059","0.0-11.0-270.0","","","","false","","","","","","","","","","767.8999999761581","","454","","2","1","arrowright","1","arrowleft","[0.15,0.85,0.675,0.325]","","",""
"sailing-trial","316","1251837","0.0-11.0-271.0","","","","false","","","","","","","","","","null","","442.60000002384186","","0","0","null","null","arrowup","[0.15,0.85,0.675,0.325]","","",""
"sailing-trial","317","1255518","0.0-11.0-272.0","","","","false","","","","","","","","","","700.6999999880791","","46.40000003576279","","2","1","arrowright","1","arrowleft","[0.15,0.85,0.675,0.325]","","",""
"sailing-trial","318","1258292","0.0-11.0-273.0","","","","false","","","","","","","","","","null","","1447.800000011921","","3","0","null","null","arrowup","[0.15,0.85,0.675,0.325]","","",""
"sailing-trial","319","1261913","0.0-11.0-274.0","","","","false","","","","","","","","","","683.8999999761581","","26.80000001192093","","2","1","arrowright","1","arrowleft","[0.15,0.85,0.675,0.325]","","",""
"sailing-trial","320","1264326","0.0-11.0-275.0","","","","false","","","","","","","","","","null","","553.8999999761581","","3","1","null","null","arrowup","[0.15,0.85,0.675,0.325]","","",""
"sailing-trial","321","1267333","0.0-11.0-276.0","","","","false","","","","","","","","","","384.5","","37.89999997615814","","2","0","arrowright","1","arrowleft","[0.85,0.15,0.325,0.675]","","",""
"sailing-trial","322","1269903","0.0-11.0-277.0","","","","false","","","","","","","","","","null","","730.8000000119209","","3","1","null","null","arrowup","[0.85,0.15,0.325,0.675]","","",""
"sailing-trial","323","1273255","0.0-11.0-278.0","","","","false","","","","","","","","","","336.5","","540.3999999761581","","2","0","arrowright","1","arrowleft","[0.85,0.15,0.325,0.675]","","",""
"sailing-trial","324","1275357","0.0-11.0-279.0","","","","false","","","","","","","","","","null","","742.1999999880791","","2","0","null","null","arrowup","[0.85,0.15,0.325,0.675]","","",""
"sailing-trial","325","1279115","0.0-11.0-280.0","","","","false","","","","","","","","","","604.5","","199.60000002384186","","3","1","arrowright","1","arrowright","[0.85,0.15,0.325,0.675]","","",""
"sailing-trial","326","1281139","0.0-11.0-281.0","","","","false","","","","","","","","","","null","","708.6999999880791","","2","0","null","null","arrowup","[0.85,0.15,0.325,0.675]","","",""
"sailing-trial","327","1284772","0.0-11.0-282.0","","","","false","","","","","","","","","","619.1000000238419","","83.29999995231628","","3","1","arrowright","1","arrowright","[0.85,0.15,0.325,0.675]","","",""
"sailing-trial","328","1286523","0.0-11.0-283.0","","","","false","","","","","","","","","","null","","431.30000001192093","","2","0","null","null","arrowup","[0.85,0.15,0.325,0.675]","","",""
"sailing-trial","329","1290337","0.0-11.0-284.0","","","","false","","","","","","","","","","848.0999999642372","","401.80000001192093","","3","0","arrowright","1","arrowright","[0.85,0.15,0.325,0.675]","","",""
"sailing-trial","330","1292913","0.0-11.0-285.0","","","","false","","","","","","","","","","null","","672.0999999642372","","2","1","null","null","arrowup","[0.85,0.15,0.325,0.675]","","",""
"sailing-trial","331","1296793","0.0-11.0-286.0","","","","false","","","","","","","","","","369.10000002384186","","472.5999999642372","","3","1","arrowright","1","arrowright","[0.85,0.15,0.325,0.675]","","",""
"sailing-trial","332","1298636","0.0-11.0-287.0","","","","false","","","","","","","","","","null","","453.4000000357628","","0","0","null","null","arrowup","[0.85,0.15,0.325,0.675]","","",""
"sailing-trial","333","1301718","0.0-11.0-288.0","","","","false","","","","","","","","","","590.5999999642372","","28.400000035762787","","3","0","arrowright","1","arrowright","[0.85,0.15,0.325,0.675]","","",""
"sailing-trial","334","1304191","0.0-11.0-289.0","","","","false","","","","","","","","","","null","","609.5","","0","1","null","null","arrowup","[0.85,0.15,0.325,0.675]","","",""
"sailing-trial","335","1308001","0.0-11.0-290.0","","","","false","","","","","","","","","","312.89999997615814","","417.2000000476837","","0","1","arrowleft","0","arrowleft","[0.85,0.15,0.325,0.675]","","",""
"sailing-trial","336","1310628","0.0-11.0-291.0","","","","false","","","","","","","","","","null","","754","","3","1","null","null","arrowup","[0.85,0.15,0.325,0.675]","","",""
"sailing-trial","337","1313572","0.0-11.0-292.0","","","","false","","","","","","","","","","324.60000002384186","","90.59999996423721","","0","0","arrowleft","0","arrowleft","[0.85,0.15,0.325,0.675]","","",""
"sailing-trial","338","1316327","0.0-11.0-293.0","","","","false","","","","","","","","","","null","","652.5","","3","1","null","null","arrowup","[0.85,0.15,0.325,0.675]","","",""
"sailing-trial","339","1319531","0.0-11.0-294.0","","","","false","","","","","","","","","","340","","416.10000002384186","","0","0","arrowleft","0","arrowleft","[0.325,0.675,0.85,0.15]","","",""
"sailing-trial","340","1321624","0.0-11.0-295.0","","","","false","","","","","","","","","","null","","706.7000000476837","","3","0","null","null","arrowup","[0.325,0.675,0.85,0.15]","","",""
"sailing-trial","341","1325779","0.0-11.0-296.0","","","","false","","","","","","","","","","887.3999999761581","","404.89999997615814","","1","1","arrowleft","0","arrowright","[0.325,0.675,0.85,0.15]","","",""
"sailing-trial","342","1328327","0.0-11.0-297.0","","","","false","","","","","","","","","","null","","677.8000000119209","","1","1","null","null","arrowup","[0.325,0.675,0.85,0.15]","","",""
"sailing-trial","343","1331655","0.0-11.0-298.0","","","","false","","","","","","","","","","382.30000001192093","","52","","1","1","arrowleft","0","arrowright","[0.325,0.675,0.85,0.15]","","",""
"sailing-trial","344","1333979","0.0-11.0-299.0","","","","false","","","","","","","","","","null","","738.2999999523163","","0","0","null","null","arrowup","[0.325,0.675,0.85,0.15]","","",""
"sailing-trial","345","1337310","0.0-11.0-300.0","","","","false","","","","","","","","","","825.1999999880791","","116","","1","0","arrowleft","0","arrowright","[0.325,0.675,0.85,0.15]","","",""
"sailing-trial","346","1339330","0.0-11.0-301.0","","","","false","","","","","","","","","","null","","659.1999999880791","","3","0","null","null","arrowup","[0.325,0.675,0.85,0.15]","","",""
"sailing-trial","347","1342938","0.0-11.0-302.0","","","","false","","","","","","","","","","687.5","","484.4000000357628","","1","0","arrowleft","0","arrowright","[0.325,0.675,0.85,0.15]","","",""
"sailing-trial","348","1345163","0.0-11.0-303.0","","","","false","","","","","","","","","","null","","880","","3","0","null","null","arrowup","[0.325,0.675,0.85,0.15]","","",""
"sailing-trial","349","1348792","0.0-11.0-304.0","","","","false","","","","","","","","","","601.1999999880791","","27.5","","1","1","arrowleft","0","arrowright","[0.325,0.675,0.85,0.15]","","",""
"sailing-trial","350","1351138","0.0-11.0-305.0","","","","false","","","","","","","","","","null","","464.19999998807907","","0","1","null","null","arrowup","[0.325,0.675,0.85,0.15]","","",""
"sailing-trial","351","1354698","0.0-11.0-306.0","","","","false","","","","","","","","","","355.10000002384186","","336.30000001192093","","1","1","arrowleft","0","arrowright","[0.325,0.675,0.85,0.15]","","",""
"sailing-trial","352","1356534","0.0-11.0-307.0","","","","false","","","","","","","","","","null","","451.80000001192093","","0","0","null","null","arrowup","[0.325,0.675,0.85,0.15]","","",""
"sailing-trial","353","1360176","0.0-11.0-308.0","","","","false","","","","","","","","","","737.8000000119209","","1.800000011920929","","1","1","arrowleft","0","arrowright","[0.325,0.675,0.85,0.15]","","",""
"sailing-trial","354","1362846","0.0-11.0-309.0","","","","false","","","","","","","","","","null","","718.1000000238419","","2","1","null","null","arrowup","[0.325,0.675,0.85,0.15]","","",""
"sailing-trial","355","1366419","0.0-11.0-310.0","","","","false","","","","","","","","","","399.69999998807907","","316","","1","1","arrowleft","0","arrowright","[0.325,0.675,0.85,0.15]","","",""
"sailing-trial","356","1368212","0.0-11.0-311.0","","","","false","","","","","","","","","","null","","442.39999997615814","","0","0","null","null","arrowup","[0.325,0.675,0.85,0.15]","","",""
"sailing-trial","357","1372052","0.0-11.0-312.0","","","","false","","","","","","","","","","585.6999999880791","","397.0999999642372","","1","1","arrowleft","0","arrowright","[0.325,0.675,0.85,0.15]","","",""
"sailing-trial","358","1375099","0.0-11.0-313.0","","","","false","","","","","","","","","","null","","1207.2000000476837","","1","1","null","null","arrowup","[0.325,0.675,0.85,0.15]","","",""
"sailing-trial","359","1378529","0.0-11.0-314.0","","","","false","","","","","","","","","","491.69999998807907","","52.80000001192093","","1","1","arrowleft","0","arrowright","[0.325,0.675,0.85,0.15]","","",""
"sailing-trial","360","1380831","0.0-11.0-315.0","","","","false","","","","","","","","","","null","","901.8999999761581","","0","0","null","null","arrowup","[0.325,0.675,0.85,0.15]","","",""
"sailing-trial","361","1384584","0.0-11.0-316.0","","","","false","","","","","","","","","","592.8000000119209","","233.60000002384186","","1","1","arrowleft","0","arrowright","[0.15,0.85,0.675,0.325]","","",""
"sailing-trial","362","1386669","0.0-11.0-317.0","","","","false","","","","","","","","","","null","","719.6999999880791","","0","0","null","null","arrowup","[0.15,0.85,0.675,0.325]","","",""
"sailing-trial","363","1390330","0.0-11.0-318.0","","","","false","","","","","","","","","","631.9000000357628","","119.19999998807907","","1","1","arrowleft","0","arrowright","[0.15,0.85,0.675,0.325]","","",""
"sailing-trial","364","1392933","0.0-11.0-319.0","","","","false","","","","","","","","","","null","","727.5","","1","1","null","null","arrowup","[0.15,0.85,0.675,0.325]","","",""
"sailing-trial","365","1395873","0.0-11.0-320.0","","","","false","","","","","","","","","","399.69999998807907","","28.19999998807907","","1","0","arrowleft","0","arrowright","[0.15,0.85,0.675,0.325]","","",""
"sailing-trial","366","1397953","0.0-11.0-321.0","","","","false","","","","","","","","","","null","","692.6000000238419","","0","0","null","null","arrowup","[0.15,0.85,0.675,0.325]","","",""
"sailing-trial","367","1401818","0.0-11.0-322.0","","","","false","","","","","","","","","","717","","137.19999998807907","","1","1","arrowleft","0","arrowright","[0.15,0.85,0.675,0.325]","","",""
"sailing-trial","368","1403914","0.0-11.0-323.0","","","","false","","","","","","","","","","null","","722.3000000119209","","3","0","null","null","arrowup","[0.15,0.85,0.675,0.325]","","",""
"sailing-trial","369","1407513","0.0-11.0-324.0","","","","false","","","","","","","","","","631.9000000357628","","92.5","","1","1","arrowleft","0","arrowright","[0.15,0.85,0.675,0.325]","","",""
"sailing-trial","370","1410013","0.0-11.0-325.0","","","","false","","","","","","","","","","null","","654.5999999642372","","2","1","null","null","arrowup","[0.15,0.85,0.675,0.325]","","",""
"sailing-trial","371","1413324","0.0-11.0-326.0","","","","false","","","","","","","","","","323.19999998807907","","67.30000001192093","","1","1","arrowleft","0","arrowright","[0.15,0.85,0.675,0.325]","","",""
"sailing-trial","372","1415264","0.0-11.0-327.0","","","","false","","","","","","","","","","null","","643.6000000238419","","0","0","null","null","arrowup","[0.15,0.85,0.675,0.325]","","",""
"sailing-trial","373","1418922","0.0-11.0-328.0","","","","false","","","","","","","","","","705.1000000238419","","1.300000011920929","","1","1","arrowleft","0","arrowright","[0.15,0.85,0.675,0.325]","","",""
"sailing-trial","374","1421315","0.0-11.0-329.0","","","","false","","","","","","","","","","null","","557.6000000238419","","2","1","null","null","arrowup","[0.15,0.85,0.675,0.325]","","",""
"sailing-trial","375","1424128","0.0-11.0-330.0","","","","false","","","","","","","","","","323.19999998807907","","119.69999998807907","","1","0","arrowleft","0","arrowright","[0.15,0.85,0.675,0.325]","","",""
"sailing-trial","376","1426727","0.0-11.0-331.0","","","","false","","","","","","","","","","null","","658.8000000119209","","1","1","null","null","arrowup","[0.15,0.85,0.675,0.325]","","",""
"sailing-trial","377","1429552","0.0-11.0-332.0","","","","false","","","","","","","","","","383.7000000476837","","60.80000001192093","","1","0","arrowleft","0","arrowright","[0.325,0.675,0.85,0.15]","","",""
"sailing-trial","378","1432038","0.0-11.0-333.0","","","","false","","","","","","","","","","null","","623.1999999880791","","2","1","null","null","arrowup","[0.325,0.675,0.85,0.15]","","",""
"sailing-trial","379","1435287","0.0-11.0-334.0","","","","false","","","","","","","","","","409.39999997615814","","428.39999997615814","","1","0","arrowleft","0","arrowright","[0.325,0.675,0.85,0.15]","","",""
"sailing-trial","380","1437849","0.0-11.0-335.0","","","","false","","","","","","","","","","null","","740.1000000238419","","1","1","null","null","arrowup","[0.325,0.675,0.85,0.15]","","",""
"sailing-trial","381","1441828","0.0-11.0-336.0","","","","false","","","","","","","","","","339.19999998807907","","530.9000000357628","","2","1","arrowright","1","arrowleft","[0.325,0.675,0.85,0.15]","","",""
"sailing-trial","382","1443609","0.0-11.0-337.0","","","","false","","","","","","","","","","null","","480.19999998807907","","0","0","null","null","arrowup","[0.325,0.675,0.85,0.15]","","",""
"sailing-trial","383","1447463","0.0-11.0-338.0","","","","false","","","","","","","","","","729.6000000238419","","156.5","","2","1","arrowright","1","arrowleft","[0.325,0.675,0.85,0.15]","","",""
"sailing-trial","384","1450006","0.0-11.0-339.0","","","","false","","","","","","","","","","null","","684","","1","1","null","null","arrowup","[0.325,0.675,0.85,0.15]","","",""
"sailing-trial","385","1453631","0.0-11.0-340.0","","","","false","","","","","","","","","","307.60000002384186","","403.80000001192093","","2","1","arrowright","1","arrowleft","[0.325,0.675,0.85,0.15]","","",""
"sailing-trial","386","1456028","0.0-11.0-341.0","","","","false","","","","","","","","","","null","","479.60000002384186","","1","1","null","null","arrowup","[0.325,0.675,0.85,0.15]","","",""
"sailing-trial","387","1459532","0.0-11.0-342.0","","","","false","","","","","","","","","","438.69999998807907","","49.200000047683716","","2","1","arrowright","1","arrowleft","[0.325,0.675,0.85,0.15]","","",""
"sailing-trial","388","1461670","0.0-11.0-343.0","","","","false","","","","","","","","","","null","","763.6000000238419","","3","0","null","null","arrowup","[0.325,0.675,0.85,0.15]","","",""
"sailing-trial","389","1465255","0.0-11.0-344.0","","","","false","","","","","","","","","","600.1000000238419","","40.09999996423721","","2","1","arrowright","1","arrowleft","[0.325,0.675,0.85,0.15]","","",""
"sailing-trial","390","1467097","0.0-11.0-345.0","","","","false","","","","","","","","","","null","","455.19999998807907","","0","0","null","null","arrowup","[0.325,0.675,0.85,0.15]","","",""
"sailing-trial","391","1470714","0.0-11.0-346.0","","","","false","","","","","","","","","","645.0999999642372","","56.69999998807907","","2","1","arrowright","1","arrowleft","[0.325,0.675,0.85,0.15]","","",""
"sailing-trial","392","1472577","0.0-11.0-347.0","","","","false","","","","","","","","","","null","","542.1999999880791","","2","0","null","null","arrowup","[0.325,0.675,0.85,0.15]","","",""
"sailing-trial","393","1475776","0.0-11.0-348.0","","","","false","","","","","","","","","","719","","10.300000011920929","","2","0","arrowright","1","arrowleft","[0.15,0.85,0.675,0.325]","","",""
"sailing-trial","394","1477787","0.0-11.0-349.0","","","","false","","","","","","","","","","null","","644.1000000238419","","0","0","null","null","arrowup","[0.15,0.85,0.675,0.325]","","",""
"sailing-trial","395","1481407","0.0-11.0-350.0","","","","false","","","","","","","","","","640.5","","7.699999988079071","","2","1","arrowright","1","arrowleft","[0.15,0.85,0.675,0.325]","","",""
"sailing-trial","396","1483736","0.0-11.0-351.0","","","","false","","","","","","","","","","null","","384.60000002384186","","0","1","null","null","arrowup","[0.15,0.85,0.675,0.325]","","",""
"sailing-trial","397","1487013","0.0-11.0-352.0","","","","false","","","","","","","","","","200.69999998807907","","106.59999996423721","","2","0","arrowright","1","arrowleft","[0.15,0.85,0.675,0.325]","","",""
"sailing-trial","398","1489240","0.0-11.0-353.0","","","","false","","","","","","","","","","null","","852.1999999880791","","0","0","null","null","arrowup","[0.15,0.85,0.675,0.325]","","",""
"sailing-trial","399","1492975","0.0-11.0-354.0","","","","false","","","","","","","","","","733.8999999761581","","82.69999998807907","","2","1","arrowright","1","arrowleft","[0.15,0.85,0.675,0.325]","","",""
"sailing-trial","400","1495372","0.0-11.0-355.0","","","","false","","","","","","","","","","null","","553.5","","3","1","null","null","arrowup","[0.15,0.85,0.675,0.325]","","",""
"sailing-trial","401","1498126","0.0-11.0-356.0","","","","false","","","","","","","","","","288.39999997615814","","25.600000023841858","","2","0","arrowright","1","arrowleft","[0.15,0.85,0.675,0.325]","","",""
"sailing-trial","402","1500146","0.0-11.0-357.0","","","","false","","","","","","","","","","null","","629.8000000119209","","3","0","null","null","arrowup","[0.15,0.85,0.675,0.325]","","",""
"sailing-trial","403","1503751","0.0-11.0-358.0","","","","false","","","","","","","","","","631.3999999761581","","9","","2","1","arrowright","1","arrowleft","[0.15,0.85,0.675,0.325]","","",""
"sailing-trial","404","1505608","0.0-11.0-359.0","","","","false","","","","","","","","","","null","","524.5","","3","0","null","null","arrowup","[0.15,0.85,0.675,0.325]","","",""
"sailing-trial","405","1508606","0.0-11.0-360.0","","","","false","","","","","","","","","","577.7999999523163","","39.40000003576279","","2","0","arrowright","1","arrowleft","[0.15,0.85,0.675,0.325]","","",""
"sailing-trial","406","1510678","0.0-11.0-361.0","","","","false","","","","","","","","","","null","","706.3000000119209","","0","0","null","null","arrowup","[0.15,0.85,0.675,0.325]","","",""
"sailing-trial","407","1514855","0.0-11.0-362.0","","","","false","","","","","","","","","","622","","436","","1","1","arrowleft","0","arrowright","[0.15,0.85,0.675,0.325]","","",""
"sailing-trial","408","1517518","0.0-11.0-363.0","","","","false","","","","","","","","","","null","","773.1999999880791","","2","1","null","null","arrowup","[0.15,0.85,0.675,0.325]","","",""
"sailing-trial","409","1521246","0.0-11.0-364.0","","","","false","","","","","","","","","","309.10000002384186","","488","","1","1","arrowleft","0","arrowright","[0.15,0.85,0.675,0.325]","","",""
"sailing-trial","410","1523142","0.0-11.0-365.0","","","","false","","","","","","","","","","null","","464.5","","0","0","null","null","arrowup","[0.15,0.85,0.675,0.325]","","",""
"sailing-trial","411","1526611","0.0-11.0-366.0","","","","false","","","","","","","","","","701.4000000357628","","372.2999999523163","","1","0","arrowleft","0","arrowright","[0.15,0.85,0.675,0.325]","","",""
"sailing-trial","412","1528525","0.0-11.0-367.0","","","","false","","","","","","","","","","null","","589","","0","0","null","null","arrowup","[0.15,0.85,0.675,0.325]","","",""
"sailing-trial","413","1532022","0.0-11.0-368.0","","","","false","","","","","","","","","","697.8000000119209","","363.80000001192093","","1","0","arrowleft","0","arrowright","[0.325,0.675,0.85,0.15]","","",""
"sailing-trial","414","1534008","0.0-11.0-369.0","","","","false","","","","","","","","","","null","","701.1000000238419","","3","0","null","null","arrowup","[0.325,0.675,0.85,0.15]","","",""
"sailing-trial","415","1537660","0.0-11.0-370.0","","","","false","","","","","","","","","","591.3999999761581","","55.40000003576279","","2","1","arrowright","1","arrowleft","[0.325,0.675,0.85,0.15]","","",""
"sailing-trial","416","1539931","0.0-11.0-371.0","","","","false","","","","","","","","","","null","","394","","0","1","null","null","arrowup","[0.325,0.675,0.85,0.15]","","",""
"sailing-trial","417","1543637","0.0-11.0-372.0","","","","false","","","","","","","","","","305.0999999642372","","486.69999998807907","","2","1","arrowright","1","arrowleft","[0.325,0.675,0.85,0.15]","","",""
"sailing-trial","418","1546005","0.0-11.0-373.0","","","","false","","","","","","","","","","null","","526.6999999880791","","2","1","null","null","arrowup","[0.325,0.675,0.85,0.15]","","",""
"sailing-trial","419","1549717","0.0-11.0-374.0","","","","false","","","","","","","","","","362.30000001192093","","416.5","","2","1","arrowright","1","arrowleft","[0.325,0.675,0.85,0.15]","","",""
"sailing-trial","420","1553607","0.0-11.0-375.0","","","","false","","","","","","","","","","null","","2251.100000023842","","1","0","null","null","arrowup","[0.325,0.675,0.85,0.15]","","",""
"sailing-trial","421","1557104","0.0-11.0-376.0","","","","false","","","","","","","","","","596.6000000238419","","219","","2","0","arrowright","1","arrowleft","[0.325,0.675,0.85,0.15]","","",""
"sailing-trial","422","1559608","0.0-11.0-377.0","","","","false","","","","","","","","","","null","","595.9000000357628","","1","1","null","null","arrowup","[0.325,0.675,0.85,0.15]","","",""
"sailing-trial","423","1562742","0.0-11.0-378.0","","","","false","","","","","","","","","","329.89999997615814","","412.5","","2","0","arrowright","1","arrowleft","[0.325,0.675,0.85,0.15]","","",""
"sailing-trial","424","1565315","0.0-11.0-379.0","","","","false","","","","","","","","","","null","","712","","2","1","null","null","arrowup","[0.325,0.675,0.85,0.15]","","",""
"sailing-trial","425","1568484","0.0-11.0-380.0","","","","false","","","","","","","","","","464.5","","418.89999997615814","","2","0","arrowright","1","arrowleft","[0.325,0.675,0.85,0.15]","","",""
"sailing-trial","426","1570910","0.0-11.0-381.0","","","","false","","","","","","","","","","null","","550.1999999880791","","2","1","null","null","arrowup","[0.325,0.675,0.85,0.15]","","",""
"sailing-trial","427","1574772","0.0-11.0-382.0","","","","false","","","","","","","","","","314.10000002384186","","394.80000001192093","","1","1","arrowleft","0","arrowright","[0.325,0.675,0.85,0.15]","","",""
"sailing-trial","428","1576723","0.0-11.0-383.0","","","","false","","","","","","","","","","null","","615.6999999880791","","1","0","null","null","arrowup","[0.325,0.675,0.85,0.15]","","",""
"sailing-trial","429","1580534","0.0-11.0-384.0","","","","false","","","","","","","","","","608.3000000119209","","292.60000002384186","","2","1","arrowright","1","arrowleft","[0.15,0.85,0.675,0.325]","","",""
"sailing-trial","430","1582330","0.0-11.0-385.0","","","","false","","","","","","","","","","null","","425.7999999523163","","2","0","null","null","arrowup","[0.15,0.85,0.675,0.325]","","",""
"sailing-trial","431","1585738","0.0-11.0-386.0","","","","false","","","","","","","","","","727.9000000357628","","343.5","","2","0","arrowright","1","arrowleft","[0.15,0.85,0.675,0.325]","","",""
"sailing-trial","432","1587672","0.0-11.0-387.0","","","","false","","","","","","","","","","null","","592.2000000476837","","3","0","null","null","arrowup","[0.15,0.85,0.675,0.325]","","",""
"sailing-trial","433","1590703","0.0-11.0-388.0","","","","false","","","","","","","","","","547.8000000119209","","14.900000035762787","","0","0","arrowleft","0","arrowleft","[0.15,0.85,0.675,0.325]","","",""
"sailing-trial","434","1592884","0.0-11.0-389.0","","","","false","","","","","","","","","","null","","802.5","","1","0","null","null","arrowup","[0.15,0.85,0.675,0.325]","","",""
"sailing-trial","435","1596854","0.0-11.0-390.0","","","","false","","","","","","","","","","640.3000000119209","","397.89999997615814","","1","1","arrowleft","0","arrowright","[0.15,0.85,0.675,0.325]","","",""
"sailing-trial","436","1598678","0.0-11.0-391.0","","","","false","","","","","","","","","","null","","480.60000002384186","","3","0","null","null","arrowup","[0.15,0.85,0.675,0.325]","","",""
"sailing-trial","437","1602710","0.0-11.0-392.0","","","","false","","","","","","","","","","724.3000000119209","","389.30000001192093","","1","1","arrowleft","0","arrowright","[0.15,0.85,0.675,0.325]","","",""
"sailing-trial","438","1604639","0.0-11.0-393.0","","","","false","","","","","","","","","","null","","584.8999999761581","","3","0","null","null","arrowup","[0.15,0.85,0.675,0.325]","","",""
"sailing-trial","439","1608555","0.0-11.0-394.0","","","","false","","","","","","","","","","704.3999999761581","","325.60000002384186","","1","1","arrowleft","0","arrowright","[0.15,0.85,0.675,0.325]","","",""
"sailing-trial","440","1610450","0.0-11.0-395.0","","","","false","","","","","","","","","","null","","586.7999999523163","","0","0","null","null","arrowup","[0.15,0.85,0.675,0.325]","","",""
"sailing-trial","441","1613529","0.0-11.0-396.0","","","","false","","","","","","","","","","579.3000000119209","","20.30000001192093","","1","0","arrowleft","0","arrowright","[0.15,0.85,0.675,0.325]","","",""
"sailing-trial","442","1615658","0.0-11.0-397.0","","","","false","","","","","","","","","","null","","756.8000000119209","","3","0","null","null","arrowup","[0.15,0.85,0.675,0.325]","","",""
"sailing-trial","443","1619526","0.0-11.0-398.0","","","","false","","","","","","","","","","670.1000000238419","","311.30000001192093","","1","1","arrowleft","0","arrowright","[0.15,0.85,0.675,0.325]","","",""
"sailing-trial","444","1621469","0.0-11.0-399.0","","","","false","","","","","","","","","","null","","584.1999999880791","","3","0","null","null","arrowup","[0.15,0.85,0.675,0.325]","","",""
"instructions","445","1625193","0.0-12.0","","","","","","","","","","3722.399999976158","","","","","","","","","","","","","","","","[{""page_index"":0,""viewing_time"":3720.199999988079}]"
"survey-debrief","446","1636012","0.0-13.0","","","","","","","","","","10814.300000011921","","","","","","","","","","","","","","{""difficulty"":""3"",""fun"":""4"",""clarity"":""5"",""strategy"":""no"",""feedback"":""""}","",""
