"trial_type","trial_index","time_elapsed","internal_node_id","value","metadata","success","timeout","failed_images","failed_audio","failed_video","browser_interaction","low_quality","rt","stimulus","response","button_pressed","island_rt","island_response","boat_rt","boat_response","boat","reward","island_key","island","boat_key","reward_probabilities","responses","num_errors","view_history"
"pavlovia","0","5","0.0-0.0","","","","","","","","","","","","","","","","","","","","","","","","","",""
"call-function","1","6","0.0-1.0","","{""task_version"":""sailing_part1_v1"",""task_condition"":""good"",""boats"":[""C"",""A"",""B"",""D""],""boats_demo"":[""E"",""G"",""H"",""F""],""islands"":[""B"",""A""],""subject_id"":""14778"",""age"":""22"",""gender"":""Female""}","","","","","","","","","","","","","","","","","","","","","","","",""
"preload","2","2394","0.0-2.0","","","true","false","[]","[]","[]","[{""event"":""fullscreenenter"",""trial"":3,""time"":4647}]","false","","","","","","","","","","","","","","","","",""
"fullscreen","3","5618","0.0-3.0","","","true","","","","","","","","","","","","","","","","","","","","","","",""
"audio-keyboard-response","4","6979","0.0-4.0-0.0","","","","","","","","","","549.3333333333334","audio/beep_loop.wav"," ","","","","","","","","","","","","","",""
"audio-test","5","9044","0.0-4.0-1.0","","","","","","","","","","null","audio/turtle.mp3","","3","","","","","","","","","","","","",""
"audio-test","6","10987","0.0-4.0-2.0","","","","","","","","","","null","audio/shark.mp3","","2","","","","","","","","","","","","",""
"sailing-instructions","7","41491","0.0-5.0-0.0-0.0","","","","","","","","","","","","","","null","null","null","null","null","null","","","","","","",""
"sailing-trial","8","44364","0.0-5.0-0.0-1.0-0.0","","","","false","","","","","","","","","","1747.5","","null","","null","null","arrowleft","0","null","null","","",""
"sailing-trial","9","46276","0.0-5.0-0.0-1.0-1.0","","","","false","","","","","","","","","","805.7999999988824","","null","","null","null","arrowright","1","null","null","","",""
"sailing-trial","10","48196","0.0-5.0-0.0-1.0-2.0","","","","false","","","","","","","","","","793.8000000007451","","null","","null","null","arrowleft","0","null","null","","",""
"sailing-instructions","11","87288","0.0-5.0-0.0-2.0","","","","","","","","","","","","","","null","null","null","null","0","null","","","","","","",""
"sailing-trial","12","91591","0.0-5.0-0.0-3.0-0.0","","","","false","","","","","","","","","","null","","1281.300000000745","","2","1","null","null","arrowleft","[1,1,1,1]","","",""
"sailing-trial","13","95771","0.0-5.0-0.0-3.0-1.0","","","","false","","","","","","","","","","null","","1340.7000000011176","","3","1","null","null","arrowright","[1,1,1,1]","","",""
"sailing-trial","14","99232","0.0-5.0-0.0-3.0-2.0","","","","false","","","","","","","","","","null","","874.6999999992549","","2","0","null","null","arrowleft","[0,0,0,0]","","",""
"sailing-instructions","15","106493","0.0-5.0-0.0-4.0","","","","","","","","","","","","","","null","null","null","null","null","null","","","","","","",""
"sailing-comprehension","16","123464","0.0-5.0-0.0-5.0","","","","","","","","","","12906.5","","","","","","","","","","","","","","[""true"",""true"",""false"",""true""]","0",""
"sailing-instructions","17","184834","0.0-6.0-0.0-0.0","","","","","","","","","","","","","","null","null","null","null","null","null","","","","","","",""
"sailing-comprehension","18","195699","0.0-6.0-0.0-1.0","","","","","","","","","","9547.699999999255","","","","","","","","","","","","","","[""true"",""false"",""true""]","0",""
"sailing-instructions","19","208977","0.0-7.0-0.0-0.0","","","","","","","","","","","","","","null","null","null","null","null","null","","","","","","",""
"sailing-trial","20","213625","0.0-7.0-0.0-1.0-0.0","","","","false","","","","","","","","","","null","","2623.199999999255","","0","0","null","null","arrowup","[0.2,0.8,0.2,0.8]","","",""
"sailing-trial","21","217143","0.0-7.0-0.0-1.0-1.0","","","","false","","","","","","","","","","null","","1466","","1","1","null","null","arrowup","[0.2,0.8,0.2,0.8]","","",""
"sailing-trial","22","219436","0.0-7.0-0.0-1.0-2.0","","","","false","","","","","","","","","","null","","887.0999999996275","","2","0","null","null","arrowup","[0.2,0.8,0.2,0.8]","","",""
"sailing-trial","23","222310","0.0-7.0-0.0-1.0-3.0","","","","false","","","","","","","","","","null","","720.8000000007451","","3","1","null","null","arrowup","[0.2,0.8,0.2,0.8]","","",""
"sailing-comprehension","24","230444","0.0-7.0-0.0-2.0","","","","","","","","","","6730.5","","","","","","","","","","","","","","[""false""]","0",""
"sailing-instructions","25","240902","0.0-8.0-0.0-0.0","","","","","","","","","","","","","","null","null","null","null","null","null","","","","","","",""
"sailing-comprehension","26","246303","0.0-8.0-0.0-1.0","","","","","","","","","","4698.299999998882","","","","","","","","","","","","","","[""true""]","0",""
"sailing-instructions","27","275343","0.0-9.0-0.0-0.0","","","","","","","","","","","","","","null","null","null","null","null","null","","","","","","",""
"sailing-trial","28","282288","0.0-9.0-0.0-1.0-0.0","","","","false","","","","","","","","","","2425.10000000149","","1351","","2","1","arrowright","1","arrowleft","[0.2,0.8,0.2,0.8]","","",""
"sailing-trial","29","286281","0.0-9.0-0.0-1.0-1.0","","","","false","","","","","","","","","","928.5","","321","","2","0","arrowright","1","arrowleft","[0.2,0.8,0.2,0.8]","","",""
"sailing-trial","30","289439","0.0-9.0-0.0-1.0-2.0","","","","false","","","","","","","","","","null","","1296.8999999985099","","0","0","null","null","arrowup","[0.2,0.8,0.2,0.8]","","",""
"sailing-trial","31","293184","0.0-9.0-0.0-1.0-3.0","","","","false","","","","","","","","","","637.6999999992549","","70.20000000111759","","3","1","arrowright","1","arrowright","[0.2,0.8,0.2,0.8]","","",""
"sailing-trial","32","296100","0.0-9.0-0.0-1.0-4.0","","","","false","","","","","","","","","","null","","1044.800000000745","","3","1","null","null","arrowup","[0.2,0.8,0.2,0.8]","","",""
"sailing-trial","33","299981","0.0-9.0-0.0-1.0-5.0","","","","false","","","","","","","","","","952.3000000007451","","532.9000000003725","","2","0","arrowright","1","arrowleft","[0.2,0.8,0.2,0.8]","","",""
"sailing-instructions","34","324665","0.0-10.0","","","","","","","","","","","","","","null","null","null","null","null","null","","","","","","",""
"sailing-trial","35","329516","0.0-11.0-0.0","","","","false","","","","","","","","","","1022.5","","700.7999999988824","","2","0","arrowright","1","arrowleft","[0.85,0.15,0.325,0.675]","","",""
"sailing-trial","36","332831","0.0-11.0-1.0","","","","false","","","","","","","","","","null","","1241.0999999996275","","0","1","null","null","arrowup","[0.85,0.15,0.325,0.675]","","",""
"sailing-trial","37","336809","0.0-11.0-2.0","","","","false","","","","","","","","","","834.6000000014901","","152.30000000074506","","3","1","arrowright","1","arrowright","[0.85,0.15,0.325,0.675]","","",""
"sailing-trial","38","339118","0.0-11.0-3.0","","","","false","","","","","","","","","","null","","742.7999999988824","","1","0","null","null","arrowup","[0.85,0.15,0.325,0.675]","","",""
"sailing-trial","39","342455","0.0-11.0-4.0","","","","false","","","","","","","","","","531.6000000014901","","361.30000000074506","","3","0","arrowright","1","arrowright","[0.85,0.15,0.325,0.675]","","",""
"sailing-trial","40","344553","0.0-11.0-5.0","","","","false","","","","","","","","","","null","","828.1999999992549","","2","0","null","null","arrowup","[0.85,0.15,0.325,0.675]","","",""
"sailing-trial","41","348515","0.0-11.0-6.0","","","","false","","","","","","","","","","491.7000000011176","","323.69999999925494","","0","1","arrowleft","0","arrowleft","[0.85,0.15,0.325,0.675]","","",""
"sailing-trial","42","350869","0.0-11.0-7.0","","","","false","","","","","","","","","","null","","476","","2","1","null","null","arrowup","[0.85,0.15,0.325,0.675]","","",""
"sailing-trial","43","354532","0.0-11.0-8.0","","","","false","","","","","","","","","","449.19999999925494","","263.40000000037253","","0","1","arrowleft","0","arrowleft","[0.85,0.15,0.325,0.675]","","",""
"sailing-trial","44","356251","0.0-11.0-9.0","","","","false","","","","","","","","","","null","","425.5","","2","0","null","null","arrowup","[0.85,0.15,0.325,0.675]","","",""
"sailing-trial","45","359886","0.0-11.0-10.0","","","","false","","","","","","","","","","595.5","","115.69999999925494","","0","1","arrowleft","0","arrowleft","[0.85,0.15,0.325,0.675]","","",""
"sailing-trial","46","362009","0.0-11.0-11.0","","","","false","","","","","","","","","","null","","372.5","","0","1","null","null","arrowup","[0.85,0.15,0.325,0.675]","","",""
"sailing-trial","47","365653","0.0-11.0-12.0","","","","false","","","","","","","","","","384.69999999925494","","420.7000000011176","","0","1","arrowleft","0","arrowleft","[0.85,0.15,0.325,0.675]","","",""
"sailing-trial","48","367272","0.0-11.0-13.0","","","","false","","","","","","","","","","null","","311.59999999962747","","0","0","null","null","arrowup","[0.85,0.15,0.325,0.675]","","",""
"sailing-trial","49","370927","0.0-11.0-14.0","","","","false","","","","","","","","","","510.7000000011176","","331.40000000037253","","0","1","arrowleft","0","arrowleft","[0.85,0.15,0.325,0.675]","","",""
"sailing-trial","50","372813","0.0-11.0-15.0","","","","false","","","","","","","","","","null","","619.5","","3","0","null","null","arrowup","[0.85,0.15,0.325,0.675]","","",""
"sailing-trial","51","376106","0.0-11.0-16.0","","","","false","","","","","","","","","","536.5","","393.69999999925494","","1","0","arrowleft","0","arrowright","[0.85,0.15,0.325,0.675]","","",""
"sailing-trial","52","379170","0.0-11.0-17.0","","","","false","","","","","","","","","","null","","1328.9000000003725","","3","1","null","null","arrowup","[0.85,0.15,0.325,0.675]","","",""
"sailing-trial","53","382638","0.0-11.0-18.0","","","","false","","","","","","","","","","393.19999999925494","","147.40000000037253","","0","1","arrowleft","0","arrowleft","[0.85,0.15,0.325,0.675]","","",""
"sailing-trial","54","384698","0.0-11.0-19.0","","","","false","","","","","","","","","","null","","170.80000000074506","","0","1","null","null","arrowup","[0.85,0.15,0.325,0.675]","","",""
"sailing-trial","55","387948","0.0-11.0-20.0","","","","false","","","","","","","","","","360.69999999925494","","3","","0","1","arrowleft","0","arrowleft","[0.675,0.325,0.15,0.85]","","",""
"sailing-trial","56","389724","0.0-11.0-21.0","","","","false","","","","","","","","","","null","","135.69999999925494","","2","0","null","null","arrowup","[0.675,0.325,0.15,0.85]","","",""
"sailing-trial","57","393748","0.0-11.0-22.0","","","","false","","","","","","","","","","551.2000000011176","","206.40000000037253","","0","1","arrowleft","0","arrowleft","[0.675,0.325,0.15,0.85]","","",""
"sailing-trial","58","395857","0.0-11.0-23.0","","","","false","","","","","","","","","","null","","184","","2","1","null","null","arrowup","[0.675,0.325,0.15,0.85]","","",""
"sailing-trial","59","399606","0.0-11.0-24.0","","","","false","","","","","","","","","","303.30000000074506","","43.5","","0","1","arrowleft","0","arrowleft","[0.675,0.325,0.15,0.85]","","",""
"sailing-trial","60","401575","0.0-11.0-25.0","","","","false","","","","","","","","","","null","","124.69999999925494","","3","1","null","null","arrowup","[0.675,0.325,0.15,0.85]","","",""
"sailing-trial","61","405084","0.0-11.0-26.0","","","","false","","","","","","","","","","393.7000000011176","","178.30000000074506","","0","1","arrowleft","0","arrowleft","[0.675,0.325,0.15,0.85]","","",""
"sailing-trial","62","407169","0.0-11.0-27.0","","","","false","","","","","","","","","","null","","112.19999999925494","","3","1","null","null","arrowup","[0.675,0.325,0.15,0.85]","","",""
"sailing-trial","63","410871","0.0-11.0-28.0","","","","false","","","","","","","","","","511.80000000074506","","177.69999999925494","","0","1","arrowleft","0","arrowleft","[0.675,0.325,0.15,0.85]","","",""
"sailing-trial","64","412543","0.0-11.0-29.0","","","","false","","","","","","","","","","null","","203.39999999850988","","2","0","null","null","arrowup","[0.675,0.325,0.15,0.85]","","",""
"sailing-trial","65","416638","0.0-11.0-30.0","","","","false","","","","","","","","","","496.8999999985099","","703.7999999988824","","0","0","arrowleft","0","arrowleft","[0.675,0.325,0.15,0.85]","","",""
"sailing-trial","66","418758","0.0-11.0-31.0","","","","false","","","","","","","","","","null","","843.4000000003725","","1","0","null","null","arrowup","[0.675,0.325,0.15,0.85]","","",""
"sailing-trial","67","422312","0.0-11.0-32.0","","","","false","","","","","","","","","","603.2000000011176","","104.90000000037253","","1","1","arrowleft","0","arrowright","[0.675,0.325,0.15,0.85]","","",""
"sailing-trial","68","423902","0.0-11.0-33.0","","","","false","","","","","","","","","","null","","287.7999999988824","","2","0","null","null","arrowup","[0.675,0.325,0.15,0.85]","","",""
"sailing-trial","69","427256","0.0-11.0-34.0","","","","false","","","","","","","","","","535.5","","462.2999999988824","","1","0","arrowleft","0","arrowright","[0.675,0.325,0.15,0.85]","","",""
"sailing-trial","70","429150","0.0-11.0-35.0","","","","false","","","","","","","","","","null","","592.9000000003725","","1","0","null","null","arrowup","[0.675,0.325,0.15,0.85]","","",""
"sailing-trial","71","432608","0.0-11.0-36.0","","","","false","","","","","","","","","","611.7999999988824","","375.8999999985099","","2","0","arrowright","1","arrowleft","[0.675,0.325,0.15,0.85]","","",""
"sailing-trial","72","435485","0.0-11.0-37.0","","","","false","","","","","","","","","","null","","1057.5999999996275","","1","1","null","null","arrowup","[0.675,0.325,0.15,0.85]","","",""
"sailing-trial","73","438707","0.0-11.0-38.0","","","","false","","","","","","","","","","433.30000000074506","","441.90000000037253","","3","0","arrowright","1","arrowright","[0.675,0.325,0.15,0.85]","","",""
"sailing-trial","74","441124","0.0-11.0-39.0","","","","false","","","","","","","","","","null","","592.0999999996275","","1","1","null","null","arrowup","[0.675,0.325,0.15,0.85]","","",""
"sailing-trial","75","444866","0.0-11.0-40.0","","","","false","","","","","","","","","","407.09999999962747","","444.2999999988824","","1","1","arrowleft","0","arrowright","[0.325,0.675,0.85,0.15]","","",""
"sailing-trial","76","446735","0.0-11.0-41.0","","","","false","","","","","","","","","","null","","595.9000000003725","","3","0","null","null","arrowup","[0.325,0.675,0.85,0.15]","","",""
"sailing-trial","77","450617","0.0-11.0-42.0","","","","false","","","","","","","","","","556.7999999988824","","198.5","","1","1","arrowleft","0","arrowright","[0.325,0.675,0.85,0.15]","","",""
"sailing-trial","78","452870","0.0-11.0-43.0","","","","false","","","","","","","","","","null","","393.59999999962747","","2","1","null","null","arrowup","[0.325,0.675,0.85,0.15]","","",""
"sailing-trial","79","456916","0.0-11.0-44.0","","","","false","","","","","","","","","","308.6000000014901","","447.30000000074506","","1","1","arrowleft","0","arrowright","[0.325,0.675,0.85,0.15]","","",""
"sailing-trial","80","459870","0.0-11.0-45.0","","","","false","","","","","","","","","","null","","448.30000000074506","","2","1","null","null","arrowup","[0.325,0.675,0.85,0.15]","","",""
"sailing-trial","81","464136","0.0-11.0-46.0","","","","false","","","","","","","","","","599.5","","395.5","","1","1","arrowleft","0","arrowright","[0.325,0.675,0.85,0.15]","","",""
"sailing-trial","82","467121","0.0-11.0-47.0","","","","false","","","","","","","","","","null","","1103.5","","0","1","null","null","arrowup","[0.325,0.675,0.85,0.15]","","",""
"sailing-trial","83","470488","0.0-11.0-48.0","","","","false","","","","","","","","","","440.69999999925494","","12.599999999627471","","1","1","arrowleft","0","arrowright","[0.325,0.675,0.85,0.15]","","",""
"sailing-trial","84","472262","0.0-11.0-49.0","","","","false","","","","","","","","","","null","","393.09999999962747","","0","0","null","null","arrowup","[0.325,0.675,0.85,0.15]","","",""
"sailing-trial","85","476154","0.0-11.0-50.0","","","","false","","","","","","","","","","538","","469.40000000037253","","1","1","arrowleft","0","arrowright","[0.325,0.675,0.85,0.15]","","",""
"sailing-trial","86","477791","0.0-11.0-51.0","","","","false","","","","","","","","","","null","","280.2999999988824","","0","0","null","null","arrowup","[0.325,0.675,0.85,0.15]","","",""
"sailing-trial","87","481305","0.0-11.0-52.0","","","","false","","","","","","","","","","652.0999999996275","","379.30000000074506","","1","0","arrowleft","0","arrowright","[0.325,0.675,0.85,0.15]","","",""
"sailing-trial","88","483558","0.0-11.0-53.0","","","","false","","","","","","","","","","null","","582","","2","0","null","null","arrowup","[0.325,0.675,0.85,0.15]","","",""
"sailing-trial","89","486604","0.0-11.0-54.0","","","","false","","","","","","","","","","618.3000000007451","","53.69999999925494","","1","0","arrowleft","0","arrowright","[0.325,0.675,0.85,0.15]","","",""
"sailing-trial","90","490094","0.0-11.0-55.0","","","","false","","","","","","","","","","null","","1688.4000000003725","","2","1","null","null","arrowup","[0.325,0.675,0.85,0.15]","","",""
"sailing-trial","91","494681","0.0-11.0-56.0","","","","false","","","","","","","","","","1163.4000000003725","","394.80000000074506","","2","1","arrowright","1","arrowleft","[0.325,0.675,0.85,0.15]","","",""
"sailing-trial","92","496845","0.0-11.0-57.0","","","","false","","","","","","","","","","null","","324.5","","2","1","null","null","arrowup","[0.325,0.675,0.85,0.15]","","",""
"sailing-trial","93","500303","0.0-11.0-58.0","","","","false","","","","","","","","","","333.2000000011176","","73.09999999962747","","2","1","arrowright","1","arrowleft","[0.15,0.85,0.675,0.325]","","",""
"sailing-trial","94","502775","0.0-11.0-59.0","","","","false","","","","","","","","","","null","","622.5","","1","1","null","null","arrowup","[0.15,0.85,0.675,0.325]","","",""
"sailing-trial","95","506910","0.0-11.0-60.0","","","","false","","","","","","","","","","969.0999999996275","","444.1000000014901","","2","1","arrowright","1","arrowleft","[0.15,0.85,0.675,0.325]","","",""
"sailing-trial","96","509202","0.0-11.0-61.0","","","","false","","","","","","","","","","null","","452.19999999925494","","2","1","null","null","arrowup","[0.15,0.85,0.675,0.325]","","",""
"sailing-trial","97","512259","0.0-11.0-62.0","","","","false","","","","","","","","","","438.8999999985099","","206","","2","0","arrowright","1","arrowleft","[0.15,0.85,0.675,0.325]","","",""
"sailing-trial","98","514792","0.0-11.0-63.0","","","","false","","","","","","","","","","null","","649.5999999996275","","2","1","null","null","arrowup","[0.15,0.85,0.675,0.325]","","",""
"sailing-trial","99","517608","0.0-11.0-64.0","","","","false","","","","","","","","","","261.5","","122.90000000037253","","2","0","arrowright","1","arrowleft","[0.15,0.85,0.675,0.325]","","",""
"sailing-trial","100","521394","0.0-11.0-65.0","","","","false","","","","","","","","","","null","","655.2999999988824","","2","1","null","null","arrowup","[0.15,0.85,0.675,0.325]","","",""
"sailing-trial","101","525177","0.0-11.0-66.0","","","","false","","","","","","","","","","401.19999999925494","","252.80000000074506","","2","1","arrowright","1","arrowleft","[0.15,0.85,0.675,0.325]","","",""
"sailing-trial","102","526860","0.0-11.0-67.0","","","","false","","","","","","","","","","null","","355.3999999985099","","1","0","null","null","arrowup","[0.15,0.85,0.675,0.325]","","",""
"sailing-trial","103","530289","0.0-11.0-68.0","","","","false","","","","","","","","","","632.7000000011176","","133.69999999925494","","2","1","arrowright","1","arrowleft","[0.15,0.85,0.675,0.325]","","",""
"sailing-trial","104","533924","0.0-11.0-69.0","","","","false","","","","","","","","","","null","","1824.199999999255","","3","1","null","null","arrowup","[0.15,0.85,0.675,0.325]","","",""
"sailing-trial","105","538439","0.0-11.0-70.0","","","","false","","","","","","","","","","1918.7999999988824","","76.40000000037253","","2","0","arrowright","1","arrowleft","[0.15,0.85,0.675,0.325]","","",""
"sailing-trial","106","541385","0.0-11.0-71.0","","","","false","","","","","","","","","","null","","1501.800000000745","","3","0","null","null","arrowup","[0.15,0.85,0.675,0.325]","","",""
"sailing-trial","107","545071","0.0-11.0-72.0","","","","false","","","","","","","","","","571.7000000011176","","113","","2","1","arrowright","1","arrowleft","[0.15,0.85,0.675,0.325]","","",""
"sailing-trial","108","547458","0.0-11.0-73.0","","","","false","","","","","","","","","","null","","414.19999999925494","","2","1","null","null","arrowup","[0.15,0.85,0.675,0.325]","","",""
"sailing-trial","109","552817","0.0-11.0-74.0","","","","false","","","","","","","","","","983.0999999996275","","383.69999999925494","","2","1","arrowright","1","arrowleft","[0.325,0.675,0.85,0.15]","","",""
"sailing-trial","110","555007","0.0-11.0-75.0","","","","false","","","","","","","","","","null","","133.80000000074506","","3","1","null","null","arrowup","[0.325,0.675,0.85,0.15]","","",""
"sailing-trial","111","559641","0.0-11.0-76.0","","","","false","","","","","","","","","","742.1999999992549","","1074.199999999255","","2","1","arrowright","1","arrowleft","[0.325,0.675,0.85,0.15]","","",""
"sailing-trial","112","561742","0.0-11.0-77.0","","","","false","","","","","","","","","","null","","272.19999999925494","","0","1","null","null","arrowup","[0.325,0.675,0.85,0.15]","","",""
"sailing-trial","113","567188","0.0-11.0-78.0","","","","false","","","","","","","","","","525.6999999992549","","404","","2","1","arrowright","1","arrowleft","[0.325,0.675,0.85,0.15]","","",""
"sailing-trial","114","569840","0.0-11.0-79.0","","","","false","","","","","","","","","","null","","774.5","","1","1","null","null","arrowup","[0.325,0.675,0.85,0.15]","","",""
"sailing-trial","115","573610","0.0-11.0-80.0","","","","false","","","","","","","","","","624.7999999988824","","307.2000000011176","","2","1","arrowright","1","arrowleft","[0.325,0.675,0.85,0.15]","","",""
"sailing-trial","116","575995","0.0-11.0-81.0","","","","false","","","","","","","","","","null","","612.6999999992549","","1","1","null","null","arrowup","[0.325,0.675,0.85,0.15]","","",""
"sailing-trial","117","579587","0.0-11.0-82.0","","","","false","","","","","","","","","","333.5","","425.90000000037253","","2","1","arrowright","1","arrowleft","[0.325,0.675,0.85,0.15]","","",""
"sailing-trial","118","581742","0.0-11.0-83.0","","","","false","","","","","","","","","","null","","695.5","","2","0","null","null","arrowup","[0.325,0.675,0.85,0.15]","","",""
"sailing-trial","119","585625","0.0-11.0-84.0","","","","false","","","","","","","","","","581.8000000007451","","472.3999999985099","","2","1","arrowright","1","arrowleft","[0.325,0.675,0.85,0.15]","","",""
"sailing-trial","120","587755","0.0-11.0-85.0","","","","false","","","","","","","","","","null","","307.19999999925494","","1","1","null","null","arrowup","[0.325,0.675,0.85,0.15]","","",""
"sailing-trial","121","591165","0.0-11.0-86.0","","","","false","","","","","","","","","","429.8999999985099","","222.5","","2","0","arrowright","1","arrowleft","[0.325,0.675,0.85,0.15]","","",""
"sailing-trial","122","595629","0.0-11.0-87.0","","","","false","","","","","","","","","","null","","1170.699999999255","","2","1","null","null","arrowup","[0.325,0.675,0.85,0.15]","","",""
"sailing-trial","123","601001","0.0-11.0-88.0","","","","false","","","","","","","","","","1401","","1006.6999999992549","","2","1","arrowright","1","arrowleft","[0.325,0.675,0.85,0.15]","","",""
"sailing-trial","124","603245","0.0-11.0-89.0","","","","false","","","","","","","","","","null","","299","","2","1","null","null","arrowup","[0.325,0.675,0.85,0.15]","","",""
"sailing-trial","125","607749","0.0-11.0-90.0","","","","false","","","","","","","","","","356.80000000074506","","1339.300000000745","","2","1","arrowright","1","arrowleft","[0.15,0.85,0.675,0.325]","","",""
"sailing-trial","126","609904","0.0-11.0-91.0","","","","false","","","","","","","","","","null","","193","","1","1","null","null","arrowup","[0.15,0.85,0.675,0.325]","","",""
"sailing-trial","127","614489","0.0-11.0-92.0","","","","false","","","","","","","","","","496.7999999988824","","1182.9000000003725","","2","1","arrowright","1","arrowleft","[0.15,0.85,0.675,0.325]","","",""
"sailing-trial","128","617123","0.0-11.0-93.0","","","","false","","","","","","","","","","null","","741.3000000007451","","1","1","null","null","arrowup","[0.15,0.85,0.675,0.325]","","",""
"sailing-trial","129","621085","0.0-11.0-94.0","","","","false","","","","","","","","","","319.80000000074506","","840.0999999996275","","2","1","arrowright","1","arrowleft","[0.15,0.85,0.675,0.325]","","",""
"sailing-trial","130","622612","0.0-11.0-95.0","","","","false","","","","","","","","","","null","","339.40000000037253","","2","0","null","null","arrowup","[0.15,0.85,0.675,0.325]","","",""
"sailing-trial","131","625816","0.0-11.0-96.0","","","","false","","","","","","","","","","390.2000000011176","","416.1000000014901","","2","0","arrowright","1","arrowleft","[0.15,0.85,0.675,0.325]","","",""
"sailing-trial","132","628381","0.0-11.0-97.0","","","","false","","","","","","","","","","null","","634.6999999992549","","2","1","null","null","arrowup","[0.15,0.85,0.675,0.325]","","",""
"sailing-trial","133","632347","0.0-11.0-98.0","","","","false","","","","","","","","","","629.9000000003725","","458.7000000011176","","1","1","arrowleft","0","arrowright","[0.15,0.85,0.675,0.325]","","",""
"sailing-trial","134","634464","0.0-11.0-99.0","","","","false","","","","","","","","","","null","","293.09999999962747","","3","1","null","null","arrowup","[0.15,0.85,0.675,0.325]","","",""
"sailing-trial","135","638187","0.0-11.0-100.0","","","","false","","","","","","","","","","464.6000000014901","","242.89999999850988","","1","1","arrowleft","0","arrowright","[0.15,0.85,0.675,0.325]","","",""
"sailing-trial","136","639828","0.0-11.0-101.0","","","","false","","","","","","","","","","null","","511.19999999925494","","3","0","null","null","arrowup","[0.15,0.85,0.675,0.325]","","",""
"sailing-trial","137","644737","0.0-11.0-102.0","","","","false","","","","","","","","","","801.9000000003725","","161.09999999962747","","3","1","arrowright","1","arrowright","[0.15,0.85,0.675,0.325]","","",""
"sailing-trial","138","647087","0.0-11.0-103.0","","","","false","","","","","","","","","","null","","1038.2000000011176","","1","0","null","null","arrowup","[0.15,0.85,0.675,0.325]","","",""
"sailing-trial","139","652506","0.0-11.0-104.0","","","","false","","","","","","","","","","623.6999999992549","","9.399999998509884","","3","1","arrowright","1","arrowright","[0.15,0.85,0.675,0.325]","","",""
"sailing-trial","140","654671","0.0-11.0-105.0","","","","false","","","","","","","","","","null","","300.3999999985099","","2","1","null","null","arrowup","[0.15,0.85,0.675,0.325]","","",""
"sailing-trial","141","660927","0.0-11.0-106.0","","","","false","","","","","","","","","","703.7999999988824","","3291","","0","0","arrowleft","0","arrowleft","[0.15,0.85,0.675,0.325]","","",""
"sailing-trial","142","667042","0.0-11.0-107.0","","","","false","","","","","","","","","","null","","4810.5","","1","0","null","null","arrowup","[0.15,0.85,0.675,0.325]","","",""
"sailing-trial","143","670426","0.0-11.0-108.0","","","","false","","","","","","","","","","357.19999999925494","","124.5","","2","1","arrowright","1","arrowleft","[0.15,0.85,0.675,0.325]","","",""
"sailing-trial","144","672748","0.0-11.0-109.0","","","","false","","","","","","","","","","null","","399.2000000011176","","2","0","null","null","arrowup","[0.15,0.85,0.675,0.325]","","",""
"sailing-trial","145","676399","0.0-11.0-110.0","","","","false","","","","","","","","","","527.0999999996275","","463.40000000037253","","3","0","arrowright","1","arrowright","[0.325,0.675,0.85,0.15]","","",""
"sailing-trial","146","678605","0.0-11.0-111.0","","","","false","","","","","","","","","","null","","378.09999999962747","","2","1","null","null","arrowup","[0.325,0.675,0.85,0.15]","","",""
"sailing-trial","147","682006","0.0-11.0-112.0","","","","false","","","","","","","","","","602.9000000003725","","401.90000000037253","","3","0","arrowright","1","arrowright","[0.325,0.675,0.85,0.15]","","",""
"sailing-trial","148","684117","0.0-11.0-113.0","","","","false","","","","","","","","","","null","","797.5","","0","0","null","null","arrowup","[0.325,0.675,0.85,0.15]","","",""
"sailing-trial","149","687034","0.0-11.0-114.0","","","","false","","","","","","","","","","512.5","","28.799999998882413","","2","0","arrowright","1","arrowleft","[0.325,0.675,0.85,0.15]","","",""
"sailing-trial","150","689430","0.0-11.0-115.0","","","","false","","","","","","","","","","null","","979","","0","0","null","null","arrowup","[0.325,0.675,0.85,0.15]","","",""
"sailing-trial","151","693260","0.0-11.0-116.0","","","","false","","","","","","","","","","638.8000000007451","","603.7000000011176","","0","0","arrowleft","0","arrowleft","[0.325,0.675,0.85,0.15]","","",""
"sailing-trial","152","695456","0.0-11.0-117.0","","","","false","","","","","","","","","","null","","953.5999999996275","","0","0","null","null","arrowup","[0.325,0.675,0.85,0.15]","","",""
"sailing-trial","153","700383","0.0-11.0-118.0","","","","false","","","","","","","","","","2173.5","","220.40000000037253","","1","0","arrowleft","0","arrowright","[0.325,0.675,0.85,0.15]","","",""
"sailing-trial","154","703482","0.0-11.0-119.0","","","","false","","","","","","","","","","null","","968.5","","0","1","null","null","arrowup","[0.325,0.675,0.85,0.15]","","",""
"sailing-trial","155","707238","0.0-11.0-120.0","","","","false","","","","","","","","","","593.1999999992549","","57","","2","1","arrowright","1","arrowleft","[0.325,0.675,0.85,0.15]","","",""
"sailing-trial","156","709401","0.0-11.0-121.0","","","","false","","","","","","","","","","null","","651.8000000007451","","3","0","null","null","arrowup","[0.325,0.675,0.85,0.15]","","",""
"sailing-trial","157","713356","0.0-11.0-122.0","","","","false","","","","","","","","","","845.6000000014901","","158.59999999962747","","3","0","arrowright","1","arrowright","[0.325,0.675,0.85,0.15]","","",""
"sailing-trial","158","716280","0.0-11.0-123.0","","","","false","","","","","","","","","","null","","1148.3999999985099","","3","0","null","null","arrowup","[0.325,0.675,0.85,0.15]","","",""
"sailing-trial","159","721236","0.0-11.0-124.0","","","","false","","","","","","","","","","849.7999999988824","","543.5","","2","1","arrowright","1","arrowleft","[0.325,0.675,0.85,0.15]","","",""
"sailing-trial","160","722762","0.0-11.0-125.0","","","","false","","","","","","","","","","null","","120.30000000074506","","2","0","null","null","arrowup","[0.325,0.675,0.85,0.15]","","",""
"sailing-trial","161","726850","0.0-11.0-126.0","","","","false","","","","","","","","","","812.3000000007451","","464.7999999988824","","2","1","arrowright","1","arrowleft","[0.325,0.675,0.85,0.15]","","",""
"sailing-trial","162","729359","0.0-11.0-127.0","","","","false","","","","","","","","","","null","","690.3000000007451","","2","1","null","null","arrowup","[0.325,0.675,0.85,0.15]","","",""
"sailing-trial","163","732579","0.0-11.0-128.0","","","","false","","","","","","","","","","528.3999999985099","","364.5","","2","0","arrowright","1","arrowleft","[0.15,0.85,0.675,0.325]","","",""
"sailing-trial","164","734639","0.0-11.0-129.0","","","","false","","","","","","","","","","null","","719.9000000003725","","3","0","null","null","arrowup","[0.15,0.85,0.675,0.325]","","",""
"sailing-trial","165","738392","0.0-11.0-130.0","","","","false","","","","","","","","","","518","","341","","2","1","arrowright","1","arrowleft","[0.15,0.85,0.675,0.325]","","",""
"sailing-trial","166","740379","0.0-11.0-131.0","","","","false","","","","","","","","","","null","","603","","3","0","null","null","arrowup","[0.15,0.85,0.675,0.325]","","",""
"sailing-trial","167","745161","0.0-11.0-132.0","","","","false","","","","","","","","","","998.2999999988824","","376.59999999962747","","2","0","arrowright","1","arrowleft","[0.15,0.85,0.675,0.325]","","",""
"sailing-trial","168","747264","0.0-11.0-133.0","","","","false","","","","","","","","","","null","","788.3999999985099","","0","0","null","null","arrowup","[0.15,0.85,0.675,0.325]","","",""
"sailing-trial","169","750615","0.0-11.0-134.0","","","","false","","","","","","","","","","455.40000000037253","","90.80000000074506","","2","1","arrowright","1","arrowleft","[0.15,0.85,0.675,0.325]","","",""
"sailing-trial","170","752953","0.0-11.0-135.0","","","","false","","","","","","","","","","null","","65.59999999962747","","1","1","null","null","arrowup","[0.15,0.85,0.675,0.325]","","",""
"sailing-trial","171","757109","0.0-11.0-136.0","","","","false","","","","","","","","","","1929.7999999988824","","78.90000000037253","","2","0","arrowright","1","arrowleft","[0.15,0.85,0.675,0.325]","","",""
"sailing-trial","172","759480","0.0-11.0-137.0","","","","false","","","","","","","","","","null","","538.5999999996275","","3","1","null","null","arrowup","[0.15,0.85,0.675,0.325]","","",""
"sailing-trial","173","762813","0.0-11.0-138.0","","","","false","","","","","","","","","","273.09999999962747","","272.5","","2","1","arrowright","1","arrowleft","[0.15,0.85,0.675,0.325]","","",""
"sailing-trial","174","764765","0.0-11.0-139.0","","","","false","","","","","","","","","","null","","119.90000000037253","","0","1","null","null","arrowup","[0.15,0.85,0.675,0.325]","","",""
"sailing-trial","175","768199","0.0-11.0-140.0","","","","false","","","","","","","","","","69.09999999962747","","573.5999999996275","","2","1","arrowright","1","arrowleft","[0.15,0.85,0.675,0.325]","","",""
"sailing-trial","176","770265","0.0-11.0-141.0","","","","false","","","","","","","","","","null","","312.40000000037253","","0","0","null","null","arrowup","[0.15,0.85,0.675,0.325]","","",""
"sailing-trial","177","774533","0.0-11.0-142.0","","","","false","","","","","","","","","","1415.800000000745","","294.8999999985099","","2","1","arrowright","1","arrowleft","[0.15,0.85,0.675,0.325]","","",""
"sailing-trial","178","776126","0.0-11.0-143.0","","","","false","","","","","","","","","","null","","247.19999999925494","","2","0","null","null","arrowup","[0.15,0.85,0.675,0.325]","","",""
"sailing-trial","179","780027","0.0-11.0-144.0","","","","false","","","","","","","","","","821.3000000007451","","302.7999999988824","","2","1","arrowright","1","arrowleft","[0.325,0.675,0.85,0.15]","","",""
"sailing-trial","180","781697","0.0-11.0-145.0","","","","false","","","","","","","","","","null","","357.19999999925494","","1","0","null","null","arrowup","[0.325,0.675,0.85,0.15]","","",""
"sailing-trial","181","786347","0.0-11.0-146.0","","","","false","","","","","","","","","","582.5","","544.5","","2","1","arrowright","1","arrowleft","[0.325,0.675,0.85,0.15]","","",""
"sailing-trial","182","788737","0.0-11.0-147.0","","","","false","","","","","","","","","","null","","447.5","","2","1","null","null","arrowup","[0.325,0.675,0.85,0.15]","","",""
"sailing-trial","183","793101","0.0-11.0-148.0","","","","false","","","","","","","","","","276.69999999925494","","1293.4000000003725","","2","1","arrowright","1","arrowleft","[0.325,0.675,0.85,0.15]","","",""
"sailing-trial","184","795544","0.0-11.0-149.0","","","","false","","","","","","","","","","null","","422.19999999925494","","1","1","null","null","arrowup","[0.325,0.675,0.85,0.15]","","",""
"sailing-trial","185","800197","0.0-11.0-150.0","","","","false","","","","","","","","","","262.69999999925494","","197.19999999925494","","2","1","arrowright","1","arrowleft","[0.325,0.675,0.85,0.15]","","",""
"sailing-trial","186","802237","0.0-11.0-151.0","","","","false","","","","","","","","","","null","","83.90000000037253","","1","1","null","null","arrowup","[0.325,0.675,0.85,0.15]","","",""
"sailing-trial","187","806886","0.0-11.0-152.0","","","","false","","","","","","","","","","343.09999999962747","","1020.6999999992549","","2","1","arrowright","1","arrowleft","[0.325,0.675,0.85,0.15]","","",""
"sailing-trial","188","812159","0.0-11.0-153.0","","","","false","","","","","","","","","","null","","361.2000000011176","","1","1","null","null","arrowup","[0.325,0.675,0.85,0.15]","","",""
"sailing-trial","189","815644","0.0-11.0-154.0","","","","false","","","","","","","","","","281.69999999925494","","230.09999999962747","","2","1","arrowright","1","arrowleft","[0.325,0.675,0.85,0.15]","","",""
"sailing-trial","190","817220","0.0-11.0-155.0","","","","false","","","","","","","","","","null","","384","","0","0","null","null","arrowup","[0.325,0.675,0.85,0.15]","","",""
"sailing-trial","191","821131","0.0-11.0-156.0","","","","false","","","","","","","","","","581.9000000003725","","303","","2","1","arrowright","1","arrowleft","[0.325,0.675,0.85,0.15]","","",""
"sailing-trial","192","822761","0.0-11.0-157.0","","","","false","","","","","","","","","","null","","249.80000000074506","","3","0","null","null","arrowup","[0.325,0.675,0.85,0.15]","","",""
"sailing-trial","193","827131","0.0-11.0-158.0","","","","false","","","","","","","","","","740.6999999992549","","723.5","","2","1","arrowright","1","arrowleft","[0.325,0.675,0.85,0.15]","","",""
"sailing-trial","194","829201","0.0-11.0-159.0","","","","false","","","","","","","","","","null","","849.1000000014901","","3","0","null","null","arrowup","[0.325,0.675,0.85,0.15]","","",""
"sailing-trial","195","833469","0.0-11.0-160.0","","","","false","","","","","","","","","","1092","","305.30000000074506","","2","1","arrowright","1","arrowleft","[0.15,0.85,0.675,0.325]","","",""
"sailing-trial","196","835422","0.0-11.0-161.0","","","","false","","","","","","","","","","null","","244.2999999988824","","1","1","null","null","arrowup","[0.15,0.85,0.675,0.325]","","",""
"sailing-trial","197","838437","0.0-11.0-162.0","","","","false","","","","","","","","","","105.59999999962747","","132.2000000011176","","2","1","arrowright","1","arrowleft","[0.15,0.85,0.675,0.325]","","",""
"sailing-trial","198","839755","0.0-11.0-163.0","","","","false","","","","","","","","","","null","","67.69999999925494","","3","0","null","null","arrowup","[0.15,0.85,0.675,0.325]","","",""
"sailing-trial","199","844274","0.0-11.0-164.0","","","","false","","","","","","","","","","1279.7999999988824","","692.2999999988824","","2","0","arrowright","1","arrowleft","[0.15,0.85,0.675,0.325]","","",""
"sailing-trial","200","847212","0.0-11.0-165.0","","","","false","","","","","","","","","","null","","1240.800000000745","","0","0","null","null","arrowup","[0.15,0.85,0.675,0.325]","","",""
"sailing-trial","201","853107","0.0-11.0-166.0","","","","false","","","","","","","","","","1744.199999999255","","904.0999999996275","","2","1","arrowright","1","arrowleft","[0.15,0.85,0.675,0.325]","","",""
"sailing-trial","202","855598","0.0-11.0-167.0","","","","false","","","","","","","","","","null","","894.0999999996275","","0","0","null","null","arrowup","[0.15,0.85,0.675,0.325]","","",""
"sailing-trial","203","859071","0.0-11.0-168.0","","","","false","","","","","","","","","","973.5999999996275","","56","","3","0","arrowright","1","arrowright","[0.15,0.85,0.675,0.325]","","",""
"sailing-trial","204","861309","0.0-11.0-169.0","","","","false","","","","","","","","","","null","","860.9000000003725","","0","0","null","null","arrowup","[0.15,0.85,0.675,0.325]","","",""
"sailing-trial","205","865272","0.0-11.0-170.0","","","","false","","","","","","","","","","571","","448.40000000037253","","1","1","arrowleft","0","arrowright","[0.15,0.85,0.675,0.325]","","",""
"sailing-trial","206","867393","0.0-11.0-171.0","","","","false","","","","","","","","","","null","","159.80000000074506","","1","1","null","null","arrowup","[0.15,0.85,0.675,0.325]","","",""
"sailing-trial","207","870689","0.0-11.0-172.0","","","","false","","","","","","","","","","491.7999999988824","","483.7999999988824","","1","0","arrowleft","0","arrowright","[0.15,0.85,0.675,0.325]","","",""
"sailing-trial","208","873279","0.0-11.0-173.0","","","","false","","","","","","","","","","null","","794.4000000003725","","2","1","null","null","arrowup","[0.15,0.85,0.675,0.325]","","",""
"sailing-trial","209","877663","0.0-11.0-174.0","","","","false","","","","","","","","","","531.8999999985099","","678.4000000003725","","1","1","arrowleft","0","arrowright","[0.15,0.85,0.675,0.325]","","",""
"sailing-trial","210","879920","0.0-11.0-175.0","","","","false","","","","","","","","","","null","","924","","0","0","null","null","arrowup","[0.15,0.85,0.675,0.325]","","",""
"sailing-trial","211","883803","0.0-11.0-176.0","","","","false","","","","","","","","","","874.8000000007451","","577.6999999992549","","1","0","arrowleft","0","arrowright","[0.85,0.15,0.325,0.675]","","",""
"sailing-trial","212","885838","0.0-11.0-177.0","","","","false","","","","","","","","","","null","","664.5999999996275","","2","0","null","null","arrowup","[0.85,0.15,0.325,0.675]","","",""
"sailing-trial","213","889669","0.0-11.0-178.0","","","","false","","","","","","","","","","1195.0999999996275","","196","","2","0","arrowright","1","arrowleft","[0.85,0.15,0.325,0.675]","","",""
"sailing-trial","214","891957","0.0-11.0-179.0","","","","false","","","","","","","","","","null","","651.1999999992549","","1","0","null","null","arrowup","[0.85,0.15,0.325,0.675]","","",""
"sailing-trial","215","895260","0.0-11.0-180.0","","","","false","","","","","","","","","","816.2999999988824","","272.40000000037253","","1","0","arrowleft","0","arrowright","[0.85,0.15,0.325,0.675]","","",""
"sailing-trial","216","897896","0.0-11.0-181.0","","","","false","","","","","","","","","","null","","757.6999999992549","","3","1","null","null","arrowup","[0.85,0.15,0.325,0.675]","","",""
"sailing-trial","217","901829","0.0-11.0-182.0","","","","false","","","","","","","","","","724","","21.199999999254942","","3","1","arrowright","1","arrowright","[0.85,0.15,0.325,0.675]","","",""
"sailing-trial","218","904889","0.0-11.0-183.0","","","","false","","","","","","","","","","null","","878.7999999988824","","3","1","null","null","arrowup","[0.85,0.15,0.325,0.675]","","",""
"sailing-trial","219","908207","0.0-11.0-184.0","","","","false","","","","","","","","","","401.7999999988824","","506.80000000074506","","3","0","arrowright","1","arrowright","[0.85,0.15,0.325,0.675]","","",""
"sailing-trial","220","910928","0.0-11.0-185.0","","","","false","","","","","","","","","","null","","756.4000000003725","","0","1","null","null","arrowup","[0.85,0.15,0.325,0.675]","","",""
"sailing-trial","221","914661","0.0-11.0-186.0","","","","false","","","","","","","","","","665.5999999996275","","70.59999999962747","","0","1","arrowleft","0","arrowleft","[0.85,0.15,0.325,0.675]","","",""
"sailing-trial","222","916477","0.0-11.0-187.0","","","","false","","","","","","","","","","null","","496.19999999925494","","2","0","null","null","arrowup","[0.85,0.15,0.325,0.675]","","",""
"sailing-trial","223","919947","0.0-11.0-188.0","","","","false","","","","","","","","","","480.90000000037253","","346.09999999962747","","0","1","arrowleft","0","arrowleft","[0.85,0.15,0.325,0.675]","","",""
"sailing-trial","224","921781","0.0-11.0-189.0","","","","false","","","","","","","","","","null","","528.6999999992549","","1","0","null","null","arrowup","[0.85,0.15,0.325,0.675]","","",""
"sailing-trial","225","925508","0.0-11.0-190.0","","","","false","","","","","","","","","","503.59999999962747","","373.5","","0","1","arrowleft","0","arrowleft","[0.85,0.15,0.325,0.675]","","",""
"sailing-trial","226","927203","0.0-11.0-191.0","","","","false","","","","","","","","","","null","","381.30000000074506","","1","0","null","null","arrowup","[0.85,0.15,0.325,0.675]","","",""
"sailing-trial","227","930091","0.0-11.0-192.0","","","","false","","","","","","","","","","502.3999999985099","","245","","0","0","arrowleft","0","arrowleft","[0.325,0.675,0.85,0.15]","","",""
"sailing-trial","228","932049","0.0-11.0-193.0","","","","false","","","","","","","","","","null","","639.5999999996275","","1","0","null","null","arrowup","[0.325,0.675,0.85,0.15]","","",""
"sailing-trial","229","935173","0.0-11.0-194.0","","","","false","","","","","","","","","","550.3999999985099","","240","","0","0","arrowleft","0","arrowleft","[0.325,0.675,0.85,0.15]","","",""
"sailing-trial","230","937135","0.0-11.0-195.0","","","","false","","","","","","","","","","null","","621.6999999992549","","3","0","null","null","arrowup","[0.325,0.675,0.85,0.15]","","",""
"sailing-trial","231","940415","0.0-11.0-196.0","","","","false","","","","","","","","","","628","","327","","2","0","arrowright","1","arrowleft","[0.325,0.675,0.85,0.15]","","",""
"sailing-trial","232","942704","0.0-11.0-197.0","","","","false","","","","","","","","","","null","","449.7999999988824","","3","1","null","null","arrowup","[0.325,0.675,0.85,0.15]","","",""
"sailing-trial","233","946255","0.0-11.0-198.0","","","","false","","","","","","","","","","312.59999999962747","","382.30000000074506","","3","0","arrowright","1","arrowright","[0.325,0.675,0.85,0.15]","","",""
"sailing-trial","234","948521","0.0-11.0-199.0","","","","false","","","","","","","","","","null","","472.59999999962747","","1","1","null","null","arrowup","[0.325,0.675,0.85,0.15]","","",""
"sailing-trial","235","951468","0.0-11.0-200.0","","","","false","","","","","","","","","","445.90000000037253","","397.09999999962747","","3","0","arrowright","1","arrowright","[0.325,0.675,0.85,0.15]","","",""
"sailing-trial","236","953847","0.0-11.0-201.0","","","","false","","","","","","","","","","null","","991","","0","0","null","null","arrowup","[0.325,0.675,0.85,0.15]","","",""
"sailing-trial","237","957193","0.0-11.0-202.0","","","","false","","","","","","","","","","427.2000000011176","","253.40000000037253","","1","1","arrowleft","0","arrowright","[0.325,0.675,0.85,0.15]","","",""
"sailing-trial","238","958883","0.0-11.0-203.0","","","","false","","","","","","","","","","null","","326.90000000037253","","1","0","null","null","arrowup","[0.325,0.675,0.85,0.15]","","",""
"sailing-trial","239","962439","0.0-11.0-204.0","","","","false","","","","","","","","","","617.8000000007451","","326.6000000014901","","1","1","arrowleft","0","arrowright","[0.325,0.675,0.85,0.15]","","",""
"sailing-trial","240","965274","0.0-11.0-205.0","","","","false","","","","","","","","","","null","","1068.5","","2","1","null","null","arrowup","[0.325,0.675,0.85,0.15]","","",""
"sailing-trial","241","968922","0.0-11.0-206.0","","","","false","","","","","","","","","","980.9000000003725","","280.7999999988824","","2","0","arrowright","1","arrowleft","[0.325,0.675,0.85,0.15]","","",""
"sailing-trial","242","972656","0.0-11.0-207.0","","","","false","","","","","","","","","","null","","792.3000000007451","","0","1","null","null","arrowup","[0.325,0.675,0.85,0.15]","","",""
"sailing-trial","243","981677","0.0-11.0-208.0","","","","false","","","","","","","","","","5502.89999999851","","302.09999999962747","","2","1","arrowright","1","arrowleft","[0.325,0.675,0.85,0.15]","","",""
"sailing-trial","244","992725","0.0-11.0-209.0","","","","false","","","","","","","","","","null","","7514","","2","1","null","null","arrowup","[0.325,0.675,0.85,0.15]","","",""
"sailing-trial","245","998986","0.0-11.0-210.0","","","","false","","","","","","","","","","2034.5","","195.90000000037253","","1","0","arrowleft","0","arrowright","[0.325,0.675,0.85,0.15]","","",""
"sailing-trial","246","1001083","0.0-11.0-211.0","","","","false","","","","","","","","","","null","","683.5999999996275","","1","0","null","null","arrowup","[0.325,0.675,0.85,0.15]","","",""
"sailing-trial","247","1007206","0.0-11.0-212.0","","","","false","","","","","","","","","","2329.300000000745","","804.1999999992549","","2","1","arrowright","1","arrowleft","[0.85,0.15,0.325,0.675]","","",""
"sailing-trial","248","1011052","0.0-11.0-213.0","","","","false","","","","","","","","","","null","","2400.7000000011176","","0","0","null","null","arrowup","[0.85,0.15,0.325,0.675]","","",""
"sailing-trial","249","1016081","0.0-11.0-214.0","","","","false","","","","","","","","","","1047.0999999996275","","1039.4000000003725","","2","1","arrowright","1","arrowleft","[0.85,0.15,0.325,0.675]","","",""
"sailing-trial","250","1018856","0.0-11.0-215.0","","","","false","","","","","","","","","","null","","742.9000000003725","","3","1","null","null","arrowup","[0.85,0.15,0.325,0.675]","","",""
"sailing-trial","251","1022676","0.0-11.0-216.0","","","","false","","","","","","","","","","763.3999999985099","","670.5999999996275","","2","0","arrowright","1","arrowleft","[0.85,0.15,0.325,0.675]","","",""
"sailing-trial","252","1025367","0.0-11.0-217.0","","","","false","","","","","","","","","","null","","993.5","","2","0","null","null","arrowup","[0.85,0.15,0.325,0.675]","","",""
"sailing-trial","253","1029982","0.0-11.0-218.0","","","","false","","","","","","","","","","1152.5","","495.5","","3","1","arrowright","1","arrowright","[0.85,0.15,0.325,0.675]","","",""
"sailing-trial","254","1032225","0.0-11.0-219.0","","","","false","","","","","","","","","","null","","769.3000000007451","","2","0","null","null","arrowup","[0.85,0.15,0.325,0.675]","","",""
"sailing-trial","255","1037331","0.0-11.0-220.0","","","","false","","","","","","","","","","2142","","35.09999999962747","","3","1","arrowright","1","arrowright","[0.85,0.15,0.325,0.675]","","",""
"sailing-trial","256","1040575","0.0-11.0-221.0","","","","false","","","","","","","","","","null","","1439.4000000003725","","3","1","null","null","arrowup","[0.85,0.15,0.325,0.675]","","",""
"sailing-trial","257","1045683","0.0-11.0-222.0","","","","false","","","","","","","","","","810.9000000003725","","267.19999999925494","","3","0","arrowright","1","arrowright","[0.85,0.15,0.325,0.675]","","",""
"sailing-trial","258","1049893","0.0-11.0-223.0","","","","false","","","","","","","","","","null","","2135.9000000003725","","0","1","null","null","arrowup","[0.85,0.15,0.325,0.675]","","",""
"sailing-trial","259","1054773","0.0-11.0-224.0","","","","false","","","","","","","","","","1565.199999999255","","177.69999999925494","","0","1","arrowleft","0","arrowleft","[0.85,0.15,0.325,0.675]","","",""
"sailing-trial","260","1057635","0.0-11.0-225.0","","","","false","","","","","","","","","","null","","985","","2","1","null","null","arrowup","[0.85,0.15,0.325,0.675]","","",""
"sailing-trial","261","1063090","0.0-11.0-226.0","","","","false","","","","","","","","","","990.5","","1540.2000000011176","","0","1","arrowleft","0","arrowleft","[0.85,0.15,0.325,0.675]","","",""
"sailing-trial","262","1065887","0.0-11.0-227.0","","","","false","","","","","","","","","","null","","931.6000000014901","","0","1","null","null","arrowup","[0.85,0.15,0.325,0.675]","","",""
"sailing-trial","263","1069896","0.0-11.0-228.0","","","","false","","","","","","","","","","544.3000000007451","","560.5","","0","1","arrowleft","0","arrowleft","[0.85,0.15,0.325,0.675]","","",""
"sailing-trial","264","1072517","0.0-11.0-229.0","","","","false","","","","","","","","","","null","","706.0999999996275","","1","1","null","null","arrowup","[0.85,0.15,0.325,0.675]","","",""
"sailing-trial","265","1076423","0.0-11.0-230.0","","","","false","","","","","","","","","","762.3000000007451","","119.30000000074506","","0","1","arrowleft","0","arrowleft","[0.675,0.325,0.15,0.85]","","",""
"sailing-trial","266","1079037","0.0-11.0-231.0","","","","false","","","","","","","","","","null","","817.2999999988824","","3","1","null","null","arrowup","[0.675,0.325,0.15,0.85]","","",""
"sailing-trial","267","1083042","0.0-11.0-232.0","","","","false","","","","","","","","","","1089.9000000003725","","11.699999999254942","","0","1","arrowleft","0","arrowleft","[0.675,0.325,0.15,0.85]","","",""
"sailing-trial","268","1085479","0.0-11.0-233.0","","","","false","","","","","","","","","","null","","1074.5","","1","0","null","null","arrowup","[0.675,0.325,0.15,0.85]","","",""
"sailing-trial","269","1090664","0.0-11.0-234.0","","","","false","","","","","","","","","","960.3000000007451","","1193.7000000011176","","0","1","arrowleft","0","arrowleft","[0.675,0.325,0.15,0.85]","","",""
"sailing-trial","270","1092746","0.0-11.0-235.0","","","","false","","","","","","","","","","null","","781.6000000014901","","0","0","null","null","arrowup","[0.675,0.325,0.15,0.85]","","",""
"sailing-trial","271","1096795","0.0-11.0-236.0","","","","false","","","","","","","","","","945.2000000011176","","67.30000000074506","","0","1","arrowleft","0","arrowleft","[0.675,0.325,0.15,0.85]","","",""
"sailing-trial","272","1099327","0.0-11.0-237.0","","","","false","","","","","","","","","","null","","1224.8999999985099","","2","0","null","null","arrowup","[0.675,0.325,0.15,0.85]","","",""
"sailing-trial","273","1102956","0.0-11.0-238.0","","","","false","","","","","","","","","","664.4000000003725","","88.59999999962747","","0","1","arrowleft","0","arrowleft","[0.675,0.325,0.15,0.85]","","",""
"sailing-trial","274","1105761","0.0-11.0-239.0","","","","false","","","","","","","","","","null","","897.4000000003725","","0","1","null","null","arrowup","[0.675,0.325,0.15,0.85]","","",""
"sailing-trial","275","1109405","0.0-11.0-240.0","","","","false","","","","","","","","","","686.8000000007451","","7.700000001117587","","0","1","arrowleft","0","arrowleft","[0.675,0.325,0.15,0.85]","","",""
"sailing-trial","276","1111759","0.0-11.0-241.0","","","","false","","","","","","","","","","null","","978.5","","1","0","null","null","arrowup","[0.675,0.325,0.15,0.85]","","",""
"sailing-trial","277","1115474","0.0-11.0-242.0","","","","false","","","","","","","","","","668.1999999992549","","144.90000000037253","","0","1","arrowleft","0","arrowleft","[0.675,0.325,0.15,0.85]","","",""
"sailing-trial","278","1118182","0.0-11.0-243.0","","","","false","","","","","","","","","","null","","693.4000000003725","","0","1","null","null","arrowup","[0.675,0.325,0.15,0.85]","","",""
"sailing-trial","279","1122797","0.0-11.0-244.0","","","","false","","","","","","","","","","929.0999999996275","","526.2999999988824","","0","1","arrowleft","0","arrowleft","[0.675,0.325,0.15,0.85]","","",""
"sailing-trial","280","1125823","0.0-11.0-245.0","","","","false","","","","","","","","","","null","","1078.7000000011176","","0","1","null","null","arrowup","[0.675,0.325,0.15,0.85]","","",""
"sailing-trial","281","1129461","0.0-11.0-246.0","","","","false","","","","","","","","","","923.2999999988824","","149.09999999962747","","0","0","arrowleft","0","arrowleft","[0.675,0.325,0.15,0.85]","","",""
"sailing-trial","282","1131576","0.0-11.0-247.0","","","","false","","","","","","","","","","null","","722.2000000011176","","2","0","null","null","arrowup","[0.675,0.325,0.15,0.85]","","",""
"sailing-trial","283","1135640","0.0-11.0-248.0","","","","false","","","","","","","","","","792.1999999992549","","90.20000000111759","","0","1","arrowleft","0","arrowleft","[0.85,0.15,0.325,0.675]","","",""
"sailing-trial","284","1138519","0.0-11.0-249.0","","","","false","","","","","","","","","","null","","976.8000000007451","","0","1","null","null","arrowup","[0.85,0.15,0.325,0.675]","","",""
"sailing-trial","285","1143142","0.0-11.0-250.0","","","","false","","","","","","","","","","1014.5999999996275","","396.30000000074506","","0","1","arrowleft","0","arrowleft","[0.85,0.15,0.325,0.675]","","",""
"sailing-trial","286","1145507","0.0-11.0-251.0","","","","false","","","","","","","","","","null","","1040","","3","0","null","null","arrowup","[0.85,0.15,0.325,0.675]","","",""
"sailing-trial","287","1150180","0.0-11.0-252.0","","","","false","","","","","","","","","","1221.0999999996275","","598.4000000003725","","0","1","arrowleft","0","arrowleft","[0.85,0.15,0.325,0.675]","","",""
"sailing-trial","288","1152018","0.0-11.0-253.0","","","","false","","","","","","","","","","null","","485.59999999962747","","0","0","null","null","arrowup","[0.85,0.15,0.325,0.675]","","",""
"sailing-trial","289","1155877","0.0-11.0-254.0","","","","false","","","","","","","","","","873.6999999992549","","64.69999999925494","","0","1","arrowleft","0","arrowleft","[0.85,0.15,0.325,0.675]","","",""
"sailing-trial","290","1158859","0.0-11.0-255.0","","","","false","","","","","","","","","","null","","909.4000000003725","","1","1","null","null","arrowup","[0.85,0.15,0.325,0.675]","","",""
"sailing-trial","291","1163913","0.0-11.0-256.0","","","","false","","","","","","","","","","1045.699999999255","","747.6999999992549","","0","1","arrowleft","0","arrowleft","[0.85,0.15,0.325,0.675]","","",""
"sailing-trial","292","1166172","0.0-11.0-257.0","","","","false","","","","","","","","","","null","","886.4000000003725","","1","0","null","null","arrowup","[0.85,0.15,0.325,0.675]","","",""
"sailing-trial","293","1171576","0.0-11.0-258.0","","","","false","","","","","","","","","","795.5","","1411.5999999996275","","0","1","arrowleft","0","arrowleft","[0.85,0.15,0.325,0.675]","","",""
"sailing-trial","294","1173986","0.0-11.0-259.0","","","","false","","","","","","","","","","null","","783.5","","1","0","null","null","arrowup","[0.85,0.15,0.325,0.675]","","",""
"sailing-trial","295","1178423","0.0-11.0-260.0","","","","false","","","","","","","","","","1007.5","","585","","0","1","arrowleft","0","arrowleft","[0.85,0.15,0.325,0.675]","","",""
"sailing-trial","296","1180761","0.0-11.0-261.0","","","","false","","","","","","","","","","null","","969.6999999992549","","2","0","null","null","arrowup","[0.85,0.15,0.325,0.675]","","",""
"sailing-trial","297","1185342","0.0-11.0-262.0","","","","false","","","","","","","","","","1185.800000000745","","487.1000000014901","","0","1","arrowleft","0","arrowleft","[0.85,0.15,0.325,0.675]","","",""
"sailing-trial","298","1188532","0.0-11.0-263.0","","","","false","","","","","","","","","","null","","881.5","","3","1","null","null","arrowup","[0.85,0.15,0.325,0.675]","","",""
"sailing-trial","299","1194370","0.0-11.0-264.0","","","","false","","","","","","","","","","869.5999999996275","","851.7999999988824","","0","1","arrowleft","0","arrowleft","[0.85,0.15,0.325,0.675]","","",""
"sailing-trial","300","1197149","0.0-11.0-265.0","","","","false","","","","","","","","","","null","","671.5","","3","1","null","null","arrowup","[0.85,0.15,0.325,0.675]","","",""
"sailing-trial","301","1201569","0.0-11.0-266.0","","","","false","","","","","","","","","","1003.2000000011176","","474.8999999985099","","0","1","arrowleft","0","arrowleft","[0.325,0.675,0.85,0.15]","","",""
"sailing-trial","302","1204596","0.0-11.0-267.0","","","","false","","","","","","","","","","null","","986.3000000007451","","2","1","null","null","arrowup","[0.325,0.675,0.85,0.15]","","",""
"sailing-trial","303","1208923","0.0-11.0-268.0","","","","false","","","","","","","","","","699.0999999996275","","927.6999999992549","","0","0","arrowleft","0","arrowleft","[0.325,0.675,0.85,0.15]","","",""
"sailing-trial","304","1211527","0.0-11.0-269.0","","","","false","","","","","","","","","","null","","1160.8999999985099","","3","0","null","null","arrowup","[0.325,0.675,0.85,0.15]","","",""
"sailing-trial","305","1215417","0.0-11.0-270.0","","","","false","","","","","","","","","","1357.3999999985099","","78.39999999850988","","0","0","arrowleft","0","arrowleft","[0.325,0.675,0.85,0.15]","","",""
"sailing-trial","306","1218096","0.0-11.0-271.0","","","","false","","","","","","","","","","null","","802.6000000014901","","3","1","null","null","arrowup","[0.325,0.675,0.85,0.15]","","",""
"sailing-trial","307","1221851","0.0-11.0-272.0","","","","false","","","","","","","","","","1083.300000000745","","136","","3","0","arrowright","1","arrowright","[0.325,0.675,0.85,0.15]","","",""
"sailing-trial","308","1224760","0.0-11.0-273.0","","","","false","","","","","","","","","","null","","1003","","0","1","null","null","arrowup","[0.325,0.675,0.85,0.15]","","",""
"sailing-trial","309","1229518","0.0-11.0-274.0","","","","false","","","","","","","","","","884.0999999996275","","400.2999999988824","","0","0","arrowleft","0","arrowleft","[0.325,0.675,0.85,0.15]","","",""
"sailing-trial","310","1232078","0.0-11.0-275.0","","","","false","","","","","","","","","","null","","1195.0999999996275","","3","0","null","null","arrowup","[0.325,0.675,0.85,0.15]","","",""
"sailing-trial","311","1235960","0.0-11.0-276.0","","","","false","","","","","","","","","","1049.2000000011176","","454.59999999962747","","3","0","arrowright","1","arrowright","[0.325,0.675,0.85,0.15]","","",""
"sailing-trial","312","1238554","0.0-11.0-277.0","","","","false","","","","","","","","","","null","","1047.2000000011176","","0","0","null","null","arrowup","[0.325,0.675,0.85,0.15]","","",""
"sailing-trial","313","1243792","0.0-11.0-278.0","","","","false","","","","","","","","","","1113.699999999255","","188","","2","1","arrowright","1","arrowleft","[0.325,0.675,0.85,0.15]","","",""
"sailing-trial","314","1246408","0.0-11.0-279.0","","","","false","","","","","","","","","","null","","737.3000000007451","","1","1","null","null","arrowup","[0.325,0.675,0.85,0.15]","","",""
"sailing-trial","315","1250338","0.0-11.0-280.0","","","","false","","","","","","","","","","1191.5","","228.7000000011176","","2","0","arrowright","1","arrowleft","[0.325,0.675,0.85,0.15]","","",""
"sailing-trial","316","1252846","0.0-11.0-281.0","","","","false","","","","","","","","","","null","","1023","","0","0","null","null","arrowup","[0.325,0.675,0.85,0.15]","","",""
"sailing-trial","317","1257477","0.0-11.0-282.0","","","","false","","","","","","","","","","1456","","155.90000000037253","","1","1","arrowleft","0","arrowright","[0.325,0.675,0.85,0.15]","","",""
"sailing-trial","318","1260371","0.0-11.0-283.0","","","","false","","","","","","","","","","null","","967.9000000003725","","0","1","null","null","arrowup","[0.325,0.675,0.85,0.15]","","",""
"sailing-trial","319","1263930","0.0-11.0-284.0","","","","false","","","","","","","","","","966.5999999996275","","191.7000000011176","","1","0","arrowleft","0","arrowright","[0.15,0.85,0.675,0.325]","","",""
"sailing-trial","320","1266343","0.0-11.0-285.0","","","","false","","","","","","","","","","null","","546.4000000003725","","2","1","null","null","arrowup","[0.15,0.85,0.675,0.325]","","",""
"sailing-trial","321","1270808","0.0-11.0-286.0","","","","false","","","","","","","","","","1257.7000000011176","","765.8999999985099","","0","0","arrowleft","0","arrowleft","[0.15,0.85,0.675,0.325]","","",""
"sailing-trial","322","1273529","0.0-11.0-287.0","","","","false","","","","","","","","","","null","","930.8999999985099","","1","1","null","null","arrowup","[0.15,0.85,0.675,0.325]","","",""
"sailing-trial","323","1277421","0.0-11.0-288.0","","","","false","","","","","","","","","","1179.699999999255","","86.20000000111759","","2","0","arrowright","1","arrowleft","[0.15,0.85,0.675,0.325]","","",""
"sailing-trial","324","1279410","0.0-11.0-289.0","","","","false","","","","","","","","","","null","","684.0999999996275","","0","0","null","null","arrowup","[0.15,0.85,0.675,0.325]","","",""
"sailing-trial","325","1284134","0.0-11.0-290.0","","","","false","","","","","","","","","","952.4000000003725","","874.5","","1","1","arrowleft","0","arrowright","[0.15,0.85,0.675,0.325]","","",""
"sailing-trial","326","1286335","0.0-11.0-291.0","","","","false","","","","","","","","","","null","","498","","1","1","null","null","arrowup","[0.15,0.85,0.675,0.325]","","",""
"sailing-trial","327","1290761","0.0-11.0-292.0","","","","false","","","","","","","","","","776.1999999992549","","10.899999998509884","","1","1","arrowleft","0","arrowright","[0.15,0.85,0.675,0.325]","","",""
"sailing-trial","328","1293259","0.0-11.0-293.0","","","","false","","","","","","","","","","null","","922.8000000007451","","0","0","null","null","arrowup","[0.15,0.85,0.675,0.325]","","",""
"sailing-trial","329","1302074","0.0-11.0-294.0","","","","false","","","","","","","","","","4939.5","","865","","1","1","arrowleft","0","arrowright","[0.15,0.85,0.675,0.325]","","",""
"sailing-trial","330","1310633","0.0-11.0-295.0","","","","false","","","","","","","","","","null","","6964.9000000003725","","3","0","null","null","arrowup","[0.15,0.85,0.675,0.325]","","",""
"sailing-trial","331","1320548","0.0-11.0-296.0","","","","false","","","","","","","","","","3290.300000000745","","280.80000000074506","","1","1","arrowleft","0","arrowright","[0.15,0.85,0.675,0.325]","","",""
"sailing-trial","332","1323073","0.0-11.0-297.0","","","","false","","","","","","","","","","null","","647.3000000007451","","1","1","null","null","arrowup","[0.15,0.85,0.675,0.325]","","",""
"sailing-trial","333","1328899","0.0-11.0-298.0","","","","false","","","","","","","","","","1000.2000000011176","","1475.0999999996275","","1","1","arrowleft","0","arrowright","[0.15,0.85,0.675,0.325]","","",""
"sailing-trial","334","1331429","0.0-11.0-299.0","","","","false","","","","","","","","","","null","","668.3000000007451","","3","1","null","null","arrowup","[0.15,0.85,0.675,0.325]","","",""
"sailing-trial","335","1335840","0.0-11.0-300.0","","","","false","","","","","","","","","","825.5","","630.2000000011176","","1","1","arrowleft","0","arrowright","[0.15,0.85,0.675,0.325]","","",""
"sailing-trial","336","1338304","0.0-11.0-301.0","","","","false","","","","","","","","","","null","","624.1999999992549","","1","1","null","null","arrowup","[0.15,0.85,0.675,0.325]","","",""
"sailing-trial","337","1342173","0.0-11.0-302.0","","","","false","","","","","","","","","","833.0999999996275","","97.30000000074506","","1","1","arrowleft","0","arrowright","[0.15,0.85,0.675,0.325]","","",""
"sailing-trial","338","1345603","0.0-11.0-303.0","","","","false","","","","","","","","","","null","","2256.800000000745","","0","0","null","null","arrowup","[0.15,0.85,0.675,0.325]","","",""
"sailing-trial","339","1351325","0.0-11.0-304.0","","","","false","","","","","","","","","","889","","1512","","1","1","arrowleft","0","arrowright","[0.15,0.85,0.675,0.325]","","",""
"sailing-trial","340","1355943","0.0-11.0-305.0","","","","false","","","","","","","","","","null","","2864.0999999996275","","3","0","null","null","arrowup","[0.15,0.85,0.675,0.325]","","",""
"sailing-trial","341","1361704","0.0-11.0-306.0","","","","false","","","","","","","","","","2097.699999999255","","337.6000000014901","","1","0","arrowleft","0","arrowright","[0.85,0.15,0.325,0.675]","","",""
"sailing-trial","342","1363749","0.0-11.0-307.0","","","","false","","","","","","","","","","null","","656.6000000014901","","1","0","null","null","arrowup","[0.85,0.15,0.325,0.675]","","",""
"sailing-trial","343","1369713","0.0-11.0-308.0","","","","false","","","","","","","","","","1842.9000000022352","","926.1999999992549","","0","1","arrowleft","0","arrowleft","[0.85,0.15,0.325,0.675]","","",""
"sailing-trial","344","1372233","0.0-11.0-309.0","","","","false","","","","","","","","","","null","","691","","3","1","null","null","arrowup","[0.85,0.15,0.325,0.675]","","",""
"sailing-trial","345","1377569","0.0-11.0-310.0","","","","false","","","","","","","","","","995.0999999977648","","816.1000000014901","","0","1","arrowleft","0","arrowleft","[0.85,0.15,0.325,0.675]","","",""
"sailing-trial","346","1380259","0.0-11.0-311.0","","","","false","","","","","","","","","","null","","834","","0","1","null","null","arrowup","[0.85,0.15,0.325,0.675]","","",""
"sailing-trial","347","1385151","0.0-11.0-312.0","","","","false","","","","","","","","","","768.3999999985099","","748.5","","0","1","arrowleft","0","arrowleft","[0.85,0.15,0.325,0.675]","","",""
"sailing-trial","348","1387485","0.0-11.0-313.0","","","","false","","","","","","","","","","null","","446.5","","2","1","null","null","arrowup","[0.85,0.15,0.325,0.675]","","",""
"sailing-trial","349","1392234","0.0-11.0-314.0","","","","false","","","","","","","","","","829.5","","633.1999999992549","","0","1","arrowleft","0","arrowleft","[0.85,0.15,0.325,0.675]","","",""
"sailing-trial","350","1396201","0.0-11.0-315.0","","","","false","","","","","","","","","","null","","2092.89999999851","","0","1","null","null","arrowup","[0.85,0.15,0.325,0.675]","","",""
"sailing-trial","351","1400917","0.0-11.0-316.0","","","","false","","","","","","","","","","1111.8999999985099","","442.30000000074506","","0","1","arrowleft","0","arrowleft","[0.85,0.15,0.325,0.675]","","",""
"sailing-trial","352","1403850","0.0-11.0-317.0","","","","false","","","","","","","","","","null","","1021.9000000022352","","0","1","null","null","arrowup","[0.85,0.15,0.325,0.675]","","",""
"sailing-trial","353","1409108","0.0-11.0-318.0","","","","false","","","","","","","","","","902.1999999992549","","1305.6000000014901","","0","1","arrowleft","0","arrowleft","[0.85,0.15,0.325,0.675]","","",""
"sailing-trial","354","1411591","0.0-11.0-319.0","","","","false","","","","","","","","","","null","","1172.5","","1","0","null","null","arrowup","[0.85,0.15,0.325,0.675]","","",""
"sailing-trial","355","1415911","0.0-11.0-320.0","","","","false","","","","","","","","","","977.2999999970198","","188.90000000223517","","0","1","arrowleft","0","arrowleft","[0.85,0.15,0.325,0.675]","","",""
"sailing-trial","356","1418495","0.0-11.0-321.0","","","","false","","","","","","","","","","null","","775.9000000022352","","0","1","null","null","arrowup","[0.85,0.15,0.325,0.675]","","",""
"sailing-trial","357","1422888","0.0-11.0-322.0","","","","false","","","","","","","","","","690.5999999977648","","612.4000000022352","","0","1","arrowleft","0","arrowleft","[0.675,0.325,0.15,0.85]","","",""
"sailing-trial","358","1425870","0.0-11.0-323.0","","","","false","","","","","","","","","","null","","1116","","3","1","null","null","arrowup","[0.675,0.325,0.15,0.85]","","",""
"sailing-trial","359","1430260","0.0-11.0-324.0","","","","false","","","","","","","","","","1131.4000000022352","","354.69999999925494","","0","1","arrowleft","0","arrowleft","[0.675,0.325,0.15,0.85]","","",""
"sailing-trial","360","1432373","0.0-11.0-325.0","","","","false","","","","","","","","","","null","","765.2000000029802","","1","0","null","null","arrowup","[0.675,0.325,0.15,0.85]","","",""
"sailing-trial","361","1441204","0.0-11.0-326.0","","","","false","","","","","","","","","","3218.2999999970198","","579.1000000014901","","0","1","arrowleft","0","arrowleft","[0.675,0.325,0.15,0.85]","","",""
"sailing-trial","362","1444188","0.0-11.0-327.0","","","","false","","","","","","","","","","null","","1153.199999999255","","2","1","null","null","arrowup","[0.675,0.325,0.15,0.85]","","",""
"sailing-trial","363","1448437","0.0-11.0-328.0","","","","false","","","","","","","","","","777","","277.4000000022352","","0","1","arrowleft","0","arrowleft","[0.675,0.325,0.15,0.85]","","",""
"sailing-trial","364","1451011","0.0-11.0-329.0","","","","false","","","","","","","","","","null","","745.9000000022352","","1","1","null","null","arrowup","[0.675,0.325,0.15,0.85]","","",""
"sailing-trial","365","1455966","0.0-11.0-330.0","","","","false","","","","","","","","","","1540","","495.4000000022352","","0","1","arrowleft","0","arrowleft","[0.675,0.325,0.15,0.85]","","",""
"sailing-trial","366","1458482","0.0-11.0-331.0","","","","false","","","","","","","","","","null","","696.7000000029802","","3","1","null","null","arrowup","[0.675,0.325,0.15,0.85]","","",""
"sailing-trial","367","1462694","0.0-11.0-332.0","","","","false","","","","","","","","","","948.4000000022352","","76","","0","1","arrowleft","0","arrowleft","[0.675,0.325,0.15,0.85]","","",""
"sailing-trial","368","1465626","0.0-11.0-333.0","","","","false","","","","","","","","","","null","","943.8000000007451","","0","1","null","null","arrowup","[0.675,0.325,0.15,0.85]","","",""
"sailing-trial","369","1479736","0.0-11.0-334.0","","","","false","","","","","","","","","","6587.89999999851","","4086","","0","1","arrowleft","0","arrowleft","[0.675,0.325,0.15,0.85]","","",""
"sailing-trial","370","1482074","0.0-11.0-335.0","","","","false","","","","","","","","","","null","","781","","1","0","null","null","arrowup","[0.675,0.325,0.15,0.85]","","",""
"sailing-trial","371","1497212","0.0-11.0-336.0","","","","false","","","","","","","","","","4281.39999999851","","7126.10000000149","","0","1","arrowleft","0","arrowleft","[0.675,0.325,0.15,0.85]","","",""
"sailing-trial","372","1505414","0.0-11.0-337.0","","","","false","","","","","","","","","","null","","6306.5","","3","1","null","null","arrowup","[0.675,0.325,0.15,0.85]","","",""
"sailing-trial","373","1509996","0.0-11.0-338.0","","","","false","","","","","","","","","","1431.5","","186","","0","1","arrowleft","0","arrowleft","[0.85,0.15,0.325,0.675]","","",""
"sailing-trial","374","1512549","0.0-11.0-339.0","","","","false","","","","","","","","","","null","","757.3999999985099","","0","1","null","null","arrowup","[0.85,0.15,0.325,0.675]","","",""
"sailing-trial","375","1524925","0.0-11.0-340.0","","","","false","","","","","","","","","","8581.70000000298","","102.30000000074506","","0","1","arrowleft","0","arrowleft","[0.85,0.15,0.325,0.675]","","",""
"sailing-trial","376","1527885","0.0-11.0-341.0","","","","false","","","","","","","","","","null","","950.1999999992549","","2","1","null","null","arrowup","[0.85,0.15,0.325,0.675]","","",""
"sailing-trial","377","1531554","0.0-11.0-342.0","","","","false","","","","","","","","","","676.8999999985099","","88.20000000298023","","0","1","arrowleft","0","arrowleft","[0.85,0.15,0.325,0.675]","","",""
"sailing-trial","378","1535004","0.0-11.0-343.0","","","","false","","","","","","","","","","null","","1594.7000000029802","","2","1","null","null","arrowup","[0.85,0.15,0.325,0.675]","","",""
"sailing-trial","379","1546801","0.0-11.0-344.0","","","","false","","","","","","","","","","2011.4000000022352","","1314.3999999985099","","0","1","arrowleft","0","arrowleft","[0.85,0.15,0.325,0.675]","","",""
"sailing-trial","380","1553325","0.0-11.0-345.0","","","","false","","","","","","","","","","null","","4719.5","","2","0","null","null","arrowup","[0.85,0.15,0.325,0.675]","","",""
"sailing-trial","381","1557450","0.0-11.0-346.0","","","","false","","","","","","","","","","985.5","","132.70000000298023","","0","0","arrowleft","0","arrowleft","[0.85,0.15,0.325,0.675]","","",""
"sailing-trial","382","1560186","0.0-11.0-347.0","","","","false","","","","","","","","","","null","","937.5","","3","0","null","null","arrowup","[0.85,0.15,0.325,0.675]","","",""
"sailing-trial","383","1564503","0.0-11.0-348.0","","","","false","","","","","","","","","","1318.5","","528.1999999992549","","2","0","arrowright","1","arrowleft","[0.85,0.15,0.325,0.675]","","",""
"sailing-trial","384","1567155","0.0-11.0-349.0","","","","false","","","","","","","","","","null","","754.8999999985099","","1","1","null","null","arrowup","[0.85,0.15,0.325,0.675]","","",""
"sailing-trial","385","1571361","0.0-11.0-350.0","","","","false","","","","","","","","","","722.5","","658","","1","0","arrowleft","0","arrowright","[0.85,0.15,0.325,0.675]","","",""
"sailing-trial","386","1573342","0.0-11.0-351.0","","","","false","","","","","","","","","","null","","678.1999999992549","","3","0","null","null","arrowup","[0.85,0.15,0.325,0.675]","","",""
"sailing-trial","387","1577270","0.0-11.0-352.0","","","","false","","","","","","","","","","865.5","","62.19999999925494","","3","1","arrowright","1","arrowright","[0.85,0.15,0.325,0.675]","","",""
"sailing-trial","388","1579677","0.0-11.0-353.0","","","","false","","","","","","","","","","null","","1060.5","","1","0","null","null","arrowup","[0.85,0.15,0.325,0.675]","","",""
"sailing-trial","389","1584372","0.0-11.0-354.0","","","","false","","","","","","","","","","740.3000000007451","","392.30000000074506","","3","1","arrowright","1","arrowright","[0.675,0.325,0.15,0.85]","","",""
"sailing-trial","390","1587521","0.0-11.0-355.0","","","","false","","","","","","","","","","null","","966.5","","3","1","null","null","arrowup","[0.675,0.325,0.15,0.85]","","",""
"sailing-trial","391","1594100","0.0-11.0-356.0","","","","false","","","","","","","","","","3253.5","","208.40000000223517","","3","1","arrowright","1","arrowright","[0.675,0.325,0.15,0.85]","","",""
"sailing-trial","392","1596795","0.0-11.0-357.0","","","","false","","","","","","","","","","null","","865.5","","3","1","null","null","arrowup","[0.675,0.325,0.15,0.85]","","",""
"sailing-trial","393","1600750","0.0-11.0-358.0","","","","false","","","","","","","","","","916.6000000014901","","120.59999999776483","","3","1","arrowright","1","arrowright","[0.675,0.325,0.15,0.85]","","",""
"sailing-trial","394","1604298","0.0-11.0-359.0","","","","false","","","","","","","","","","null","","1894","","3","1","null","null","arrowup","[0.675,0.325,0.15,0.85]","","",""
"sailing-trial","395","1608818","0.0-11.0-360.0","","","","false","","","","","","","","","","1198.8999999985099","","423.30000000074506","","3","1","arrowright","1","arrowright","[0.675,0.325,0.15,0.85]","","",""
"sailing-trial","396","1611848","0.0-11.0-361.0","","","","false","","","","","","","","","","null","","1043.1000000014901","","3","1","null","null","arrowup","[0.675,0.325,0.15,0.85]","","",""
"sailing-trial","397","1616743","0.0-11.0-362.0","","","","false","","","","","","","","","","1376.9000000022352","","85.70000000298023","","3","1","arrowright","1","arrowright","[0.675,0.325,0.15,0.85]","","",""
"sailing-trial","398","1620288","0.0-11.0-363.0","","","","false","","","","","","","","","","null","","1569.5","","3","1","null","null","arrowup","[0.675,0.325,0.15,0.85]","","",""
"sailing-trial","399","1624845","0.0-11.0-364.0","","","","false","","","","","","","","","","1017.3000000007451","","342.5","","3","1","arrowright","1","arrowright","[0.675,0.325,0.15,0.85]","","",""
"sailing-trial","400","1627205","0.0-11.0-365.0","","","","false","","","","","","","","","","null","","930.0999999977648","","2","0","null","null","arrowup","[0.675,0.325,0.15,0.85]","","",""
"sailing-trial","401","1634241","0.0-11.0-366.0","","","","false","","","","","","","","","","2497.39999999851","","509","","3","0","arrowright","1","arrowright","[0.675,0.325,0.15,0.85]","","",""
"sailing-trial","402","1638905","0.0-11.0-367.0","","","","false","","","","","","","","","","null","","2290.5","","3","1","null","null","arrowup","[0.675,0.325,0.15,0.85]","","",""
"sailing-trial","403","1645865","0.0-11.0-368.0","","","","false","","","","","","","","","","2650.199999999255","","460.29999999701977","","3","1","arrowright","1","arrowright","[0.675,0.325,0.15,0.85]","","",""
"sailing-trial","404","1648865","0.0-11.0-369.0","","","","false","","","","","","","","","","null","","1278.7000000029802","","0","0","null","null","arrowup","[0.675,0.325,0.15,0.85]","","",""
"sailing-trial","405","1653087","0.0-11.0-370.0","","","","false","","","","","","","","","","1231.5999999977648","","38.19999999925494","","3","1","arrowright","1","arrowright","[0.675,0.325,0.15,0.85]","","",""
"sailing-trial","406","1655861","0.0-11.0-371.0","","","","false","","","","","","","","","","null","","883.1999999992549","","0","1","null","null","arrowup","[0.675,0.325,0.15,0.85]","","",""
"sailing-trial","407","1659985","0.0-11.0-372.0","","","","false","","","","","","","","","","978.1999999992549","","245.19999999925494","","3","1","arrowright","1","arrowright","[0.675,0.325,0.15,0.85]","","",""
"sailing-trial","408","1662332","0.0-11.0-373.0","","","","false","","","","","","","","","","null","","898.5999999977648","","1","0","null","null","arrowup","[0.675,0.325,0.15,0.85]","","",""
"sailing-trial","409","1666279","0.0-11.0-374.0","","","","false","","","","","","","","","","1057","","28.599999997764826","","3","1","arrowright","1","arrowright","[0.675,0.325,0.15,0.85]","","",""
"sailing-trial","410","1669052","0.0-11.0-375.0","","","","false","","","","","","","","","","null","","1416.800000000745","","2","0","null","null","arrowup","[0.675,0.325,0.15,0.85]","","",""
"sailing-trial","411","1673352","0.0-11.0-376.0","","","","false","","","","","","","","","","715.5","","1040.0999999977648","","3","0","arrowright","1","arrowright","[0.85,0.15,0.325,0.675]","","",""
"sailing-trial","412","1676203","0.0-11.0-377.0","","","","false","","","","","","","","","","null","","785.0999999977648","","2","1","null","null","arrowup","[0.85,0.15,0.325,0.675]","","",""
"sailing-trial","413","1680856","0.0-11.0-378.0","","","","false","","","","","","","","","","1363.199999999255","","369.19999999925494","","2","1","arrowright","1","arrowleft","[0.85,0.15,0.325,0.675]","","",""
"sailing-trial","414","1683053","0.0-11.0-379.0","","","","false","","","","","","","","","","null","","855.1000000014901","","1","0","null","null","arrowup","[0.85,0.15,0.325,0.675]","","",""
"sailing-trial","415","1687053","0.0-11.0-380.0","","","","false","","","","","","","","","","803.5999999977648","","699.1999999992549","","2","0","arrowright","1","arrowleft","[0.85,0.15,0.325,0.675]","","",""
"sailing-trial","416","1689814","0.0-11.0-381.0","","","","false","","","","","","","","","","null","","853.7999999970198","","3","1","null","null","arrowup","[0.85,0.15,0.325,0.675]","","",""
"sailing-trial","417","1693791","0.0-11.0-382.0","","","","false","","","","","","","","","","776.8999999985099","","357","","3","1","arrowright","1","arrowright","[0.85,0.15,0.325,0.675]","","",""
"sailing-trial","418","1695927","0.0-11.0-383.0","","","","false","","","","","","","","","","null","","704.0999999977648","","2","0","null","null","arrowup","[0.85,0.15,0.325,0.675]","","",""
"sailing-trial","419","1699797","0.0-11.0-384.0","","","","false","","","","","","","","","","804.3999999985099","","144.30000000074506","","3","1","arrowright","1","arrowright","[0.85,0.15,0.325,0.675]","","",""
"sailing-trial","420","1702262","0.0-11.0-385.0","","","","false","","","","","","","","","","null","","792.8999999985099","","0","1","null","null","arrowup","[0.85,0.15,0.325,0.675]","","",""
"sailing-trial","421","1708029","0.0-11.0-386.0","","","","false","","","","","","","","","","1235.199999999255","","504.5","","3","0","arrowright","1","arrowright","[0.85,0.15,0.325,0.675]","","",""
"sailing-trial","422","1712034","0.0-11.0-387.0","","","","false","","","","","","","","","","null","","2144.89999999851","","0","1","null","null","arrowup","[0.85,0.15,0.325,0.675]","","",""
"sailing-trial","423","1716590","0.0-11.0-388.0","","","","false","","","","","","","","","","764","","503.1000000014901","","3","1","arrowright","1","arrowright","[0.85,0.15,0.325,0.675]","","",""
"sailing-trial","424","1718771","0.0-11.0-389.0","","","","false","","","","","","","","","","null","","821.8000000007451","","1","0","null","null","arrowup","[0.85,0.15,0.325,0.675]","","",""
"sailing-trial","425","1722544","0.0-11.0-390.0","","","","false","","","","","","","","","","690.2000000029802","","646.3999999985099","","3","0","arrowright","1","arrowright","[0.85,0.15,0.325,0.675]","","",""
"sailing-trial","426","1728024","0.0-11.0-391.0","","","","false","","","","","","","","","","null","","3610.89999999851","","0","1","null","null","arrowup","[0.85,0.15,0.325,0.675]","","",""
"sailing-trial","427","1733636","0.0-11.0-392.0","","","","false","","","","","","","","","","718.8999999985099","","1781.1000000014901","","3","1","arrowright","1","arrowright","[0.85,0.15,0.325,0.675]","","",""
"sailing-trial","428","1736656","0.0-11.0-393.0","","","","false","","","","","","","","","","null","","1061.3999999985099","","3","1","null","null","arrowup","[0.85,0.15,0.325,0.675]","","",""
"sailing-trial","429","1740836","0.0-11.0-394.0","","","","false","","","","","","","","","","698.1999999992549","","363.9000000022352","","3","1","arrowright","1","arrowright","[0.85,0.15,0.325,0.675]","","",""
"sailing-trial","430","1743693","0.0-11.0-395.0","","","","false","","","","","","","","","","null","","1076.5","","3","1","null","null","arrowup","[0.85,0.15,0.325,0.675]","","",""
"sailing-trial","431","1747917","0.0-11.0-396.0","","","","false","","","","","","","","","","620.6000000014901","","259.30000000074506","","3","0","arrowright","1","arrowright","[0.85,0.15,0.325,0.675]","","",""
"sailing-trial","432","1750243","0.0-11.0-397.0","","","","false","","","","","","","","","","null","","972.6999999992549","","1","0","null","null","arrowup","[0.85,0.15,0.325,0.675]","","",""
"sailing-trial","433","1754785","0.0-11.0-398.0","","","","false","","","","","","","","","","1340.2000000029802","","323.70000000298023","","2","1","arrowright","1","arrowleft","[0.85,0.15,0.325,0.675]","","",""
"sailing-trial","434","1757500","0.0-11.0-399.0","","","","false","","","","","","","","","","null","","831.6999999992549","","3","1","null","null","arrowup","[0.85,0.15,0.325,0.675]","","",""
"instructions","435","1766186","0.0-12.0","","","","","","","","","","8684.79999999702","","","","","","","","","","","","","","","","[{""page_index"":0,""viewing_time"":8682.89999999851}]"
"survey-debrief","436","1785135","0.0-13.0","","","","","","","","","","18944.89999999851","","","","","","","","","","","","","","{""difficulty"":""4"",""fun"":""1"",""clarity"":""5"",""strategy"":""no"",""feedback"":""falling asleep""}","",""
