"trial_type","trial_index","time_elapsed","internal_node_id","value","metadata","success","timeout","failed_images","failed_audio","failed_video","browser_interaction","low_quality","rt","stimulus","response","button_pressed","island_rt","island_response","boat_rt","boat_response","boat","reward","island_key","island","boat_key","reward_probabilities","responses","num_errors","view_history"
"pavlovia","0","2","0.0-0.0","","","","","","","","","","","","","","","","","","","","","","","","","",""
"call-function","1","2","0.0-1.0","","{""task_version"":""sailing_part1_v1"",""task_condition"":""good"",""boats"":[""A"",""B"",""C"",""D""],""boats_demo"":[""E"",""F"",""G"",""H""],""islands"":[""A"",""B""],""subject_id"":""15092"",""age"":""20"",""gender"":""Female""}","","","","","","","","","","","","","","","","","","","","","","","",""
"preload","2","13212","0.0-2.0","","","true","false","[]","[]","[]","[{""event"":""fullscreenenter"",""trial"":3,""time"":17024}]","false","","","","","","","","","","","","","","","","",""
"fullscreen","3","17998","0.0-3.0","","","true","","","","","","","","","","","","","","","","","","","","","","",""
"audio-keyboard-response","4","24123","0.0-4.0-0.0","","","","","","","","","","5250.666666666667","audio/beep_loop.wav"," ","","","","","","","","","","","","","",""
"audio-test","5","27295","0.0-4.0-1.0","","","","","","","","","","null","audio/turtle.mp3","","3","","","","","","","","","","","","",""
"audio-test","6","29685","0.0-4.0-2.0","","","","","","","","","","null","audio/shark.mp3","","2","","","","","","","","","","","","",""
"sailing-instructions","7","63492","0.0-5.0-0.0-0.0","","","","","","","","","","","","","","null","null","null","null","null","null","","","","","","",""
"sailing-trial","8","73524","0.0-5.0-0.0-1.0-0.0","","","","false","","","","","","","","","","8902.700000017881","","null","","null","null","arrowleft","0","null","null","","",""
"sailing-trial","9","75490","0.0-5.0-0.0-1.0-1.0","","","","false","","","","","","","","","","847.8000000119209","","null","","null","null","arrowright","1","null","null","","",""
"sailing-trial","10","78815","0.0-5.0-0.0-1.0-2.0","","","","false","","","","","","","","","","2185.5999999940395","","null","","null","null","arrowright","1","null","null","","",""
"sailing-instructions","11","125141","0.0-5.0-0.0-2.0","","","","","","","","","","","","","","null","null","null","null","0","null","","","","","","",""
"sailing-trial","12","130149","0.0-5.0-0.0-3.0-0.0","","","","false","","","","","","","","","","null","","1599.4000000059605","","2","1","null","null","arrowleft","[1,1,1,1]","","",""
"sailing-trial","13","135027","0.0-5.0-0.0-3.0-1.0","","","","false","","","","","","","","","","null","","1792.699999988079","","3","1","null","null","arrowright","[1,1,1,1]","","",""
"sailing-trial","14","138875","0.0-5.0-0.0-3.0-2.0","","","","false","","","","","","","","","","null","","1174.9000000059605","","2","0","null","null","arrowleft","[0,0,0,0]","","",""
"sailing-instructions","15","147357","0.0-5.0-0.0-4.0","","","","","","","","","","","","","","null","null","null","null","null","null","","","","","","",""
"sailing-comprehension","16","178493","0.0-5.0-0.0-5.0","","","","","","","","","","29203.90000000596","","","","","","","","","","","","","","[""true"",""true"",""false"",""true""]","0",""
"sailing-instructions","17","315888","0.0-6.0-0.0-0.0","","","","","","","","","","","","","","null","null","null","null","null","null","","","","","","",""
"sailing-comprehension","18","329077","0.0-6.0-0.0-1.0","","","","","","","","","","12093.5","","","","","","","","","","","","","","[""true"",""false"",""true""]","0",""
"sailing-instructions","19","347545","0.0-7.0-0.0-0.0","","","","","","","","","","","","","","null","null","null","null","null","null","","","","","","",""
"sailing-trial","20","352338","0.0-7.0-0.0-1.0-0.0","","","","false","","","","","","","","","","null","","2749.199999988079","","0","0","null","null","arrowup","[0.2,0.8,0.2,0.8]","","",""
"sailing-trial","21","354889","0.0-7.0-0.0-1.0-1.0","","","","false","","","","","","","","","","null","","1074.5999999940395","","1","0","null","null","arrowup","[0.2,0.8,0.2,0.8]","","",""
"sailing-trial","22","357498","0.0-7.0-0.0-1.0-2.0","","","","false","","","","","","","","","","null","","1224.4000000059605","","2","0","null","null","arrowup","[0.2,0.8,0.2,0.8]","","",""
"sailing-trial","23","362015","0.0-7.0-0.0-1.0-3.0","","","","false","","","","","","","","","","null","","2194.4000000059605","","3","1","null","null","arrowup","[0.2,0.8,0.2,0.8]","","",""
"sailing-comprehension","24","372334","0.0-7.0-0.0-2.0","","","","","","","","","","9335","","","","","","","","","","","","","","[""false""]","0",""
"sailing-instructions","25","384639","0.0-8.0-0.0-0.0","","","","","","","","","","","","","","null","null","null","null","null","null","","","","","","",""
"sailing-comprehension","26","389548","0.0-8.0-0.0-1.0","","","","","","","","","","3690","","","","","","","","","","","","","","[""true""]","0",""
"sailing-instructions","27","421121","0.0-9.0-0.0-0.0","","","","","","","","","","","","","","null","null","null","null","null","null","","","","","","",""
"sailing-trial","28","425712","0.0-9.0-0.0-1.0-0.0","","","","false","","","","","","","","","","1492.1000000238419","","273.10000002384186","","2","0","arrowright","1","arrowleft","[0.2,0.8,0.2,0.8]","","",""
"sailing-trial","29","429882","0.0-9.0-0.0-1.0-1.0","","","","false","","","","","","","","","","1046.9000000059605","","157.59999999403954","","3","1","arrowright","1","arrowright","[0.2,0.8,0.2,0.8]","","",""
"sailing-trial","30","433206","0.0-9.0-0.0-1.0-2.0","","","","false","","","","","","","","","","null","","1321.800000011921","","0","0","null","null","arrowup","[0.2,0.8,0.2,0.8]","","",""
"sailing-trial","31","437083","0.0-9.0-0.0-1.0-3.0","","","","false","","","","","","","","","","735.6999999880791","","439.89999997615814","","1","0","arrowleft","0","arrowright","[0.2,0.8,0.2,0.8]","","",""
"sailing-trial","32","441366","0.0-9.0-0.0-1.0-4.0","","","","false","","","","","","","","","","null","","2344.5","","3","1","null","null","arrowup","[0.2,0.8,0.2,0.8]","","",""
"sailing-trial","33","446616","0.0-9.0-0.0-1.0-5.0","","","","false","","","","","","","","","","1678.0999999940395","","1440.5","","0","0","arrowleft","0","arrowleft","[0.2,0.8,0.2,0.8]","","",""
"sailing-instructions","34","492471","0.0-10.0","","","","","","","","","","","","","","null","null","null","null","null","null","","","","","","",""
"sailing-trial","35","497436","0.0-11.0-0.0","","","","false","","","","","","","","","","1452.5","","268.80000001192093","","2","0","arrowright","1","arrowleft","[0.85,0.15,0.325,0.675]","","",""
"sailing-trial","36","502151","0.0-11.0-1.0","","","","false","","","","","","","","","","null","","3118.699999988079","","1","0","null","null","arrowup","[0.85,0.15,0.325,0.675]","","",""
"sailing-trial","37","506652","0.0-11.0-2.0","","","","false","","","","","","","","","","888.3000000119209","","757.5","","1","1","arrowleft","0","arrowright","[0.85,0.15,0.325,0.675]","","",""
"sailing-trial","38","511985","0.0-11.0-3.0","","","","false","","","","","","","","","","null","","3365.300000011921","","0","1","null","null","arrowup","[0.85,0.15,0.325,0.675]","","",""
"sailing-trial","39","515851","0.0-11.0-4.0","","","","false","","","","","","","","","","818","","358.5","","2","0","arrowright","1","arrowleft","[0.85,0.15,0.325,0.675]","","",""
"sailing-trial","40","520152","0.0-11.0-5.0","","","","false","","","","","","","","","","null","","2129.7000000178814","","0","1","null","null","arrowup","[0.85,0.15,0.325,0.675]","","",""
"sailing-trial","41","525551","0.0-11.0-6.0","","","","false","","","","","","","","","","512.9000000059605","","1894","","1","1","arrowleft","0","arrowright","[0.85,0.15,0.325,0.675]","","",""
"sailing-trial","42","529587","0.0-11.0-7.0","","","","false","","","","","","","","","","null","","2115.300000011921","","2","1","null","null","arrowup","[0.85,0.15,0.325,0.675]","","",""
"sailing-trial","43","534244","0.0-11.0-8.0","","","","false","","","","","","","","","","1056.9000000059605","","962.7999999821186","","0","0","arrowleft","0","arrowleft","[0.85,0.15,0.325,0.675]","","",""
"sailing-trial","44","538520","0.0-11.0-9.0","","","","false","","","","","","","","","","null","","2363.100000023842","","2","1","null","null","arrowup","[0.85,0.15,0.325,0.675]","","",""
"sailing-trial","45","543332","0.0-11.0-10.0","","","","false","","","","","","","","","","636","","583.1999999880791","","2","1","arrowright","1","arrowleft","[0.85,0.15,0.325,0.675]","","",""
"sailing-trial","46","548602","0.0-11.0-11.0","","","","false","","","","","","","","","","null","","3425.2000000178814","","1","0","null","null","arrowup","[0.85,0.15,0.325,0.675]","","",""
"sailing-trial","47","553531","0.0-11.0-12.0","","","","false","","","","","","","","","","754.4000000059605","","861","","0","1","arrowleft","0","arrowleft","[0.85,0.15,0.325,0.675]","","",""
"sailing-trial","48","557484","0.0-11.0-13.0","","","","false","","","","","","","","","","null","","2118.5","","2","1","null","null","arrowup","[0.85,0.15,0.325,0.675]","","",""
"sailing-trial","49","562036","0.0-11.0-14.0","","","","false","","","","","","","","","","1094.9000000059605","","250.89999997615814","","2","0","arrowright","1","arrowleft","[0.85,0.15,0.325,0.675]","","",""
"sailing-trial","50","565530","0.0-11.0-15.0","","","","false","","","","","","","","","","null","","1948.800000011921","","2","0","null","null","arrowup","[0.85,0.15,0.325,0.675]","","",""
"sailing-trial","51","569074","0.0-11.0-16.0","","","","false","","","","","","","","","","560.4000000059605","","401.90000000596046","","3","0","arrowright","1","arrowright","[0.85,0.15,0.325,0.675]","","",""
"sailing-trial","52","573265","0.0-11.0-17.0","","","","false","","","","","","","","","","null","","2310.199999988079","","0","1","null","null","arrowup","[0.85,0.15,0.325,0.675]","","",""
"sailing-trial","53","576118","0.0-11.0-18.0","","","","false","","","","","","","","","","463.59999999403954","","256.60000002384186","","1","0","arrowleft","0","arrowright","[0.675,0.325,0.15,0.85]","","",""
"sailing-trial","54","579362","0.0-11.0-19.0","","","","false","","","","","","","","","","null","","1670.0999999940395","","2","0","null","null","arrowup","[0.675,0.325,0.15,0.85]","","",""
"sailing-trial","55","584243","0.0-11.0-20.0","","","","false","","","","","","","","","","2160","","21.5","","0","0","arrowleft","0","arrowleft","[0.675,0.325,0.15,0.85]","","",""
"sailing-trial","56","587514","0.0-11.0-21.0","","","","false","","","","","","","","","","null","","1379.300000011921","","0","1","null","null","arrowup","[0.675,0.325,0.15,0.85]","","",""
"sailing-trial","57","591254","0.0-11.0-22.0","","","","false","","","","","","","","","","851.5999999940395","","75.5","","1","0","arrowleft","0","arrowright","[0.675,0.325,0.15,0.85]","","",""
"sailing-trial","58","594864","0.0-11.0-23.0","","","","false","","","","","","","","","","null","","1651.199999988079","","3","1","null","null","arrowup","[0.675,0.325,0.15,0.85]","","",""
"sailing-trial","59","599606","0.0-11.0-24.0","","","","false","","","","","","","","","","605","","349.40000000596046","","3","1","arrowright","1","arrowright","[0.675,0.325,0.15,0.85]","","",""
"sailing-trial","60","602852","0.0-11.0-25.0","","","","false","","","","","","","","","","null","","1399","","1","1","null","null","arrowup","[0.675,0.325,0.15,0.85]","","",""
"sailing-trial","61","606559","0.0-11.0-26.0","","","","false","","","","","","","","","","478.09999999403954","","517.0999999940395","","2","0","arrowright","1","arrowleft","[0.675,0.325,0.15,0.85]","","",""
"sailing-trial","62","609852","0.0-11.0-27.0","","","","false","","","","","","","","","","null","","1194.2000000178814","","3","1","null","null","arrowup","[0.675,0.325,0.15,0.85]","","",""
"sailing-trial","63","613985","0.0-11.0-28.0","","","","false","","","","","","","","","","651.5","","281.90000000596046","","3","1","arrowright","1","arrowright","[0.675,0.325,0.15,0.85]","","",""
"sailing-trial","64","617022","0.0-11.0-29.0","","","","false","","","","","","","","","","null","","1197","","0","1","null","null","arrowup","[0.675,0.325,0.15,0.85]","","",""
"sailing-trial","65","620461","0.0-11.0-30.0","","","","false","","","","","","","","","","418.80000001192093","","217.90000000596046","","3","1","arrowright","1","arrowright","[0.675,0.325,0.15,0.85]","","",""
"sailing-trial","66","623353","0.0-11.0-31.0","","","","false","","","","","","","","","","null","","1230.4000000059605","","3","1","null","null","arrowup","[0.675,0.325,0.15,0.85]","","",""
"sailing-trial","67","627169","0.0-11.0-32.0","","","","false","","","","","","","","","","494","","214.40000000596046","","3","1","arrowright","1","arrowright","[0.675,0.325,0.15,0.85]","","",""
"sailing-trial","68","630235","0.0-11.0-33.0","","","","false","","","","","","","","","","null","","1375.7000000178814","","1","1","null","null","arrowup","[0.675,0.325,0.15,0.85]","","",""
"sailing-trial","69","635108","0.0-11.0-34.0","","","","false","","","","","","","","","","429","","650.5","","3","1","arrowright","1","arrowright","[0.85,0.15,0.325,0.675]","","",""
"sailing-trial","70","637351","0.0-11.0-35.0","","","","false","","","","","","","","","","null","","914.4000000059605","","2","0","null","null","arrowup","[0.85,0.15,0.325,0.675]","","",""
"sailing-trial","71","642169","0.0-11.0-36.0","","","","false","","","","","","","","","","589.4000000059605","","574.0999999940395","","3","1","arrowright","1","arrowright","[0.85,0.15,0.325,0.675]","","",""
"sailing-trial","72","645868","0.0-11.0-37.0","","","","false","","","","","","","","","","null","","1766.8999999761581","","0","1","null","null","arrowup","[0.85,0.15,0.325,0.675]","","",""
"sailing-trial","73","650635","0.0-11.0-38.0","","","","false","","","","","","","","","","834.6999999880791","","521.5999999940395","","3","1","arrowright","1","arrowright","[0.85,0.15,0.325,0.675]","","",""
"sailing-trial","74","653035","0.0-11.0-39.0","","","","false","","","","","","","","","","null","","1052.5","","3","0","null","null","arrowup","[0.85,0.15,0.325,0.675]","","",""
"sailing-trial","75","657540","0.0-11.0-40.0","","","","false","","","","","","","","","","713.3000000119209","","847.4000000059605","","3","1","arrowright","1","arrowright","[0.85,0.15,0.325,0.675]","","",""
"sailing-trial","76","660173","0.0-11.0-41.0","","","","false","","","","","","","","","","null","","936.3000000119209","","0","1","null","null","arrowup","[0.85,0.15,0.325,0.675]","","",""
"sailing-trial","77","664721","0.0-11.0-42.0","","","","false","","","","","","","","","","526.3000000119209","","520.4000000059605","","3","1","arrowright","1","arrowright","[0.85,0.15,0.325,0.675]","","",""
"sailing-trial","78","667805","0.0-11.0-43.0","","","","false","","","","","","","","","","null","","1760.8999999761581","","3","0","null","null","arrowup","[0.85,0.15,0.325,0.675]","","",""
"sailing-trial","79","671257","0.0-11.0-44.0","","","","false","","","","","","","","","","525.1999999880791","","8.599999994039536","","3","1","arrowright","1","arrowright","[0.85,0.15,0.325,0.675]","","",""
"sailing-trial","80","675191","0.0-11.0-45.0","","","","false","","","","","","","","","","null","","1916.5","","1","1","null","null","arrowup","[0.85,0.15,0.325,0.675]","","",""
"sailing-trial","81","679439","0.0-11.0-46.0","","","","false","","","","","","","","","","554.8000000119209","","605.8000000119209","","3","1","arrowright","1","arrowright","[0.85,0.15,0.325,0.675]","","",""
"sailing-trial","82","682512","0.0-11.0-47.0","","","","false","","","","","","","","","","null","","1471.2000000178814","","1","0","null","null","arrowup","[0.85,0.15,0.325,0.675]","","",""
"sailing-trial","83","688207","0.0-11.0-48.0","","","","false","","","","","","","","","","1361.300000011921","","1281.6000000238419","","3","1","arrowright","1","arrowright","[0.85,0.15,0.325,0.675]","","",""
"sailing-trial","84","690431","0.0-11.0-49.0","","","","false","","","","","","","","","","null","","869.1999999880791","","1","0","null","null","arrowup","[0.85,0.15,0.325,0.675]","","",""
"sailing-trial","85","694072","0.0-11.0-50.0","","","","false","","","","","","","","","","487.2000000178814","","215.19999998807907","","3","1","arrowright","1","arrowright","[0.675,0.325,0.15,0.85]","","",""
"sailing-trial","86","697087","0.0-11.0-51.0","","","","false","","","","","","","","","","null","","1741.2999999821186","","1","0","null","null","arrowup","[0.675,0.325,0.15,0.85]","","",""
"sailing-trial","87","701139","0.0-11.0-52.0","","","","false","","","","","","","","","","752.8999999761581","","169.40000000596046","","3","1","arrowright","1","arrowright","[0.675,0.325,0.15,0.85]","","",""
"sailing-trial","88","705075","0.0-11.0-53.0","","","","false","","","","","","","","","","null","","2093.5999999940395","","0","1","null","null","arrowup","[0.675,0.325,0.15,0.85]","","",""
"sailing-trial","89","709105","0.0-11.0-54.0","","","","false","","","","","","","","","","482.2000000178814","","656.6999999880791","","3","1","arrowright","1","arrowright","[0.675,0.325,0.15,0.85]","","",""
"sailing-trial","90","712311","0.0-11.0-55.0","","","","false","","","","","","","","","","null","","1395.1000000238419","","3","1","null","null","arrowup","[0.675,0.325,0.15,0.85]","","",""
"sailing-trial","91","715671","0.0-11.0-56.0","","","","false","","","","","","","","","","191.90000000596046","","180.60000002384186","","3","1","arrowright","1","arrowright","[0.675,0.325,0.15,0.85]","","",""
"sailing-trial","92","718707","0.0-11.0-57.0","","","","false","","","","","","","","","","null","","1820.3999999761581","","0","0","null","null","arrowup","[0.675,0.325,0.15,0.85]","","",""
"sailing-trial","93","722237","0.0-11.0-58.0","","","","false","","","","","","","","","","404.19999998807907","","358.40000000596046","","3","1","arrowright","1","arrowright","[0.675,0.325,0.15,0.85]","","",""
"sailing-trial","94","725121","0.0-11.0-59.0","","","","false","","","","","","","","","","null","","1034.4000000059605","","0","1","null","null","arrowup","[0.675,0.325,0.15,0.85]","","",""
"sailing-trial","95","729455","0.0-11.0-60.0","","","","false","","","","","","","","","","1348","","270.10000002384186","","3","1","arrowright","1","arrowright","[0.675,0.325,0.15,0.85]","","",""
"sailing-trial","96","732087","0.0-11.0-61.0","","","","false","","","","","","","","","","null","","1079.6000000238419","","0","1","null","null","arrowup","[0.675,0.325,0.15,0.85]","","",""
"sailing-trial","97","735772","0.0-11.0-62.0","","","","false","","","","","","","","","","914.5","","122.30000001192093","","3","1","arrowright","1","arrowright","[0.675,0.325,0.15,0.85]","","",""
"sailing-trial","98","738784","0.0-11.0-63.0","","","","false","","","","","","","","","","null","","1841.0999999940395","","2","0","null","null","arrowup","[0.675,0.325,0.15,0.85]","","",""
"sailing-trial","99","744121","0.0-11.0-64.0","","","","false","","","","","","","","","","1855.5999999940395","","788.1999999880791","","3","1","arrowright","1","arrowright","[0.675,0.325,0.15,0.85]","","",""
"sailing-trial","100","746421","0.0-11.0-65.0","","","","false","","","","","","","","","","null","","1286.2999999821186","","0","0","null","null","arrowup","[0.675,0.325,0.15,0.85]","","",""
"sailing-trial","101","750395","0.0-11.0-66.0","","","","false","","","","","","","","","","1000.4000000059605","","216.5","","3","1","arrowright","1","arrowright","[0.675,0.325,0.15,0.85]","","",""
"sailing-trial","102","753443","0.0-11.0-67.0","","","","false","","","","","","","","","","null","","1622.5","","2","0","null","null","arrowup","[0.675,0.325,0.15,0.85]","","",""
"sailing-trial","103","756386","0.0-11.0-68.0","","","","false","","","","","","","","","","440.40000000596046","","246.90000000596046","","3","0","arrowright","1","arrowright","[0.675,0.325,0.15,0.85]","","",""
"sailing-trial","104","759628","0.0-11.0-69.0","","","","false","","","","","","","","","","null","","1273.300000011921","","3","1","null","null","arrowup","[0.675,0.325,0.15,0.85]","","",""
"sailing-trial","105","762855","0.0-11.0-70.0","","","","false","","","","","","","","","","350.80000001192093","","187","","3","1","arrowright","1","arrowright","[0.85,0.15,0.325,0.675]","","",""
"sailing-trial","106","765439","0.0-11.0-71.0","","","","false","","","","","","","","","","null","","932.0999999940395","","0","1","null","null","arrowup","[0.85,0.15,0.325,0.675]","","",""
"sailing-trial","107","769439","0.0-11.0-72.0","","","","false","","","","","","","","","","826.2999999821186","","33.099999994039536","","0","1","arrowleft","0","arrowleft","[0.85,0.15,0.325,0.675]","","",""
"sailing-trial","108","771516","0.0-11.0-73.0","","","","false","","","","","","","","","","null","","396.40000000596046","","1","0","null","null","arrowup","[0.85,0.15,0.325,0.675]","","",""
"sailing-trial","109","775638","0.0-11.0-74.0","","","","false","","","","","","","","","","1617","","405.30000001192093","","0","0","arrowleft","0","arrowleft","[0.85,0.15,0.325,0.675]","","",""
"sailing-trial","110","779144","0.0-11.0-75.0","","","","false","","","","","","","","","","null","","1762.4000000059605","","3","1","null","null","arrowup","[0.85,0.15,0.325,0.675]","","",""
"sailing-trial","111","782458","0.0-11.0-76.0","","","","false","","","","","","","","","","459.5","","149.10000002384186","","3","1","arrowright","1","arrowright","[0.85,0.15,0.325,0.675]","","",""
"sailing-trial","112","784876","0.0-11.0-77.0","","","","false","","","","","","","","","","null","","820","","0","1","null","null","arrowup","[0.85,0.15,0.325,0.675]","","",""
"sailing-trial","113","787625","0.0-11.0-78.0","","","","false","","","","","","","","","","396.59999999403954","","77.60000002384186","","3","0","arrowright","1","arrowright","[0.85,0.15,0.325,0.675]","","",""
"sailing-trial","114","790026","0.0-11.0-79.0","","","","false","","","","","","","","","","null","","741.3000000119209","","3","1","null","null","arrowup","[0.85,0.15,0.325,0.675]","","",""
"sailing-trial","115","793425","0.0-11.0-80.0","","","","false","","","","","","","","","","344.89999997615814","","68.39999997615814","","3","1","arrowright","1","arrowright","[0.85,0.15,0.325,0.675]","","",""
"sailing-trial","116","795121","0.0-11.0-81.0","","","","false","","","","","","","","","","null","","554.6000000238419","","1","0","null","null","arrowup","[0.85,0.15,0.325,0.675]","","",""
"sailing-trial","117","798859","0.0-11.0-82.0","","","","false","","","","","","","","","","369.19999998807907","","262.30000001192093","","3","1","arrowright","1","arrowright","[0.85,0.15,0.325,0.675]","","",""
"sailing-trial","118","800691","0.0-11.0-83.0","","","","false","","","","","","","","","","null","","113.69999998807907","","2","1","null","null","arrowup","[0.85,0.15,0.325,0.675]","","",""
"sailing-trial","119","803142","0.0-11.0-84.0","","","","false","","","","","","","","","","141.30000001192093","","57.70000001788139","","3","0","arrowright","1","arrowright","[0.85,0.15,0.325,0.675]","","",""
"sailing-trial","120","805407","0.0-11.0-85.0","","","","false","","","","","","","","","","null","","1123.8999999761581","","3","0","null","null","arrowup","[0.85,0.15,0.325,0.675]","","",""
"sailing-trial","121","808402","0.0-11.0-86.0","","","","false","","","","","","","","","","483.19999998807907","","420.2999999821186","","2","0","arrowright","1","arrowleft","[0.85,0.15,0.325,0.675]","","",""
"sailing-trial","122","811706","0.0-11.0-87.0","","","","false","","","","","","","","","","null","","2188.5999999940395","","2","0","null","null","arrowup","[0.85,0.15,0.325,0.675]","","",""
"sailing-trial","123","814909","0.0-11.0-88.0","","","","false","","","","","","","","","","553.8000000119209","","175.2000000178814","","3","0","arrowright","1","arrowright","[0.325,0.675,0.85,0.15]","","",""
"sailing-trial","124","817976","0.0-11.0-89.0","","","","false","","","","","","","","","","null","","1481.7000000178814","","2","1","null","null","arrowup","[0.325,0.675,0.85,0.15]","","",""
"sailing-trial","125","821748","0.0-11.0-90.0","","","","false","","","","","","","","","","140.7999999821186","","126.5","","3","0","arrowright","1","arrowright","[0.325,0.675,0.85,0.15]","","",""
"sailing-trial","126","824760","0.0-11.0-91.0","","","","false","","","","","","","","","","null","","1403.4000000059605","","1","1","null","null","arrowup","[0.325,0.675,0.85,0.15]","","",""
"sailing-trial","127","827405","0.0-11.0-92.0","","","","false","","","","","","","","","","89.30000001192093","","111.2999999821186","","3","0","arrowright","1","arrowright","[0.325,0.675,0.85,0.15]","","",""
"sailing-trial","128","830526","0.0-11.0-93.0","","","","false","","","","","","","","","","null","","1740.5","","3","0","null","null","arrowup","[0.325,0.675,0.85,0.15]","","",""
"sailing-trial","129","834144","0.0-11.0-94.0","","","","false","","","","","","","","","","954.2000000178814","","99.59999999403954","","0","1","arrowleft","0","arrowleft","[0.325,0.675,0.85,0.15]","","",""
"sailing-trial","130","836093","0.0-11.0-95.0","","","","false","","","","","","","","","","null","","793","","0","0","null","null","arrowup","[0.325,0.675,0.85,0.15]","","",""
"sailing-trial","131","838824","0.0-11.0-96.0","","","","false","","","","","","","","","","535.0999999940395","","91.90000000596046","","0","0","arrowleft","0","arrowleft","[0.325,0.675,0.85,0.15]","","",""
"sailing-trial","132","840277","0.0-11.0-97.0","","","","false","","","","","","","","","","null","","368.69999998807907","","0","0","null","null","arrowup","[0.325,0.675,0.85,0.15]","","",""
"sailing-trial","133","843740","0.0-11.0-98.0","","","","false","","","","","","","","","","401.90000000596046","","177.09999999403954","","2","1","arrowright","1","arrowleft","[0.325,0.675,0.85,0.15]","","",""
"sailing-trial","134","846446","0.0-11.0-99.0","","","","false","","","","","","","","","","null","","1526.0999999940395","","3","0","null","null","arrowup","[0.325,0.675,0.85,0.15]","","",""
"sailing-trial","135","849538","0.0-11.0-100.0","","","","false","","","","","","","","","","837.5","","6.0999999940395355","","1","0","arrowleft","0","arrowright","[0.325,0.675,0.85,0.15]","","",""
"sailing-trial","136","852577","0.0-11.0-101.0","","","","false","","","","","","","","","","null","","1515.5999999940395","","2","1","null","null","arrowup","[0.325,0.675,0.85,0.15]","","",""
"sailing-trial","137","856127","0.0-11.0-102.0","","","","false","","","","","","","","","","434.40000000596046","","90","","2","1","arrowright","1","arrowleft","[0.325,0.675,0.85,0.15]","","",""
"sailing-trial","138","858791","0.0-11.0-103.0","","","","false","","","","","","","","","","null","","1017.1999999880791","","1","1","null","null","arrowup","[0.325,0.675,0.85,0.15]","","",""
"sailing-trial","139","862261","0.0-11.0-104.0","","","","false","","","","","","","","","","344.40000000596046","","162.5","","2","1","arrowright","1","arrowleft","[0.325,0.675,0.85,0.15]","","",""
"sailing-trial","140","865140","0.0-11.0-105.0","","","","false","","","","","","","","","","null","","1157.2000000178814","","2","1","null","null","arrowup","[0.325,0.675,0.85,0.15]","","",""
"sailing-trial","141","867876","0.0-11.0-106.0","","","","false","","","","","","","","","","95.59999999403954","","77.39999997615814","","2","1","arrowright","1","arrowleft","[0.325,0.675,0.85,0.15]","","",""
"sailing-trial","142","870416","0.0-11.0-107.0","","","","false","","","","","","","","","","null","","1452.8999999761581","","3","0","null","null","arrowup","[0.325,0.675,0.85,0.15]","","",""
"sailing-trial","143","873148","0.0-11.0-108.0","","","","false","","","","","","","","","","488.69999998807907","","86.19999998807907","","2","0","arrowright","1","arrowleft","[0.85,0.15,0.325,0.675]","","",""
"sailing-trial","144","876176","0.0-11.0-109.0","","","","false","","","","","","","","","","null","","1468.7999999821186","","0","1","null","null","arrowup","[0.85,0.15,0.325,0.675]","","",""
"sailing-trial","145","879112","0.0-11.0-110.0","","","","false","","","","","","","","","","699.2999999821186","","66.69999998807907","","2","0","arrowright","1","arrowleft","[0.85,0.15,0.325,0.675]","","",""
"sailing-trial","146","881398","0.0-11.0-111.0","","","","false","","","","","","","","","","null","","1217.800000011921","","3","0","null","null","arrowup","[0.85,0.15,0.325,0.675]","","",""
"sailing-trial","147","887123","0.0-11.0-112.0","","","","false","","","","","","","","","","458.40000000596046","","2585.9000000059605","","0","1","arrowleft","0","arrowleft","[0.85,0.15,0.325,0.675]","","",""
"sailing-trial","148","889556","0.0-11.0-113.0","","","","false","","","","","","","","","","null","","760.2000000178814","","0","1","null","null","arrowup","[0.85,0.15,0.325,0.675]","","",""
"sailing-trial","149","892573","0.0-11.0-114.0","","","","false","","","","","","","","","","185.80000001192093","","126.5","","0","1","arrowleft","0","arrowleft","[0.85,0.15,0.325,0.675]","","",""
"sailing-trial","150","895107","0.0-11.0-115.0","","","","false","","","","","","","","","","null","","884.7000000178814","","2","1","null","null","arrowup","[0.85,0.15,0.325,0.675]","","",""
"sailing-trial","151","898541","0.0-11.0-116.0","","","","false","","","","","","","","","","547","","30.80000001192093","","0","1","arrowleft","0","arrowleft","[0.85,0.15,0.325,0.675]","","",""
"sailing-trial","152","900857","0.0-11.0-117.0","","","","false","","","","","","","","","","null","","1231.5","","1","0","null","null","arrowup","[0.85,0.15,0.325,0.675]","","",""
"sailing-trial","153","904200","0.0-11.0-118.0","","","","false","","","","","","","","","","575.6999999880791","","42.20000001788139","","0","0","arrowleft","0","arrowleft","[0.85,0.15,0.325,0.675]","","",""
"sailing-trial","154","906674","0.0-11.0-119.0","","","","false","","","","","","","","","","null","","897.2000000178814","","1","1","null","null","arrowup","[0.85,0.15,0.325,0.675]","","",""
"sailing-trial","155","908988","0.0-11.0-120.0","","","","false","","","","","","","","","","233.19999998807907","","4.800000011920929","","1","0","arrowleft","0","arrowright","[0.85,0.15,0.325,0.675]","","",""
"sailing-trial","156","911223","0.0-11.0-121.0","","","","false","","","","","","","","","","null","","1031.4000000059605","","1","0","null","null","arrowup","[0.85,0.15,0.325,0.675]","","",""
"sailing-trial","157","914182","0.0-11.0-122.0","","","","false","","","","","","","","","","516.1999999880791","","406","","1","0","arrowleft","0","arrowright","[0.85,0.15,0.325,0.675]","","",""
"sailing-trial","158","918347","0.0-11.0-123.0","","","","false","","","","","","","","","","null","","2462.7000000178814","","3","1","null","null","arrowup","[0.85,0.15,0.325,0.675]","","",""
"sailing-trial","159","922145","0.0-11.0-124.0","","","","false","","","","","","","","","","645.4000000059605","","248","","3","1","arrowright","1","arrowright","[0.85,0.15,0.325,0.675]","","",""
"sailing-trial","160","924186","0.0-11.0-125.0","","","","false","","","","","","","","","","null","","812.0999999940395","","2","0","null","null","arrowup","[0.85,0.15,0.325,0.675]","","",""
"sailing-trial","161","928992","0.0-11.0-126.0","","","","false","","","","","","","","","","575.2999999821186","","1134.5999999940395","","3","1","arrowright","1","arrowright","[0.85,0.15,0.325,0.675]","","",""
"sailing-trial","162","931376","0.0-11.0-127.0","","","","false","","","","","","","","","","null","","795.5","","0","1","null","null","arrowup","[0.85,0.15,0.325,0.675]","","",""
"sailing-trial","163","934514","0.0-11.0-128.0","","","","false","","","","","","","","","","109","","199.5","","3","1","arrowright","1","arrowright","[0.675,0.325,0.15,0.85]","","",""
"sailing-trial","164","936574","0.0-11.0-129.0","","","","false","","","","","","","","","","null","","1004.3000000119209","","2","0","null","null","arrowup","[0.675,0.325,0.15,0.85]","","",""
"sailing-trial","165","940691","0.0-11.0-130.0","","","","false","","","","","","","","","","523.8000000119209","","804","","3","1","arrowright","1","arrowright","[0.675,0.325,0.15,0.85]","","",""
"sailing-trial","166","943825","0.0-11.0-131.0","","","","false","","","","","","","","","","null","","352","","0","1","null","null","arrowup","[0.675,0.325,0.15,0.85]","","",""
"sailing-trial","167","947259","0.0-11.0-132.0","","","","false","","","","","","","","","","661.4000000059605","","190.19999998807907","","3","1","arrowright","1","arrowright","[0.675,0.325,0.15,0.85]","","",""
"sailing-trial","168","949814","0.0-11.0-133.0","","","","false","","","","","","","","","","null","","1319.5","","2","0","null","null","arrowup","[0.675,0.325,0.15,0.85]","","",""
"sailing-trial","169","953177","0.0-11.0-134.0","","","","false","","","","","","","","","","578.8000000119209","","212.7999999821186","","3","1","arrowright","1","arrowright","[0.675,0.325,0.15,0.85]","","",""
"sailing-trial","170","954842","0.0-11.0-135.0","","","","false","","","","","","","","","","null","","588.0999999940395","","2","0","null","null","arrowup","[0.675,0.325,0.15,0.85]","","",""
"sailing-trial","171","957993","0.0-11.0-136.0","","","","false","","","","","","","","","","358.10000002384186","","154.59999999403954","","3","1","arrowright","1","arrowright","[0.675,0.325,0.15,0.85]","","",""
"sailing-trial","172","961031","0.0-11.0-137.0","","","","false","","","","","","","","","","null","","1378","","3","1","null","null","arrowup","[0.675,0.325,0.15,0.85]","","",""
"sailing-trial","173","963978","0.0-11.0-138.0","","","","false","","","","","","","","","","12.199999988079071","","74.5","","3","1","arrowright","1","arrowright","[0.675,0.325,0.15,0.85]","","",""
"sailing-trial","174","966280","0.0-11.0-139.0","","","","false","","","","","","","","","","null","","253.30000001192093","","1","1","null","null","arrowup","[0.675,0.325,0.15,0.85]","","",""
"sailing-trial","175","969163","0.0-11.0-140.0","","","","false","","","","","","","","","","129.80000001192093","","120.7999999821186","","3","1","arrowright","1","arrowright","[0.675,0.325,0.15,0.85]","","",""
"sailing-trial","176","970837","0.0-11.0-141.0","","","","false","","","","","","","","","","null","","571","","1","0","null","null","arrowup","[0.675,0.325,0.15,0.85]","","",""
"sailing-trial","177","973642","0.0-11.0-142.0","","","","false","","","","","","","","","","370.69999998807907","","230.40000000596046","","3","0","arrowright","1","arrowright","[0.675,0.325,0.15,0.85]","","",""
"sailing-trial","178","975689","0.0-11.0-143.0","","","","false","","","","","","","","","","null","","815.6999999880791","","2","0","null","null","arrowup","[0.675,0.325,0.15,0.85]","","",""
"sailing-trial","179","978898","0.0-11.0-144.0","","","","false","","","","","","","","","","402.5","","201.19999998807907","","3","1","arrowright","1","arrowright","[0.675,0.325,0.15,0.85]","","",""
"sailing-trial","180","981237","0.0-11.0-145.0","","","","false","","","","","","","","","","null","","1021.8000000119209","","1","0","null","null","arrowup","[0.675,0.325,0.15,0.85]","","",""
"sailing-trial","181","984296","0.0-11.0-146.0","","","","false","","","","","","","","","","211.09999999403954","","160","","3","1","arrowright","1","arrowright","[0.675,0.325,0.15,0.85]","","",""
"sailing-trial","182","985769","0.0-11.0-147.0","","","","false","","","","","","","","","","null","","394.09999999403954","","1","0","null","null","arrowup","[0.675,0.325,0.15,0.85]","","",""
"sailing-trial","183","988695","0.0-11.0-148.0","","","","false","","","","","","","","","","171.19999998807907","","48.599999994039536","","3","1","arrowright","1","arrowright","[0.675,0.325,0.15,0.85]","","",""
"sailing-trial","184","990798","0.0-11.0-149.0","","","","false","","","","","","","","","","null","","518","","1","1","null","null","arrowup","[0.675,0.325,0.15,0.85]","","",""
"sailing-trial","185","993630","0.0-11.0-150.0","","","","false","","","","","","","","","","107.69999998807907","","125.90000000596046","","3","1","arrowright","1","arrowright","[0.675,0.325,0.15,0.85]","","",""
"sailing-trial","186","996117","0.0-11.0-151.0","","","","false","","","","","","","","","","null","","807.6000000238419","","3","1","null","null","arrowup","[0.675,0.325,0.15,0.85]","","",""
"sailing-trial","187","998375","0.0-11.0-152.0","","","","false","","","","","","","","","","104","","52.80000001192093","","3","0","arrowright","1","arrowright","[0.85,0.15,0.325,0.675]","","",""
"sailing-trial","188","1001679","0.0-11.0-153.0","","","","false","","","","","","","","","","null","","927.8999999761581","","3","0","null","null","arrowup","[0.85,0.15,0.325,0.675]","","",""
"sailing-trial","189","1004845","0.0-11.0-154.0","","","","false","","","","","","","","","","342.30000001192093","","172.39999997615814","","3","1","arrowright","1","arrowright","[0.85,0.15,0.325,0.675]","","",""
"sailing-trial","190","1006599","0.0-11.0-155.0","","","","false","","","","","","","","","","null","","374.89999997615814","","3","0","null","null","arrowup","[0.85,0.15,0.325,0.675]","","",""
"sailing-trial","191","1009896","0.0-11.0-156.0","","","","false","","","","","","","","","","470.09999999403954","","103.59999999403954","","3","0","arrowright","1","arrowright","[0.85,0.15,0.325,0.675]","","",""
"sailing-trial","192","1012268","0.0-11.0-157.0","","","","false","","","","","","","","","","null","","694.9000000059605","","0","1","null","null","arrowup","[0.85,0.15,0.325,0.675]","","",""
"sailing-trial","193","1015701","0.0-11.0-158.0","","","","false","","","","","","","","","","158.59999999403954","","700.5999999940395","","3","1","arrowright","1","arrowright","[0.85,0.15,0.325,0.675]","","",""
"sailing-trial","194","1017879","0.0-11.0-159.0","","","","false","","","","","","","","","","null","","625.0999999940395","","2","1","null","null","arrowup","[0.85,0.15,0.325,0.675]","","",""
"sailing-trial","195","1021003","0.0-11.0-160.0","","","","false","","","","","","","","","","115","","124.59999999403954","","3","1","arrowright","1","arrowright","[0.85,0.15,0.325,0.675]","","",""
"sailing-trial","196","1022560","0.0-11.0-161.0","","","","false","","","","","","","","","","null","","158.40000000596046","","3","0","null","null","arrowup","[0.85,0.15,0.325,0.675]","","",""
"sailing-trial","197","1025364","0.0-11.0-162.0","","","","false","","","","","","","","","","610.1999999880791","","147.5","","3","0","arrowright","1","arrowright","[0.85,0.15,0.325,0.675]","","",""
"sailing-trial","198","1027396","0.0-11.0-163.0","","","","false","","","","","","","","","","null","","960","","2","0","null","null","arrowup","[0.85,0.15,0.325,0.675]","","",""
"sailing-trial","199","1030463","0.0-11.0-164.0","","","","false","","","","","","","","","","329.5","","137","","3","1","arrowright","1","arrowright","[0.85,0.15,0.325,0.675]","","",""
"sailing-trial","200","1032112","0.0-11.0-165.0","","","","false","","","","","","","","","","null","","471.69999998807907","","2","0","null","null","arrowup","[0.85,0.15,0.325,0.675]","","",""
"sailing-trial","201","1034580","0.0-11.0-166.0","","","","false","","","","","","","","","","308.5","","2.5999999940395355","","3","0","arrowright","1","arrowright","[0.85,0.15,0.325,0.675]","","",""
"sailing-trial","202","1036915","0.0-11.0-167.0","","","","false","","","","","","","","","","null","","742","","2","1","null","null","arrowup","[0.85,0.15,0.325,0.675]","","",""
"sailing-trial","203","1039528","0.0-11.0-168.0","","","","false","","","","","","","","","","143","","153.80000001192093","","3","0","arrowright","1","arrowright","[0.15,0.85,0.675,0.325]","","",""
"sailing-trial","204","1041986","0.0-11.0-169.0","","","","false","","","","","","","","","","null","","821","","1","1","null","null","arrowup","[0.15,0.85,0.675,0.325]","","",""
"sailing-trial","205","1044459","0.0-11.0-170.0","","","","false","","","","","","","","","","146","","105.5","","3","0","arrowright","1","arrowright","[0.15,0.85,0.675,0.325]","","",""
"sailing-trial","206","1046763","0.0-11.0-171.0","","","","false","","","","","","","","","","null","","689.9000000059605","","3","1","null","null","arrowup","[0.15,0.85,0.675,0.325]","","",""
"sailing-trial","207","1049247","0.0-11.0-172.0","","","","false","","","","","","","","","","183.2999999821186","","117","","3","0","arrowright","1","arrowright","[0.15,0.85,0.675,0.325]","","",""
"sailing-trial","208","1051130","0.0-11.0-173.0","","","","false","","","","","","","","","","null","","792.9000000059605","","0","0","null","null","arrowup","[0.15,0.85,0.675,0.325]","","",""
"sailing-trial","209","1054446","0.0-11.0-174.0","","","","false","","","","","","","","","","224.40000000596046","","11.5","","3","0","arrowright","1","arrowright","[0.15,0.85,0.675,0.325]","","",""
"sailing-trial","210","1056649","0.0-11.0-175.0","","","","false","","","","","","","","","","null","","433.09999999403954","","0","1","null","null","arrowup","[0.15,0.85,0.675,0.325]","","",""
"sailing-trial","211","1060490","0.0-11.0-176.0","","","","false","","","","","","","","","","397.09999999403954","","3.5","","3","0","arrowright","1","arrowright","[0.15,0.85,0.675,0.325]","","",""
"sailing-trial","212","1062164","0.0-11.0-177.0","","","","false","","","","","","","","","","null","","234.19999998807907","","2","0","null","null","arrowup","[0.15,0.85,0.675,0.325]","","",""
"sailing-trial","213","1064898","0.0-11.0-178.0","","","","false","","","","","","","","","","473.89999997615814","","2.9000000059604645","","0","0","arrowleft","0","arrowleft","[0.15,0.85,0.675,0.325]","","",""
"sailing-trial","214","1066923","0.0-11.0-179.0","","","","false","","","","","","","","","","null","","964.0999999940395","","0","0","null","null","arrowup","[0.15,0.85,0.675,0.325]","","",""
"sailing-trial","215","1070313","0.0-11.0-180.0","","","","false","","","","","","","","","","438.09999999403954","","32.20000001788139","","3","0","arrowright","1","arrowright","[0.15,0.85,0.675,0.325]","","",""
"sailing-trial","216","1072260","0.0-11.0-181.0","","","","false","","","","","","","","","","null","","898.7000000178814","","2","0","null","null","arrowup","[0.15,0.85,0.675,0.325]","","",""
"sailing-trial","217","1075842","0.0-11.0-182.0","","","","false","","","","","","","","","","603.1000000238419","","495.90000000596046","","1","0","arrowleft","0","arrowright","[0.15,0.85,0.675,0.325]","","",""
"sailing-trial","218","1078815","0.0-11.0-183.0","","","","false","","","","","","","","","","null","","1210.7000000178814","","1","1","null","null","arrowup","[0.15,0.85,0.675,0.325]","","",""
"sailing-trial","219","1082246","0.0-11.0-184.0","","","","false","","","","","","","","","","502","","5.5999999940395355","","1","1","arrowleft","0","arrowright","[0.85,0.15,0.325,0.675]","","",""
"sailing-trial","220","1084742","0.0-11.0-185.0","","","","false","","","","","","","","","","null","","1283.699999988079","","2","0","null","null","arrowup","[0.85,0.15,0.325,0.675]","","",""
"sailing-trial","221","1088449","0.0-11.0-186.0","","","","false","","","","","","","","","","534.4000000059605","","98.69999998807907","","3","1","arrowright","1","arrowright","[0.85,0.15,0.325,0.675]","","",""
"sailing-trial","222","1090829","0.0-11.0-187.0","","","","false","","","","","","","","","","null","","797.2999999821186","","3","1","null","null","arrowup","[0.85,0.15,0.325,0.675]","","",""
"sailing-trial","223","1093824","0.0-11.0-188.0","","","","false","","","","","","","","","","21.099999994039536","","0.30000001192092896","","3","0","arrowright","1","arrowright","[0.85,0.15,0.325,0.675]","","",""
"sailing-trial","224","1096542","0.0-11.0-189.0","","","","false","","","","","","","","","","null","","1552.300000011921","","2","0","null","null","arrowup","[0.85,0.15,0.325,0.675]","","",""
"sailing-trial","225","1100513","0.0-11.0-190.0","","","","false","","","","","","","","","","577.5999999940395","","996.0999999940395","","3","0","arrowright","1","arrowright","[0.85,0.15,0.325,0.675]","","",""
"sailing-trial","226","1103551","0.0-11.0-191.0","","","","false","","","","","","","","","","null","","1222.1000000238419","","3","1","null","null","arrowup","[0.85,0.15,0.325,0.675]","","",""
"sailing-trial","227","1107381","0.0-11.0-192.0","","","","false","","","","","","","","","","635.7999999821186","","611.5","","3","1","arrowright","1","arrowright","[0.85,0.15,0.325,0.675]","","",""
"sailing-trial","228","1109568","0.0-11.0-193.0","","","","false","","","","","","","","","","null","","542.6000000238419","","0","1","null","null","arrowup","[0.85,0.15,0.325,0.675]","","",""
"sailing-trial","229","1112437","0.0-11.0-194.0","","","","false","","","","","","","","","","52.099999994039536","","157.2999999821186","","3","1","arrowright","1","arrowright","[0.85,0.15,0.325,0.675]","","",""
"sailing-trial","230","1114932","0.0-11.0-195.0","","","","false","","","","","","","","","","null","","852","","0","1","null","null","arrowup","[0.85,0.15,0.325,0.675]","","",""
"sailing-trial","231","1117997","0.0-11.0-196.0","","","","false","","","","","","","","","","327.39999997615814","","126.2000000178814","","3","1","arrowright","1","arrowright","[0.85,0.15,0.325,0.675]","","",""
"sailing-trial","232","1119468","0.0-11.0-197.0","","","","false","","","","","","","","","","null","","329.59999999403954","","1","0","null","null","arrowup","[0.85,0.15,0.325,0.675]","","",""
"sailing-trial","233","1122663","0.0-11.0-198.0","","","","false","","","","","","","","","","245.2000000178814","","213.69999998807907","","3","1","arrowright","1","arrowright","[0.85,0.15,0.325,0.675]","","",""
"sailing-trial","234","1123703","0.0-11.0-199.0","","","","false","","","","","","","","","","null","","0","","1","0","null","null","arrowup","[0.85,0.15,0.325,0.675]","","",""
"sailing-trial","235","1126830","0.0-11.0-200.0","","","","false","","","","","","","","","","351","","159.7999999821186","","3","1","arrowright","1","arrowright","[0.85,0.15,0.325,0.675]","","",""
"sailing-trial","236","1128470","0.0-11.0-201.0","","","","false","","","","","","","","","","null","","50.69999998807907","","0","1","null","null","arrowup","[0.85,0.15,0.325,0.675]","","",""
"sailing-trial","237","1131353","0.0-11.0-202.0","","","","false","","","","","","","","","","213.90000000596046","","106.5","","3","1","arrowright","1","arrowright","[0.85,0.15,0.325,0.675]","","",""
"sailing-trial","238","1133063","0.0-11.0-203.0","","","","false","","","","","","","","","","null","","124.5","","3","1","null","null","arrowup","[0.85,0.15,0.325,0.675]","","",""
"sailing-trial","239","1136064","0.0-11.0-204.0","","","","false","","","","","","","","","","246.19999998807907","","13.900000005960464","","3","1","arrowright","1","arrowright","[0.85,0.15,0.325,0.675]","","",""
"sailing-trial","240","1137848","0.0-11.0-205.0","","","","false","","","","","","","","","","null","","46.5","","3","1","null","null","arrowup","[0.85,0.15,0.325,0.675]","","",""
"sailing-trial","241","1140478","0.0-11.0-206.0","","","","false","","","","","","","","","","26.69999998807907","","5.5999999940395355","","3","1","arrowright","1","arrowright","[0.675,0.325,0.15,0.85]","","",""
"sailing-trial","242","1141678","0.0-11.0-207.0","","","","false","","","","","","","","","","null","","106.30000001192093","","1","0","null","null","arrowup","[0.675,0.325,0.15,0.85]","","",""
"sailing-trial","243","1144336","0.0-11.0-208.0","","","","false","","","","","","","","","","346.59999999403954","","65.69999998807907","","3","0","arrowright","1","arrowright","[0.675,0.325,0.15,0.85]","","",""
"sailing-trial","244","1146129","0.0-11.0-209.0","","","","false","","","","","","","","","","null","","64.90000000596046","","2","1","null","null","arrowup","[0.675,0.325,0.15,0.85]","","",""
"sailing-trial","245","1148962","0.0-11.0-210.0","","","","false","","","","","","","","","","20.400000005960464","","140.09999999403954","","3","1","arrowright","1","arrowright","[0.675,0.325,0.15,0.85]","","",""
"sailing-trial","246","1150813","0.0-11.0-211.0","","","","false","","","","","","","","","","null","","141","","3","1","null","null","arrowup","[0.675,0.325,0.15,0.85]","","",""
"sailing-trial","247","1153834","0.0-11.0-212.0","","","","false","","","","","","","","","","118.10000002384186","","162.5","","3","1","arrowright","1","arrowright","[0.675,0.325,0.15,0.85]","","",""
"sailing-trial","248","1155546","0.0-11.0-213.0","","","","false","","","","","","","","","","null","","12.799999982118607","","2","1","null","null","arrowup","[0.675,0.325,0.15,0.85]","","",""
"sailing-trial","249","1158531","0.0-11.0-214.0","","","","false","","","","","","","","","","142.30000001192093","","155.5","","3","1","arrowright","1","arrowright","[0.675,0.325,0.15,0.85]","","",""
"sailing-trial","250","1159845","0.0-11.0-215.0","","","","false","","","","","","","","","","null","","71.2000000178814","","1","0","null","null","arrowup","[0.675,0.325,0.15,0.85]","","",""
"sailing-trial","251","1162864","0.0-11.0-216.0","","","","false","","","","","","","","","","143.10000002384186","","175.80000001192093","","3","1","arrowright","1","arrowright","[0.675,0.325,0.15,0.85]","","",""
"sailing-trial","252","1164613","0.0-11.0-217.0","","","","false","","","","","","","","","","null","","52.10000002384186","","3","1","null","null","arrowup","[0.675,0.325,0.15,0.85]","","",""
"sailing-trial","253","1167516","0.0-11.0-218.0","","","","false","","","","","","","","","","84.7000000178814","","158.7999999821186","","3","1","arrowright","1","arrowright","[0.675,0.325,0.15,0.85]","","",""
"sailing-trial","254","1169252","0.0-11.0-219.0","","","","false","","","","","","","","","","null","","107.69999998807907","","2","1","null","null","arrowup","[0.675,0.325,0.15,0.85]","","",""
"sailing-trial","255","1172347","0.0-11.0-220.0","","","","false","","","","","","","","","","255","","126","","3","1","arrowright","1","arrowright","[0.675,0.325,0.15,0.85]","","",""
"sailing-trial","256","1173779","0.0-11.0-221.0","","","","false","","","","","","","","","","null","","102.90000000596046","","2","0","null","null","arrowup","[0.675,0.325,0.15,0.85]","","",""
"sailing-trial","257","1177430","0.0-11.0-222.0","","","","false","","","","","","","","","","914.1000000238419","","163.40000000596046","","3","1","arrowright","1","arrowright","[0.85,0.15,0.325,0.675]","","",""
"sailing-trial","258","1179213","0.0-11.0-223.0","","","","false","","","","","","","","","","null","","83.90000000596046","","0","1","null","null","arrowup","[0.85,0.15,0.325,0.675]","","",""
"sailing-trial","259","1182147","0.0-11.0-224.0","","","","false","","","","","","","","","","515","","155.5","","3","0","arrowright","1","arrowright","[0.85,0.15,0.325,0.675]","","",""
"sailing-trial","260","1183917","0.0-11.0-225.0","","","","false","","","","","","","","","","null","","26.799999982118607","","0","1","null","null","arrowup","[0.85,0.15,0.325,0.675]","","",""
"sailing-trial","261","1186295","0.0-11.0-226.0","","","","false","","","","","","","","","","166.10000002384186","","19.100000023841858","","3","0","arrowright","1","arrowright","[0.85,0.15,0.325,0.675]","","",""
"sailing-trial","262","1187597","0.0-11.0-227.0","","","","false","","","","","","","","","","null","","82.90000000596046","","1","0","null","null","arrowup","[0.85,0.15,0.325,0.675]","","",""
"sailing-trial","263","1190832","0.0-11.0-228.0","","","","false","","","","","","","","","","423.90000000596046","","183.69999998807907","","3","1","arrowright","1","arrowright","[0.85,0.15,0.325,0.675]","","",""
"sailing-trial","264","1192596","0.0-11.0-229.0","","","","false","","","","","","","","","","null","","25.799999982118607","","1","1","null","null","arrowup","[0.85,0.15,0.325,0.675]","","",""
"sailing-trial","265","1195481","0.0-11.0-230.0","","","","false","","","","","","","","","","103.5","","38.89999997615814","","3","1","arrowright","1","arrowright","[0.85,0.15,0.325,0.675]","","",""
"sailing-trial","266","1196622","0.0-11.0-231.0","","","","false","","","","","","","","","","null","","108.7999999821186","","2","0","null","null","arrowup","[0.85,0.15,0.325,0.675]","","",""
"sailing-trial","267","1199769","0.0-11.0-232.0","","","","false","","","","","","","","","","386.5","","26.099999994039536","","3","1","arrowright","1","arrowright","[0.85,0.15,0.325,0.675]","","",""
"sailing-trial","268","1201384","0.0-11.0-233.0","","","","false","","","","","","","","","","null","","28.599999994039536","","1","1","null","null","arrowup","[0.85,0.15,0.325,0.675]","","",""
"sailing-trial","269","1204117","0.0-11.0-234.0","","","","false","","","","","","","","","","150","","25","","3","1","arrowright","1","arrowright","[0.85,0.15,0.325,0.675]","","",""
"sailing-trial","270","1205283","0.0-11.0-235.0","","","","false","","","","","","","","","","null","","42.10000002384186","","0","0","null","null","arrowup","[0.85,0.15,0.325,0.675]","","",""
"sailing-trial","271","1208403","0.0-11.0-236.0","","","","false","","","","","","","","","","192.69999998807907","","91.19999998807907","","3","1","arrowright","1","arrowright","[0.85,0.15,0.325,0.675]","","",""
"sailing-trial","272","1210374","0.0-11.0-237.0","","","","false","","","","","","","","","","null","","181.09999999403954","","0","1","null","null","arrowup","[0.85,0.15,0.325,0.675]","","",""
"sailing-trial","273","1213436","0.0-11.0-238.0","","","","false","","","","","","","","","","271.2999999821186","","167.80000001192093","","3","1","arrowright","1","arrowright","[0.675,0.325,0.15,0.85]","","",""
"sailing-trial","274","1214530","0.0-11.0-239.0","","","","false","","","","","","","","","","null","","0.09999999403953552","","1","0","null","null","arrowup","[0.675,0.325,0.15,0.85]","","",""
"sailing-trial","275","1217518","0.0-11.0-240.0","","","","false","","","","","","","","","","138.09999999403954","","140.69999998807907","","3","1","arrowright","1","arrowright","[0.675,0.325,0.15,0.85]","","",""
"sailing-trial","276","1219135","0.0-11.0-241.0","","","","false","","","","","","","","","","null","","93.80000001192093","","3","1","null","null","arrowup","[0.675,0.325,0.15,0.85]","","",""
"sailing-trial","277","1222989","0.0-11.0-242.0","","","","false","","","","","","","","","","985.5999999940395","","149.40000000596046","","3","1","arrowright","1","arrowright","[0.675,0.325,0.15,0.85]","","",""
"sailing-trial","278","1224396","0.0-11.0-243.0","","","","false","","","","","","","","","","null","","131.89999997615814","","1","0","null","null","arrowup","[0.675,0.325,0.15,0.85]","","",""
"sailing-trial","279","1227235","0.0-11.0-244.0","","","","false","","","","","","","","","","197.09999999403954","","18.700000017881393","","3","1","arrowright","1","arrowright","[0.675,0.325,0.15,0.85]","","",""
"sailing-trial","280","1228560","0.0-11.0-245.0","","","","false","","","","","","","","","","null","","213.80000001192093","","2","0","null","null","arrowup","[0.675,0.325,0.15,0.85]","","",""
"sailing-trial","281","1231936","0.0-11.0-246.0","","","","false","","","","","","","","","","478.2999999821186","","117.89999997615814","","3","1","arrowright","1","arrowright","[0.675,0.325,0.15,0.85]","","",""
"sailing-trial","282","1233010","0.0-11.0-247.0","","","","false","","","","","","","","","","null","","30.099999994039536","","1","0","null","null","arrowup","[0.675,0.325,0.15,0.85]","","",""
"sailing-trial","283","1236589","0.0-11.0-248.0","","","","false","","","","","","","","","","834.5999999940395","","146","","3","1","arrowright","1","arrowright","[0.675,0.325,0.15,0.85]","","",""
"sailing-trial","284","1237818","0.0-11.0-249.0","","","","false","","","","","","","","","","null","","84.59999999403954","","2","0","null","null","arrowup","[0.675,0.325,0.15,0.85]","","",""
"sailing-trial","285","1240940","0.0-11.0-250.0","","","","false","","","","","","","","","","400.80000001192093","","174.7999999821186","","3","1","arrowright","1","arrowright","[0.675,0.325,0.15,0.85]","","",""
"sailing-trial","286","1242319","0.0-11.0-251.0","","","","false","","","","","","","","","","null","","200","","2","0","null","null","arrowup","[0.675,0.325,0.15,0.85]","","",""
"sailing-trial","287","1245358","0.0-11.0-252.0","","","","false","","","","","","","","","","262.40000000596046","","182.89999997615814","","3","1","arrowright","1","arrowright","[0.675,0.325,0.15,0.85]","","",""
"sailing-trial","288","1246925","0.0-11.0-253.0","","","","false","","","","","","","","","","null","","38.5","","3","1","null","null","arrowup","[0.675,0.325,0.15,0.85]","","",""
"sailing-trial","289","1249753","0.0-11.0-254.0","","","","false","","","","","","","","","","191.2000000178814","","103.30000001192093","","3","1","arrowright","1","arrowright","[0.85,0.15,0.325,0.675]","","",""
"sailing-trial","290","1251653","0.0-11.0-255.0","","","","false","","","","","","","","","","null","","131.19999998807907","","3","1","null","null","arrowup","[0.85,0.15,0.325,0.675]","","",""
"sailing-trial","291","1254259","0.0-11.0-256.0","","","","false","","","","","","","","","","266.69999998807907","","38.599999994039536","","3","0","arrowright","1","arrowright","[0.85,0.15,0.325,0.675]","","",""
"sailing-trial","292","1255886","0.0-11.0-257.0","","","","false","","","","","","","","","","null","","64.09999999403954","","3","1","null","null","arrowup","[0.85,0.15,0.325,0.675]","","",""
"sailing-trial","293","1258986","0.0-11.0-258.0","","","","false","","","","","","","","","","180.5","","215.39999997615814","","3","1","arrowright","1","arrowright","[0.85,0.15,0.325,0.675]","","",""
"sailing-trial","294","1260100","0.0-11.0-259.0","","","","false","","","","","","","","","","null","","61.29999998211861","","2","0","null","null","arrowup","[0.85,0.15,0.325,0.675]","","",""
"sailing-trial","295","1263185","0.0-11.0-260.0","","","","false","","","","","","","","","","248.7999999821186","","206.2000000178814","","3","1","arrowright","1","arrowright","[0.85,0.15,0.325,0.675]","","",""
"sailing-trial","296","1264915","0.0-11.0-261.0","","","","false","","","","","","","","","","null","","203.5","","1","1","null","null","arrowup","[0.85,0.15,0.325,0.675]","","",""
"sailing-trial","297","1267864","0.0-11.0-262.0","","","","false","","","","","","","","","","97.30000001192093","","80.39999997615814","","3","1","arrowright","1","arrowright","[0.85,0.15,0.325,0.675]","","",""
"sailing-trial","298","1269632","0.0-11.0-263.0","","","","false","","","","","","","","","","null","","95.69999998807907","","3","1","null","null","arrowup","[0.85,0.15,0.325,0.675]","","",""
"sailing-trial","299","1271980","0.0-11.0-264.0","","","","false","","","","","","","","","","59.5","","93.40000000596046","","3","0","arrowright","1","arrowright","[0.85,0.15,0.325,0.675]","","",""
"sailing-trial","300","1273199","0.0-11.0-265.0","","","","false","","","","","","","","","","null","","148.19999998807907","","3","0","null","null","arrowup","[0.85,0.15,0.325,0.675]","","",""
"sailing-trial","301","1275698","0.0-11.0-266.0","","","","false","","","","","","","","","","239.40000000596046","","24.400000005960464","","3","0","arrowright","1","arrowright","[0.85,0.15,0.325,0.675]","","",""
"sailing-trial","302","1277181","0.0-11.0-267.0","","","","false","","","","","","","","","","null","","250.69999998807907","","2","0","null","null","arrowup","[0.85,0.15,0.325,0.675]","","",""
"sailing-trial","303","1279983","0.0-11.0-268.0","","","","false","","","","","","","","","","59","","216.60000002384186","","3","1","arrowright","1","arrowright","[0.85,0.15,0.325,0.675]","","",""
"sailing-trial","304","1281749","0.0-11.0-269.0","","","","false","","","","","","","","","","null","","58.20000001788139","","2","1","null","null","arrowup","[0.85,0.15,0.325,0.675]","","",""
"sailing-trial","305","1284534","0.0-11.0-270.0","","","","false","","","","","","","","","","87.90000000596046","","132.5","","3","1","arrowright","1","arrowright","[0.675,0.325,0.15,0.85]","","",""
"sailing-trial","306","1285857","0.0-11.0-271.0","","","","false","","","","","","","","","","null","","144","","1","0","null","null","arrowup","[0.675,0.325,0.15,0.85]","","",""
"sailing-trial","307","1289082","0.0-11.0-272.0","","","","false","","","","","","","","","","470.7000000178814","","48.89999997615814","","3","1","arrowright","1","arrowright","[0.675,0.325,0.15,0.85]","","",""
"sailing-trial","308","1290850","0.0-11.0-273.0","","","","false","","","","","","","","","","null","","79.5","","3","1","null","null","arrowup","[0.675,0.325,0.15,0.85]","","",""
"sailing-trial","309","1293815","0.0-11.0-274.0","","","","false","","","","","","","","","","78.40000000596046","","147.2999999821186","","3","1","arrowright","1","arrowright","[0.675,0.325,0.15,0.85]","","",""
"sailing-trial","310","1295632","0.0-11.0-275.0","","","","false","","","","","","","","","","null","","184.30000001192093","","0","1","null","null","arrowup","[0.675,0.325,0.15,0.85]","","",""
"sailing-trial","311","1298499","0.0-11.0-276.0","","","","false","","","","","","","","","","146.80000001192093","","133.19999998807907","","3","1","arrowright","1","arrowright","[0.675,0.325,0.15,0.85]","","",""
"sailing-trial","312","1300441","0.0-11.0-277.0","","","","false","","","","","","","","","","null","","104.5","","0","1","null","null","arrowup","[0.675,0.325,0.15,0.85]","","",""
"sailing-trial","313","1303302","0.0-11.0-278.0","","","","false","","","","","","","","","","15.300000011920929","","134.7999999821186","","3","1","arrowright","1","arrowright","[0.675,0.325,0.15,0.85]","","",""
"sailing-trial","314","1309033","0.0-11.0-279.0","","","","false","","","","","","","","","","null","","3965.5999999940395","","3","1","null","null","arrowup","[0.675,0.325,0.15,0.85]","","",""
"sailing-trial","315","1312083","0.0-11.0-280.0","","","","false","","","","","","","","","","130.2999999821186","","143","","3","1","arrowright","1","arrowright","[0.675,0.325,0.15,0.85]","","",""
"sailing-trial","316","1313801","0.0-11.0-281.0","","","","false","","","","","","","","","","null","","545.8000000119209","","2","0","null","null","arrowup","[0.675,0.325,0.15,0.85]","","",""
"sailing-trial","317","1316867","0.0-11.0-282.0","","","","false","","","","","","","","","","152.40000000596046","","144.80000001192093","","3","1","arrowright","1","arrowright","[0.675,0.325,0.15,0.85]","","",""
"sailing-trial","318","1318132","0.0-11.0-283.0","","","","false","","","","","","","","","","null","","26.900000005960464","","1","0","null","null","arrowup","[0.675,0.325,0.15,0.85]","","",""
"sailing-trial","319","1321054","0.0-11.0-284.0","","","","false","","","","","","","","","","168.7999999821186","","138.19999998807907","","3","1","arrowright","1","arrowright","[0.675,0.325,0.15,0.85]","","",""
"sailing-trial","320","1322237","0.0-11.0-285.0","","","","false","","","","","","","","","","null","","21.799999982118607","","0","0","null","null","arrowup","[0.675,0.325,0.15,0.85]","","",""
"sailing-trial","321","1324603","0.0-11.0-286.0","","","","false","","","","","","","","","","110.89999997615814","","46.900000005960464","","3","0","arrowright","1","arrowright","[0.15,0.85,0.675,0.325]","","",""
"sailing-trial","322","1325909","0.0-11.0-287.0","","","","false","","","","","","","","","","null","","178.69999998807907","","3","0","null","null","arrowup","[0.15,0.85,0.675,0.325]","","",""
"sailing-trial","323","1328586","0.0-11.0-288.0","","","","false","","","","","","","","","","91.80000001192093","","34.099999994039536","","3","1","arrowright","1","arrowright","[0.15,0.85,0.675,0.325]","","",""
"sailing-trial","324","1330371","0.0-11.0-289.0","","","","false","","","","","","","","","","null","","69.90000000596046","","2","1","null","null","arrowup","[0.15,0.85,0.675,0.325]","","",""
"sailing-trial","325","1332616","0.0-11.0-290.0","","","","false","","","","","","","","","","46.69999998807907","","9.5","","3","0","arrowright","1","arrowright","[0.15,0.85,0.675,0.325]","","",""
"sailing-trial","326","1334087","0.0-11.0-291.0","","","","false","","","","","","","","","","null","","301.89999997615814","","3","0","null","null","arrowup","[0.15,0.85,0.675,0.325]","","",""
"sailing-trial","327","1336558","0.0-11.0-292.0","","","","false","","","","","","","","","","80.69999998807907","","215.40000000596046","","3","0","arrowright","1","arrowright","[0.15,0.85,0.675,0.325]","","",""
"sailing-trial","328","1337852","0.0-11.0-293.0","","","","false","","","","","","","","","","null","","108","","2","0","null","null","arrowup","[0.15,0.85,0.675,0.325]","","",""
"sailing-trial","329","1340373","0.0-11.0-294.0","","","","false","","","","","","","","","","73","","207.40000000596046","","3","0","arrowright","1","arrowright","[0.15,0.85,0.675,0.325]","","",""
"sailing-trial","330","1344682","0.0-11.0-295.0","","","","false","","","","","","","","","","null","","1306.199999988079","","3","0","null","null","arrowup","[0.15,0.85,0.675,0.325]","","",""
"sailing-trial","331","1348854","0.0-11.0-296.0","","","","false","","","","","","","","","","1464.300000011921","","5.0999999940395355","","2","1","arrowright","1","arrowleft","[0.15,0.85,0.675,0.325]","","",""
"sailing-trial","332","1352121","0.0-11.0-297.0","","","","false","","","","","","","","","","null","","1563.0999999940395","","1","1","null","null","arrowup","[0.15,0.85,0.675,0.325]","","",""
"sailing-trial","333","1356321","0.0-11.0-298.0","","","","false","","","","","","","","","","1203.8999999761581","","392.59999999403954","","1","1","arrowleft","0","arrowright","[0.15,0.85,0.675,0.325]","","",""
"sailing-trial","334","1358371","0.0-11.0-299.0","","","","false","","","","","","","","","","null","","396.09999999403954","","1","1","null","null","arrowup","[0.15,0.85,0.675,0.325]","","",""
"sailing-trial","335","1361437","0.0-11.0-300.0","","","","false","","","","","","","","","","362.59999999403954","","108.59999999403954","","3","1","arrowright","1","arrowright","[0.15,0.85,0.675,0.325]","","",""
"sailing-trial","336","1364353","0.0-11.0-301.0","","","","false","","","","","","","","","","null","","1678","","1","0","null","null","arrowup","[0.15,0.85,0.675,0.325]","","",""
"sailing-trial","337","1367241","0.0-11.0-302.0","","","","false","","","","","","","","","","209.5","","119.89999997615814","","3","1","arrowright","1","arrowright","[0.15,0.85,0.675,0.325]","","",""
"sailing-trial","338","1368638","0.0-11.0-303.0","","","","false","","","","","","","","","","null","","142.30000001192093","","2","0","null","null","arrowup","[0.15,0.85,0.675,0.325]","","",""
"sailing-trial","339","1371521","0.0-11.0-304.0","","","","false","","","","","","","","","","113.40000000596046","","74","","3","1","arrowright","1","arrowright","[0.85,0.15,0.325,0.675]","","",""
"sailing-trial","340","1373720","0.0-11.0-305.0","","","","false","","","","","","","","","","null","","1046.4000000059605","","1","0","null","null","arrowup","[0.85,0.15,0.325,0.675]","","",""
"sailing-trial","341","1376845","0.0-11.0-306.0","","","","false","","","","","","","","","","433.19999998807907","","17.69999998807907","","3","1","arrowright","1","arrowright","[0.85,0.15,0.325,0.675]","","",""
"sailing-trial","342","1378704","0.0-11.0-307.0","","","","false","","","","","","","","","","null","","89.80000001192093","","0","1","null","null","arrowup","[0.85,0.15,0.325,0.675]","","",""
"sailing-trial","343","1381604","0.0-11.0-308.0","","","","false","","","","","","","","","","63.099999994039536","","160","","3","1","arrowright","1","arrowright","[0.85,0.15,0.325,0.675]","","",""
"sailing-trial","344","1382970","0.0-11.0-309.0","","","","false","","","","","","","","","","null","","314.90000000596046","","1","0","null","null","arrowup","[0.85,0.15,0.325,0.675]","","",""
"sailing-trial","345","1386140","0.0-11.0-310.0","","","","false","","","","","","","","","","314.30000001192093","","116.2999999821186","","3","1","arrowright","1","arrowright","[0.85,0.15,0.325,0.675]","","",""
"sailing-trial","346","1387470","0.0-11.0-311.0","","","","false","","","","","","","","","","null","","24.599999994039536","","2","0","null","null","arrowup","[0.85,0.15,0.325,0.675]","","",""
"sailing-trial","347","1390475","0.0-11.0-312.0","","","","false","","","","","","","","","","141","","114.2000000178814","","3","1","arrowright","1","arrowright","[0.85,0.15,0.325,0.675]","","",""
"sailing-trial","348","1391724","0.0-11.0-313.0","","","","false","","","","","","","","","","null","","19","","3","0","null","null","arrowup","[0.85,0.15,0.325,0.675]","","",""
"sailing-trial","349","1394155","0.0-11.0-314.0","","","","false","","","","","","","","","","129.90000000596046","","116.5","","3","0","arrowright","1","arrowright","[0.85,0.15,0.325,0.675]","","",""
"sailing-trial","350","1395230","0.0-11.0-315.0","","","","false","","","","","","","","","","null","","12.099999994039536","","0","0","null","null","arrowup","[0.85,0.15,0.325,0.675]","","",""
"sailing-trial","351","1398074","0.0-11.0-316.0","","","","false","","","","","","","","","","154.7000000178814","","138.40000000596046","","3","1","arrowright","1","arrowright","[0.85,0.15,0.325,0.675]","","",""
"sailing-trial","352","1399920","0.0-11.0-317.0","","","","false","","","","","","","","","","null","","173.69999998807907","","0","1","null","null","arrowup","[0.85,0.15,0.325,0.675]","","",""
"sailing-trial","353","1402855","0.0-11.0-318.0","","","","false","","","","","","","","","","78.89999997615814","","171.5","","3","1","arrowright","1","arrowright","[0.85,0.15,0.325,0.675]","","",""
"sailing-trial","354","1404786","0.0-11.0-319.0","","","","false","","","","","","","","","","null","","173.19999998807907","","0","1","null","null","arrowup","[0.85,0.15,0.325,0.675]","","",""
"sailing-trial","355","1406933","0.0-11.0-320.0","","","","false","","","","","","","","","","31.099999994039536","","43.5","","3","0","arrowright","1","arrowright","[0.85,0.15,0.325,0.675]","","",""
"sailing-trial","356","1408275","0.0-11.0-321.0","","","","false","","","","","","","","","","null","","243.90000000596046","","1","0","null","null","arrowup","[0.85,0.15,0.325,0.675]","","",""
"sailing-trial","357","1410739","0.0-11.0-322.0","","","","false","","","","","","","","","","138.90000000596046","","55.80000001192093","","3","0","arrowright","1","arrowright","[0.85,0.15,0.325,0.675]","","",""
"sailing-trial","358","1412403","0.0-11.0-323.0","","","","false","","","","","","","","","","null","","410.59999999403954","","0","0","null","null","arrowup","[0.85,0.15,0.325,0.675]","","",""
"sailing-trial","359","1415061","0.0-11.0-324.0","","","","false","","","","","","","","","","166.40000000596046","","23.099999994039536","","3","0","arrowright","1","arrowright","[0.85,0.15,0.325,0.675]","","",""
"sailing-trial","360","1417739","0.0-11.0-325.0","","","","false","","","","","","","","","","null","","725.6999999880791","","3","1","null","null","arrowup","[0.85,0.15,0.325,0.675]","","",""
"sailing-trial","361","1420959","0.0-11.0-326.0","","","","false","","","","","","","","","","379.69999998807907","","42.400000005960464","","0","1","arrowleft","0","arrowleft","[0.675,0.325,0.15,0.85]","","",""
"sailing-trial","362","1423655","0.0-11.0-327.0","","","","false","","","","","","","","","","null","","1154.0999999940395","","0","1","null","null","arrowup","[0.675,0.325,0.15,0.85]","","",""
"sailing-trial","363","1426019","0.0-11.0-328.0","","","","false","","","","","","","","","","147.10000002384186","","117.09999999403954","","0","0","arrowleft","0","arrowleft","[0.675,0.325,0.15,0.85]","","",""
"sailing-trial","364","1429046","0.0-11.0-329.0","","","","false","","","","","","","","","","null","","1343.4000000059605","","3","1","null","null","arrowup","[0.675,0.325,0.15,0.85]","","",""
"sailing-trial","365","1431671","0.0-11.0-330.0","","","","false","","","","","","","","","","23.299999982118607","","15.599999994039536","","3","1","arrowright","1","arrowright","[0.675,0.325,0.15,0.85]","","",""
"sailing-trial","366","1432903","0.0-11.0-331.0","","","","false","","","","","","","","","","null","","24.5","","2","0","null","null","arrowup","[0.675,0.325,0.15,0.85]","","",""
"sailing-trial","367","1435237","0.0-11.0-332.0","","","","false","","","","","","","","","","109","","71.7000000178814","","3","0","arrowright","1","arrowright","[0.675,0.325,0.15,0.85]","","",""
"sailing-trial","368","1437042","0.0-11.0-333.0","","","","false","","","","","","","","","","null","","279","","3","1","null","null","arrowup","[0.675,0.325,0.15,0.85]","","",""
"sailing-trial","369","1439905","0.0-11.0-334.0","","","","false","","","","","","","","","","107","","216.30000001192093","","3","1","arrowright","1","arrowright","[0.675,0.325,0.15,0.85]","","",""
"sailing-trial","370","1441221","0.0-11.0-335.0","","","","false","","","","","","","","","","null","","31.599999994039536","","1","0","null","null","arrowup","[0.675,0.325,0.15,0.85]","","",""
"sailing-trial","371","1444226","0.0-11.0-336.0","","","","false","","","","","","","","","","366.40000000596046","","79","","3","1","arrowright","1","arrowright","[0.675,0.325,0.15,0.85]","","",""
"sailing-trial","372","1446097","0.0-11.0-337.0","","","","false","","","","","","","","","","null","","137","","0","1","null","null","arrowup","[0.675,0.325,0.15,0.85]","","",""
"sailing-trial","373","1449143","0.0-11.0-338.0","","","","false","","","","","","","","","","183.7000000178814","","204.59999999403954","","3","1","arrowright","1","arrowright","[0.675,0.325,0.15,0.85]","","",""
"sailing-trial","374","1450932","0.0-11.0-339.0","","","","false","","","","","","","","","","null","","225.5","","0","1","null","null","arrowup","[0.675,0.325,0.15,0.85]","","",""
"sailing-trial","375","1454210","0.0-11.0-340.0","","","","false","","","","","","","","","","407.80000001192093","","66.80000001192093","","3","1","arrowright","1","arrowright","[0.675,0.325,0.15,0.85]","","",""
"sailing-trial","376","1455391","0.0-11.0-341.0","","","","false","","","","","","","","","","null","","117","","1","0","null","null","arrowup","[0.675,0.325,0.15,0.85]","","",""
"sailing-trial","377","1458729","0.0-11.0-342.0","","","","false","","","","","","","","","","641.7000000178814","","43","","3","1","arrowright","1","arrowright","[0.675,0.325,0.15,0.85]","","",""
"sailing-trial","378","1460893","0.0-11.0-343.0","","","","false","","","","","","","","","","null","","294.89999997615814","","3","1","null","null","arrowup","[0.675,0.325,0.15,0.85]","","",""
"sailing-trial","379","1463876","0.0-11.0-344.0","","","","false","","","","","","","","","","248.39999997615814","","143.7000000178814","","3","1","arrowright","1","arrowright","[0.85,0.15,0.325,0.675]","","",""
"sailing-trial","380","1465745","0.0-11.0-345.0","","","","false","","","","","","","","","","null","","270.40000000596046","","0","1","null","null","arrowup","[0.85,0.15,0.325,0.675]","","",""
"sailing-trial","381","1468825","0.0-11.0-346.0","","","","false","","","","","","","","","","163.90000000596046","","130.09999999403954","","3","1","arrowright","1","arrowright","[0.85,0.15,0.325,0.675]","","",""
"sailing-trial","382","1470077","0.0-11.0-347.0","","","","false","","","","","","","","","","null","","209.19999998807907","","1","0","null","null","arrowup","[0.85,0.15,0.325,0.675]","","",""
"sailing-trial","383","1473284","0.0-11.0-348.0","","","","false","","","","","","","","","","382.19999998807907","","49","","3","1","arrowright","1","arrowright","[0.85,0.15,0.325,0.675]","","",""
"sailing-trial","384","1475150","0.0-11.0-349.0","","","","false","","","","","","","","","","null","","47.79999998211861","","3","1","null","null","arrowup","[0.85,0.15,0.325,0.675]","","",""
"sailing-trial","385","1480935","0.0-11.0-350.0","","","","false","","","","","","","","","","704.9000000059605","","1454.1000000238419","","3","1","arrowright","1","arrowright","[0.85,0.15,0.325,0.675]","","",""
"sailing-trial","386","1483761","0.0-11.0-351.0","","","","false","","","","","","","","","","null","","1161.5999999940395","","0","1","null","null","arrowup","[0.85,0.15,0.325,0.675]","","",""
"sailing-trial","387","1486512","0.0-11.0-352.0","","","","false","","","","","","","","","","52.19999998807907","","32.5","","3","1","arrowright","1","arrowright","[0.85,0.15,0.325,0.675]","","",""
"sailing-trial","388","1488310","0.0-11.0-353.0","","","","false","","","","","","","","","","null","","28.400000005960464","","0","1","null","null","arrowup","[0.85,0.15,0.325,0.675]","","",""
"sailing-trial","389","1490589","0.0-11.0-354.0","","","","false","","","","","","","","","","43.29999998211861","","184.40000000596046","","3","0","arrowright","1","arrowright","[0.85,0.15,0.325,0.675]","","",""
"sailing-trial","390","1492011","0.0-11.0-355.0","","","","false","","","","","","","","","","null","","302","","3","0","null","null","arrowup","[0.85,0.15,0.325,0.675]","","",""
"sailing-trial","391","1494593","0.0-11.0-356.0","","","","false","","","","","","","","","","324.7999999821186","","127.90000000596046","","3","0","arrowright","1","arrowright","[0.85,0.15,0.325,0.675]","","",""
"sailing-trial","392","1496500","0.0-11.0-357.0","","","","false","","","","","","","","","","null","","146.89999997615814","","1","1","null","null","arrowup","[0.85,0.15,0.325,0.675]","","",""
"sailing-trial","393","1499179","0.0-11.0-358.0","","","","false","","","","","","","","","","41.099999994039536","","37.400000005960464","","0","1","arrowleft","0","arrowleft","[0.85,0.15,0.325,0.675]","","",""
"sailing-trial","394","1501358","0.0-11.0-359.0","","","","false","","","","","","","","","","null","","581.2000000178814","","3","1","null","null","arrowup","[0.85,0.15,0.325,0.675]","","",""
"sailing-trial","395","1504138","0.0-11.0-360.0","","","","false","","","","","","","","","","64.40000000596046","","132.10000002384186","","0","1","arrowleft","0","arrowleft","[0.85,0.15,0.325,0.675]","","",""
"sailing-trial","396","1505493","0.0-11.0-361.0","","","","false","","","","","","","","","","null","","84.59999999403954","","1","0","null","null","arrowup","[0.85,0.15,0.325,0.675]","","",""
"sailing-trial","397","1508018","0.0-11.0-362.0","","","","false","","","","","","","","","","82.59999999403954","","147.40000000596046","","3","0","arrowright","1","arrowright","[0.85,0.15,0.325,0.675]","","",""
"sailing-trial","398","1509705","0.0-11.0-363.0","","","","false","","","","","","","","","","null","","23.299999982118607","","3","1","null","null","arrowup","[0.85,0.15,0.325,0.675]","","",""
"sailing-trial","399","1512838","0.0-11.0-364.0","","","","false","","","","","","","","","","363.2999999821186","","93.40000000596046","","0","1","arrowleft","0","arrowleft","[0.675,0.325,0.15,0.85]","","",""
"sailing-trial","400","1514104","0.0-11.0-365.0","","","","false","","","","","","","","","","null","","45.19999998807907","","3","0","null","null","arrowup","[0.675,0.325,0.15,0.85]","","",""
"sailing-trial","401","1516854","0.0-11.0-366.0","","","","false","","","","","","","","","","494.30000001192093","","68.30000001192093","","0","0","arrowleft","0","arrowleft","[0.675,0.325,0.15,0.85]","","",""
"sailing-trial","402","1518872","0.0-11.0-367.0","","","","false","","","","","","","","","","null","","196.80000001192093","","2","1","null","null","arrowup","[0.675,0.325,0.15,0.85]","","",""
"sailing-trial","403","1521873","0.0-11.0-368.0","","","","false","","","","","","","","","","167.59999999403954","","112.59999999403954","","3","1","arrowright","1","arrowright","[0.675,0.325,0.15,0.85]","","",""
"sailing-trial","404","1523222","0.0-11.0-369.0","","","","false","","","","","","","","","","null","","110.59999999403954","","2","0","null","null","arrowup","[0.675,0.325,0.15,0.85]","","",""
"sailing-trial","405","1526943","0.0-11.0-370.0","","","","false","","","","","","","","","","908.3999999761581","","185.89999997615814","","3","1","arrowright","1","arrowright","[0.675,0.325,0.15,0.85]","","",""
"sailing-trial","406","1528928","0.0-11.0-371.0","","","","false","","","","","","","","","","null","","293.30000001192093","","0","1","null","null","arrowup","[0.675,0.325,0.15,0.85]","","",""
"sailing-trial","407","1531525","0.0-11.0-372.0","","","","false","","","","","","","","","","154","","92.69999998807907","","3","0","arrowright","1","arrowright","[0.675,0.325,0.15,0.85]","","",""
"sailing-trial","408","1532868","0.0-11.0-373.0","","","","false","","","","","","","","","","null","","96.60000002384186","","1","0","null","null","arrowup","[0.675,0.325,0.15,0.85]","","",""
"sailing-trial","409","1535891","0.0-11.0-374.0","","","","false","","","","","","","","","","208","","221.7000000178814","","0","1","arrowleft","0","arrowleft","[0.675,0.325,0.15,0.85]","","",""
"sailing-trial","410","1537774","0.0-11.0-375.0","","","","false","","","","","","","","","","null","","154.09999999403954","","0","1","null","null","arrowup","[0.675,0.325,0.15,0.85]","","",""
"sailing-trial","411","1541560","0.0-11.0-376.0","","","","false","","","","","","","","","","87.69999998807907","","990.5","","0","1","arrowleft","0","arrowleft","[0.675,0.325,0.15,0.85]","","",""
"sailing-trial","412","1543672","0.0-11.0-377.0","","","","false","","","","","","","","","","null","","405.30000001192093","","0","1","null","null","arrowup","[0.675,0.325,0.15,0.85]","","",""
"sailing-trial","413","1546494","0.0-11.0-378.0","","","","false","","","","","","","","","","119","","141.2000000178814","","0","1","arrowleft","0","arrowleft","[0.675,0.325,0.15,0.85]","","",""
"sailing-trial","414","1548296","0.0-11.0-379.0","","","","false","","","","","","","","","","null","","511","","2","0","null","null","arrowup","[0.675,0.325,0.15,0.85]","","",""
"sailing-trial","415","1551311","0.0-11.0-380.0","","","","false","","","","","","","","","","70.5","","349.59999999403954","","0","1","arrowleft","0","arrowleft","[0.675,0.325,0.15,0.85]","","",""
"sailing-trial","416","1552579","0.0-11.0-381.0","","","","false","","","","","","","","","","null","","228","","2","0","null","null","arrowup","[0.675,0.325,0.15,0.85]","","",""
"sailing-trial","417","1555710","0.0-11.0-382.0","","","","false","","","","","","","","","","291.59999999403954","","79","","0","1","arrowleft","0","arrowleft","[0.85,0.15,0.325,0.675]","","",""
"sailing-trial","418","1557028","0.0-11.0-383.0","","","","false","","","","","","","","","","null","","177.19999998807907","","3","0","null","null","arrowup","[0.85,0.15,0.325,0.675]","","",""
"sailing-trial","419","1559829","0.0-11.0-384.0","","","","false","","","","","","","","","","659.8000000119209","","122.40000000596046","","0","0","arrowleft","0","arrowleft","[0.85,0.15,0.325,0.675]","","",""
"sailing-trial","420","1562961","0.0-11.0-385.0","","","","false","","","","","","","","","","null","","1479.0999999940395","","0","1","null","null","arrowup","[0.85,0.15,0.325,0.675]","","",""
"sailing-trial","421","1566531","0.0-11.0-386.0","","","","false","","","","","","","","","","670.5","","137.30000001192093","","0","1","arrowleft","0","arrowleft","[0.85,0.15,0.325,0.675]","","",""
"sailing-trial","422","1568183","0.0-11.0-387.0","","","","false","","","","","","","","","","null","","594.7999999821186","","0","0","null","null","arrowup","[0.85,0.15,0.325,0.675]","","",""
"sailing-trial","423","1571545","0.0-11.0-388.0","","","","false","","","","","","","","","","598.5999999940395","","88.19999998807907","","0","1","arrowleft","0","arrowleft","[0.85,0.15,0.325,0.675]","","",""
"sailing-trial","424","1572727","0.0-11.0-389.0","","","","false","","","","","","","","","","null","","70.59999999403954","","2","0","null","null","arrowup","[0.85,0.15,0.325,0.675]","","",""
"sailing-trial","425","1576112","0.0-11.0-390.0","","","","false","","","","","","","","","","530.4000000059605","","79","","0","1","arrowleft","0","arrowleft","[0.85,0.15,0.325,0.675]","","",""
"sailing-trial","426","1577528","0.0-11.0-391.0","","","","false","","","","","","","","","","null","","296","","3","0","null","null","arrowup","[0.85,0.15,0.325,0.675]","","",""
"sailing-trial","427","1580564","0.0-11.0-392.0","","","","false","","","","","","","","","","144.5","","261.80000001192093","","0","1","arrowleft","0","arrowleft","[0.85,0.15,0.325,0.675]","","",""
"sailing-trial","428","1581843","0.0-11.0-393.0","","","","false","","","","","","","","","","null","","133.5","","1","0","null","null","arrowup","[0.85,0.15,0.325,0.675]","","",""
"sailing-trial","429","1584983","0.0-11.0-394.0","","","","false","","","","","","","","","","511","","48.70000001788139","","0","1","arrowleft","0","arrowleft","[0.85,0.15,0.325,0.675]","","",""
"sailing-trial","430","1586437","0.0-11.0-395.0","","","","false","","","","","","","","","","null","","288.5","","2","0","null","null","arrowup","[0.85,0.15,0.325,0.675]","","",""
"sailing-trial","431","1589762","0.0-11.0-396.0","","","","false","","","","","","","","","","415.80000001192093","","293.40000000596046","","0","1","arrowleft","0","arrowleft","[0.85,0.15,0.325,0.675]","","",""
"sailing-trial","432","1591616","0.0-11.0-397.0","","","","false","","","","","","","","","","null","","204.90000000596046","","1","1","null","null","arrowup","[0.85,0.15,0.325,0.675]","","",""
"sailing-trial","433","1594562","0.0-11.0-398.0","","","","false","","","","","","","","","","12.599999994039536","","218.90000000596046","","0","1","arrowleft","0","arrowleft","[0.85,0.15,0.325,0.675]","","",""
"sailing-trial","434","1596083","0.0-11.0-399.0","","","","false","","","","","","","","","","null","","324.69999998807907","","1","0","null","null","arrowup","[0.85,0.15,0.325,0.675]","","",""
"instructions","435","1605495","0.0-12.0","","","","","","","","","","9411.5","","","","","","","","","","","","","","","","[{""page_index"":0,""viewing_time"":9410.90000000596}]"
"survey-debrief","436","1639913","0.0-13.0","","","","","","","","","","34415.59999999404","","","","","","","","","","","","","","{""difficulty"":""4"",""fun"":""4"",""clarity"":""5"",""strategy"":""if it was x more than 3 times i switch"",""feedback"":""""}","",""
