"trial_type","trial_index","time_elapsed","internal_node_id","value","metadata","success","timeout","failed_images","failed_audio","failed_video","browser_interaction","low_quality","rt","stimulus","response","button_pressed","island_rt","island_response","boat_rt","boat_response","boat","reward","island_key","island","boat_key","reward_probabilities","responses","num_errors","view_history"
"pavlovia","0","7","0.0-0.0","","","","","","","","","","","","","","","","","","","","","","","","","",""
"call-function","1","8","0.0-1.0","","{""task_version"":""sailing_part1_v1"",""task_condition"":""good"",""boats"":[""D"",""A"",""B"",""C""],""boats_demo"":[""H"",""F"",""E"",""G""],""islands"":[""B"",""A""],""subject_id"":""14594"",""age"":""12"",""gender"":""Female""}","","","","","","","","","","","","","","","","","","","","","","","",""
"preload","2","12971","0.0-2.0","","","true","false","[]","[]","[]","[{""event"":""fullscreenenter"",""trial"":3,""time"":16550}]","false","","","","","","","","","","","","","","","","",""
"fullscreen","3","17531","0.0-3.0","","","true","","","","","","","","","","","","","","","","","","","","","","",""
"audio-keyboard-response","4","19589","0.0-4.0-0.0","","","","","","","","","","1440","audio/beep_loop.wav"," ","","","","","","","","","","","","","",""
"audio-test","5","26389","0.0-4.0-1.0","","","","","","","","","","null","audio/turtle.mp3","","3","","","","","","","","","","","","",""
"audio-test","6","29819","0.0-4.0-2.0","","","","","","","","","","null","audio/shark.mp3","","2","","","","","","","","","","","","",""
"sailing-instructions","7","60419","0.0-5.0-0.0-0.0","","","","","","","","","","","","","","null","null","null","null","null","null","","","","","","",""
"sailing-trial","8","66389","0.0-5.0-0.0-1.0-0.0","","","","false","","","","","","","","","","4708.399999856949","","null","","null","null","arrowleft","0","null","null","","",""
"sailing-trial","9","68553","0.0-5.0-0.0-1.0-1.0","","","","false","","","","","","","","","","1033.8999998569489","","null","","null","null","arrowright","1","null","null","","",""
"sailing-trial","10","71825","0.0-5.0-0.0-1.0-2.0","","","","false","","","","","","","","","","2143.7999999523163","","null","","null","null","arrowright","1","null","null","","",""
"sailing-instructions","11","112548","0.0-5.0-0.0-2.0","","","","","","","","","","","","","","null","null","null","null","0","null","","","","","","",""
"sailing-trial","12","117656","0.0-5.0-0.0-3.0-0.0","","","","false","","","","","","","","","","null","","1880.2999999523163","","2","1","null","null","arrowleft","[1,1,1,1]","","",""
"sailing-trial","13","121525","0.0-5.0-0.0-3.0-1.0","","","","false","","","","","","","","","","null","","790.5999999046326","","3","1","null","null","arrowright","[1,1,1,1]","","",""
"sailing-trial","14","125702","0.0-5.0-0.0-3.0-2.0","","","","false","","","","","","","","","","null","","1116.5","","3","0","null","null","arrowright","[0,0,0,0]","","",""
"sailing-instructions","15","132995","0.0-5.0-0.0-4.0","","","","","","","","","","","","","","null","null","null","null","null","null","","","","","","",""
"sailing-comprehension","16","150013","0.0-5.0-0.0-5.0","","","","","","","","","","14280.700000047684","","","","","","","","","","","","","","[""true"",""true"",""false"",""true""]","0",""
"sailing-instructions","17","213291","0.0-6.0-0.0-0.0","","","","","","","","","","","","","","null","null","null","null","null","null","","","","","","",""
"sailing-comprehension","18","231361","0.0-6.0-0.0-1.0","","","","","","","","","","16610.099999904633","","","","","","","","","","","","","","[""true"",""false"",""true""]","0",""
"sailing-instructions","19","245324","0.0-7.0-0.0-0.0","","","","","","","","","","","","","","null","null","null","null","null","null","","","","","","",""
"sailing-trial","20","250471","0.0-7.0-0.0-1.0-0.0","","","","false","","","","","","","","","","null","","2674.4000000953674","","0","0","null","null","arrowup","[0.2,0.8,0.2,0.8]","","",""
"sailing-trial","21","255677","0.0-7.0-0.0-1.0-1.0","","","","false","","","","","","","","","","null","","2495.399999856949","","1","1","null","null","arrowup","[0.2,0.8,0.2,0.8]","","",""
"sailing-trial","22","259703","0.0-7.0-0.0-1.0-2.0","","","","false","","","","","","","","","","null","","2047.2000000476837","","2","0","null","null","arrowup","[0.2,0.8,0.2,0.8]","","",""
"sailing-trial","23","263315","0.0-7.0-0.0-1.0-3.0","","","","false","","","","","","","","","","null","","962.6000001430511","","3","0","null","null","arrowup","[0.2,0.8,0.2,0.8]","","",""
"sailing-comprehension","24","270951","0.0-7.0-0.0-2.0","","","","","","","","","","6141.599999904633","","","","","","","","","","","","","","[""false""]","0",""
"sailing-instructions","25","281410","0.0-8.0-0.0-0.0","","","","","","","","","","","","","","null","null","null","null","null","null","","","","","","",""
"sailing-comprehension","26","286432","0.0-8.0-0.0-1.0","","","","","","","","","","3967.699999809265","","","","","","","","","","","","","","[""true""]","0",""
"sailing-instructions","27","312296","0.0-9.0-0.0-0.0","","","","","","","","","","","","","","null","null","null","null","null","null","","","","","","",""
"sailing-trial","28","319278","0.0-9.0-0.0-1.0-0.0","","","","false","","","","","","","","","","1518.7999999523163","","909.0999999046326","","0","0","arrowleft","0","arrowleft","[0.2,0.8,0.2,0.8]","","",""
"sailing-trial","29","325556","0.0-9.0-0.0-1.0-1.0","","","","false","","","","","","","","","","2043.7999999523163","","430.7000000476837","","1","1","arrowleft","0","arrowright","[0.2,0.8,0.2,0.8]","","",""
"sailing-trial","30","329883","0.0-9.0-0.0-1.0-2.0","","","","false","","","","","","","","","","null","","2112.7999999523163","","0","0","null","null","arrowup","[0.2,0.8,0.2,0.8]","","",""
"sailing-trial","31","333863","0.0-9.0-0.0-1.0-3.0","","","","false","","","","","","","","","","917.7999999523163","","109.09999990463257","","2","0","arrowright","1","arrowleft","[0.2,0.8,0.2,0.8]","","",""
"sailing-trial","32","338022","0.0-9.0-0.0-1.0-4.0","","","","false","","","","","","","","","","null","","1860.7000000476837","","3","1","null","null","arrowup","[0.2,0.8,0.2,0.8]","","",""
"sailing-trial","33","341314","0.0-9.0-0.0-1.0-5.0","","","","false","","","","","","","","","","580.5","","347.69999980926514","","3","0","arrowright","1","arrowright","[0.2,0.8,0.2,0.8]","","",""
"sailing-instructions","34","367743","0.0-10.0","","","","","","","","","","","","","","null","null","null","null","null","null","","","","","","",""
"sailing-trial","35","375139","0.0-11.0-0.0","","","","false","","","","","","","","","","3151.600000143051","","709.2999999523163","","2","0","arrowright","1","arrowleft","[0.675,0.325,0.15,0.85]","","",""
"sailing-trial","36","379947","0.0-11.0-1.0","","","","false","","","","","","","","","","null","","1830.4000000953674","","1","0","null","null","arrowup","[0.675,0.325,0.15,0.85]","","",""
"sailing-trial","37","384487","0.0-11.0-2.0","","","","false","","","","","","","","","","639.3999998569489","","453.2000000476837","","0","1","arrowleft","0","arrowleft","[0.675,0.325,0.15,0.85]","","",""
"sailing-trial","38","387833","0.0-11.0-3.0","","","","false","","","","","","","","","","null","","1566.0999999046326","","1","0","null","null","arrowup","[0.675,0.325,0.15,0.85]","","",""
"sailing-trial","39","391301","0.0-11.0-4.0","","","","false","","","","","","","","","","658.7999999523163","","15.5","","0","0","arrowleft","0","arrowleft","[0.675,0.325,0.15,0.85]","","",""
"sailing-trial","40","395007","0.0-11.0-5.0","","","","false","","","","","","","","","","null","","1695.7999999523163","","0","1","null","null","arrowup","[0.675,0.325,0.15,0.85]","","",""
"sailing-trial","41","399234","0.0-11.0-6.0","","","","false","","","","","","","","","","850.0999999046326","","471.2999999523163","","1","0","arrowleft","0","arrowright","[0.675,0.325,0.15,0.85]","","",""
"sailing-trial","42","402080","0.0-11.0-7.0","","","","false","","","","","","","","","","null","","1490.1000001430511","","1","0","null","null","arrowup","[0.675,0.325,0.15,0.85]","","",""
"sailing-trial","43","405776","0.0-11.0-8.0","","","","false","","","","","","","","","","665","","116.10000014305115","","2","0","arrowright","1","arrowleft","[0.675,0.325,0.15,0.85]","","",""
"sailing-trial","44","408341","0.0-11.0-9.0","","","","false","","","","","","","","","","null","","1249.2000000476837","","1","0","null","null","arrowup","[0.675,0.325,0.15,0.85]","","",""
"sailing-trial","45","412897","0.0-11.0-10.0","","","","false","","","","","","","","","","635.5","","244.90000009536743","","3","0","arrowright","1","arrowright","[0.675,0.325,0.15,0.85]","","",""
"sailing-trial","46","416480","0.0-11.0-11.0","","","","false","","","","","","","","","","null","","1401.7000000476837","","3","1","null","null","arrowup","[0.675,0.325,0.15,0.85]","","",""
"sailing-trial","47","419879","0.0-11.0-12.0","","","","false","","","","","","","","","","380.2000000476837","","53.89999985694885","","0","1","arrowleft","0","arrowleft","[0.675,0.325,0.15,0.85]","","",""
"sailing-trial","48","423369","0.0-11.0-13.0","","","","false","","","","","","","","","","null","","1385.5","","3","1","null","null","arrowup","[0.675,0.325,0.15,0.85]","","",""
"sailing-trial","49","427617","0.0-11.0-14.0","","","","false","","","","","","","","","","499.80000019073486","","336.59999990463257","","0","0","arrowleft","0","arrowleft","[0.675,0.325,0.15,0.85]","","",""
"sailing-trial","50","430806","0.0-11.0-15.0","","","","false","","","","","","","","","","null","","1248.5","","3","1","null","null","arrowup","[0.675,0.325,0.15,0.85]","","",""
"sailing-trial","51","434403","0.0-11.0-16.0","","","","false","","","","","","","","","","447.40000009536743","","63.700000047683716","","3","1","arrowright","1","arrowright","[0.675,0.325,0.15,0.85]","","",""
"sailing-trial","52","437154","0.0-11.0-17.0","","","","false","","","","","","","","","","null","","1159.7000000476837","","3","0","null","null","arrowup","[0.675,0.325,0.15,0.85]","","",""
"sailing-trial","53","441113","0.0-11.0-18.0","","","","false","","","","","","","","","","719.7000000476837","","264.5","","3","1","arrowright","1","arrowright","[0.675,0.325,0.15,0.85]","","",""
"sailing-trial","54","445856","0.0-11.0-19.0","","","","false","","","","","","","","","","null","","2147.5","","0","0","null","null","arrowup","[0.675,0.325,0.15,0.85]","","",""
"sailing-trial","55","450338","0.0-11.0-20.0","","","","false","","","","","","","","","","1188.9000000953674","","497","","3","1","arrowright","1","arrowright","[0.675,0.325,0.15,0.85]","","",""
"sailing-trial","56","453049","0.0-11.0-21.0","","","","false","","","","","","","","","","null","","1406.0999999046326","","0","0","null","null","arrowup","[0.675,0.325,0.15,0.85]","","",""
"sailing-trial","57","457894","0.0-11.0-22.0","","","","false","","","","","","","","","","591.0999999046326","","353.7000000476837","","3","0","arrowright","1","arrowright","[0.85,0.15,0.325,0.675]","","",""
"sailing-trial","58","460993","0.0-11.0-23.0","","","","false","","","","","","","","","","null","","1178","","2","1","null","null","arrowup","[0.85,0.15,0.325,0.675]","","",""
"sailing-trial","59","465499","0.0-11.0-24.0","","","","false","","","","","","","","","","894.8999998569489","","372.59999990463257","","1","0","arrowleft","0","arrowright","[0.85,0.15,0.325,0.675]","","",""
"sailing-trial","60","468083","0.0-11.0-25.0","","","","false","","","","","","","","","","null","","1327.3000001907349","","3","0","null","null","arrowup","[0.85,0.15,0.325,0.675]","","",""
"sailing-trial","61","471298","0.0-11.0-26.0","","","","false","","","","","","","","","","464.69999980926514","","95.5","","2","0","arrowright","1","arrowleft","[0.85,0.15,0.325,0.675]","","",""
"sailing-trial","62","473935","0.0-11.0-27.0","","","","false","","","","","","","","","","null","","1021.5999999046326","","0","1","null","null","arrowup","[0.85,0.15,0.325,0.675]","","",""
"sailing-trial","63","477628","0.0-11.0-28.0","","","","false","","","","","","","","","","88.10000014305115","","549.9000000953674","","0","1","arrowleft","0","arrowleft","[0.85,0.15,0.325,0.675]","","",""
"sailing-trial","64","480373","0.0-11.0-29.0","","","","false","","","","","","","","","","null","","1369.5999999046326","","3","0","null","null","arrowup","[0.85,0.15,0.325,0.675]","","",""
"sailing-trial","65","485352","0.0-11.0-30.0","","","","false","","","","","","","","","","486.7000000476837","","1316.3999998569489","","0","1","arrowleft","0","arrowleft","[0.85,0.15,0.325,0.675]","","",""
"sailing-trial","66","488176","0.0-11.0-31.0","","","","false","","","","","","","","","","null","","1115.6000001430511","","1","0","null","null","arrowup","[0.85,0.15,0.325,0.675]","","",""
"sailing-trial","67","491650","0.0-11.0-32.0","","","","false","","","","","","","","","","548.5","","271.19999980926514","","0","1","arrowleft","0","arrowleft","[0.85,0.15,0.325,0.675]","","",""
"sailing-trial","68","494627","0.0-11.0-33.0","","","","false","","","","","","","","","","null","","1352.4000000953674","","0","1","null","null","arrowup","[0.85,0.15,0.325,0.675]","","",""
"sailing-trial","69","498261","0.0-11.0-34.0","","","","false","","","","","","","","","","387.40000009536743","","666.5","","0","0","arrowleft","0","arrowleft","[0.85,0.15,0.325,0.675]","","",""
"sailing-trial","70","500652","0.0-11.0-35.0","","","","false","","","","","","","","","","null","","1174.3999998569489","","2","0","null","null","arrowup","[0.85,0.15,0.325,0.675]","","",""
"sailing-trial","71","504690","0.0-11.0-36.0","","","","false","","","","","","","","","","794.2000000476837","","514.2000000476837","","1","0","arrowleft","0","arrowright","[0.85,0.15,0.325,0.675]","","",""
"sailing-trial","72","507379","0.0-11.0-37.0","","","","false","","","","","","","","","","null","","1045.2999999523163","","1","0","null","null","arrowup","[0.85,0.15,0.325,0.675]","","",""
"sailing-trial","73","511778","0.0-11.0-38.0","","","","false","","","","","","","","","","682","","527.2000000476837","","3","1","arrowright","1","arrowright","[0.85,0.15,0.325,0.675]","","",""
"sailing-trial","74","515637","0.0-11.0-39.0","","","","false","","","","","","","","","","null","","1307.2999999523163","","1","0","null","null","arrowup","[0.85,0.15,0.325,0.675]","","",""
"sailing-trial","75","519088","0.0-11.0-40.0","","","","false","","","","","","","","","","474","","205.5","","3","1","arrowright","1","arrowright","[0.85,0.15,0.325,0.675]","","",""
"sailing-trial","76","522981","0.0-11.0-41.0","","","","false","","","","","","","","","","null","","1144","","0","1","null","null","arrowup","[0.85,0.15,0.325,0.675]","","",""
"sailing-trial","77","526815","0.0-11.0-42.0","","","","false","","","","","","","","","","363.40000009536743","","348.2999999523163","","0","0","arrowleft","0","arrowleft","[0.675,0.325,0.15,0.85]","","",""
"sailing-trial","78","529241","0.0-11.0-43.0","","","","false","","","","","","","","","","null","","1137.5","","2","0","null","null","arrowup","[0.675,0.325,0.15,0.85]","","",""
"sailing-trial","79","533396","0.0-11.0-44.0","","","","false","","","","","","","","","","644.5","","606.5","","3","1","arrowright","1","arrowright","[0.675,0.325,0.15,0.85]","","",""
"sailing-trial","80","536374","0.0-11.0-45.0","","","","false","","","","","","","","","","null","","1142.4000000953674","","3","1","null","null","arrowup","[0.675,0.325,0.15,0.85]","","",""
"sailing-trial","81","539819","0.0-11.0-46.0","","","","false","","","","","","","","","","220.70000004768372","","395.2999999523163","","3","1","arrowright","1","arrowright","[0.675,0.325,0.15,0.85]","","",""
"sailing-trial","82","542817","0.0-11.0-47.0","","","","false","","","","","","","","","","null","","1211.7000000476837","","1","1","null","null","arrowup","[0.675,0.325,0.15,0.85]","","",""
"sailing-trial","83","546577","0.0-11.0-48.0","","","","false","","","","","","","","","","440.5","","273.60000014305115","","3","1","arrowright","1","arrowright","[0.675,0.325,0.15,0.85]","","",""
"sailing-trial","84","549227","0.0-11.0-49.0","","","","false","","","","","","","","","","null","","1205.6999998092651","","1","0","null","null","arrowup","[0.675,0.325,0.15,0.85]","","",""
"sailing-trial","85","552584","0.0-11.0-50.0","","","","false","","","","","","","","","","488","","337.7999999523163","","3","0","arrowright","1","arrowright","[0.675,0.325,0.15,0.85]","","",""
"sailing-trial","86","555468","0.0-11.0-51.0","","","","false","","","","","","","","","","null","","1197.9000000953674","","3","1","null","null","arrowup","[0.675,0.325,0.15,0.85]","","",""
"sailing-trial","87","558748","0.0-11.0-52.0","","","","false","","","","","","","","","","95.90000009536743","","50.90000009536743","","3","1","arrowright","1","arrowright","[0.675,0.325,0.15,0.85]","","",""
"sailing-trial","88","561359","0.0-11.0-53.0","","","","false","","","","","","","","","","null","","869.2999999523163","","1","1","null","null","arrowup","[0.675,0.325,0.15,0.85]","","",""
"sailing-trial","89","564373","0.0-11.0-54.0","","","","false","","","","","","","","","","267.2000000476837","","258.2999999523163","","1","0","arrowleft","0","arrowright","[0.675,0.325,0.15,0.85]","","",""
"sailing-trial","90","567295","0.0-11.0-55.0","","","","false","","","","","","","","","","null","","1098.3999998569489","","0","1","null","null","arrowup","[0.675,0.325,0.15,0.85]","","",""
"sailing-trial","91","571464","0.0-11.0-56.0","","","","false","","","","","","","","","","42.5","","1047.2999999523163","","0","0","arrowleft","0","arrowleft","[0.675,0.325,0.15,0.85]","","",""
"sailing-trial","92","574446","0.0-11.0-57.0","","","","false","","","","","","","","","","null","","1636.5","","2","0","null","null","arrowup","[0.675,0.325,0.15,0.85]","","",""
"sailing-trial","93","577293","0.0-11.0-58.0","","","","false","","","","","","","","","","490","","133.69999980926514","","3","0","arrowright","1","arrowright","[0.15,0.85,0.675,0.325]","","",""
"sailing-trial","94","579957","0.0-11.0-59.0","","","","false","","","","","","","","","","null","","1109.1999998092651","","1","1","null","null","arrowup","[0.15,0.85,0.675,0.325]","","",""
"sailing-trial","95","584372","0.0-11.0-60.0","","","","false","","","","","","","","","","742.6000001430511","","177","","2","1","arrowright","1","arrowleft","[0.15,0.85,0.675,0.325]","","",""
"sailing-trial","96","587517","0.0-11.0-61.0","","","","false","","","","","","","","","","null","","1201.3999998569489","","0","0","null","null","arrowup","[0.15,0.85,0.675,0.325]","","",""
"sailing-trial","97","592629","0.0-11.0-62.0","","","","false","","","","","","","","","","1314.9000000953674","","252.90000009536743","","3","1","arrowright","1","arrowright","[0.15,0.85,0.675,0.325]","","",""
"sailing-trial","98","595942","0.0-11.0-63.0","","","","false","","","","","","","","","","null","","1141.1999998092651","","0","0","null","null","arrowup","[0.15,0.85,0.675,0.325]","","",""
"sailing-trial","99","601487","0.0-11.0-64.0","","","","false","","","","","","","","","","857.5999999046326","","814.4000000953674","","3","0","arrowright","1","arrowright","[0.15,0.85,0.675,0.325]","","",""
"sailing-trial","100","604417","0.0-11.0-65.0","","","","false","","","","","","","","","","null","","1580.9000000953674","","2","0","null","null","arrowup","[0.15,0.85,0.675,0.325]","","",""
"sailing-trial","101","607698","0.0-11.0-66.0","","","","false","","","","","","","","","","948.7000000476837","","25.90000009536743","","0","0","arrowleft","0","arrowleft","[0.15,0.85,0.675,0.325]","","",""
"sailing-trial","102","610530","0.0-11.0-67.0","","","","false","","","","","","","","","","null","","1030.5","","1","1","null","null","arrowup","[0.15,0.85,0.675,0.325]","","",""
"sailing-trial","103","614191","0.0-11.0-68.0","","","","false","","","","","","","","","","654","","121.70000004768372","","1","1","arrowleft","0","arrowright","[0.15,0.85,0.675,0.325]","","",""
"sailing-trial","104","617062","0.0-11.0-69.0","","","","false","","","","","","","","","","null","","1075.5","","2","1","null","null","arrowup","[0.15,0.85,0.675,0.325]","","",""
"sailing-trial","105","621220","0.0-11.0-70.0","","","","false","","","","","","","","","","426.2000000476837","","711.1000001430511","","1","1","arrowleft","0","arrowright","[0.15,0.85,0.675,0.325]","","",""
"sailing-trial","106","624099","0.0-11.0-71.0","","","","false","","","","","","","","","","null","","1533.2999999523163","","3","0","null","null","arrowup","[0.15,0.85,0.675,0.325]","","",""
"sailing-trial","107","627379","0.0-11.0-72.0","","","","false","","","","","","","","","","535.2000000476837","","406.2999999523163","","1","0","arrowleft","0","arrowright","[0.15,0.85,0.675,0.325]","","",""
"sailing-trial","108","629992","0.0-11.0-73.0","","","","false","","","","","","","","","","null","","1385.3999998569489","","3","0","null","null","arrowup","[0.15,0.85,0.675,0.325]","","",""
"sailing-trial","109","633323","0.0-11.0-74.0","","","","false","","","","","","","","","","547","","234.79999995231628","","2","0","arrowright","1","arrowleft","[0.325,0.675,0.85,0.15]","","",""
"sailing-trial","110","636336","0.0-11.0-75.0","","","","false","","","","","","","","","","null","","1245.2000000476837","","1","1","null","null","arrowup","[0.325,0.675,0.85,0.15]","","",""
"sailing-trial","111","639714","0.0-11.0-76.0","","","","false","","","","","","","","","","324.2000000476837","","6.099999904632568","","1","0","arrowleft","0","arrowright","[0.325,0.675,0.85,0.15]","","",""
"sailing-trial","112","642382","0.0-11.0-77.0","","","","false","","","","","","","","","","null","","877.0999999046326","","2","1","null","null","arrowup","[0.325,0.675,0.85,0.15]","","",""
"sailing-trial","113","645567","0.0-11.0-78.0","","","","false","","","","","","","","","","280.2000000476837","","276.2999999523163","","2","1","arrowright","1","arrowleft","[0.325,0.675,0.85,0.15]","","",""
"sailing-trial","114","648491","0.0-11.0-79.0","","","","false","","","","","","","","","","null","","1577.3000001907349","","0","0","null","null","arrowup","[0.325,0.675,0.85,0.15]","","",""
"sailing-trial","115","652095","0.0-11.0-80.0","","","","false","","","","","","","","","","536.6000001430511","","328.7000000476837","","2","0","arrowright","1","arrowleft","[0.325,0.675,0.85,0.15]","","",""
"sailing-trial","116","654813","0.0-11.0-81.0","","","","false","","","","","","","","","","null","","1335.2000000476837","","0","0","null","null","arrowup","[0.325,0.675,0.85,0.15]","","",""
"sailing-trial","117","658284","0.0-11.0-82.0","","","","false","","","","","","","","","","486.7999999523163","","277.59999990463257","","1","1","arrowleft","0","arrowright","[0.325,0.675,0.85,0.15]","","",""
"sailing-trial","118","661480","0.0-11.0-83.0","","","","false","","","","","","","","","","null","","1204","","1","1","null","null","arrowup","[0.325,0.675,0.85,0.15]","","",""
"sailing-trial","119","665194","0.0-11.0-84.0","","","","false","","","","","","","","","","475.59999990463257","","260.60000014305115","","1","1","arrowleft","0","arrowright","[0.325,0.675,0.85,0.15]","","",""
"sailing-trial","120","669107","0.0-11.0-85.0","","","","false","","","","","","","","","","null","","2253.7000000476837","","2","1","null","null","arrowup","[0.325,0.675,0.85,0.15]","","",""
"sailing-trial","121","672039","0.0-11.0-86.0","","","","false","","","","","","","","","","227.09999990463257","","328.59999990463257","","2","0","arrowright","1","arrowleft","[0.325,0.675,0.85,0.15]","","",""
"sailing-trial","122","675253","0.0-11.0-87.0","","","","false","","","","","","","","","","null","","1268.0999999046326","","0","1","null","null","arrowup","[0.325,0.675,0.85,0.15]","","",""
"sailing-trial","123","678764","0.0-11.0-88.0","","","","false","","","","","","","","","","513.2000000476837","","361.30000019073486","","1","1","arrowleft","0","arrowright","[0.325,0.675,0.85,0.15]","","",""
"sailing-trial","124","681411","0.0-11.0-89.0","","","","false","","","","","","","","","","null","","1019.7999999523163","","3","1","null","null","arrowup","[0.325,0.675,0.85,0.15]","","",""
"sailing-trial","125","685291","0.0-11.0-90.0","","","","false","","","","","","","","","","439","","487.09999990463257","","1","1","arrowleft","0","arrowright","[0.15,0.85,0.675,0.325]","","",""
"sailing-trial","126","687869","0.0-11.0-91.0","","","","false","","","","","","","","","","null","","1333.7999999523163","","0","0","null","null","arrowup","[0.15,0.85,0.675,0.325]","","",""
"sailing-trial","127","691369","0.0-11.0-92.0","","","","false","","","","","","","","","","429.7000000476837","","333.60000014305115","","1","1","arrowleft","0","arrowright","[0.15,0.85,0.675,0.325]","","",""
"sailing-trial","128","693581","0.0-11.0-93.0","","","","false","","","","","","","","","","null","","1149","","1","0","null","null","arrowup","[0.15,0.85,0.675,0.325]","","",""
"sailing-trial","129","699264","0.0-11.0-94.0","","","","false","","","","","","","","","","1792.8000001907349","","869.9000000953674","","1","1","arrowleft","0","arrowright","[0.15,0.85,0.675,0.325]","","",""
"sailing-trial","130","701964","0.0-11.0-95.0","","","","false","","","","","","","","","","null","","1069.5","","1","1","null","null","arrowup","[0.15,0.85,0.675,0.325]","","",""
"sailing-trial","131","706086","0.0-11.0-96.0","","","","false","","","","","","","","","","384.7999999523163","","833.7999999523163","","1","1","arrowleft","0","arrowright","[0.15,0.85,0.675,0.325]","","",""
"sailing-trial","132","708349","0.0-11.0-97.0","","","","false","","","","","","","","","","null","","989.5","","2","0","null","null","arrowup","[0.15,0.85,0.675,0.325]","","",""
"sailing-trial","133","712259","0.0-11.0-98.0","","","","false","","","","","","","","","","507.7000000476837","","353.5","","1","1","arrowleft","0","arrowright","[0.15,0.85,0.675,0.325]","","",""
"sailing-trial","134","716171","0.0-11.0-99.0","","","","false","","","","","","","","","","null","","2105.7999999523163","","1","1","null","null","arrowup","[0.15,0.85,0.675,0.325]","","",""
"sailing-trial","135","719758","0.0-11.0-100.0","","","","false","","","","","","","","","","578.4000000953674","","82.29999995231628","","1","1","arrowleft","0","arrowright","[0.15,0.85,0.675,0.325]","","",""
"sailing-trial","136","722442","0.0-11.0-101.0","","","","false","","","","","","","","","","null","","1459.0999999046326","","0","0","null","null","arrowup","[0.15,0.85,0.675,0.325]","","",""
"sailing-trial","137","726302","0.0-11.0-102.0","","","","false","","","","","","","","","","544.5999999046326","","421.40000009536743","","1","1","arrowleft","0","arrowright","[0.15,0.85,0.675,0.325]","","",""
"sailing-trial","138","728912","0.0-11.0-103.0","","","","false","","","","","","","","","","null","","1371.2000000476837","","3","0","null","null","arrowup","[0.15,0.85,0.675,0.325]","","",""
"sailing-trial","139","733026","0.0-11.0-104.0","","","","false","","","","","","","","","","451.5","","321.2000000476837","","1","1","arrowleft","0","arrowright","[0.15,0.85,0.675,0.325]","","",""
"sailing-trial","140","735257","0.0-11.0-105.0","","","","false","","","","","","","","","","null","","901","","3","0","null","null","arrowup","[0.15,0.85,0.675,0.325]","","",""
"sailing-trial","141","738890","0.0-11.0-106.0","","","","false","","","","","","","","","","426","","384.5","","1","1","arrowleft","0","arrowright","[0.15,0.85,0.675,0.325]","","",""
"sailing-trial","142","741503","0.0-11.0-107.0","","","","false","","","","","","","","","","null","","742.3999998569489","","1","1","null","null","arrowup","[0.15,0.85,0.675,0.325]","","",""
"sailing-trial","143","744496","0.0-11.0-108.0","","","","false","","","","","","","","","","642.7000000476837","","43.09999990463257","","1","0","arrowleft","0","arrowright","[0.325,0.675,0.85,0.15]","","",""
"sailing-trial","144","747624","0.0-11.0-109.0","","","","false","","","","","","","","","","null","","1338.7999999523163","","1","1","null","null","arrowup","[0.325,0.675,0.85,0.15]","","",""
"sailing-trial","145","751157","0.0-11.0-110.0","","","","false","","","","","","","","","","604.3999998569489","","344.5","","1","0","arrowleft","0","arrowright","[0.325,0.675,0.85,0.15]","","",""
"sailing-trial","146","753517","0.0-11.0-111.0","","","","false","","","","","","","","","","null","","1141.7000000476837","","2","0","null","null","arrowup","[0.325,0.675,0.85,0.15]","","",""
"sailing-trial","147","756237","0.0-11.0-112.0","","","","false","","","","","","","","","","492.69999980926514","","34.200000047683716","","3","0","arrowright","1","arrowright","[0.325,0.675,0.85,0.15]","","",""
"sailing-trial","148","758747","0.0-11.0-113.0","","","","false","","","","","","","","","","null","","1108.4000000953674","","0","0","null","null","arrowup","[0.325,0.675,0.85,0.15]","","",""
"sailing-trial","149","764340","0.0-11.0-114.0","","","","false","","","","","","","","","","2593.2000000476837","","175.79999995231628","","2","1","arrowright","1","arrowleft","[0.325,0.675,0.85,0.15]","","",""
"sailing-trial","150","766844","0.0-11.0-115.0","","","","false","","","","","","","","","","null","","872.7999999523163","","1","1","null","null","arrowup","[0.325,0.675,0.85,0.15]","","",""
"sailing-trial","151","770305","0.0-11.0-116.0","","","","false","","","","","","","","","","421.19999980926514","","389.40000009536743","","2","1","arrowright","1","arrowleft","[0.325,0.675,0.85,0.15]","","",""
"sailing-trial","152","772370","0.0-11.0-117.0","","","","false","","","","","","","","","","null","","927.0999999046326","","2","0","null","null","arrowup","[0.325,0.675,0.85,0.15]","","",""
"sailing-trial","153","775383","0.0-11.0-118.0","","","","false","","","","","","","","","","508.40000009536743","","101.09999990463257","","0","0","arrowleft","0","arrowleft","[0.325,0.675,0.85,0.15]","","",""
"sailing-trial","154","778299","0.0-11.0-119.0","","","","false","","","","","","","","","","null","","955.3999998569489","","2","1","null","null","arrowup","[0.325,0.675,0.85,0.15]","","",""
"sailing-trial","155","782063","0.0-11.0-120.0","","","","false","","","","","","","","","","589.0999999046326","","391.39999985694885","","1","1","arrowleft","0","arrowright","[0.325,0.675,0.85,0.15]","","",""
"sailing-trial","156","785741","0.0-11.0-121.0","","","","false","","","","","","","","","","null","","1805.7999999523163","","2","1","null","null","arrowup","[0.325,0.675,0.85,0.15]","","",""
"sailing-trial","157","789350","0.0-11.0-122.0","","","","false","","","","","","","","","","378.7999999523163","","238.10000014305115","","2","1","arrowright","1","arrowleft","[0.325,0.675,0.85,0.15]","","",""
"sailing-trial","158","792444","0.0-11.0-123.0","","","","false","","","","","","","","","","null","","1164.3000001907349","","1","1","null","null","arrowup","[0.325,0.675,0.85,0.15]","","",""
"sailing-trial","159","795932","0.0-11.0-124.0","","","","false","","","","","","","","","","693.7999999523163","","368.80000019073486","","1","0","arrowleft","0","arrowright","[0.85,0.15,0.325,0.675]","","",""
"sailing-trial","160","798592","0.0-11.0-125.0","","","","false","","","","","","","","","","null","","1103.5999999046326","","3","1","null","null","arrowup","[0.85,0.15,0.325,0.675]","","",""
"sailing-trial","161","801938","0.0-11.0-126.0","","","","false","","","","","","","","","","52.299999952316284","","230.19999980926514","","3","1","arrowright","1","arrowright","[0.85,0.15,0.325,0.675]","","",""
"sailing-trial","162","804831","0.0-11.0-127.0","","","","false","","","","","","","","","","null","","1037.1000001430511","","0","1","null","null","arrowup","[0.85,0.15,0.325,0.675]","","",""
"sailing-trial","163","807739","0.0-11.0-128.0","","","","false","","","","","","","","","","104.40000009536743","","0.9000000953674316","","3","1","arrowright","1","arrowright","[0.85,0.15,0.325,0.675]","","",""
"sailing-trial","164","811032","0.0-11.0-129.0","","","","false","","","","","","","","","","null","","1198.0999999046326","","0","1","null","null","arrowup","[0.85,0.15,0.325,0.675]","","",""
"sailing-trial","165","815028","0.0-11.0-130.0","","","","false","","","","","","","","","","489.2999999523163","","340.7000000476837","","3","0","arrowright","1","arrowright","[0.85,0.15,0.325,0.675]","","",""
"sailing-trial","166","817828","0.0-11.0-131.0","","","","false","","","","","","","","","","null","","1186.8999998569489","","3","1","null","null","arrowup","[0.85,0.15,0.325,0.675]","","",""
"sailing-trial","167","822239","0.0-11.0-132.0","","","","false","","","","","","","","","","425.30000019073486","","1067.2999999523163","","0","1","arrowleft","0","arrowleft","[0.85,0.15,0.325,0.675]","","",""
"sailing-trial","168","825072","0.0-11.0-133.0","","","","false","","","","","","","","","","null","","1089.8000001907349","","1","1","null","null","arrowup","[0.85,0.15,0.325,0.675]","","",""
"sailing-trial","169","828934","0.0-11.0-134.0","","","","false","","","","","","","","","","454.5","","462.59999990463257","","0","1","arrowleft","0","arrowleft","[0.85,0.15,0.325,0.675]","","",""
"sailing-trial","170","831640","0.0-11.0-135.0","","","","false","","","","","","","","","","null","","923","","2","0","null","null","arrowup","[0.85,0.15,0.325,0.675]","","",""
"sailing-trial","171","836643","0.0-11.0-136.0","","","","false","","","","","","","","","","840.5","","898.8000001907349","","3","1","arrowright","1","arrowright","[0.85,0.15,0.325,0.675]","","",""
"sailing-trial","172","840996","0.0-11.0-137.0","","","","false","","","","","","","","","","null","","1854.5","","2","0","null","null","arrowup","[0.85,0.15,0.325,0.675]","","",""
"sailing-trial","173","845001","0.0-11.0-138.0","","","","false","","","","","","","","","","749","","375.59999990463257","","3","1","arrowright","1","arrowright","[0.85,0.15,0.325,0.675]","","",""
"sailing-trial","174","847046","0.0-11.0-139.0","","","","false","","","","","","","","","","null","","786.7999999523163","","1","0","null","null","arrowup","[0.85,0.15,0.325,0.675]","","",""
"sailing-trial","175","850151","0.0-11.0-140.0","","","","false","","","","","","","","","","542.6000001430511","","355.09999990463257","","0","0","arrowleft","0","arrowleft","[0.15,0.85,0.675,0.325]","","",""
"sailing-trial","176","853053","0.0-11.0-141.0","","","","false","","","","","","","","","","null","","1106","","1","1","null","null","arrowup","[0.15,0.85,0.675,0.325]","","",""
"sailing-trial","177","855791","0.0-11.0-142.0","","","","false","","","","","","","","","","84.40000009536743","","184.39999985694885","","3","0","arrowright","1","arrowright","[0.15,0.85,0.675,0.325]","","",""
"sailing-trial","178","859510","0.0-11.0-143.0","","","","false","","","","","","","","","","null","","1989.5","","3","1","null","null","arrowup","[0.15,0.85,0.675,0.325]","","",""
"sailing-trial","179","862671","0.0-11.0-144.0","","","","false","","","","","","","","","","475.59999990463257","","332.39999985694885","","1","0","arrowleft","0","arrowright","[0.15,0.85,0.675,0.325]","","",""
"sailing-trial","180","865119","0.0-11.0-145.0","","","","false","","","","","","","","","","null","","1163.7999999523163","","0","0","null","null","arrowup","[0.15,0.85,0.675,0.325]","","",""
"sailing-trial","181","868697","0.0-11.0-146.0","","","","false","","","","","","","","","","632.2000000476837","","222.89999985694885","","2","1","arrowright","1","arrowleft","[0.15,0.85,0.675,0.325]","","",""
"sailing-trial","182","871081","0.0-11.0-147.0","","","","false","","","","","","","","","","null","","1127.2000000476837","","2","0","null","null","arrowup","[0.15,0.85,0.675,0.325]","","",""
"sailing-trial","183","874160","0.0-11.0-148.0","","","","false","","","","","","","","","","473.90000009536743","","294.59999990463257","","3","0","arrowright","1","arrowright","[0.15,0.85,0.675,0.325]","","",""
"sailing-trial","184","877135","0.0-11.0-149.0","","","","false","","","","","","","","","","null","","1127.1000001430511","","1","1","null","null","arrowup","[0.15,0.85,0.675,0.325]","","",""
"sailing-trial","185","880721","0.0-11.0-150.0","","","","false","","","","","","","","","","286.5","","382.2999999523163","","1","1","arrowleft","0","arrowright","[0.15,0.85,0.675,0.325]","","",""
"sailing-trial","186","883453","0.0-11.0-151.0","","","","false","","","","","","","","","","null","","919.4000000953674","","2","1","null","null","arrowup","[0.15,0.85,0.675,0.325]","","",""
"sailing-trial","187","887037","0.0-11.0-152.0","","","","false","","","","","","","","","","744.2000000476837","","66.70000004768372","","2","1","arrowright","1","arrowleft","[0.15,0.85,0.675,0.325]","","",""
"sailing-trial","188","889313","0.0-11.0-153.0","","","","false","","","","","","","","","","null","","1017.5","","1","0","null","null","arrowup","[0.15,0.85,0.675,0.325]","","",""
"sailing-trial","189","892838","0.0-11.0-154.0","","","","false","","","","","","","","","","446.2000000476837","","288.80000019073486","","2","1","arrowright","1","arrowleft","[0.15,0.85,0.675,0.325]","","",""
"sailing-trial","190","896282","0.0-11.0-155.0","","","","false","","","","","","","","","","null","","1284.7000000476837","","3","1","null","null","arrowup","[0.15,0.85,0.675,0.325]","","",""
"sailing-trial","191","900565","0.0-11.0-156.0","","","","false","","","","","","","","","","926.7000000476837","","263.7999999523163","","2","1","arrowright","1","arrowleft","[0.15,0.85,0.675,0.325]","","",""
"sailing-trial","192","903636","0.0-11.0-157.0","","","","false","","","","","","","","","","null","","1344.1999998092651","","0","0","null","null","arrowup","[0.15,0.85,0.675,0.325]","","",""
"sailing-trial","193","908022","0.0-11.0-158.0","","","","false","","","","","","","","","","1209.0999999046326","","168.29999995231628","","2","1","arrowright","1","arrowleft","[0.15,0.85,0.675,0.325]","","",""
"sailing-trial","194","910784","0.0-11.0-159.0","","","","false","","","","","","","","","","null","","1237.3999998569489","","0","0","null","null","arrowup","[0.15,0.85,0.675,0.325]","","",""
"sailing-trial","195","916681","0.0-11.0-160.0","","","","false","","","","","","","","","","1738.1000001430511","","298.5","","2","0","arrowright","1","arrowleft","[0.85,0.15,0.325,0.675]","","",""
"sailing-trial","196","919121","0.0-11.0-161.0","","","","false","","","","","","","","","","null","","1048","","0","0","null","null","arrowup","[0.85,0.15,0.325,0.675]","","",""
"sailing-trial","197","923422","0.0-11.0-162.0","","","","false","","","","","","","","","","949.2999999523163","","250.70000004768372","","1","0","arrowleft","0","arrowright","[0.85,0.15,0.325,0.675]","","",""
"sailing-trial","198","926105","0.0-11.0-163.0","","","","false","","","","","","","","","","null","","898.5","","3","1","null","null","arrowup","[0.85,0.15,0.325,0.675]","","",""
"sailing-trial","199","930285","0.0-11.0-164.0","","","","false","","","","","","","","","","550.6999998092651","","797.6000001430511","","3","1","arrowright","1","arrowright","[0.85,0.15,0.325,0.675]","","",""
"sailing-trial","200","933508","0.0-11.0-165.0","","","","false","","","","","","","","","","null","","1404","","2","1","null","null","arrowup","[0.85,0.15,0.325,0.675]","","",""
"sailing-trial","201","937377","0.0-11.0-166.0","","","","false","","","","","","","","","","429.5","","416","","3","1","arrowright","1","arrowright","[0.85,0.15,0.325,0.675]","","",""
"sailing-trial","202","940225","0.0-11.0-167.0","","","","false","","","","","","","","","","null","","995.0999999046326","","3","1","null","null","arrowup","[0.85,0.15,0.325,0.675]","","",""
"sailing-trial","203","944854","0.0-11.0-168.0","","","","false","","","","","","","","","","601.1000001430511","","797.2000000476837","","3","1","arrowright","1","arrowright","[0.85,0.15,0.325,0.675]","","",""
"sailing-trial","204","947450","0.0-11.0-169.0","","","","false","","","","","","","","","","null","","881.2000000476837","","0","1","null","null","arrowup","[0.85,0.15,0.325,0.675]","","",""
"sailing-trial","205","950548","0.0-11.0-170.0","","","","false","","","","","","","","","","183","","44.60000014305115","","3","1","arrowright","1","arrowright","[0.85,0.15,0.325,0.675]","","",""
"sailing-trial","206","952780","0.0-11.0-171.0","","","","false","","","","","","","","","","null","","958.2999999523163","","2","0","null","null","arrowup","[0.85,0.15,0.325,0.675]","","",""
"sailing-trial","207","957048","0.0-11.0-172.0","","","","false","","","","","","","","","","472","","771.7999999523163","","3","1","arrowright","1","arrowright","[0.85,0.15,0.325,0.675]","","",""
"sailing-trial","208","959237","0.0-11.0-173.0","","","","false","","","","","","","","","","null","","965.7000000476837","","1","0","null","null","arrowup","[0.85,0.15,0.325,0.675]","","",""
"sailing-trial","209","962862","0.0-11.0-174.0","","","","false","","","","","","","","","","444.19999980926514","","311.5","","3","1","arrowright","1","arrowright","[0.85,0.15,0.325,0.675]","","",""
"sailing-trial","210","965331","0.0-11.0-175.0","","","","false","","","","","","","","","","null","","723.7999999523163","","0","1","null","null","arrowup","[0.85,0.15,0.325,0.675]","","",""
"sailing-trial","211","969978","0.0-11.0-176.0","","","","false","","","","","","","","","","314.90000009536743","","1444.2000000476837","","0","1","arrowleft","0","arrowleft","[0.85,0.15,0.325,0.675]","","",""
"sailing-trial","212","972174","0.0-11.0-177.0","","","","false","","","","","","","","","","null","","1025.8000001907349","","2","0","null","null","arrowup","[0.85,0.15,0.325,0.675]","","",""
"sailing-trial","213","976601","0.0-11.0-178.0","","","","false","","","","","","","","","","1131.1999998092651","","594.1999998092651","","3","1","arrowright","1","arrowright","[0.675,0.325,0.15,0.85]","","",""
"sailing-trial","214","978701","0.0-11.0-179.0","","","","false","","","","","","","","","","null","","819.5999999046326","","2","0","null","null","arrowup","[0.675,0.325,0.15,0.85]","","",""
"sailing-trial","215","982017","0.0-11.0-180.0","","","","false","","","","","","","","","","492.89999985694885","","272.39999985694885","","3","1","arrowright","1","arrowright","[0.675,0.325,0.15,0.85]","","",""
"sailing-trial","216","984495","0.0-11.0-181.0","","","","false","","","","","","","","","","null","","1359.1999998092651","","0","0","null","null","arrowup","[0.675,0.325,0.15,0.85]","","",""
"sailing-trial","217","987911","0.0-11.0-182.0","","","","false","","","","","","","","","","463.30000019073486","","262.7000000476837","","3","1","arrowright","1","arrowright","[0.675,0.325,0.15,0.85]","","",""
"sailing-trial","218","990075","0.0-11.0-183.0","","","","false","","","","","","","","","","null","","748.5","","3","0","null","null","arrowup","[0.675,0.325,0.15,0.85]","","",""
"sailing-trial","219","993654","0.0-11.0-184.0","","","","false","","","","","","","","","","551.2000000476837","","608.7999999523163","","1","0","arrowleft","0","arrowright","[0.675,0.325,0.15,0.85]","","",""
"sailing-trial","220","996001","0.0-11.0-185.0","","","","false","","","","","","","","","","null","","902.5999999046326","","2","0","null","null","arrowup","[0.675,0.325,0.15,0.85]","","",""
"sailing-trial","221","999615","0.0-11.0-186.0","","","","false","","","","","","","","","","579.7999999523163","","291.30000019073486","","3","0","arrowright","1","arrowright","[0.675,0.325,0.15,0.85]","","",""
"sailing-trial","222","1002447","0.0-11.0-187.0","","","","false","","","","","","","","","","null","","1063.7999999523163","","3","1","null","null","arrowup","[0.675,0.325,0.15,0.85]","","",""
"sailing-trial","223","1005794","0.0-11.0-188.0","","","","false","","","","","","","","","","421.5","","82.5","","3","1","arrowright","1","arrowright","[0.675,0.325,0.15,0.85]","","",""
"sailing-trial","224","1009224","0.0-11.0-189.0","","","","false","","","","","","","","","","null","","1557.7999999523163","","3","1","null","null","arrowup","[0.675,0.325,0.15,0.85]","","",""
"sailing-trial","225","1013536","0.0-11.0-190.0","","","","false","","","","","","","","","","1135.9000000953674","","556.7999999523163","","3","1","arrowright","1","arrowright","[0.675,0.325,0.15,0.85]","","",""
"sailing-trial","226","1016347","0.0-11.0-191.0","","","","false","","","","","","","","","","null","","1073.5999999046326","","2","0","null","null","arrowup","[0.675,0.325,0.15,0.85]","","",""
"sailing-trial","227","1020591","0.0-11.0-192.0","","","","false","","","","","","","","","","670.8999998569489","","798.6999998092651","","3","1","arrowright","1","arrowright","[0.675,0.325,0.15,0.85]","","",""
"sailing-trial","228","1023124","0.0-11.0-193.0","","","","false","","","","","","","","","","null","","703","","0","1","null","null","arrowup","[0.675,0.325,0.15,0.85]","","",""
"sailing-trial","229","1028103","0.0-11.0-194.0","","","","false","","","","","","","","","","285.2000000476837","","951.4000000953674","","3","0","arrowright","1","arrowright","[0.325,0.675,0.85,0.15]","","",""
"sailing-trial","230","1032610","0.0-11.0-195.0","","","","false","","","","","","","","","","null","","2568.5","","2","1","null","null","arrowup","[0.325,0.675,0.85,0.15]","","",""
"sailing-trial","231","1035089","0.0-11.0-196.0","","","","false","","","","","","","","","","387.59999990463257","","3.9000000953674316","","0","0","arrowleft","0","arrowleft","[0.325,0.675,0.85,0.15]","","",""
"sailing-trial","232","1037799","0.0-11.0-197.0","","","","false","","","","","","","","","","null","","927","","2","1","null","null","arrowup","[0.325,0.675,0.85,0.15]","","",""
"sailing-trial","233","1040623","0.0-11.0-198.0","","","","false","","","","","","","","","","444.89999985694885","","127","","2","0","arrowright","1","arrowleft","[0.325,0.675,0.85,0.15]","","",""
"sailing-trial","234","1044395","0.0-11.0-199.0","","","","false","","","","","","","","","","null","","2080.2999999523163","","1","1","null","null","arrowup","[0.325,0.675,0.85,0.15]","","",""
"sailing-trial","235","1048583","0.0-11.0-200.0","","","","false","","","","","","","","","","1065.8999998569489","","470.7999999523163","","1","1","arrowleft","0","arrowright","[0.325,0.675,0.85,0.15]","","",""
"sailing-trial","236","1051230","0.0-11.0-201.0","","","","false","","","","","","","","","","null","","1354.2000000476837","","0","0","null","null","arrowup","[0.325,0.675,0.85,0.15]","","",""
"sailing-trial","237","1055462","0.0-11.0-202.0","","","","false","","","","","","","","","","463.2000000476837","","948","","3","1","arrowright","1","arrowright","[0.325,0.675,0.85,0.15]","","",""
"sailing-trial","238","1057153","0.0-11.0-203.0","","","","false","","","","","","","","","","null","","481.09999990463257","","0","0","null","null","arrowup","[0.325,0.675,0.85,0.15]","","",""
"sailing-trial","239","1060660","0.0-11.0-204.0","","","","false","","","","","","","","","","558.5","","333.7999999523163","","3","0","arrowright","1","arrowright","[0.325,0.675,0.85,0.15]","","",""
"sailing-trial","240","1063318","0.0-11.0-205.0","","","","false","","","","","","","","","","null","","847.0999999046326","","0","0","null","null","arrowup","[0.325,0.675,0.85,0.15]","","",""
"sailing-trial","241","1067182","0.0-11.0-206.0","","","","false","","","","","","","","","","420.09999990463257","","841.4000000953674","","1","1","arrowleft","0","arrowright","[0.325,0.675,0.85,0.15]","","",""
"sailing-trial","242","1069478","0.0-11.0-207.0","","","","false","","","","","","","","","","null","","633.2000000476837","","2","1","null","null","arrowup","[0.325,0.675,0.85,0.15]","","",""
"sailing-trial","243","1072031","0.0-11.0-208.0","","","","false","","","","","","","","","","355","","91.79999995231628","","1","0","arrowleft","0","arrowright","[0.325,0.675,0.85,0.15]","","",""
"sailing-trial","244","1074107","0.0-11.0-209.0","","","","false","","","","","","","","","","null","","934.7999999523163","","3","0","null","null","arrowup","[0.325,0.675,0.85,0.15]","","",""
"sailing-trial","245","1078302","0.0-11.0-210.0","","","","false","","","","","","","","","","548.2000000476837","","967.1999998092651","","2","1","arrowright","1","arrowleft","[0.325,0.675,0.85,0.15]","","",""
"sailing-trial","246","1080185","0.0-11.0-211.0","","","","false","","","","","","","","","","null","","768.2999999523163","","3","0","null","null","arrowup","[0.325,0.675,0.85,0.15]","","",""
"sailing-trial","247","1083967","0.0-11.0-212.0","","","","false","","","","","","","","","","481.59999990463257","","321.5","","3","1","arrowright","1","arrowright","[0.15,0.85,0.675,0.325]","","",""
"sailing-trial","248","1086010","0.0-11.0-213.0","","","","false","","","","","","","","","","null","","891.5","","1","0","null","null","arrowup","[0.15,0.85,0.675,0.325]","","",""
"sailing-trial","249","1088898","0.0-11.0-214.0","","","","false","","","","","","","","","","498.39999985694885","","302.90000009536743","","3","0","arrowright","1","arrowright","[0.15,0.85,0.675,0.325]","","",""
"sailing-trial","250","1091995","0.0-11.0-215.0","","","","false","","","","","","","","","","null","","1290.1000001430511","","2","1","null","null","arrowup","[0.15,0.85,0.675,0.325]","","",""
"sailing-trial","251","1096044","0.0-11.0-216.0","","","","false","","","","","","","","","","968.3999998569489","","98.5","","1","1","arrowleft","0","arrowright","[0.15,0.85,0.675,0.325]","","",""
"sailing-trial","252","1098242","0.0-11.0-217.0","","","","false","","","","","","","","","","null","","935.7000000476837","","2","0","null","null","arrowup","[0.15,0.85,0.675,0.325]","","",""
"sailing-trial","253","1101703","0.0-11.0-218.0","","","","false","","","","","","","","","","539","","359.09999990463257","","1","0","arrowleft","0","arrowright","[0.15,0.85,0.675,0.325]","","",""
"sailing-trial","254","1104640","0.0-11.0-219.0","","","","false","","","","","","","","","","null","","1648.8999998569489","","2","0","null","null","arrowup","[0.15,0.85,0.675,0.325]","","",""
"sailing-trial","255","1109229","0.0-11.0-220.0","","","","false","","","","","","","","","","700.7000000476837","","985.4000000953674","","2","1","arrowright","1","arrowleft","[0.15,0.85,0.675,0.325]","","",""
"sailing-trial","256","1112849","0.0-11.0-221.0","","","","false","","","","","","","","","","null","","2068.5","","3","1","null","null","arrowup","[0.15,0.85,0.675,0.325]","","",""
"sailing-trial","257","1117473","0.0-11.0-222.0","","","","false","","","","","","","","","","1494.4000000953674","","322.10000014305115","","2","1","arrowright","1","arrowleft","[0.15,0.85,0.675,0.325]","","",""
"sailing-trial","258","1120088","0.0-11.0-223.0","","","","false","","","","","","","","","","null","","1034.4000000953674","","0","1","null","null","arrowup","[0.15,0.85,0.675,0.325]","","",""
"sailing-trial","259","1123486","0.0-11.0-224.0","","","","false","","","","","","","","","","540.4000000953674","","34.200000047683716","","2","1","arrowright","1","arrowleft","[0.15,0.85,0.675,0.325]","","",""
"sailing-trial","260","1125561","0.0-11.0-225.0","","","","false","","","","","","","","","","null","","948.9000000953674","","0","0","null","null","arrowup","[0.15,0.85,0.675,0.325]","","",""
"sailing-trial","261","1129041","0.0-11.0-226.0","","","","false","","","","","","","","","","494.2999999523163","","458.2000000476837","","2","0","arrowright","1","arrowleft","[0.15,0.85,0.675,0.325]","","",""
"sailing-trial","262","1131202","0.0-11.0-227.0","","","","false","","","","","","","","","","null","","966.7000000476837","","3","0","null","null","arrowup","[0.15,0.85,0.675,0.325]","","",""
"sailing-trial","263","1134956","0.0-11.0-228.0","","","","false","","","","","","","","","","475.10000014305115","","384.69999980926514","","0","1","arrowleft","0","arrowleft","[0.675,0.325,0.15,0.85]","","",""
"sailing-trial","264","1137337","0.0-11.0-229.0","","","","false","","","","","","","","","","null","","583.9000000953674","","1","1","null","null","arrowup","[0.675,0.325,0.15,0.85]","","",""
"sailing-trial","265","1140467","0.0-11.0-230.0","","","","false","","","","","","","","","","123.89999985694885","","245.29999995231628","","1","1","arrowleft","0","arrowright","[0.675,0.325,0.15,0.85]","","",""
"sailing-trial","266","1143545","0.0-11.0-231.0","","","","false","","","","","","","","","","null","","672.0999999046326","","2","0","null","null","arrowup","[0.675,0.325,0.15,0.85]","","",""
"sailing-trial","267","1147854","0.0-11.0-232.0","","","","false","","","","","","","","","","873.0999999046326","","1097.3000001907349","","1","0","arrowleft","0","arrowright","[0.675,0.325,0.15,0.85]","","",""
"sailing-trial","268","1150819","0.0-11.0-233.0","","","","false","","","","","","","","","","null","","1095.5","","3","1","null","null","arrowup","[0.675,0.325,0.15,0.85]","","",""
"sailing-trial","269","1153998","0.0-11.0-234.0","","","","false","","","","","","","","","","366.39999985694885","","76.40000009536743","","3","1","arrowright","1","arrowright","[0.675,0.325,0.15,0.85]","","",""
"sailing-trial","270","1157226","0.0-11.0-235.0","","","","false","","","","","","","","","","null","","1437.8999998569489","","3","1","null","null","arrowup","[0.675,0.325,0.15,0.85]","","",""
"sailing-trial","271","1161359","0.0-11.0-236.0","","","","false","","","","","","","","","","307.5","","1024.6000001430511","","3","1","arrowright","1","arrowright","[0.675,0.325,0.15,0.85]","","",""
"sailing-trial","272","1162971","0.0-11.0-237.0","","","","false","","","","","","","","","","null","","313.09999990463257","","1","0","null","null","arrowup","[0.675,0.325,0.15,0.85]","","",""
"sailing-trial","273","1166523","0.0-11.0-238.0","","","","false","","","","","","","","","","677.7999999523163","","6.299999952316284","","3","1","arrowright","1","arrowright","[0.675,0.325,0.15,0.85]","","",""
"sailing-trial","274","1169351","0.0-11.0-239.0","","","","false","","","","","","","","","","null","","116.19999980926514","","3","1","null","null","arrowup","[0.675,0.325,0.15,0.85]","","",""
"sailing-trial","275","1173530","0.0-11.0-240.0","","","","false","","","","","","","","","","540.5999999046326","","834","","3","1","arrowright","1","arrowright","[0.675,0.325,0.15,0.85]","","",""
"sailing-trial","276","1175711","0.0-11.0-241.0","","","","false","","","","","","","","","","null","","477.5","","3","1","null","null","arrowup","[0.675,0.325,0.15,0.85]","","",""
"sailing-trial","277","1178495","0.0-11.0-242.0","","","","false","","","","","","","","","","113.59999990463257","","6.799999952316284","","3","1","arrowright","1","arrowright","[0.675,0.325,0.15,0.85]","","",""
"sailing-trial","278","1180832","0.0-11.0-243.0","","","","false","","","","","","","","","","null","","602.5","","3","1","null","null","arrowup","[0.675,0.325,0.15,0.85]","","",""
"sailing-trial","279","1184791","0.0-11.0-244.0","","","","false","","","","","","","","","","144.5","","958.2999999523163","","3","1","arrowright","1","arrowright","[0.675,0.325,0.15,0.85]","","",""
"sailing-trial","280","1187944","0.0-11.0-245.0","","","","false","","","","","","","","","","null","","1213.5999999046326","","1","1","null","null","arrowup","[0.675,0.325,0.15,0.85]","","",""
"sailing-trial","281","1192295","0.0-11.0-246.0","","","","false","","","","","","","","","","415.19999980926514","","1073.6000001430511","","3","1","arrowright","1","arrowright","[0.85,0.15,0.325,0.675]","","",""
"sailing-trial","282","1195750","0.0-11.0-247.0","","","","false","","","","","","","","","","null","","1551.2000000476837","","3","1","null","null","arrowup","[0.85,0.15,0.325,0.675]","","",""
"sailing-trial","283","1198586","0.0-11.0-248.0","","","","false","","","","","","","","","","418.09999990463257","","37.299999952316284","","3","0","arrowright","1","arrowright","[0.85,0.15,0.325,0.675]","","",""
"sailing-trial","284","1200903","0.0-11.0-249.0","","","","false","","","","","","","","","","null","","604.3999998569489","","1","1","null","null","arrowup","[0.85,0.15,0.325,0.675]","","",""
"sailing-trial","285","1204729","0.0-11.0-250.0","","","","false","","","","","","","","","","157","","706.8999998569489","","0","1","arrowleft","0","arrowleft","[0.85,0.15,0.325,0.675]","","",""
"sailing-trial","286","1207044","0.0-11.0-251.0","","","","false","","","","","","","","","","null","","1001.7000000476837","","2","0","null","null","arrowup","[0.85,0.15,0.325,0.675]","","",""
"sailing-trial","287","1210553","0.0-11.0-252.0","","","","false","","","","","","","","","","594.5999999046326","","645.8999998569489","","1","0","arrowleft","0","arrowright","[0.85,0.15,0.325,0.675]","","",""
"sailing-trial","288","1213653","0.0-11.0-253.0","","","","false","","","","","","","","","","null","","1860.5999999046326","","2","0","null","null","arrowup","[0.85,0.15,0.325,0.675]","","",""
"sailing-trial","289","1217030","0.0-11.0-254.0","","","","false","","","","","","","","","","383.59999990463257","","165.90000009536743","","0","1","arrowleft","0","arrowleft","[0.85,0.15,0.325,0.675]","","",""
"sailing-trial","290","1218698","0.0-11.0-255.0","","","","false","","","","","","","","","","null","","558.7000000476837","","3","0","null","null","arrowup","[0.85,0.15,0.325,0.675]","","",""
"sailing-trial","291","1222408","0.0-11.0-256.0","","","","false","","","","","","","","","","387.7000000476837","","481.39999985694885","","0","1","arrowleft","0","arrowleft","[0.85,0.15,0.325,0.675]","","",""
"sailing-trial","292","1225204","0.0-11.0-257.0","","","","false","","","","","","","","","","null","","929.1999998092651","","2","1","null","null","arrowup","[0.85,0.15,0.325,0.675]","","",""
"sailing-trial","293","1228690","0.0-11.0-258.0","","","","false","","","","","","","","","","257.2000000476837","","183.5","","3","1","arrowright","1","arrowright","[0.85,0.15,0.325,0.675]","","",""
"sailing-trial","294","1231481","0.0-11.0-259.0","","","","false","","","","","","","","","","null","","999.9000000953674","","0","1","null","null","arrowup","[0.85,0.15,0.325,0.675]","","",""
"sailing-trial","295","1235405","0.0-11.0-260.0","","","","false","","","","","","","","","","377.80000019073486","","678.7999999523163","","3","1","arrowright","1","arrowright","[0.85,0.15,0.325,0.675]","","",""
"sailing-trial","296","1238031","0.0-11.0-261.0","","","","false","","","","","","","","","","null","","920.2000000476837","","0","1","null","null","arrowup","[0.85,0.15,0.325,0.675]","","",""
"sailing-trial","297","1241744","0.0-11.0-262.0","","","","false","","","","","","","","","","153.39999985694885","","723.5","","3","1","arrowright","1","arrowright","[0.675,0.325,0.15,0.85]","","",""
"sailing-trial","298","1243924","0.0-11.0-263.0","","","","false","","","","","","","","","","null","","999.1999998092651","","1","0","null","null","arrowup","[0.675,0.325,0.15,0.85]","","",""
"sailing-trial","299","1247458","0.0-11.0-264.0","","","","false","","","","","","","","","","487","","123.59999990463257","","3","1","arrowright","1","arrowright","[0.675,0.325,0.15,0.85]","","",""
"sailing-trial","300","1250237","0.0-11.0-265.0","","","","false","","","","","","","","","","null","","941","","0","1","null","null","arrowup","[0.675,0.325,0.15,0.85]","","",""
"sailing-trial","301","1253534","0.0-11.0-266.0","","","","false","","","","","","","","","","435","","50.40000009536743","","3","1","arrowright","1","arrowright","[0.675,0.325,0.15,0.85]","","",""
"sailing-trial","302","1255794","0.0-11.0-267.0","","","","false","","","","","","","","","","null","","1060.7000000476837","","2","0","null","null","arrowup","[0.675,0.325,0.15,0.85]","","",""
"sailing-trial","303","1260121","0.0-11.0-268.0","","","","false","","","","","","","","","","496.09999990463257","","955","","3","1","arrowright","1","arrowright","[0.675,0.325,0.15,0.85]","","",""
"sailing-trial","304","1261525","0.0-11.0-269.0","","","","false","","","","","","","","","","null","","197.89999985694885","","0","0","null","null","arrowup","[0.675,0.325,0.15,0.85]","","",""
"sailing-trial","305","1264953","0.0-11.0-270.0","","","","false","","","","","","","","","","524.7000000476837","","19.800000190734863","","3","1","arrowright","1","arrowright","[0.675,0.325,0.15,0.85]","","",""
"sailing-trial","306","1267307","0.0-11.0-271.0","","","","false","","","","","","","","","","null","","1072.6000001430511","","1","0","null","null","arrowup","[0.675,0.325,0.15,0.85]","","",""
"sailing-trial","307","1270759","0.0-11.0-272.0","","","","false","","","","","","","","","","622","","62.5","","3","1","arrowright","1","arrowright","[0.675,0.325,0.15,0.85]","","",""
"sailing-trial","308","1272710","0.0-11.0-273.0","","","","false","","","","","","","","","","null","","198.79999995231628","","0","1","null","null","arrowup","[0.675,0.325,0.15,0.85]","","",""
"sailing-trial","309","1276185","0.0-11.0-274.0","","","","false","","","","","","","","","","80.29999995231628","","1027.5","","3","0","arrowright","1","arrowright","[0.675,0.325,0.15,0.85]","","",""
"sailing-trial","310","1278702","0.0-11.0-275.0","","","","false","","","","","","","","","","null","","624","","3","1","null","null","arrowup","[0.675,0.325,0.15,0.85]","","",""
"sailing-trial","311","1281163","0.0-11.0-276.0","","","","false","","","","","","","","","","181.5","","18.200000047683716","","2","0","arrowright","1","arrowleft","[0.675,0.325,0.15,0.85]","","",""
"sailing-trial","312","1283394","0.0-11.0-277.0","","","","false","","","","","","","","","","null","","998.9000000953674","","2","0","null","null","arrowup","[0.675,0.325,0.15,0.85]","","",""
"sailing-trial","313","1287360","0.0-11.0-278.0","","","","false","","","","","","","","","","516.8999998569489","","671.7999999523163","","3","1","arrowright","1","arrowright","[0.675,0.325,0.15,0.85]","","",""
"sailing-trial","314","1289174","0.0-11.0-279.0","","","","false","","","","","","","","","","null","","174.09999990463257","","1","1","null","null","arrowup","[0.675,0.325,0.15,0.85]","","",""
"sailing-trial","315","1292599","0.0-11.0-280.0","","","","false","","","","","","","","","","92.5","","548.7999999523163","","3","1","arrowright","1","arrowright","[0.85,0.15,0.325,0.675]","","",""
"sailing-trial","316","1294558","0.0-11.0-281.0","","","","false","","","","","","","","","","null","","337.09999990463257","","2","1","null","null","arrowup","[0.85,0.15,0.325,0.675]","","",""
"sailing-trial","317","1297463","0.0-11.0-282.0","","","","false","","","","","","","","","","345.69999980926514","","424.09999990463257","","2","0","arrowright","1","arrowleft","[0.85,0.15,0.325,0.675]","","",""
"sailing-trial","318","1299695","0.0-11.0-283.0","","","","false","","","","","","","","","","null","","1018.9000000953674","","1","0","null","null","arrowup","[0.85,0.15,0.325,0.675]","","",""
"sailing-trial","319","1303776","0.0-11.0-284.0","","","","false","","","","","","","","","","705.5","","1033.7999999523163","","3","0","arrowright","1","arrowright","[0.85,0.15,0.325,0.675]","","",""
"sailing-trial","320","1306039","0.0-11.0-285.0","","","","false","","","","","","","","","","null","","1026.3000001907349","","3","0","null","null","arrowup","[0.85,0.15,0.325,0.675]","","",""
"sailing-trial","321","1309288","0.0-11.0-286.0","","","","false","","","","","","","","","","472","","32.39999985694885","","0","1","arrowleft","0","arrowleft","[0.85,0.15,0.325,0.675]","","",""
"sailing-trial","322","1311362","0.0-11.0-287.0","","","","false","","","","","","","","","","null","","810.7000000476837","","1","0","null","null","arrowup","[0.85,0.15,0.325,0.675]","","",""
"sailing-trial","323","1314615","0.0-11.0-288.0","","","","false","","","","","","","","","","456.7999999523163","","476.30000019073486","","1","0","arrowleft","0","arrowright","[0.85,0.15,0.325,0.675]","","",""
"sailing-trial","324","1317043","0.0-11.0-289.0","","","","false","","","","","","","","","","null","","795.5","","0","1","null","null","arrowup","[0.85,0.15,0.325,0.675]","","",""
"sailing-trial","325","1320777","0.0-11.0-290.0","","","","false","","","","","","","","","","277.89999985694885","","609.7999999523163","","0","1","arrowleft","0","arrowleft","[0.85,0.15,0.325,0.675]","","",""
"sailing-trial","326","1322239","0.0-11.0-291.0","","","","false","","","","","","","","","","null","","232.79999995231628","","1","0","null","null","arrowup","[0.85,0.15,0.325,0.675]","","",""
"sailing-trial","327","1326203","0.0-11.0-292.0","","","","false","","","","","","","","","","538.0999999046326","","453.2999999523163","","0","1","arrowleft","0","arrowleft","[0.85,0.15,0.325,0.675]","","",""
"sailing-trial","328","1328227","0.0-11.0-293.0","","","","false","","","","","","","","","","null","","414.2999999523163","","3","1","null","null","arrowup","[0.85,0.15,0.325,0.675]","","",""
"sailing-trial","329","1332178","0.0-11.0-294.0","","","","false","","","","","","","","","","378.10000014305115","","834.3999998569489","","0","1","arrowleft","0","arrowleft","[0.85,0.15,0.325,0.675]","","",""
"sailing-trial","330","1334121","0.0-11.0-295.0","","","","false","","","","","","","","","","null","","318.7999999523163","","2","1","null","null","arrowup","[0.85,0.15,0.325,0.675]","","",""
"sailing-trial","331","1337701","0.0-11.0-296.0","","","","false","","","","","","","","","","131.80000019073486","","727.0999999046326","","0","1","arrowleft","0","arrowleft","[0.85,0.15,0.325,0.675]","","",""
"sailing-trial","332","1339415","0.0-11.0-297.0","","","","false","","","","","","","","","","null","","435","","1","0","null","null","arrowup","[0.85,0.15,0.325,0.675]","","",""
"sailing-trial","333","1343799","0.0-11.0-298.0","","","","false","","","","","","","","","","602.4000000953674","","914.6999998092651","","0","1","arrowleft","0","arrowleft","[0.85,0.15,0.325,0.675]","","",""
"sailing-trial","334","1345934","0.0-11.0-299.0","","","","false","","","","","","","","","","null","","366.7999999523163","","0","1","null","null","arrowup","[0.85,0.15,0.325,0.675]","","",""
"sailing-trial","335","1349874","0.0-11.0-300.0","","","","false","","","","","","","","","","493.10000014305115","","330.7999999523163","","0","1","arrowleft","0","arrowleft","[0.675,0.325,0.15,0.85]","","",""
"sailing-trial","336","1351793","0.0-11.0-301.0","","","","false","","","","","","","","","","null","","575.1000001430511","","0","0","null","null","arrowup","[0.675,0.325,0.15,0.85]","","",""
"sailing-trial","337","1355435","0.0-11.0-302.0","","","","false","","","","","","","","","","682.7999999523163","","92.20000004768372","","0","1","arrowleft","0","arrowleft","[0.675,0.325,0.15,0.85]","","",""
"sailing-trial","338","1356813","0.0-11.0-303.0","","","","false","","","","","","","","","","null","","220.79999995231628","","3","0","null","null","arrowup","[0.675,0.325,0.15,0.85]","","",""
"sailing-trial","339","1360470","0.0-11.0-304.0","","","","false","","","","","","","","","","518.7999999523163","","859.3000001907349","","0","0","arrowleft","0","arrowleft","[0.675,0.325,0.15,0.85]","","",""
"sailing-trial","340","1363140","0.0-11.0-305.0","","","","false","","","","","","","","","","null","","631.7999999523163","","1","0","null","null","arrowup","[0.675,0.325,0.15,0.85]","","",""
"sailing-trial","341","1366934","0.0-11.0-306.0","","","","false","","","","","","","","","","769.1000001430511","","849.7999999523163","","2","0","arrowright","1","arrowleft","[0.675,0.325,0.15,0.85]","","",""
"sailing-trial","342","1370273","0.0-11.0-307.0","","","","false","","","","","","","","","","null","","1267.7000000476837","","0","1","null","null","arrowup","[0.675,0.325,0.15,0.85]","","",""
"sailing-trial","343","1373984","0.0-11.0-308.0","","","","false","","","","","","","","","","401.09999990463257","","477.39999985694885","","0","1","arrowleft","0","arrowleft","[0.675,0.325,0.15,0.85]","","",""
"sailing-trial","344","1376746","0.0-11.0-309.0","","","","false","","","","","","","","","","null","","90.90000009536743","","2","1","null","null","arrowup","[0.675,0.325,0.15,0.85]","","",""
"sailing-trial","345","1380093","0.0-11.0-310.0","","","","false","","","","","","","","","","444.09999990463257","","111.39999985694885","","0","1","arrowleft","0","arrowleft","[0.675,0.325,0.15,0.85]","","",""
"sailing-trial","346","1382889","0.0-11.0-311.0","","","","false","","","","","","","","","","null","","1506","","1","0","null","null","arrowup","[0.675,0.325,0.15,0.85]","","",""
"sailing-trial","347","1386128","0.0-11.0-312.0","","","","false","","","","","","","","","","500.59999990463257","","13.799999952316284","","0","1","arrowleft","0","arrowleft","[0.675,0.325,0.15,0.85]","","",""
"sailing-trial","348","1388336","0.0-11.0-313.0","","","","false","","","","","","","","","","null","","563.7000000476837","","2","1","null","null","arrowup","[0.675,0.325,0.15,0.85]","","",""
"sailing-trial","349","1391735","0.0-11.0-314.0","","","","false","","","","","","","","","","376.59999990463257","","212.20000004768372","","0","1","arrowleft","0","arrowleft","[0.675,0.325,0.15,0.85]","","",""
"sailing-trial","350","1394589","0.0-11.0-315.0","","","","false","","","","","","","","","","null","","1178.5999999046326","","3","1","null","null","arrowup","[0.675,0.325,0.15,0.85]","","",""
"sailing-trial","351","1398110","0.0-11.0-316.0","","","","false","","","","","","","","","","625.7999999523163","","68.90000009536743","","0","1","arrowleft","0","arrowleft","[0.85,0.15,0.325,0.675]","","",""
"sailing-trial","352","1400692","0.0-11.0-317.0","","","","false","","","","","","","","","","null","","957.8999998569489","","3","1","null","null","arrowup","[0.85,0.15,0.325,0.675]","","",""
"sailing-trial","353","1403730","0.0-11.0-318.0","","","","false","","","","","","","","","","373","","28.600000143051147","","0","1","arrowleft","0","arrowleft","[0.85,0.15,0.325,0.675]","","",""
"sailing-trial","354","1406283","0.0-11.0-319.0","","","","false","","","","","","","","","","null","","643.7999999523163","","2","1","null","null","arrowup","[0.85,0.15,0.325,0.675]","","",""
"sailing-trial","355","1409314","0.0-11.0-320.0","","","","false","","","","","","","","","","264.09999990463257","","26.40000009536743","","0","1","arrowleft","0","arrowleft","[0.85,0.15,0.325,0.675]","","",""
"sailing-trial","356","1411892","0.0-11.0-321.0","","","","false","","","","","","","","","","null","","812.4000000953674","","2","1","null","null","arrowup","[0.85,0.15,0.325,0.675]","","",""
"sailing-trial","357","1415084","0.0-11.0-322.0","","","","false","","","","","","","","","","399.10000014305115","","19.700000047683716","","0","1","arrowleft","0","arrowleft","[0.85,0.15,0.325,0.675]","","",""
"sailing-trial","358","1417250","0.0-11.0-323.0","","","","false","","","","","","","","","","null","","427.5","","0","1","null","null","arrowup","[0.85,0.15,0.325,0.675]","","",""
"sailing-trial","359","1419870","0.0-11.0-324.0","","","","false","","","","","","","","","","363.80000019073486","","107.29999995231628","","0","0","arrowleft","0","arrowleft","[0.85,0.15,0.325,0.675]","","",""
"sailing-trial","360","1422511","0.0-11.0-325.0","","","","false","","","","","","","","","","null","","1057.6000001430511","","3","1","null","null","arrowup","[0.85,0.15,0.325,0.675]","","",""
"sailing-trial","361","1426079","0.0-11.0-326.0","","","","false","","","","","","","","","","243.40000009536743","","703.8999998569489","","3","0","arrowright","1","arrowright","[0.85,0.15,0.325,0.675]","","",""
"sailing-trial","362","1428206","0.0-11.0-327.0","","","","false","","","","","","","","","","null","","506.7000000476837","","3","1","null","null","arrowup","[0.85,0.15,0.325,0.675]","","",""
"sailing-trial","363","1431536","0.0-11.0-328.0","","","","false","","","","","","","","","","282.40000009536743","","385.60000014305115","","3","1","arrowright","1","arrowright","[0.85,0.15,0.325,0.675]","","",""
"sailing-trial","364","1434189","0.0-11.0-329.0","","","","false","","","","","","","","","","null","","816.0999999046326","","3","1","null","null","arrowup","[0.85,0.15,0.325,0.675]","","",""
"sailing-trial","365","1438100","0.0-11.0-330.0","","","","false","","","","","","","","","","259.7999999523163","","477","","3","1","arrowright","1","arrowright","[0.85,0.15,0.325,0.675]","","",""
"sailing-trial","366","1440670","0.0-11.0-331.0","","","","false","","","","","","","","","","null","","909.5999999046326","","2","0","null","null","arrowup","[0.85,0.15,0.325,0.675]","","",""
"sailing-trial","367","1444329","0.0-11.0-332.0","","","","false","","","","","","","","","","478","","383.59999990463257","","3","1","arrowright","1","arrowright","[0.85,0.15,0.325,0.675]","","",""
"sailing-trial","368","1446507","0.0-11.0-333.0","","","","false","","","","","","","","","","null","","577.5","","0","1","null","null","arrowup","[0.85,0.15,0.325,0.675]","","",""
"sailing-trial","369","1449472","0.0-11.0-334.0","","","","false","","","","","","","","","","395.19999980926514","","466.90000009536743","","3","0","arrowright","1","arrowright","[0.85,0.15,0.325,0.675]","","",""
"sailing-trial","370","1451830","0.0-11.0-335.0","","","","false","","","","","","","","","","null","","799.5","","0","1","null","null","arrowup","[0.85,0.15,0.325,0.675]","","",""
"sailing-trial","371","1454941","0.0-11.0-336.0","","","","false","","","","","","","","","","347.09999990463257","","519.7000000476837","","0","0","arrowleft","0","arrowleft","[0.85,0.15,0.325,0.675]","","",""
"sailing-trial","372","1457258","0.0-11.0-337.0","","","","false","","","","","","","","","","null","","665.3000001907349","","3","1","null","null","arrowup","[0.85,0.15,0.325,0.675]","","",""
"sailing-trial","373","1460605","0.0-11.0-338.0","","","","false","","","","","","","","","","346.90000009536743","","35","","3","1","arrowright","1","arrowright","[0.675,0.325,0.15,0.85]","","",""
"sailing-trial","374","1462167","0.0-11.0-339.0","","","","false","","","","","","","","","","null","","464.5","","2","0","null","null","arrowup","[0.675,0.325,0.15,0.85]","","",""
"sailing-trial","375","1464915","0.0-11.0-340.0","","","","false","","","","","","","","","","526.2000000476837","","102.90000009536743","","0","0","arrowleft","0","arrowleft","[0.675,0.325,0.15,0.85]","","",""
"sailing-trial","376","1466846","0.0-11.0-341.0","","","","false","","","","","","","","","","null","","881.0999999046326","","2","0","null","null","arrowup","[0.675,0.325,0.15,0.85]","","",""
"sailing-trial","377","1470777","0.0-11.0-342.0","","","","false","","","","","","","","","","542.7000000476837","","570.7999999523163","","3","1","arrowright","1","arrowright","[0.675,0.325,0.15,0.85]","","",""
"sailing-trial","378","1473807","0.0-11.0-343.0","","","","false","","","","","","","","","","null","","1212.2000000476837","","3","1","null","null","arrowup","[0.675,0.325,0.15,0.85]","","",""
"sailing-trial","379","1476803","0.0-11.0-344.0","","","","false","","","","","","","","","","690.6000001430511","","83.20000004768372","","3","0","arrowright","1","arrowright","[0.675,0.325,0.15,0.85]","","",""
"sailing-trial","380","1479817","0.0-11.0-345.0","","","","false","","","","","","","","","","null","","1227","","2","1","null","null","arrowup","[0.675,0.325,0.15,0.85]","","",""
"sailing-trial","381","1484110","0.0-11.0-346.0","","","","false","","","","","","","","","","609.9000000953674","","354.2000000476837","","2","1","arrowright","1","arrowleft","[0.675,0.325,0.15,0.85]","","",""
"sailing-trial","382","1486763","0.0-11.0-347.0","","","","false","","","","","","","","","","null","","904.0999999046326","","1","1","null","null","arrowup","[0.675,0.325,0.15,0.85]","","",""
"sailing-trial","383","1489654","0.0-11.0-348.0","","","","false","","","","","","","","","","635.8000001907349","","68.79999995231628","","2","0","arrowright","1","arrowleft","[0.675,0.325,0.15,0.85]","","",""
"sailing-trial","384","1492482","0.0-11.0-349.0","","","","false","","","","","","","","","","null","","1202.1999998092651","","3","1","null","null","arrowup","[0.675,0.325,0.15,0.85]","","",""
"sailing-trial","385","1496244","0.0-11.0-350.0","","","","false","","","","","","","","","","347.5","","430.40000009536743","","3","1","arrowright","1","arrowright","[0.675,0.325,0.15,0.85]","","",""
"sailing-trial","386","1498317","0.0-11.0-351.0","","","","false","","","","","","","","","","null","","954.8000001907349","","1","0","null","null","arrowup","[0.675,0.325,0.15,0.85]","","",""
"sailing-trial","387","1504513","0.0-11.0-352.0","","","","false","","","","","","","","","","523.2999999523163","","2994.9000000953674","","3","1","arrowright","1","arrowright","[0.675,0.325,0.15,0.85]","","",""
"sailing-trial","388","1506968","0.0-11.0-353.0","","","","false","","","","","","","","","","null","","902.6999998092651","","0","1","null","null","arrowup","[0.675,0.325,0.15,0.85]","","",""
"sailing-trial","389","1510107","0.0-11.0-354.0","","","","false","","","","","","","","","","256.7000000476837","","0.7999999523162842","","3","1","arrowright","1","arrowright","[0.675,0.325,0.15,0.85]","","",""
"sailing-trial","390","1513208","0.0-11.0-355.0","","","","false","","","","","","","","","","null","","1417.7999999523163","","0","1","null","null","arrowup","[0.675,0.325,0.15,0.85]","","",""
"sailing-trial","391","1516068","0.0-11.0-356.0","","","","false","","","","","","","","","","196.30000019073486","","293.5","","3","0","arrowright","1","arrowright","[0.85,0.15,0.325,0.675]","","",""
"sailing-trial","392","1517966","0.0-11.0-357.0","","","","false","","","","","","","","","","null","","815.4000000953674","","1","0","null","null","arrowup","[0.85,0.15,0.325,0.675]","","",""
"sailing-trial","393","1521001","0.0-11.0-358.0","","","","false","","","","","","","","","","422.7999999523163","","28","","0","1","arrowleft","0","arrowleft","[0.85,0.15,0.325,0.675]","","",""
"sailing-trial","394","1523218","0.0-11.0-359.0","","","","false","","","","","","","","","","null","","664","","1","0","null","null","arrowup","[0.85,0.15,0.325,0.675]","","",""
"sailing-trial","395","1527194","0.0-11.0-360.0","","","","false","","","","","","","","","","682","","317.60000014305115","","0","1","arrowleft","0","arrowleft","[0.85,0.15,0.325,0.675]","","",""
"sailing-trial","396","1529516","0.0-11.0-361.0","","","","false","","","","","","","","","","null","","935.7000000476837","","2","0","null","null","arrowup","[0.85,0.15,0.325,0.675]","","",""
"sailing-trial","397","1532820","0.0-11.0-362.0","","","","false","","","","","","","","","","598.8999998569489","","63.59999990463257","","0","1","arrowleft","0","arrowleft","[0.85,0.15,0.325,0.675]","","",""
"sailing-trial","398","1535295","0.0-11.0-363.0","","","","false","","","","","","","","","","null","","683.9000000953674","","1","1","null","null","arrowup","[0.85,0.15,0.325,0.675]","","",""
"sailing-trial","399","1538882","0.0-11.0-364.0","","","","false","","","","","","","","","","326.2999999523163","","479.7999999523163","","0","1","arrowleft","0","arrowleft","[0.85,0.15,0.325,0.675]","","",""
"sailing-trial","400","1541329","0.0-11.0-365.0","","","","false","","","","","","","","","","null","","423.10000014305115","","0","1","null","null","arrowup","[0.85,0.15,0.325,0.675]","","",""
"sailing-trial","401","1544464","0.0-11.0-366.0","","","","false","","","","","","","","","","411.2000000476837","","1.2999999523162842","","0","1","arrowleft","0","arrowleft","[0.85,0.15,0.325,0.675]","","",""
"sailing-trial","402","1547206","0.0-11.0-367.0","","","","false","","","","","","","","","","null","","494.7000000476837","","3","1","null","null","arrowup","[0.85,0.15,0.325,0.675]","","",""
"sailing-trial","403","1551130","0.0-11.0-368.0","","","","false","","","","","","","","","","519.9000000953674","","521.7999999523163","","0","1","arrowleft","0","arrowleft","[0.85,0.15,0.325,0.675]","","",""
"sailing-trial","404","1554077","0.0-11.0-369.0","","","","false","","","","","","","","","","null","","652.2000000476837","","3","1","null","null","arrowup","[0.85,0.15,0.325,0.675]","","",""
"sailing-trial","405","1557210","0.0-11.0-370.0","","","","false","","","","","","","","","","489","","454.2000000476837","","3","0","arrowright","1","arrowright","[0.85,0.15,0.325,0.675]","","",""
"sailing-trial","406","1559259","0.0-11.0-371.0","","","","false","","","","","","","","","","null","","1013.2000000476837","","2","0","null","null","arrowup","[0.85,0.15,0.325,0.675]","","",""
"sailing-trial","407","1563075","0.0-11.0-372.0","","","","false","","","","","","","","","","410.10000014305115","","425.90000009536743","","1","1","arrowleft","0","arrowright","[0.85,0.15,0.325,0.675]","","",""
"sailing-trial","408","1565311","0.0-11.0-373.0","","","","false","","","","","","","","","","null","","484","","2","1","null","null","arrowup","[0.85,0.15,0.325,0.675]","","",""
"sailing-trial","409","1568190","0.0-11.0-374.0","","","","false","","","","","","","","","","360.5","","430.90000009536743","","1","0","arrowleft","0","arrowright","[0.85,0.15,0.325,0.675]","","",""
"sailing-trial","410","1570143","0.0-11.0-375.0","","","","false","","","","","","","","","","null","","831.3000001907349","","2","0","null","null","arrowup","[0.85,0.15,0.325,0.675]","","",""
"sailing-trial","411","1573164","0.0-11.0-376.0","","","","false","","","","","","","","","","615","","213.80000019073486","","3","0","arrowright","1","arrowright","[0.85,0.15,0.325,0.675]","","",""
"sailing-trial","412","1575452","0.0-11.0-377.0","","","","false","","","","","","","","","","null","","762.7000000476837","","0","1","null","null","arrowup","[0.85,0.15,0.325,0.675]","","",""
"sailing-trial","413","1578539","0.0-11.0-378.0","","","","false","","","","","","","","","","362.2999999523163","","51.5","","0","1","arrowleft","0","arrowleft","[0.85,0.15,0.325,0.675]","","",""
"sailing-trial","414","1580223","0.0-11.0-379.0","","","","false","","","","","","","","","","null","","508","","1","0","null","null","arrowup","[0.85,0.15,0.325,0.675]","","",""
"sailing-trial","415","1582891","0.0-11.0-380.0","","","","false","","","","","","","","","","421.7999999523163","","130.20000004768372","","0","0","arrowleft","0","arrowleft","[0.675,0.325,0.15,0.85]","","",""
"sailing-trial","416","1585781","0.0-11.0-381.0","","","","false","","","","","","","","","","null","","777.9000000953674","","0","1","null","null","arrowup","[0.675,0.325,0.15,0.85]","","",""
"sailing-trial","417","1589266","0.0-11.0-382.0","","","","false","","","","","","","","","","151.90000009536743","","764","","0","0","arrowleft","0","arrowleft","[0.675,0.325,0.15,0.85]","","",""
"sailing-trial","418","1590941","0.0-11.0-383.0","","","","false","","","","","","","","","","null","","511.89999985694885","","2","0","null","null","arrowup","[0.675,0.325,0.15,0.85]","","",""
"sailing-trial","419","1594583","0.0-11.0-384.0","","","","false","","","","","","","","","","452","","337.40000009536743","","0","1","arrowleft","0","arrowleft","[0.675,0.325,0.15,0.85]","","",""
"sailing-trial","420","1596229","0.0-11.0-385.0","","","","false","","","","","","","","","","null","","314.2000000476837","","1","0","null","null","arrowup","[0.675,0.325,0.15,0.85]","","",""
"sailing-trial","421","1600118","0.0-11.0-386.0","","","","false","","","","","","","","","","563.6999998092651","","394.2000000476837","","0","1","arrowleft","0","arrowleft","[0.675,0.325,0.15,0.85]","","",""
"sailing-trial","422","1602178","0.0-11.0-387.0","","","","false","","","","","","","","","","null","","447.89999985694885","","1","1","null","null","arrowup","[0.675,0.325,0.15,0.85]","","",""
"sailing-trial","423","1606265","0.0-11.0-388.0","","","","false","","","","","","","","","","901.2000000476837","","476","","0","1","arrowleft","0","arrowleft","[0.675,0.325,0.15,0.85]","","",""
"sailing-trial","424","1608222","0.0-11.0-389.0","","","","false","","","","","","","","","","null","","327.5","","3","1","null","null","arrowup","[0.675,0.325,0.15,0.85]","","",""
"sailing-trial","425","1612216","0.0-11.0-390.0","","","","false","","","","","","","","","","1187.2000000476837","","2.799999952316284","","0","1","arrowleft","0","arrowleft","[0.675,0.325,0.15,0.85]","","",""
"sailing-trial","426","1615119","0.0-11.0-391.0","","","","false","","","","","","","","","","null","","1041.7000000476837","","0","1","null","null","arrowup","[0.675,0.325,0.15,0.85]","","",""
"sailing-trial","427","1619109","0.0-11.0-392.0","","","","false","","","","","","","","","","1130.5","","28.59999990463257","","0","1","arrowleft","0","arrowleft","[0.675,0.325,0.15,0.85]","","",""
"sailing-trial","428","1621566","0.0-11.0-393.0","","","","false","","","","","","","","","","null","","413.60000014305115","","3","1","null","null","arrowup","[0.675,0.325,0.15,0.85]","","",""
"sailing-trial","429","1625353","0.0-11.0-394.0","","","","false","","","","","","","","","","762.7000000476837","","22","","3","1","arrowright","1","arrowright","[0.675,0.325,0.15,0.85]","","",""
"sailing-trial","430","1627801","0.0-11.0-395.0","","","","false","","","","","","","","","","null","","646.5","","0","1","null","null","arrowup","[0.675,0.325,0.15,0.85]","","",""
"sailing-trial","431","1631498","0.0-11.0-396.0","","","","false","","","","","","","","","","480.89999985694885","","150.90000009536743","","3","1","arrowright","1","arrowright","[0.675,0.325,0.15,0.85]","","",""
"sailing-trial","432","1633656","0.0-11.0-397.0","","","","false","","","","","","","","","","null","","1058.6999998092651","","0","0","null","null","arrowup","[0.675,0.325,0.15,0.85]","","",""
"sailing-trial","433","1637247","0.0-11.0-398.0","","","","false","","","","","","","","","","458.39999985694885","","473.89999985694885","","3","1","arrowright","1","arrowright","[0.675,0.325,0.15,0.85]","","",""
"sailing-trial","434","1639222","0.0-11.0-399.0","","","","false","","","","","","","","","","null","","873.2000000476837","","3","0","null","null","arrowup","[0.675,0.325,0.15,0.85]","","",""
"instructions","435","1648139","0.0-12.0","","","","","","","","","","8916.100000143051","","","","","","","","","","","","","","","","[{""page_index"":0,""viewing_time"":8913.700000047684}]"
"survey-debrief","436","1658894","0.0-13.0","","","","","","","","","","10751.5","","","","","","","","","","","","","","{""difficulty"":""5"",""fun"":""3"",""clarity"":""5"",""strategy"":"""",""feedback"":""""}","",""
