"trial_type","trial_index","time_elapsed","internal_node_id","value","metadata","success","timeout","failed_images","failed_audio","failed_video","browser_interaction","low_quality","rt","stimulus","response","button_pressed","island_rt","island_response","boat_rt","boat_response","boat","reward","island_key","island","boat_key","reward_probabilities","responses","num_errors","view_history"
"pavlovia","0","2","0.0-0.0","","","","","","","","","","","","","","","","","","","","","","","","","",""
"call-function","1","3","0.0-1.0","","{""task_version"":""sailing_part1_v1"",""task_condition"":""good"",""boats"":[""B"",""C"",""A"",""D""],""boats_demo"":[""G"",""H"",""E"",""F""],""islands"":[""A"",""B""],""subject_id"":""14945"",""age"":""17"",""gender"":""Female""}","","","","","","","","","","","","","","","","","","","","","","","",""
"preload","2","4211","0.0-2.0","","","true","false","[]","[]","[]","[{""event"":""fullscreenenter"",""trial"":3,""time"":12645}]","false","","","","","","","","","","","","","","","","",""
"fullscreen","3","13596","0.0-3.0","","","true","","","","","","","","","","","","","","","","","","","","","","",""
"audio-keyboard-response","4","18072","0.0-4.0-0.0","","","","","","","","[{""event"":""fullscreenenter"",""trial"":3,""time"":12645},{""event"":""fullscreenexit"",""trial"":5,""time"":25813},{""event"":""blur"",""trial"":5,""time"":27348},{""event"":""focus"",""trial"":5,""time"":67391}]","false","3776","audio/beep_loop.wav"," ","","","","","","","","","","","","","",""
"audio-test","5","72368","0.0-4.0-1.0","","","","","","","","","","null","audio/turtle.mp3","","3","","","","","","","","","","","","",""
"audio-test","6","74770","0.0-4.0-2.0","","","","","","","","","","null","audio/shark.mp3","","2","","","","","","","","","","","","",""
"sailing-instructions","7","118385","0.0-5.0-0.0-0.0","","","","","","","","","","","","","","null","null","null","null","null","null","","","","","","",""
"sailing-trial","8","123728","0.0-5.0-0.0-1.0-0.0","","","","false","","","","","","","","","","4233.4000000059605","","null","","null","null","arrowleft","0","null","null","","",""
"sailing-trial","9","126932","0.0-5.0-0.0-1.0-1.0","","","","false","","","","","","","","","","2096.600000023842","","null","","null","null","arrowright","1","null","null","","",""
"sailing-trial","10","129851","0.0-5.0-0.0-1.0-2.0","","","","false","","","","","","","","","","1812.7000000178814","","null","","null","null","arrowright","1","null","null","","",""
"sailing-instructions","11","175077","0.0-5.0-0.0-2.0","","","","","","","","","","","","","","null","null","null","null","0","null","","","","","","",""
"sailing-trial","12","179842","0.0-5.0-0.0-3.0-0.0","","","","false","","","","","","","","","","null","","790.7999999821186","","2","1","null","null","arrowleft","[1,1,1,1]","","",""
"sailing-trial","13","183045","0.0-5.0-0.0-3.0-1.0","","","","false","","","","","","","","","","null","","721.9000000059605","","3","1","null","null","arrowright","[1,1,1,1]","","",""
"sailing-trial","14","186732","0.0-5.0-0.0-3.0-2.0","","","","false","","","","","","","","","","null","","706.8000000119209","","2","0","null","null","arrowleft","[0,0,0,0]","","",""
"sailing-instructions","15","196317","0.0-5.0-0.0-4.0","","","","","","","","","","","","","","null","null","null","null","null","null","","","","","","",""
"sailing-comprehension","16","221874","0.0-5.0-0.0-5.0","","","","","","","","","","23419.19999998808","","","","","","","","","","","","","","[""true"",""true"",""false"",""true""]","0",""
"sailing-instructions","17","298616","0.0-6.0-0.0-0.0","","","","","","","","","","","","","","null","null","null","null","null","null","","","","","","",""
"sailing-comprehension","18","313757","0.0-6.0-0.0-1.0","","","","","","","","","","13629.90000000596","","","","","","","","","","","","","","[""true"",""false"",""true""]","0",""
"sailing-instructions","19","328668","0.0-7.0-0.0-0.0","","","","","","","","","","","","","","null","null","null","null","null","null","","","","","","",""
"sailing-trial","20","337081","0.0-7.0-0.0-1.0-0.0","","","","false","","","","","","","","","","null","","5383.100000023842","","0","0","null","null","arrowup","[0.2,0.8,0.2,0.8]","","",""
"sailing-trial","21","340886","0.0-7.0-0.0-1.0-1.0","","","","false","","","","","","","","","","null","","1845","","1","1","null","null","arrowup","[0.2,0.8,0.2,0.8]","","",""
"sailing-trial","22","342937","0.0-7.0-0.0-1.0-2.0","","","","false","","","","","","","","","","null","","909.5","","2","0","null","null","arrowup","[0.2,0.8,0.2,0.8]","","",""
"sailing-trial","23","345239","0.0-7.0-0.0-1.0-3.0","","","","false","","","","","","","","","","null","","1001.6999999880791","","3","0","null","null","arrowup","[0.2,0.8,0.2,0.8]","","",""
"sailing-comprehension","24","356525","0.0-7.0-0.0-2.0","","","","","","","","","","9309.700000017881","","","","","","","","","","","","","","[""false""]","0",""
"sailing-instructions","25","369155","0.0-8.0-0.0-0.0","","","","","","","","","","","","","","null","null","null","null","null","null","","","","","","",""
"sailing-comprehension","26","373542","0.0-8.0-0.0-1.0","","","","","","","","","","3330.5","","","","","","","","","","","","","","[""true""]","0",""
"sailing-instructions","27","396079","0.0-9.0-0.0-0.0","","","","","","","","","","","","","","null","null","null","null","null","null","","","","","","",""
"sailing-trial","28","400618","0.0-9.0-0.0-1.0-0.0","","","","false","","","","","","","","","","860.6999999880791","","170.19999998807907","","3","1","arrowright","1","arrowright","[0.2,0.8,0.2,0.8]","","",""
"sailing-trial","29","404139","0.0-9.0-0.0-1.0-1.0","","","","false","","","","","","","","","","615","","2.800000011920929","","3","1","arrowright","1","arrowright","[0.2,0.8,0.2,0.8]","","",""
"sailing-trial","30","408777","0.0-9.0-0.0-1.0-2.0","","","","false","","","","","","","","","","null","","1605","","0","0","null","null","arrowup","[0.2,0.8,0.2,0.8]","","",""
"sailing-trial","31","412649","0.0-9.0-0.0-1.0-3.0","","","","false","","","","","","","","","","817.8000000119209","","43.80000001192093","","1","1","arrowleft","0","arrowright","[0.2,0.8,0.2,0.8]","","",""
"sailing-trial","32","416153","0.0-9.0-0.0-1.0-4.0","","","","false","","","","","","","","","","null","","1513.699999988079","","3","1","null","null","arrowup","[0.2,0.8,0.2,0.8]","","",""
"sailing-trial","33","421040","0.0-9.0-0.0-1.0-5.0","","","","false","","","","","","","","","","763.4000000059605","","629","","0","0","arrowleft","0","arrowleft","[0.2,0.8,0.2,0.8]","","",""
"sailing-instructions","34","446432","0.0-10.0","","","","","","","","","","","","","","null","null","null","null","null","null","","","","","","",""
"sailing-trial","35","453810","0.0-11.0-0.0","","","","false","","","","","","","","","","3307.699999988079","","712.4000000059605","","3","1","arrowright","1","arrowright","[0.325,0.675,0.15,0.85]","","",""
"sailing-trial","36","457598","0.0-11.0-1.0","","","","false","","","","","","","","","","null","","1658.5999999940395","","3","1","null","null","arrowup","[0.325,0.675,0.15,0.85]","","",""
"sailing-trial","37","461919","0.0-11.0-2.0","","","","false","","","","","","","","","","846.2000000178814","","637","","3","1","arrowright","1","arrowright","[0.325,0.675,0.15,0.85]","","",""
"sailing-trial","38","466877","0.0-11.0-3.0","","","","false","","","","","","","","","","null","","1177.7000000178814","","3","1","null","null","arrowup","[0.325,0.675,0.15,0.85]","","",""
"sailing-trial","39","470645","0.0-11.0-4.0","","","","false","","","","","","","","","","818.5","","79.59999999403954","","3","1","arrowright","1","arrowright","[0.325,0.675,0.15,0.85]","","",""
"sailing-trial","40","474382","0.0-11.0-5.0","","","","false","","","","","","","","","","null","","1333.5","","0","0","null","null","arrowup","[0.325,0.675,0.15,0.85]","","",""
"sailing-trial","41","479071","0.0-11.0-6.0","","","","false","","","","","","","","","","866.5","","651.0999999940395","","3","1","arrowright","1","arrowright","[0.325,0.675,0.15,0.85]","","",""
"sailing-trial","42","482208","0.0-11.0-7.0","","","","false","","","","","","","","","","null","","1251.4000000059605","","0","1","null","null","arrowup","[0.325,0.675,0.15,0.85]","","",""
"sailing-trial","43","486597","0.0-11.0-8.0","","","","false","","","","","","","","","","638.4000000059605","","967.5","","3","1","arrowright","1","arrowright","[0.325,0.675,0.15,0.85]","","",""
"sailing-trial","44","489081","0.0-11.0-9.0","","","","false","","","","","","","","","","null","","1162.5","","2","0","null","null","arrowup","[0.325,0.675,0.15,0.85]","","",""
"sailing-trial","45","493304","0.0-11.0-10.0","","","","false","","","","","","","","","","1153.7999999821186","","55.80000001192093","","3","1","arrowright","1","arrowright","[0.325,0.675,0.15,0.85]","","",""
"sailing-trial","46","496441","0.0-11.0-11.0","","","","false","","","","","","","","","","null","","1200","","1","1","null","null","arrowup","[0.325,0.675,0.15,0.85]","","",""
"sailing-trial","47","500478","0.0-11.0-12.0","","","","false","","","","","","","","","","875.9000000059605","","107.19999998807907","","3","1","arrowright","1","arrowright","[0.325,0.675,0.15,0.85]","","",""
"sailing-trial","48","504993","0.0-11.0-13.0","","","","false","","","","","","","","","","null","","1946.4000000059605","","3","0","null","null","arrowup","[0.325,0.675,0.15,0.85]","","",""
"sailing-trial","49","510753","0.0-11.0-14.0","","","","false","","","","","","","","","","2162.4000000059605","","103.69999998807907","","1","0","arrowleft","0","arrowright","[0.325,0.675,0.15,0.85]","","",""
"sailing-trial","50","513278","0.0-11.0-15.0","","","","false","","","","","","","","","","null","","1180.0999999940395","","0","0","null","null","arrowup","[0.325,0.675,0.15,0.85]","","",""
"sailing-trial","51","517284","0.0-11.0-16.0","","","","false","","","","","","","","","","797.5","","36.900000005960464","","0","0","arrowleft","0","arrowleft","[0.15,0.85,0.325,0.675]","","",""
"sailing-trial","52","520279","0.0-11.0-17.0","","","","false","","","","","","","","","","null","","1472.199999988079","","0","0","null","null","arrowup","[0.15,0.85,0.325,0.675]","","",""
"sailing-trial","53","524622","0.0-11.0-18.0","","","","false","","","","","","","","","","601.2000000178814","","470.7000000178814","","3","1","arrowright","1","arrowright","[0.15,0.85,0.325,0.675]","","",""
"sailing-trial","54","527111","0.0-11.0-19.0","","","","false","","","","","","","","","","null","","1103","","2","0","null","null","arrowup","[0.15,0.85,0.325,0.675]","","",""
"sailing-trial","55","531495","0.0-11.0-20.0","","","","false","","","","","","","","","","782","","382.59999999403954","","3","1","arrowright","1","arrowright","[0.15,0.85,0.325,0.675]","","",""
"sailing-trial","56","534483","0.0-11.0-21.0","","","","false","","","","","","","","","","null","","1131.4000000059605","","3","1","null","null","arrowup","[0.15,0.85,0.325,0.675]","","",""
"sailing-trial","57","539088","0.0-11.0-22.0","","","","false","","","","","","","","","","680.9000000059605","","1127","","3","1","arrowright","1","arrowright","[0.15,0.85,0.325,0.675]","","",""
"sailing-trial","58","541364","0.0-11.0-23.0","","","","false","","","","","","","","","","null","","975.3999999761581","","2","0","null","null","arrowup","[0.15,0.85,0.325,0.675]","","",""
"sailing-trial","59","546412","0.0-11.0-24.0","","","","false","","","","","","","","","","651.6999999880791","","1381.2000000178814","","3","1","arrowright","1","arrowright","[0.15,0.85,0.325,0.675]","","",""
"sailing-trial","60","549150","0.0-11.0-25.0","","","","false","","","","","","","","","","null","","1025.699999988079","","2","1","null","null","arrowup","[0.15,0.85,0.325,0.675]","","",""
"sailing-trial","61","552753","0.0-11.0-26.0","","","","false","","","","","","","","","","610.9000000059605","","18.200000017881393","","3","1","arrowright","1","arrowright","[0.15,0.85,0.325,0.675]","","",""
"sailing-trial","62","555024","0.0-11.0-27.0","","","","false","","","","","","","","","","null","","982.0999999940395","","2","0","null","null","arrowup","[0.15,0.85,0.325,0.675]","","",""
"sailing-trial","63","559243","0.0-11.0-28.0","","","","false","","","","","","","","","","1040.3999999761581","","194.5","","3","1","arrowright","1","arrowright","[0.15,0.85,0.325,0.675]","","",""
"sailing-trial","64","561636","0.0-11.0-29.0","","","","false","","","","","","","","","","null","","1132.199999988079","","0","0","null","null","arrowup","[0.15,0.85,0.325,0.675]","","",""
"sailing-trial","65","565851","0.0-11.0-30.0","","","","false","","","","","","","","","","794.2000000178814","","1110.2999999821186","","3","0","arrowright","1","arrowright","[0.15,0.85,0.325,0.675]","","",""
"sailing-trial","66","568597","0.0-11.0-31.0","","","","false","","","","","","","","","","null","","1262.5","","0","0","null","null","arrowup","[0.15,0.85,0.325,0.675]","","",""
"sailing-trial","67","572591","0.0-11.0-32.0","","","","false","","","","","","","","","","721.2000000178814","","885.9000000059605","","2","0","arrowright","1","arrowleft","[0.15,0.85,0.325,0.675]","","",""
"sailing-trial","68","576512","0.0-11.0-33.0","","","","false","","","","","","","","","","null","","2015.199999988079","","3","1","null","null","arrowup","[0.15,0.85,0.325,0.675]","","",""
"sailing-trial","69","580254","0.0-11.0-34.0","","","","false","","","","","","","","","","939.0999999940395","","19","","1","0","arrowleft","0","arrowright","[0.85,0.15,0.675,0.325]","","",""
"sailing-trial","70","583328","0.0-11.0-35.0","","","","false","","","","","","","","","","null","","1284.4000000059605","","1","0","null","null","arrowup","[0.85,0.15,0.675,0.325]","","",""
"sailing-trial","71","588526","0.0-11.0-36.0","","","","false","","","","","","","","","","558","","1304.3999999761581","","0","1","arrowleft","0","arrowleft","[0.85,0.15,0.675,0.325]","","",""
"sailing-trial","72","591295","0.0-11.0-37.0","","","","false","","","","","","","","","","null","","988.0999999940395","","0","1","null","null","arrowup","[0.85,0.15,0.675,0.325]","","",""
"sailing-trial","73","596217","0.0-11.0-38.0","","","","false","","","","","","","","","","613.6999999880791","","985.8000000119209","","0","1","arrowleft","0","arrowleft","[0.85,0.15,0.675,0.325]","","",""
"sailing-trial","74","599471","0.0-11.0-39.0","","","","false","","","","","","","","","","null","","1446.9000000059605","","1","1","null","null","arrowup","[0.85,0.15,0.675,0.325]","","",""
"sailing-trial","75","604009","0.0-11.0-40.0","","","","false","","","","","","","","","","608.5999999940395","","893.2999999821186","","0","1","arrowleft","0","arrowleft","[0.85,0.15,0.675,0.325]","","",""
"sailing-trial","76","607312","0.0-11.0-41.0","","","","false","","","","","","","","","","null","","1488.9000000059605","","2","1","null","null","arrowup","[0.85,0.15,0.675,0.325]","","",""
"sailing-trial","77","610865","0.0-11.0-42.0","","","","false","","","","","","","","","","630.0999999940395","","48.70000001788139","","0","1","arrowleft","0","arrowleft","[0.85,0.15,0.675,0.325]","","",""
"sailing-trial","78","613876","0.0-11.0-43.0","","","","false","","","","","","","","","","null","","1600.0999999940395","","1","0","null","null","arrowup","[0.85,0.15,0.675,0.325]","","",""
"sailing-trial","79","617890","0.0-11.0-44.0","","","","false","","","","","","","","","","801.9000000059605","","161.40000000596046","","0","1","arrowleft","0","arrowleft","[0.85,0.15,0.675,0.325]","","",""
"sailing-trial","80","621094","0.0-11.0-45.0","","","","false","","","","","","","","","","null","","1126.5","","0","1","null","null","arrowup","[0.85,0.15,0.675,0.325]","","",""
"sailing-trial","81","625549","0.0-11.0-46.0","","","","false","","","","","","","","","","892.4000000059605","","492.80000001192093","","3","0","arrowright","1","arrowright","[0.85,0.15,0.675,0.325]","","",""
"sailing-trial","82","628635","0.0-11.0-47.0","","","","false","","","","","","","","","","null","","1071.300000011921","","2","1","null","null","arrowup","[0.85,0.15,0.675,0.325]","","",""
"sailing-trial","83","632210","0.0-11.0-48.0","","","","false","","","","","","","","","","834.4000000059605","","34.099999994039536","","2","0","arrowright","1","arrowleft","[0.85,0.15,0.675,0.325]","","",""
"sailing-trial","84","635377","0.0-11.0-49.0","","","","false","","","","","","","","","","null","","1093.5999999940395","","3","1","null","null","arrowup","[0.85,0.15,0.675,0.325]","","",""
"sailing-trial","85","639347","0.0-11.0-50.0","","","","false","","","","","","","","","","784.5","","244.7999999821186","","0","1","arrowleft","0","arrowleft","[0.85,0.15,0.675,0.325]","","",""
"sailing-trial","86","641992","0.0-11.0-51.0","","","","false","","","","","","","","","","null","","1039.2999999821186","","3","0","null","null","arrowup","[0.85,0.15,0.675,0.325]","","",""
"sailing-trial","87","646355","0.0-11.0-52.0","","","","false","","","","","","","","","","634.1999999880791","","609.5999999940395","","0","1","arrowleft","0","arrowleft","[0.85,0.15,0.675,0.325]","","",""
"sailing-trial","88","649391","0.0-11.0-53.0","","","","false","","","","","","","","","","null","","1289.7000000178814","","3","1","null","null","arrowup","[0.85,0.15,0.675,0.325]","","",""
"sailing-trial","89","652672","0.0-11.0-54.0","","","","false","","","","","","","","","","716.5999999940395","","111.80000001192093","","0","0","arrowleft","0","arrowleft","[0.15,0.85,0.325,0.675]","","",""
"sailing-trial","90","655448","0.0-11.0-55.0","","","","false","","","","","","","","","","null","","1289.5","","0","0","null","null","arrowup","[0.15,0.85,0.325,0.675]","","",""
"sailing-trial","91","659936","0.0-11.0-56.0","","","","false","","","","","","","","","","1450.1000000238419","","51.400000005960464","","1","1","arrowleft","0","arrowright","[0.15,0.85,0.325,0.675]","","",""
"sailing-trial","92","663190","0.0-11.0-57.0","","","","false","","","","","","","","","","null","","1387.2000000178814","","1","1","null","null","arrowup","[0.15,0.85,0.325,0.675]","","",""
"sailing-trial","93","667179","0.0-11.0-58.0","","","","false","","","","","","","","","","861.5999999940395","","352.30000001192093","","1","1","arrowleft","0","arrowright","[0.15,0.85,0.325,0.675]","","",""
"sailing-trial","94","670199","0.0-11.0-59.0","","","","false","","","","","","","","","","null","","1197.0999999940395","","2","1","null","null","arrowup","[0.15,0.85,0.325,0.675]","","",""
"sailing-trial","95","673919","0.0-11.0-60.0","","","","false","","","","","","","","","","618","","180.89999997615814","","1","1","arrowleft","0","arrowright","[0.15,0.85,0.325,0.675]","","",""
"sailing-trial","96","676473","0.0-11.0-61.0","","","","false","","","","","","","","","","null","","1224.199999988079","","2","0","null","null","arrowup","[0.15,0.85,0.325,0.675]","","",""
"sailing-trial","97","680577","0.0-11.0-62.0","","","","false","","","","","","","","","","850.6000000238419","","116.7999999821186","","1","1","arrowleft","0","arrowright","[0.15,0.85,0.325,0.675]","","",""
"sailing-trial","98","683489","0.0-11.0-63.0","","","","false","","","","","","","","","","null","","1433.1000000238419","","0","0","null","null","arrowup","[0.15,0.85,0.325,0.675]","","",""
"sailing-trial","99","686740","0.0-11.0-64.0","","","","false","","","","","","","","","","816","","14.300000011920929","","1","0","arrowleft","0","arrowright","[0.15,0.85,0.325,0.675]","","",""
"sailing-trial","100","690304","0.0-11.0-65.0","","","","false","","","","","","","","","","null","","2068.199999988079","","0","0","null","null","arrowup","[0.15,0.85,0.325,0.675]","","",""
"sailing-trial","101","693878","0.0-11.0-66.0","","","","false","","","","","","","","","","975","","108.2000000178814","","2","0","arrowright","1","arrowleft","[0.15,0.85,0.325,0.675]","","",""
"sailing-trial","102","696610","0.0-11.0-67.0","","","","false","","","","","","","","","","null","","1363.300000011921","","2","0","null","null","arrowup","[0.15,0.85,0.325,0.675]","","",""
"sailing-trial","103","699880","0.0-11.0-68.0","","","","false","","","","","","","","","","743.8000000119209","","205.59999999403954","","3","0","arrowright","1","arrowright","[0.15,0.85,0.325,0.675]","","",""
"sailing-trial","104","702204","0.0-11.0-69.0","","","","false","","","","","","","","","","null","","1047.199999988079","","0","0","null","null","arrowup","[0.15,0.85,0.325,0.675]","","",""
"sailing-trial","105","705331","0.0-11.0-70.0","","","","false","","","","","","","","","","698.8000000119209","","108.2999999821186","","0","0","arrowleft","0","arrowleft","[0.15,0.85,0.325,0.675]","","",""
"sailing-trial","106","707805","0.0-11.0-71.0","","","","false","","","","","","","","","","null","","1091.6000000238419","","0","0","null","null","arrowup","[0.15,0.85,0.325,0.675]","","",""
"sailing-trial","107","711812","0.0-11.0-72.0","","","","false","","","","","","","","","","831.6999999880791","","89.09999999403954","","1","1","arrowleft","0","arrowright","[0.15,0.85,0.325,0.675]","","",""
"sailing-trial","108","714528","0.0-11.0-73.0","","","","false","","","","","","","","","","null","","1216.5","","0","0","null","null","arrowup","[0.15,0.85,0.325,0.675]","","",""
"sailing-trial","109","718185","0.0-11.0-74.0","","","","false","","","","","","","","","","781.3000000119209","","63.70000001788139","","1","1","arrowleft","0","arrowright","[0.15,0.85,0.325,0.675]","","",""
"sailing-trial","110","722174","0.0-11.0-75.0","","","","false","","","","","","","","","","null","","1973.5999999940395","","3","1","null","null","arrowup","[0.15,0.85,0.325,0.675]","","",""
"sailing-trial","111","726493","0.0-11.0-76.0","","","","false","","","","","","","","","","714.5","","688.5","","1","1","arrowleft","0","arrowright","[0.15,0.85,0.325,0.675]","","",""
"sailing-trial","112","729241","0.0-11.0-77.0","","","","false","","","","","","","","","","null","","1403.800000011921","","0","0","null","null","arrowup","[0.15,0.85,0.325,0.675]","","",""
"sailing-trial","113","733617","0.0-11.0-78.0","","","","false","","","","","","","","","","1453","","194.69999998807907","","1","0","arrowleft","0","arrowright","[0.325,0.675,0.15,0.85]","","",""
"sailing-trial","114","736191","0.0-11.0-79.0","","","","false","","","","","","","","","","null","","1166.800000011921","","2","0","null","null","arrowup","[0.325,0.675,0.15,0.85]","","",""
"sailing-trial","115","739786","0.0-11.0-80.0","","","","false","","","","","","","","","","820.8999999761581","","307.40000000596046","","2","0","arrowright","1","arrowleft","[0.325,0.675,0.15,0.85]","","",""
"sailing-trial","116","742410","0.0-11.0-81.0","","","","false","","","","","","","","","","null","","1228.7999999821186","","0","0","null","null","arrowup","[0.325,0.675,0.15,0.85]","","",""
"sailing-trial","117","746950","0.0-11.0-82.0","","","","false","","","","","","","","","","856.0999999940395","","909.1999999880791","","3","1","arrowright","1","arrowright","[0.325,0.675,0.15,0.85]","","",""
"sailing-trial","118","750003","0.0-11.0-83.0","","","","false","","","","","","","","","","null","","1172.5","","1","1","null","null","arrowup","[0.325,0.675,0.15,0.85]","","",""
"sailing-trial","119","753541","0.0-11.0-84.0","","","","false","","","","","","","","","","606.5","","84","","3","1","arrowright","1","arrowright","[0.325,0.675,0.15,0.85]","","",""
"sailing-trial","120","756627","0.0-11.0-85.0","","","","false","","","","","","","","","","null","","1160.4000000059605","","0","1","null","null","arrowup","[0.325,0.675,0.15,0.85]","","",""
"sailing-trial","121","760448","0.0-11.0-86.0","","","","false","","","","","","","","","","629.5","","190.5","","3","1","arrowright","1","arrowright","[0.325,0.675,0.15,0.85]","","",""
"sailing-trial","122","762894","0.0-11.0-87.0","","","","false","","","","","","","","","","null","","1138.0999999940395","","1","0","null","null","arrowup","[0.325,0.675,0.15,0.85]","","",""
"sailing-trial","123","767205","0.0-11.0-88.0","","","","false","","","","","","","","","","668.1999999880791","","806.9000000059605","","3","1","arrowright","1","arrowright","[0.325,0.675,0.15,0.85]","","",""
"sailing-trial","124","770325","0.0-11.0-89.0","","","","false","","","","","","","","","","null","","1277.4000000059605","","3","1","null","null","arrowup","[0.325,0.675,0.15,0.85]","","",""
"sailing-trial","125","773446","0.0-11.0-90.0","","","","false","","","","","","","","","","375.89999997615814","","8.100000023841858","","3","1","arrowright","1","arrowright","[0.325,0.675,0.15,0.85]","","",""
"sailing-trial","126","776499","0.0-11.0-91.0","","","","false","","","","","","","","","","null","","1221.5999999940395","","3","1","null","null","arrowup","[0.325,0.675,0.15,0.85]","","",""
"sailing-trial","127","779936","0.0-11.0-92.0","","","","false","","","","","","","","","","501.5","","59.5","","3","1","arrowright","1","arrowright","[0.325,0.675,0.15,0.85]","","",""
"sailing-trial","128","782956","0.0-11.0-93.0","","","","false","","","","","","","","","","null","","1253.5999999940395","","1","1","null","null","arrowup","[0.325,0.675,0.15,0.85]","","",""
"sailing-trial","129","786428","0.0-11.0-94.0","","","","false","","","","","","","","","","571.2000000178814","","32.80000001192093","","3","1","arrowright","1","arrowright","[0.325,0.675,0.15,0.85]","","",""
"sailing-trial","130","788779","0.0-11.0-95.0","","","","false","","","","","","","","","","null","","1109.800000011921","","0","0","null","null","arrowup","[0.325,0.675,0.15,0.85]","","",""
"sailing-trial","131","792817","0.0-11.0-96.0","","","","false","","","","","","","","","","622.2000000178814","","607.2999999821186","","3","1","arrowright","1","arrowright","[0.325,0.675,0.15,0.85]","","",""
"sailing-trial","132","795754","0.0-11.0-97.0","","","","false","","","","","","","","","","null","","1137","","0","1","null","null","arrowup","[0.325,0.675,0.15,0.85]","","",""
"sailing-trial","133","798746","0.0-11.0-98.0","","","","false","","","","","","","","","","592.8000000119209","","101.5","","3","0","arrowright","1","arrowright","[0.15,0.85,0.325,0.675]","","",""
"sailing-trial","134","801438","0.0-11.0-99.0","","","","false","","","","","","","","","","null","","1376.2000000178814","","3","0","null","null","arrowup","[0.15,0.85,0.325,0.675]","","",""
"sailing-trial","135","805398","0.0-11.0-100.0","","","","false","","","","","","","","","","1091.0999999940395","","33.30000001192093","","1","1","arrowleft","0","arrowright","[0.15,0.85,0.325,0.675]","","",""
"sailing-trial","136","807784","0.0-11.0-101.0","","","","false","","","","","","","","","","null","","1095.6000000238419","","0","0","null","null","arrowup","[0.15,0.85,0.325,0.675]","","",""
"sailing-trial","137","811622","0.0-11.0-102.0","","","","false","","","","","","","","","","931.5999999940395","","122.90000000596046","","1","1","arrowleft","0","arrowright","[0.15,0.85,0.325,0.675]","","",""
"sailing-trial","138","813981","0.0-11.0-103.0","","","","false","","","","","","","","","","null","","1017.3000000119209","","3","0","null","null","arrowup","[0.15,0.85,0.325,0.675]","","",""
"sailing-trial","139","817995","0.0-11.0-104.0","","","","false","","","","","","","","","","1149.5","","17.5","","1","1","arrowleft","0","arrowright","[0.15,0.85,0.325,0.675]","","",""
"sailing-trial","140","820371","0.0-11.0-105.0","","","","false","","","","","","","","","","null","","1095","","2","0","null","null","arrowup","[0.15,0.85,0.325,0.675]","","",""
"sailing-trial","141","824003","0.0-11.0-106.0","","","","false","","","","","","","","","","800.2999999821186","","25.19999998807907","","1","1","arrowleft","0","arrowright","[0.15,0.85,0.325,0.675]","","",""
"sailing-trial","142","827457","0.0-11.0-107.0","","","","false","","","","","","","","","","null","","1463.5","","3","1","null","null","arrowup","[0.15,0.85,0.325,0.675]","","",""
"sailing-trial","143","831276","0.0-11.0-108.0","","","","false","","","","","","","","","","852.1999999880791","","147","","1","1","arrowleft","0","arrowright","[0.15,0.85,0.325,0.675]","","",""
"sailing-trial","144","833884","0.0-11.0-109.0","","","","false","","","","","","","","","","null","","992.5","","0","0","null","null","arrowup","[0.15,0.85,0.325,0.675]","","",""
"sailing-trial","145","837851","0.0-11.0-110.0","","","","false","","","","","","","","","","752.1999999880791","","228.19999998807907","","1","1","arrowleft","0","arrowright","[0.15,0.85,0.325,0.675]","","",""
"sailing-trial","146","840175","0.0-11.0-111.0","","","","false","","","","","","","","","","null","","964.2000000178814","","1","0","null","null","arrowup","[0.15,0.85,0.325,0.675]","","",""
"sailing-trial","147","843742","0.0-11.0-112.0","","","","false","","","","","","","","","","688.5","","99.7000000178814","","1","1","arrowleft","0","arrowright","[0.15,0.85,0.325,0.675]","","",""
"sailing-trial","148","845623","0.0-11.0-113.0","","","","false","","","","","","","","","","null","","470.69999998807907","","0","0","null","null","arrowup","[0.15,0.85,0.325,0.675]","","",""
"sailing-trial","149","849028","0.0-11.0-114.0","","","","false","","","","","","","","","","691.7999999821186","","40","","1","0","arrowleft","0","arrowright","[0.675,0.325,0.85,0.15]","","",""
"sailing-trial","150","851455","0.0-11.0-115.0","","","","false","","","","","","","","","","null","","1020.2000000178814","","3","0","null","null","arrowup","[0.675,0.325,0.85,0.15]","","",""
"sailing-trial","151","855336","0.0-11.0-116.0","","","","false","","","","","","","","","","822.8000000119209","","12.900000005960464","","0","1","arrowleft","0","arrowleft","[0.675,0.325,0.85,0.15]","","",""
"sailing-trial","152","857906","0.0-11.0-117.0","","","","false","","","","","","","","","","null","","971.9000000059605","","0","1","null","null","arrowup","[0.675,0.325,0.85,0.15]","","",""
"sailing-trial","153","862010","0.0-11.0-118.0","","","","false","","","","","","","","","","350.19999998807907","","521","","0","1","arrowleft","0","arrowleft","[0.675,0.325,0.85,0.15]","","",""
"sailing-trial","154","863827","0.0-11.0-119.0","","","","false","","","","","","","","","","null","","609.1999999880791","","1","0","null","null","arrowup","[0.675,0.325,0.85,0.15]","","",""
"sailing-trial","155","868233","0.0-11.0-120.0","","","","false","","","","","","","","","","661.8999999761581","","167.40000000596046","","0","1","arrowleft","0","arrowleft","[0.675,0.325,0.85,0.15]","","",""
"sailing-trial","156","870703","0.0-11.0-121.0","","","","false","","","","","","","","","","null","","686.7000000178814","","2","1","null","null","arrowup","[0.675,0.325,0.85,0.15]","","",""
"sailing-trial","157","874174","0.0-11.0-122.0","","","","false","","","","","","","","","","654.5999999940395","","35.79999998211861","","0","1","arrowleft","0","arrowleft","[0.675,0.325,0.85,0.15]","","",""
"sailing-trial","158","877394","0.0-11.0-123.0","","","","false","","","","","","","","","","null","","1124","","0","1","null","null","arrowup","[0.675,0.325,0.85,0.15]","","",""
"sailing-trial","159","880333","0.0-11.0-124.0","","","","false","","","","","","","","","","675.5999999940395","","69.90000000596046","","0","0","arrowleft","0","arrowleft","[0.675,0.325,0.85,0.15]","","",""
"sailing-trial","160","883500","0.0-11.0-125.0","","","","false","","","","","","","","","","null","","1198.5","","0","1","null","null","arrowup","[0.675,0.325,0.85,0.15]","","",""
"sailing-trial","161","887338","0.0-11.0-126.0","","","","false","","","","","","","","","","491.69999998807907","","570","","0","1","arrowleft","0","arrowleft","[0.675,0.325,0.85,0.15]","","",""
"sailing-trial","162","889550","0.0-11.0-127.0","","","","false","","","","","","","","","","null","","862.8000000119209","","3","0","null","null","arrowup","[0.675,0.325,0.85,0.15]","","",""
"sailing-trial","163","893027","0.0-11.0-128.0","","","","false","","","","","","","","","","616.1999999880791","","44.30000001192093","","0","1","arrowleft","0","arrowleft","[0.675,0.325,0.85,0.15]","","",""
"sailing-trial","164","895330","0.0-11.0-129.0","","","","false","","","","","","","","","","null","","242.2000000178814","","2","1","null","null","arrowup","[0.675,0.325,0.85,0.15]","","",""
"sailing-trial","165","898900","0.0-11.0-130.0","","","","false","","","","","","","","","","537.4000000059605","","140.40000000596046","","0","1","arrowleft","0","arrowleft","[0.675,0.325,0.85,0.15]","","",""
"sailing-trial","166","901888","0.0-11.0-131.0","","","","false","","","","","","","","","","null","","1055.4000000059605","","2","1","null","null","arrowup","[0.675,0.325,0.85,0.15]","","",""
"sailing-trial","167","905380","0.0-11.0-132.0","","","","false","","","","","","","","","","737.8999999761581","","300","","2","0","arrowright","1","arrowleft","[0.15,0.85,0.325,0.675]","","",""
"sailing-trial","168","908428","0.0-11.0-133.0","","","","false","","","","","","","","","","null","","1107.1000000238419","","1","1","null","null","arrowup","[0.15,0.85,0.325,0.675]","","",""
"sailing-trial","169","911417","0.0-11.0-134.0","","","","false","","","","","","","","","","445.2999999821186","","182.09999999403954","","0","0","arrowleft","0","arrowleft","[0.15,0.85,0.325,0.675]","","",""
"sailing-trial","170","914501","0.0-11.0-135.0","","","","false","","","","","","","","","","null","","1223","","0","1","null","null","arrowup","[0.15,0.85,0.325,0.675]","","",""
"sailing-trial","171","918539","0.0-11.0-136.0","","","","false","","","","","","","","","","957","","160.5","","0","1","arrowleft","0","arrowleft","[0.15,0.85,0.325,0.675]","","",""
"sailing-trial","172","920892","0.0-11.0-137.0","","","","false","","","","","","","","","","null","","1005.4000000059605","","0","0","null","null","arrowup","[0.15,0.85,0.325,0.675]","","",""
"sailing-trial","173","924177","0.0-11.0-138.0","","","","false","","","","","","","","","","825.7999999821186","","105.40000000596046","","0","0","arrowleft","0","arrowleft","[0.15,0.85,0.325,0.675]","","",""
"sailing-trial","174","927217","0.0-11.0-139.0","","","","false","","","","","","","","","","null","","1133.0999999940395","","3","1","null","null","arrowup","[0.15,0.85,0.325,0.675]","","",""
"sailing-trial","175","930988","0.0-11.0-140.0","","","","false","","","","","","","","","","640","","153.59999999403954","","1","1","arrowleft","0","arrowright","[0.15,0.85,0.325,0.675]","","",""
"sailing-trial","176","932796","0.0-11.0-141.0","","","","false","","","","","","","","","","null","","521.8000000119209","","2","0","null","null","arrowup","[0.15,0.85,0.325,0.675]","","",""
"sailing-trial","177","936659","0.0-11.0-142.0","","","","false","","","","","","","","","","841.2000000178814","","91.89999997615814","","1","1","arrowleft","0","arrowright","[0.15,0.85,0.325,0.675]","","",""
"sailing-trial","178","939763","0.0-11.0-143.0","","","","false","","","","","","","","","","null","","1161.300000011921","","3","1","null","null","arrowup","[0.15,0.85,0.325,0.675]","","",""
"sailing-trial","179","942825","0.0-11.0-144.0","","","","false","","","","","","","","","","409.5","","205.7000000178814","","1","0","arrowleft","0","arrowright","[0.15,0.85,0.325,0.675]","","",""
"sailing-trial","180","945270","0.0-11.0-145.0","","","","false","","","","","","","","","","null","","1069.5999999940395","","2","0","null","null","arrowup","[0.15,0.85,0.325,0.675]","","",""
"sailing-trial","181","948612","0.0-11.0-146.0","","","","false","","","","","","","","","","699.1999999880791","","129.30000001192093","","3","0","arrowright","1","arrowright","[0.15,0.85,0.325,0.675]","","",""
"sailing-trial","182","951560","0.0-11.0-147.0","","","","false","","","","","","","","","","null","","1128.699999988079","","1","1","null","null","arrowup","[0.15,0.85,0.325,0.675]","","",""
"sailing-trial","183","954980","0.0-11.0-148.0","","","","false","","","","","","","","","","511.80000001192093","","10.099999994039536","","3","1","arrowright","1","arrowright","[0.325,0.675,0.15,0.85]","","",""
"sailing-trial","184","956823","0.0-11.0-149.0","","","","false","","","","","","","","","","null","","442.19999998807907","","2","0","null","null","arrowup","[0.325,0.675,0.15,0.85]","","",""
"sailing-trial","185","961070","0.0-11.0-150.0","","","","false","","","","","","","","","","765.6999999880791","","872.7999999821186","","3","1","arrowright","1","arrowright","[0.325,0.675,0.15,0.85]","","",""
"sailing-trial","186","962908","0.0-11.0-151.0","","","","false","","","","","","","","","","null","","547.7999999821186","","0","0","null","null","arrowup","[0.325,0.675,0.15,0.85]","","",""
"sailing-trial","187","966591","0.0-11.0-152.0","","","","false","","","","","","","","","","800.5","","79","","3","1","arrowright","1","arrowright","[0.325,0.675,0.15,0.85]","","",""
"sailing-trial","188","968301","0.0-11.0-153.0","","","","false","","","","","","","","","","null","","379.19999998807907","","1","0","null","null","arrowup","[0.325,0.675,0.15,0.85]","","",""
"sailing-trial","189","972082","0.0-11.0-154.0","","","","false","","","","","","","","","","834.5","","27.30000001192093","","3","1","arrowright","1","arrowright","[0.325,0.675,0.15,0.85]","","",""
"sailing-trial","190","973893","0.0-11.0-155.0","","","","false","","","","","","","","","","null","","417.30000001192093","","2","0","null","null","arrowup","[0.325,0.675,0.15,0.85]","","",""
"sailing-trial","191","978489","0.0-11.0-156.0","","","","false","","","","","","","","","","1531.199999988079","","123.30000001192093","","3","1","arrowright","1","arrowright","[0.325,0.675,0.15,0.85]","","",""
"sailing-trial","192","981609","0.0-11.0-157.0","","","","false","","","","","","","","","","null","","1222.7999999821186","","2","1","null","null","arrowup","[0.325,0.675,0.15,0.85]","","",""
"sailing-trial","193","985180","0.0-11.0-158.0","","","","false","","","","","","","","","","559.6999999880791","","2.5999999940395355","","3","1","arrowright","1","arrowright","[0.325,0.675,0.15,0.85]","","",""
"sailing-trial","194","987281","0.0-11.0-159.0","","","","false","","","","","","","","","","null","","298","","1","1","null","null","arrowup","[0.325,0.675,0.15,0.85]","","",""
"sailing-trial","195","991003","0.0-11.0-160.0","","","","false","","","","","","","","","","449.59999999403954","","184.89999997615814","","3","1","arrowright","1","arrowright","[0.325,0.675,0.15,0.85]","","",""
"sailing-trial","196","992548","0.0-11.0-161.0","","","","false","","","","","","","","","","null","","346.80000001192093","","2","0","null","null","arrowup","[0.325,0.675,0.15,0.85]","","",""
"sailing-trial","197","996251","0.0-11.0-162.0","","","","false","","","","","","","","","","1057.4000000059605","","8.100000023841858","","3","0","arrowright","1","arrowright","[0.325,0.675,0.15,0.85]","","",""
"sailing-trial","198","998808","0.0-11.0-163.0","","","","false","","","","","","","","","","null","","1207.2999999821186","","3","0","null","null","arrowup","[0.325,0.675,0.15,0.85]","","",""
"sailing-trial","199","1003316","0.0-11.0-164.0","","","","false","","","","","","","","","","863.0999999940395","","840","","2","1","arrowright","1","arrowleft","[0.15,0.85,0.325,0.675]","","",""
"sailing-trial","200","1005495","0.0-11.0-165.0","","","","false","","","","","","","","","","null","","943.3000000119209","","0","0","null","null","arrowup","[0.15,0.85,0.325,0.675]","","",""
"sailing-trial","201","1009704","0.0-11.0-166.0","","","","false","","","","","","","","","","985.4000000059605","","687.8000000119209","","0","0","arrowleft","0","arrowleft","[0.15,0.85,0.325,0.675]","","",""
"sailing-trial","202","1012183","0.0-11.0-167.0","","","","false","","","","","","","","","","null","","1104.199999988079","","1","0","null","null","arrowup","[0.15,0.85,0.325,0.675]","","",""
"sailing-trial","203","1016024","0.0-11.0-168.0","","","","false","","","","","","","","","","1338.5999999940395","","88.2999999821186","","2","0","arrowright","1","arrowleft","[0.15,0.85,0.325,0.675]","","",""
"sailing-trial","204","1018257","0.0-11.0-169.0","","","","false","","","","","","","","","","null","","899.9000000059605","","3","0","null","null","arrowup","[0.15,0.85,0.325,0.675]","","",""
"sailing-trial","205","1022971","0.0-11.0-170.0","","","","false","","","","","","","","","","848.0999999940395","","805","","1","1","arrowleft","0","arrowright","[0.15,0.85,0.325,0.675]","","",""
"sailing-trial","206","1025657","0.0-11.0-171.0","","","","false","","","","","","","","","","null","","987.5","","1","1","null","null","arrowup","[0.15,0.85,0.325,0.675]","","",""
"sailing-trial","207","1029261","0.0-11.0-172.0","","","","false","","","","","","","","","","590","","96.39999997615814","","1","1","arrowleft","0","arrowright","[0.15,0.85,0.325,0.675]","","",""
"sailing-trial","208","1031247","0.0-11.0-173.0","","","","false","","","","","","","","","","null","","196.7000000178814","","3","1","null","null","arrowup","[0.15,0.85,0.325,0.675]","","",""
"sailing-trial","209","1034467","0.0-11.0-174.0","","","","false","","","","","","","","","","320.19999998807907","","35.70000001788139","","1","1","arrowleft","0","arrowright","[0.15,0.85,0.325,0.675]","","",""
"sailing-trial","210","1036469","0.0-11.0-175.0","","","","false","","","","","","","","","","null","","224.59999999403954","","1","1","null","null","arrowup","[0.15,0.85,0.325,0.675]","","",""
"sailing-trial","211","1039747","0.0-11.0-176.0","","","","false","","","","","","","","","","277.7999999821186","","873.9000000059605","","1","0","arrowleft","0","arrowright","[0.15,0.85,0.325,0.675]","","",""
"sailing-trial","212","1042176","0.0-11.0-177.0","","","","false","","","","","","","","","","null","","752.7000000178814","","3","1","null","null","arrowup","[0.15,0.85,0.325,0.675]","","",""
"sailing-trial","213","1047348","0.0-11.0-178.0","","","","false","","","","","","","","","","218.09999999403954","","2167.5999999940395","","1","1","arrowleft","0","arrowright","[0.15,0.85,0.325,0.675]","","",""
"sailing-trial","214","1049149","0.0-11.0-179.0","","","","false","","","","","","","","","","null","","26.69999998807907","","2","1","null","null","arrowup","[0.15,0.85,0.325,0.675]","","",""
"sailing-trial","215","1052098","0.0-11.0-180.0","","","","false","","","","","","","","","","591","","64.09999999403954","","1","0","arrowleft","0","arrowright","[0.15,0.85,0.325,0.675]","","",""
"sailing-trial","216","1054572","0.0-11.0-181.0","","","","false","","","","","","","","","","null","","776.6999999880791","","0","1","null","null","arrowup","[0.15,0.85,0.325,0.675]","","",""
"sailing-trial","217","1057298","0.0-11.0-182.0","","","","false","","","","","","","","","","323.69999998807907","","52.5","","0","0","arrowleft","0","arrowleft","[0.15,0.85,0.325,0.675]","","",""
"sailing-trial","218","1060178","0.0-11.0-183.0","","","","false","","","","","","","","","","null","","1170.0999999940395","","3","1","null","null","arrowup","[0.15,0.85,0.325,0.675]","","",""
"sailing-trial","219","1064300","0.0-11.0-184.0","","","","false","","","","","","","","","","213.5","","1141.800000011921","","3","1","arrowright","1","arrowright","[0.15,0.85,0.325,0.675]","","",""
"sailing-trial","220","1065792","0.0-11.0-185.0","","","","false","","","","","","","","","","null","","258.09999999403954","","0","0","null","null","arrowup","[0.15,0.85,0.325,0.675]","","",""
"sailing-trial","221","1070039","0.0-11.0-186.0","","","","false","","","","","","","","","","678","","843.5","","3","1","arrowright","1","arrowright","[0.325,0.675,0.15,0.85]","","",""
"sailing-trial","222","1072125","0.0-11.0-187.0","","","","false","","","","","","","","","","null","","357.19999998807907","","1","1","null","null","arrowup","[0.325,0.675,0.15,0.85]","","",""
"sailing-trial","223","1075712","0.0-11.0-188.0","","","","false","","","","","","","","","","195.09999999403954","","645.4000000059605","","3","1","arrowright","1","arrowright","[0.325,0.675,0.15,0.85]","","",""
"sailing-trial","224","1077149","0.0-11.0-189.0","","","","false","","","","","","","","","","null","","186.5","","0","0","null","null","arrowup","[0.325,0.675,0.15,0.85]","","",""
"sailing-trial","225","1081469","0.0-11.0-190.0","","","","false","","","","","","","","","","657.5","","875.5999999940395","","3","1","arrowright","1","arrowright","[0.325,0.675,0.15,0.85]","","",""
"sailing-trial","226","1082835","0.0-11.0-191.0","","","","false","","","","","","","","","","null","","159.60000002384186","","0","0","null","null","arrowup","[0.325,0.675,0.15,0.85]","","",""
"sailing-trial","227","1088609","0.0-11.0-192.0","","","","false","","","","","","","","","","626.5999999940395","","2108","","3","1","arrowright","1","arrowright","[0.325,0.675,0.15,0.85]","","",""
"sailing-trial","228","1089997","0.0-11.0-193.0","","","","false","","","","","","","","","","null","","62.099999994039536","","2","0","null","null","arrowup","[0.325,0.675,0.15,0.85]","","",""
"sailing-trial","229","1094132","0.0-11.0-194.0","","","","false","","","","","","","","","","836.5","","641.2999999821186","","3","1","arrowright","1","arrowright","[0.325,0.675,0.15,0.85]","","",""
"sailing-trial","230","1096101","0.0-11.0-195.0","","","","false","","","","","","","","","","null","","272.69999998807907","","3","1","null","null","arrowup","[0.325,0.675,0.15,0.85]","","",""
"sailing-trial","231","1100239","0.0-11.0-196.0","","","","false","","","","","","","","","","157.09999999403954","","1140.3999999761581","","3","1","arrowright","1","arrowright","[0.325,0.675,0.15,0.85]","","",""
"sailing-trial","232","1102258","0.0-11.0-197.0","","","","false","","","","","","","","","","null","","282.5","","2","1","null","null","arrowup","[0.325,0.675,0.15,0.85]","","",""
"sailing-trial","233","1105015","0.0-11.0-198.0","","","","false","","","","","","","","","","219.10000002384186","","20.599999994039536","","3","0","arrowright","1","arrowright","[0.325,0.675,0.15,0.85]","","",""
"sailing-trial","234","1107160","0.0-11.0-199.0","","","","false","","","","","","","","","","null","","815.5","","2","0","null","null","arrowup","[0.325,0.675,0.15,0.85]","","",""
"sailing-trial","235","1110566","0.0-11.0-200.0","","","","false","","","","","","","","","","617.6999999880791","","39.19999998807907","","3","1","arrowright","1","arrowright","[0.325,0.675,0.15,0.85]","","",""
"sailing-trial","236","1112552","0.0-11.0-201.0","","","","false","","","","","","","","","","null","","206.09999999403954","","3","1","null","null","arrowup","[0.325,0.675,0.15,0.85]","","",""
"sailing-trial","237","1116123","0.0-11.0-202.0","","","","false","","","","","","","","","","200.09999999403954","","31.100000023841858","","3","1","arrowright","1","arrowright","[0.325,0.675,0.15,0.85]","","",""
"sailing-trial","238","1118785","0.0-11.0-203.0","","","","false","","","","","","","","","","null","","1484.9000000059605","","2","0","null","null","arrowup","[0.325,0.675,0.15,0.85]","","",""
"sailing-trial","239","1123065","0.0-11.0-204.0","","","","false","","","","","","","","","","542.6999999880791","","861.8999999761581","","3","1","arrowright","1","arrowright","[0.15,0.85,0.325,0.675]","","",""
"sailing-trial","240","1124417","0.0-11.0-205.0","","","","false","","","","","","","","","","null","","164.69999998807907","","1","0","null","null","arrowup","[0.15,0.85,0.325,0.675]","","",""
"sailing-trial","241","1128470","0.0-11.0-206.0","","","","false","","","","","","","","","","626.3999999761581","","602.1999999880791","","3","1","arrowright","1","arrowright","[0.15,0.85,0.325,0.675]","","",""
"sailing-trial","242","1130756","0.0-11.0-207.0","","","","false","","","","","","","","","","null","","559.9000000059605","","3","1","null","null","arrowup","[0.15,0.85,0.325,0.675]","","",""
"sailing-trial","243","1133745","0.0-11.0-208.0","","","","false","","","","","","","","","","280.59999999403954","","471.30000001192093","","3","0","arrowright","1","arrowright","[0.15,0.85,0.325,0.675]","","",""
"sailing-trial","244","1136178","0.0-11.0-209.0","","","","false","","","","","","","","","","null","","603.1999999880791","","1","1","null","null","arrowup","[0.15,0.85,0.325,0.675]","","",""
"sailing-trial","245","1138822","0.0-11.0-210.0","","","","false","","","","","","","","","","229.2999999821186","","106","","3","0","arrowright","1","arrowright","[0.15,0.85,0.325,0.675]","","",""
"sailing-trial","246","1141524","0.0-11.0-211.0","","","","false","","","","","","","","","","null","","1184.9000000059605","","0","0","null","null","arrowup","[0.15,0.85,0.325,0.675]","","",""
"sailing-trial","247","1145972","0.0-11.0-212.0","","","","false","","","","","","","","","","696.8999999761581","","332.80000001192093","","1","1","arrowleft","0","arrowright","[0.15,0.85,0.325,0.675]","","",""
"sailing-trial","248","1147695","0.0-11.0-213.0","","","","false","","","","","","","","","","null","","421.09999999403954","","3","0","null","null","arrowup","[0.15,0.85,0.325,0.675]","","",""
"sailing-trial","249","1152051","0.0-11.0-214.0","","","","false","","","","","","","","","","1005.5999999940395","","652.4000000059605","","1","0","arrowleft","0","arrowright","[0.15,0.85,0.325,0.675]","","",""
"sailing-trial","250","1153911","0.0-11.0-215.0","","","","false","","","","","","","","","","null","","687.7000000178814","","0","0","null","null","arrowup","[0.15,0.85,0.325,0.675]","","",""
"sailing-trial","251","1158204","0.0-11.0-216.0","","","","false","","","","","","","","","","692.5","","754.5999999940395","","1","1","arrowleft","0","arrowright","[0.15,0.85,0.325,0.675]","","",""
"sailing-trial","252","1159471","0.0-11.0-217.0","","","","false","","","","","","","","","","null","","64.30000001192093","","0","0","null","null","arrowup","[0.15,0.85,0.325,0.675]","","",""
"sailing-trial","253","1163394","0.0-11.0-218.0","","","","false","","","","","","","","","","674.7999999821186","","550.9000000059605","","1","1","arrowleft","0","arrowright","[0.15,0.85,0.325,0.675]","","",""
"sailing-trial","254","1166579","0.0-11.0-219.0","","","","false","","","","","","","","","","null","","1636.0999999940395","","2","1","null","null","arrowup","[0.15,0.85,0.325,0.675]","","",""
"sailing-trial","255","1169616","0.0-11.0-220.0","","","","false","","","","","","","","","","63.30000001192093","","264.09999999403954","","2","1","arrowright","1","arrowleft","[0.15,0.85,0.325,0.675]","","",""
"sailing-trial","256","1171491","0.0-11.0-221.0","","","","false","","","","","","","","","","null","","25.30000001192093","","0","0","null","null","arrowup","[0.15,0.85,0.325,0.675]","","",""
"sailing-trial","257","1175245","0.0-11.0-222.0","","","","false","","","","","","","","","","602.7000000178814","","976.0999999940395","","2","0","arrowright","1","arrowleft","[0.325,0.675,0.15,0.85]","","",""
"sailing-trial","258","1177442","0.0-11.0-223.0","","","","false","","","","","","","","","","null","","534.0999999940395","","3","1","null","null","arrowup","[0.325,0.675,0.15,0.85]","","",""
"sailing-trial","259","1179810","0.0-11.0-224.0","","","","false","","","","","","","","","","69.09999999403954","","67.5","","2","0","arrowright","1","arrowleft","[0.325,0.675,0.15,0.85]","","",""
"sailing-trial","260","1182563","0.0-11.0-225.0","","","","false","","","","","","","","","","null","","1092.0999999940395","","1","1","null","null","arrowup","[0.325,0.675,0.15,0.85]","","",""
"sailing-trial","261","1186551","0.0-11.0-226.0","","","","false","","","","","","","","","","646.3000000119209","","479","","1","1","arrowleft","0","arrowright","[0.325,0.675,0.15,0.85]","","",""
"sailing-trial","262","1189420","0.0-11.0-227.0","","","","false","","","","","","","","","","null","","1192.5999999940395","","1","1","null","null","arrowup","[0.325,0.675,0.15,0.85]","","",""
"sailing-trial","263","1193475","0.0-11.0-228.0","","","","false","","","","","","","","","","608.6999999880791","","255.40000000596046","","1","1","arrowleft","0","arrowright","[0.325,0.675,0.15,0.85]","","",""
"sailing-trial","264","1194845","0.0-11.0-229.0","","","","false","","","","","","","","","","null","","72.09999999403954","","2","0","null","null","arrowup","[0.325,0.675,0.15,0.85]","","",""
"sailing-trial","265","1199177","0.0-11.0-230.0","","","","false","","","","","","","","","","879.5999999940395","","567.8000000119209","","1","0","arrowleft","0","arrowright","[0.325,0.675,0.15,0.85]","","",""
"sailing-trial","266","1201800","0.0-11.0-231.0","","","","false","","","","","","","","","","null","","1009.0999999940395","","1","1","null","null","arrowup","[0.325,0.675,0.15,0.85]","","",""
"sailing-trial","267","1205739","0.0-11.0-232.0","","","","false","","","","","","","","","","844.7000000178814","","329.7000000178814","","1","1","arrowleft","0","arrowright","[0.325,0.675,0.15,0.85]","","",""
"sailing-trial","268","1209994","0.0-11.0-233.0","","","","false","","","","","","","","","","null","","1598.0999999940395","","3","1","null","null","arrowup","[0.325,0.675,0.15,0.85]","","",""
"sailing-trial","269","1214145","0.0-11.0-234.0","","","","false","","","","","","","","","","687.4000000059605","","300.09999999403954","","1","0","arrowleft","0","arrowright","[0.325,0.675,0.15,0.85]","","",""
"sailing-trial","270","1216669","0.0-11.0-235.0","","","","false","","","","","","","","","","null","","764.8999999761581","","1","1","null","null","arrowup","[0.325,0.675,0.15,0.85]","","",""
"sailing-trial","271","1220278","0.0-11.0-236.0","","","","false","","","","","","","","","","819.0999999940395","","155.80000001192093","","1","0","arrowleft","0","arrowright","[0.325,0.675,0.15,0.85]","","",""
"sailing-trial","272","1223041","0.0-11.0-237.0","","","","false","","","","","","","","","","null","","894.0999999940395","","3","1","null","null","arrowup","[0.325,0.675,0.15,0.85]","","",""
"sailing-trial","273","1225927","0.0-11.0-238.0","","","","false","","","","","","","","","","395.60000002384186","","128.80000001192093","","3","0","arrowright","1","arrowright","[0.15,0.85,0.325,0.675]","","",""
"sailing-trial","274","1228681","0.0-11.0-239.0","","","","false","","","","","","","","","","null","","850.9000000059605","","2","1","null","null","arrowup","[0.15,0.85,0.325,0.675]","","",""
"sailing-trial","275","1231631","0.0-11.0-240.0","","","","false","","","","","","","","","","482.7999999821186","","66.19999998807907","","2","0","arrowright","1","arrowleft","[0.15,0.85,0.325,0.675]","","",""
"sailing-trial","276","1233807","0.0-11.0-241.0","","","","false","","","","","","","","","","null","","879.4000000059605","","2","0","null","null","arrowup","[0.15,0.85,0.325,0.675]","","",""
"sailing-trial","277","1238042","0.0-11.0-242.0","","","","false","","","","","","","","","","1144.300000011921","","496","","3","1","arrowright","1","arrowright","[0.15,0.85,0.325,0.675]","","",""
"sailing-trial","278","1239753","0.0-11.0-243.0","","","","false","","","","","","","","","","null","","554.2000000178814","","3","0","null","null","arrowup","[0.15,0.85,0.325,0.675]","","",""
"sailing-trial","279","1244424","0.0-11.0-244.0","","","","false","","","","","","","","","","1638.199999988079","","556.9000000059605","","3","0","arrowright","1","arrowright","[0.15,0.85,0.325,0.675]","","",""
"sailing-trial","280","1248042","0.0-11.0-245.0","","","","false","","","","","","","","","","null","","2484.9000000059605","","0","0","null","null","arrowup","[0.15,0.85,0.325,0.675]","","",""
"sailing-trial","281","1251278","0.0-11.0-246.0","","","","false","","","","","","","","","","559.5999999940395","","615.6999999880791","","0","0","arrowleft","0","arrowleft","[0.15,0.85,0.325,0.675]","","",""
"sailing-trial","282","1254116","0.0-11.0-247.0","","","","false","","","","[{""event"":""fullscreenenter"",""trial"":3,""time"":12645},{""event"":""fullscreenexit"",""trial"":5,""time"":25813},{""event"":""blur"",""trial"":5,""time"":27348},{""event"":""focus"",""trial"":5,""time"":67391},{""event"":""blur"",""trial"":283,""time"":1258831},{""event"":""focus"",""trial"":283,""time"":1261065}]","false","","","","","null","","1507.3999999761581","","3","0","null","null","arrowup","[0.15,0.85,0.325,0.675]","","",""
"sailing-trial","283","1262184","0.0-11.0-248.0","","","","false","","","","","","","","","","1050.7999999821186","","108.19999998807907","","1","1","arrowleft","0","arrowright","[0.15,0.85,0.325,0.675]","","",""
"sailing-trial","284","1264237","0.0-11.0-249.0","","","","false","","","","","","","","","","null","","199.5","","3","1","null","null","arrowup","[0.15,0.85,0.325,0.675]","","",""
"sailing-trial","285","1267807","0.0-11.0-250.0","","","","false","","","","","","","","","","589","","77","","1","1","arrowleft","0","arrowright","[0.15,0.85,0.325,0.675]","","",""
"sailing-trial","286","1270193","0.0-11.0-251.0","","","","false","","","","","","","","","","null","","620.2999999821186","","3","1","null","null","arrowup","[0.15,0.85,0.325,0.675]","","",""
"sailing-trial","287","1274482","0.0-11.0-252.0","","","","false","","","","","","","","","","442","","183.2000000178814","","1","1","arrowleft","0","arrowright","[0.15,0.85,0.325,0.675]","","",""
"sailing-trial","288","1276570","0.0-11.0-253.0","","","","false","","","","","","","","","","null","","847.4000000059605","","3","0","null","null","arrowup","[0.15,0.85,0.325,0.675]","","",""
"sailing-trial","289","1281791","0.0-11.0-254.0","","","","false","","","","","","","","","","1450.5","","553.5","","1","0","arrowleft","0","arrowright","[0.15,0.85,0.325,0.675]","","",""
"sailing-trial","290","1284575","0.0-11.0-255.0","","","","false","","","","","","","","","","null","","763.1000000238419","","3","1","null","null","arrowup","[0.15,0.85,0.325,0.675]","","",""
"sailing-trial","291","1288258","0.0-11.0-256.0","","","","false","","","","","","","","","","440.7000000178814","","752.5999999940395","","1","0","arrowleft","0","arrowright","[0.15,0.85,0.325,0.675]","","",""
"sailing-trial","292","1290608","0.0-11.0-257.0","","","","false","","","","","","","","","","null","","949.5","","1","0","null","null","arrowup","[0.15,0.85,0.325,0.675]","","",""
"sailing-trial","293","1295587","0.0-11.0-258.0","","","","false","","","","","","","","","","643.2000000178814","","307","","1","1","arrowleft","0","arrowright","[0.325,0.675,0.15,0.85]","","",""
"sailing-trial","294","1297180","0.0-11.0-259.0","","","","false","","","","","","","","","","null","","130.59999999403954","","2","0","null","null","arrowup","[0.325,0.675,0.15,0.85]","","",""
"sailing-trial","295","1301109","0.0-11.0-260.0","","","","false","","","","","","","","","","921.5","","430.59999999403954","","0","0","arrowleft","0","arrowleft","[0.325,0.675,0.15,0.85]","","",""
"sailing-trial","296","1304081","0.0-11.0-261.0","","","","false","","","","","","","","","","null","","1163","","3","1","null","null","arrowup","[0.325,0.675,0.15,0.85]","","",""
"sailing-trial","297","1307161","0.0-11.0-262.0","","","","false","","","","","","","","","","291.19999998807907","","415.90000000596046","","0","0","arrowleft","0","arrowleft","[0.325,0.675,0.15,0.85]","","",""
"sailing-trial","298","1309755","0.0-11.0-263.0","","","","false","","","","","","","","","","null","","1384.0999999940395","","2","0","null","null","arrowup","[0.325,0.675,0.15,0.85]","","",""
"sailing-trial","299","1313691","0.0-11.0-264.0","","","","false","","","","","","","","","","637.4000000059605","","614.3000000119209","","3","1","arrowright","1","arrowright","[0.325,0.675,0.15,0.85]","","",""
"sailing-trial","300","1316594","0.0-11.0-265.0","","","","false","","","","","","","","","","null","","1265.3999999761581","","1","1","null","null","arrowup","[0.325,0.675,0.15,0.85]","","",""
"sailing-trial","301","1320465","0.0-11.0-266.0","","","","false","","","","","","","","","","126.39999997615814","","831.5","","3","1","arrowright","1","arrowright","[0.325,0.675,0.15,0.85]","","",""
"sailing-trial","302","1322342","0.0-11.0-267.0","","","","false","","","","","","","","","","null","","781.6999999880791","","2","0","null","null","arrowup","[0.325,0.675,0.15,0.85]","","",""
"sailing-trial","303","1327205","0.0-11.0-268.0","","","","false","","","","","","","","","","836.9000000059605","","464.69999998807907","","3","1","arrowright","1","arrowright","[0.325,0.675,0.15,0.85]","","",""
"sailing-trial","304","1329309","0.0-11.0-269.0","","","","false","","","","","","","","","","null","","238.80000001192093","","3","1","null","null","arrowup","[0.325,0.675,0.15,0.85]","","",""
"sailing-trial","305","1333313","0.0-11.0-270.0","","","","false","","","","","","","","","","969.3000000119209","","72.59999999403954","","3","1","arrowright","1","arrowright","[0.325,0.675,0.15,0.85]","","",""
"sailing-trial","306","1337667","0.0-11.0-271.0","","","","false","","","","","","","","","","null","","1704.300000011921","","3","1","null","null","arrowup","[0.325,0.675,0.15,0.85]","","",""
"sailing-trial","307","1342739","0.0-11.0-272.0","","","","false","","","","","","","","","","640.3000000119209","","430.7000000178814","","3","0","arrowright","1","arrowright","[0.325,0.675,0.15,0.85]","","",""
"sailing-trial","308","1346212","0.0-11.0-273.0","","","","false","","","","","","","","","","null","","2435.0999999940395","","1","0","null","null","arrowup","[0.325,0.675,0.15,0.85]","","",""
"sailing-trial","309","1350520","0.0-11.0-274.0","","","","false","","","","","","","","","","1717.199999988079","","183.89999997615814","","1","0","arrowleft","0","arrowright","[0.325,0.675,0.15,0.85]","","",""
"sailing-trial","310","1352580","0.0-11.0-275.0","","","","false","","","","","","","","","","null","","788.1999999880791","","2","0","null","null","arrowup","[0.325,0.675,0.15,0.85]","","",""
"sailing-trial","311","1356792","0.0-11.0-276.0","","","","false","","","","","","","","","","717.9000000059605","","727.2000000178814","","1","0","arrowleft","0","arrowright","[0.15,0.85,0.325,0.675]","","",""
"sailing-trial","312","1359098","0.0-11.0-277.0","","","","false","","","","","","","","","","null","","1230","","0","0","null","null","arrowup","[0.15,0.85,0.325,0.675]","","",""
"sailing-trial","313","1362811","0.0-11.0-278.0","","","","false","","","","","","","","","","890.4000000059605","","513.4000000059605","","2","0","arrowright","1","arrowleft","[0.15,0.85,0.325,0.675]","","",""
"sailing-trial","314","1366133","0.0-11.0-279.0","","","","false","","","","","","","","","","null","","1578.4000000059605","","0","1","null","null","arrowup","[0.15,0.85,0.325,0.675]","","",""
"sailing-trial","315","1370704","0.0-11.0-280.0","","","","false","","","","","","","","","","1114.5","","392.69999998807907","","0","1","arrowleft","0","arrowleft","[0.15,0.85,0.325,0.675]","","",""
"sailing-trial","316","1372419","0.0-11.0-281.0","","","","false","","","","","","","","","","null","","655.8000000119209","","2","0","null","null","arrowup","[0.15,0.85,0.325,0.675]","","",""
"sailing-trial","317","1377557","0.0-11.0-282.0","","","","false","","","","","","","","","","1573.800000011921","","816","","0","0","arrowleft","0","arrowleft","[0.15,0.85,0.325,0.675]","","",""
"sailing-trial","318","1381333","0.0-11.0-283.0","","","","false","","","","","","","","","","null","","1886.7000000178814","","1","1","null","null","arrowup","[0.15,0.85,0.325,0.675]","","",""
"sailing-trial","319","1385504","0.0-11.0-284.0","","","","false","","","","","","","","","","614.0999999940395","","667.2999999821186","","1","1","arrowleft","0","arrowright","[0.15,0.85,0.325,0.675]","","",""
"sailing-trial","320","1387823","0.0-11.0-285.0","","","","false","","","","","","","","","","null","","396.2999999821186","","1","1","null","null","arrowup","[0.15,0.85,0.325,0.675]","","",""
"sailing-trial","321","1391427","0.0-11.0-286.0","","","","false","","","","","","","","","","492.2999999821186","","200.19999998807907","","1","1","arrowleft","0","arrowright","[0.15,0.85,0.325,0.675]","","",""
"sailing-trial","322","1393896","0.0-11.0-287.0","","","","false","","","","","","","","","","null","","315.2999999821186","","1","1","null","null","arrowup","[0.15,0.85,0.325,0.675]","","",""
"sailing-trial","323","1397533","0.0-11.0-288.0","","","","false","","","","","","","","","","421.09999999403954","","191.90000000596046","","1","1","arrowleft","0","arrowright","[0.15,0.85,0.325,0.675]","","",""
"sailing-trial","324","1400082","0.0-11.0-289.0","","","","false","","","","","","","","","","null","","923.5999999940395","","2","0","null","null","arrowup","[0.15,0.85,0.325,0.675]","","",""
"sailing-trial","325","1404375","0.0-11.0-290.0","","","","false","","","","","","","","","","1181.6000000238419","","182.69999998807907","","1","1","arrowleft","0","arrowright","[0.15,0.85,0.325,0.675]","","",""
"sailing-trial","326","1406460","0.0-11.0-291.0","","","","false","","","","","","","","","","null","","316.09999999403954","","3","1","null","null","arrowup","[0.15,0.85,0.325,0.675]","","",""
"sailing-trial","327","1409069","0.0-11.0-292.0","","","","false","","","","","","","","","","242.80000001192093","","33.5","","1","0","arrowleft","0","arrowright","[0.675,0.325,0.85,0.15]","","",""
"sailing-trial","328","1411303","0.0-11.0-293.0","","","","false","","","","","","","","","","null","","1006.2999999821186","","0","0","null","null","arrowup","[0.675,0.325,0.85,0.15]","","",""
"sailing-trial","329","1417089","0.0-11.0-294.0","","","","false","","","","","","","","","","1243.5","","1594.199999988079","","2","1","arrowright","1","arrowleft","[0.675,0.325,0.85,0.15]","","",""
"sailing-trial","330","1418582","0.0-11.0-295.0","","","","false","","","","","","","","","","null","","170.59999999403954","","1","0","null","null","arrowup","[0.675,0.325,0.85,0.15]","","",""
"sailing-trial","331","1422778","0.0-11.0-296.0","","","","false","","","","","","","","","","764.5","","699.0999999940395","","2","1","arrowright","1","arrowleft","[0.675,0.325,0.85,0.15]","","",""
"sailing-trial","332","1424417","0.0-11.0-297.0","","","","false","","","","","","","","","","null","","452.90000000596046","","3","0","null","null","arrowup","[0.675,0.325,0.85,0.15]","","",""
"sailing-trial","333","1428819","0.0-11.0-298.0","","","","false","","","","","","","","","","937.7999999821186","","641.6999999880791","","2","1","arrowright","1","arrowleft","[0.675,0.325,0.85,0.15]","","",""
"sailing-trial","334","1431545","0.0-11.0-299.0","","","","false","","","","","","","","","","null","","1582.4000000059605","","1","0","null","null","arrowup","[0.675,0.325,0.85,0.15]","","",""
"sailing-trial","335","1434698","0.0-11.0-300.0","","","","false","","","","","","","","","","804.5999999940395","","87.7000000178814","","2","0","arrowright","1","arrowleft","[0.675,0.325,0.85,0.15]","","",""
"sailing-trial","336","1436706","0.0-11.0-301.0","","","","false","","","","","","","","","","null","","770.3000000119209","","1","0","null","null","arrowup","[0.675,0.325,0.85,0.15]","","",""
"sailing-trial","337","1441299","0.0-11.0-302.0","","","","false","","","","","","","","","","1618.7000000178814","","78.80000001192093","","2","1","arrowright","1","arrowleft","[0.675,0.325,0.85,0.15]","","",""
"sailing-trial","338","1442960","0.0-11.0-303.0","","","","false","","","","","","","","","","null","","331.5","","1","0","null","null","arrowup","[0.675,0.325,0.85,0.15]","","",""
"sailing-trial","339","1446888","0.0-11.0-304.0","","","","false","","","","","","","","","","785","","18.5","","2","1","arrowright","1","arrowleft","[0.675,0.325,0.85,0.15]","","",""
"sailing-trial","340","1448698","0.0-11.0-305.0","","","","false","","","","","","","","","","null","","454.5","","3","0","null","null","arrowup","[0.675,0.325,0.85,0.15]","","",""
"sailing-trial","341","1454714","0.0-11.0-306.0","","","","false","","","","","","","","","","943.9000000059605","","1028.7000000178814","","2","1","arrowright","1","arrowleft","[0.675,0.325,0.85,0.15]","","",""
"sailing-trial","342","1456565","0.0-11.0-307.0","","","","false","","","","","","","","","","null","","116.5","","0","1","null","null","arrowup","[0.675,0.325,0.85,0.15]","","",""
"sailing-trial","343","1461621","0.0-11.0-308.0","","","","false","","","","","","","","","","1620.5","","132.40000000596046","","2","1","arrowright","1","arrowleft","[0.85,0.15,0.675,0.325]","","",""
"sailing-trial","344","1463740","0.0-11.0-309.0","","","","false","","","","","","","","","","null","","280.5","","2","1","null","null","arrowup","[0.85,0.15,0.675,0.325]","","",""
"sailing-trial","345","1467811","0.0-11.0-310.0","","","","false","","","","","","","","","","723.2000000178814","","464.2999999821186","","2","1","arrowright","1","arrowleft","[0.85,0.15,0.675,0.325]","","",""
"sailing-trial","346","1469646","0.0-11.0-311.0","","","","false","","","","","","","","","","null","","450.59999999403954","","1","0","null","null","arrowup","[0.85,0.15,0.675,0.325]","","",""
"sailing-trial","347","1472682","0.0-11.0-312.0","","","","false","","","","","","","","","","701.5","","35.39999997615814","","2","0","arrowright","1","arrowleft","[0.85,0.15,0.675,0.325]","","",""
"sailing-trial","348","1474985","0.0-11.0-313.0","","","","false","","","","","","","","","","null","","614.3000000119209","","1","1","null","null","arrowup","[0.85,0.15,0.675,0.325]","","",""
"sailing-trial","349","1478423","0.0-11.0-314.0","","","","false","","","","","","","","","","126.90000000596046","","565.1000000238419","","3","1","arrowright","1","arrowright","[0.85,0.15,0.675,0.325]","","",""
"sailing-trial","350","1480291","0.0-11.0-315.0","","","","false","","","","","","","","","","null","","116.40000000596046","","2","1","null","null","arrowup","[0.85,0.15,0.675,0.325]","","",""
"sailing-trial","351","1483160","0.0-11.0-316.0","","","","false","","","","","","","","","","91","","594.5999999940395","","3","0","arrowright","1","arrowright","[0.85,0.15,0.675,0.325]","","",""
"sailing-trial","352","1484895","0.0-11.0-317.0","","","","false","","","","","","","","","","null","","585.8999999761581","","1","0","null","null","arrowup","[0.85,0.15,0.675,0.325]","","",""
"sailing-trial","353","1488517","0.0-11.0-318.0","","","","false","","","","","","","","","","563.2999999821186","","485.09999999403954","","0","1","arrowleft","0","arrowleft","[0.85,0.15,0.675,0.325]","","",""
"sailing-trial","354","1490253","0.0-11.0-319.0","","","","false","","","","","","","","","","null","","60.29999998211861","","2","1","null","null","arrowup","[0.85,0.15,0.675,0.325]","","",""
"sailing-trial","355","1493622","0.0-11.0-320.0","","","","false","","","","","","","","","","177","","502.90000000596046","","0","1","arrowleft","0","arrowleft","[0.85,0.15,0.675,0.325]","","",""
"sailing-trial","356","1495105","0.0-11.0-321.0","","","","false","","","","","","","","","","null","","297.19999998807907","","3","0","null","null","arrowup","[0.85,0.15,0.675,0.325]","","",""
"sailing-trial","357","1498778","0.0-11.0-322.0","","","","false","","","","","","","","","","606.3000000119209","","505.2999999821186","","0","1","arrowleft","0","arrowleft","[0.85,0.15,0.675,0.325]","","",""
"sailing-trial","358","1501592","0.0-11.0-323.0","","","","false","","","","","","","","","","null","","930","","1","0","null","null","arrowup","[0.85,0.15,0.675,0.325]","","",""
"sailing-trial","359","1507236","0.0-11.0-324.0","","","","false","","","","","","","","","","874.2000000178814","","988","","0","0","arrowleft","0","arrowleft","[0.85,0.15,0.675,0.325]","","",""
"sailing-trial","360","1509317","0.0-11.0-325.0","","","","false","","","","","","","","","","null","","749.5","","0","0","null","null","arrowup","[0.85,0.15,0.675,0.325]","","",""
"sailing-trial","361","1514030","0.0-11.0-326.0","","","","false","","","","","","","","","","758.9000000059605","","1451.9000000059605","","2","0","arrowright","1","arrowleft","[0.85,0.15,0.675,0.325]","","",""
"sailing-trial","362","1516448","0.0-11.0-327.0","","","","false","","","","","","","","","","null","","693.4000000059605","","2","1","null","null","arrowup","[0.85,0.15,0.675,0.325]","","",""
"sailing-trial","363","1520351","0.0-11.0-328.0","","","","false","","","","","","","","","","474.30000001192093","","379.09999999403954","","3","1","arrowright","1","arrowright","[0.15,0.85,0.325,0.675]","","",""
"sailing-trial","364","1521927","0.0-11.0-329.0","","","","false","","","","","","","","","","null","","339.30000001192093","","2","0","null","null","arrowup","[0.15,0.85,0.325,0.675]","","",""
"sailing-trial","365","1526608","0.0-11.0-330.0","","","","false","","","","","","","","","","1140.2999999821186","","91.59999999403954","","3","1","arrowright","1","arrowright","[0.15,0.85,0.325,0.675]","","",""
"sailing-trial","366","1528678","0.0-11.0-331.0","","","","false","","","","","","","","","","null","","502.69999998807907","","1","1","null","null","arrowup","[0.15,0.85,0.325,0.675]","","",""
"sailing-trial","367","1533600","0.0-11.0-332.0","","","","false","","","","","","","","","","1341.5999999940395","","534.9000000059605","","3","1","arrowright","1","arrowright","[0.15,0.85,0.325,0.675]","","",""
"sailing-trial","368","1535886","0.0-11.0-333.0","","","","false","","","","","","","","","","null","","370","","3","1","null","null","arrowup","[0.15,0.85,0.325,0.675]","","",""
"sailing-trial","369","1539239","0.0-11.0-334.0","","","","false","","","","","","","","","","393.40000000596046","","11","","3","1","arrowright","1","arrowright","[0.15,0.85,0.325,0.675]","","",""
"sailing-trial","370","1540740","0.0-11.0-335.0","","","","false","","","","","","","","","","null","","244.30000001192093","","0","0","null","null","arrowup","[0.15,0.85,0.325,0.675]","","",""
"sailing-trial","371","1544261","0.0-11.0-336.0","","","","false","","","","","","","","","","671.5","","672.1999999880791","","3","0","arrowright","1","arrowright","[0.15,0.85,0.325,0.675]","","",""
"sailing-trial","372","1546664","0.0-11.0-337.0","","","","false","","","","","","","","","","null","","659.6000000238419","","2","1","null","null","arrowup","[0.15,0.85,0.325,0.675]","","",""
"sailing-trial","373","1549879","0.0-11.0-338.0","","","","false","","","","","","","","","","666.0999999940395","","357.5","","3","0","arrowright","1","arrowright","[0.15,0.85,0.325,0.675]","","",""
"sailing-trial","374","1552771","0.0-11.0-339.0","","","","false","","","","","","","","","","null","","716.9000000059605","","1","1","null","null","arrowup","[0.15,0.85,0.325,0.675]","","",""
"sailing-trial","375","1556693","0.0-11.0-340.0","","","","false","","","","","","","","","","161.90000000596046","","416.7999999821186","","3","1","arrowright","1","arrowright","[0.15,0.85,0.325,0.675]","","",""
"sailing-trial","376","1558545","0.0-11.0-341.0","","","","false","","","","","","","","","","null","","171","","1","1","null","null","arrowup","[0.15,0.85,0.325,0.675]","","",""
"sailing-trial","377","1561647","0.0-11.0-342.0","","","","false","","","","","","","","","","178.39999997615814","","30","","3","1","arrowright","1","arrowright","[0.15,0.85,0.325,0.675]","","",""
"sailing-trial","378","1563767","0.0-11.0-343.0","","","","false","","","","","","","","","","null","","384.59999999403954","","3","1","null","null","arrowup","[0.15,0.85,0.325,0.675]","","",""
"sailing-trial","379","1567037","0.0-11.0-344.0","","","","false","","","","","","","","","","147.80000001192093","","399.89999997615814","","3","1","arrowright","1","arrowright","[0.15,0.85,0.325,0.675]","","",""
"sailing-trial","380","1568839","0.0-11.0-345.0","","","","false","","","","","","","","","","null","","277.30000001192093","","2","1","null","null","arrowup","[0.15,0.85,0.325,0.675]","","",""
"sailing-trial","381","1574412","0.0-11.0-346.0","","","","false","","","","","","","","","","1776.3999999761581","","531.1999999880791","","3","1","arrowright","1","arrowright","[0.15,0.85,0.325,0.675]","","",""
"sailing-trial","382","1576614","0.0-11.0-347.0","","","","false","","","","","","","","","","null","","50.19999998807907","","1","1","null","null","arrowup","[0.15,0.85,0.325,0.675]","","",""
"sailing-trial","383","1582905","0.0-11.0-348.0","","","","false","","","","","","","","","","568.9000000059605","","3037.199999988079","","3","1","arrowright","1","arrowright","[0.15,0.85,0.325,0.675]","","",""
"sailing-trial","384","1584807","0.0-11.0-349.0","","","","false","","","","","","","","","","null","","256.30000001192093","","2","1","null","null","arrowup","[0.15,0.85,0.325,0.675]","","",""
"sailing-trial","385","1589546","0.0-11.0-350.0","","","","false","","","","","","","","","","1952.5","","2.699999988079071","","3","1","arrowright","1","arrowright","[0.325,0.675,0.15,0.85]","","",""
"sailing-trial","386","1591714","0.0-11.0-351.0","","","","false","","","","","","","","","","null","","440.5","","1","1","null","null","arrowup","[0.325,0.675,0.15,0.85]","","",""
"sailing-trial","387","1595251","0.0-11.0-352.0","","","","false","","","","","","","","","","336.60000002384186","","119.89999997615814","","3","1","arrowright","1","arrowright","[0.325,0.675,0.15,0.85]","","",""
"sailing-trial","388","1597371","0.0-11.0-353.0","","","","false","","","","[{""event"":""fullscreenenter"",""trial"":3,""time"":12645},{""event"":""fullscreenexit"",""trial"":5,""time"":25813},{""event"":""blur"",""trial"":5,""time"":27348},{""event"":""focus"",""trial"":5,""time"":67391},{""event"":""blur"",""trial"":283,""time"":1258831},{""event"":""focus"",""trial"":283,""time"":1261065},{""event"":""blur"",""trial"":389,""time"":1600609}]","false","","","","","null","","296.30000001192093","","1","1","null","null","arrowup","[0.325,0.675,0.15,0.85]","","",""
"sailing-trial","389","1601858","0.0-11.0-354.0","","","","false","","","","[{""event"":""fullscreenenter"",""trial"":3,""time"":12645},{""event"":""fullscreenexit"",""trial"":5,""time"":25813},{""event"":""blur"",""trial"":5,""time"":27348},{""event"":""focus"",""trial"":5,""time"":67391},{""event"":""blur"",""trial"":283,""time"":1258831},{""event"":""focus"",""trial"":283,""time"":1261065},{""event"":""blur"",""trial"":389,""time"":1600609},{""event"":""focus"",""trial"":390,""time"":1603402}]","false","","","","","382.5","","100.69999998807907","","3","0","arrowright","1","arrowright","[0.325,0.675,0.15,0.85]","","",""
"sailing-trial","390","1605396","0.0-11.0-355.0","","","","false","","","","","","","","","","null","","2320.2000000178814","","2","0","null","null","arrowup","[0.325,0.675,0.15,0.85]","","",""
"sailing-trial","391","1610152","0.0-11.0-356.0","","","","false","","","","","","","","","","755.6999999880791","","577.5","","1","1","arrowleft","0","arrowright","[0.325,0.675,0.15,0.85]","","",""
"sailing-trial","392","1611751","0.0-11.0-357.0","","","","false","","","","","","","","","","null","","222.40000000596046","","0","0","null","null","arrowup","[0.325,0.675,0.15,0.85]","","",""
"sailing-trial","393","1615891","0.0-11.0-358.0","","","","false","","","","","","","","","","901.1999999880791","","377.09999999403954","","1","1","arrowleft","0","arrowright","[0.325,0.675,0.15,0.85]","","",""
"sailing-trial","394","1617404","0.0-11.0-359.0","","","","false","","","","","","","","","","null","","228.2000000178814","","1","0","null","null","arrowup","[0.325,0.675,0.15,0.85]","","",""
"sailing-trial","395","1621464","0.0-11.0-360.0","","","","false","","","","","","","","","","588.4000000059605","","400.89999997615814","","1","1","arrowleft","0","arrowright","[0.325,0.675,0.15,0.85]","","",""
"sailing-trial","396","1623501","0.0-11.0-361.0","","","","false","","","","","","","","","","null","","315.19999998807907","","0","1","null","null","arrowup","[0.325,0.675,0.15,0.85]","","",""
"sailing-trial","397","1627871","0.0-11.0-362.0","","","","false","","","","","","","","","","235.19999998807907","","1220.9000000059605","","1","1","arrowleft","0","arrowright","[0.325,0.675,0.15,0.85]","","",""
"sailing-trial","398","1629316","0.0-11.0-363.0","","","","false","","","","","","","","","","null","","242.39999997615814","","2","0","null","null","arrowup","[0.325,0.675,0.15,0.85]","","",""
"sailing-trial","399","1633127","0.0-11.0-364.0","","","","false","","","","","","","","","","736.9000000059605","","43.900000005960464","","1","1","arrowleft","0","arrowright","[0.325,0.675,0.15,0.85]","","",""
"sailing-trial","400","1634621","0.0-11.0-365.0","","","","false","","","","","","","","","","null","","166.90000000596046","","0","0","null","null","arrowup","[0.325,0.675,0.15,0.85]","","",""
"sailing-trial","401","1638349","0.0-11.0-366.0","","","","false","","","","","","","","","","765.1999999880791","","114.19999998807907","","1","1","arrowleft","0","arrowright","[0.15,0.85,0.325,0.675]","","",""
"sailing-trial","402","1641095","0.0-11.0-367.0","","","","false","","","","","","","","","","null","","1623.9000000059605","","2","0","null","null","arrowup","[0.15,0.85,0.325,0.675]","","",""
"sailing-trial","403","1645957","0.0-11.0-368.0","","","","false","","","","","","","","","","636.9000000059605","","1364.300000011921","","1","1","arrowleft","0","arrowright","[0.15,0.85,0.325,0.675]","","",""
"sailing-trial","404","1648111","0.0-11.0-369.0","","","","false","","","","","","","","","","null","","240.10000002384186","","1","1","null","null","arrowup","[0.15,0.85,0.325,0.675]","","",""
"sailing-trial","405","1653566","0.0-11.0-370.0","","","","false","","","","","","","","","","1495.4000000059605","","406.80000001192093","","1","1","arrowleft","0","arrowright","[0.15,0.85,0.325,0.675]","","",""
"sailing-trial","406","1656803","0.0-11.0-371.0","","","","false","","","","","","","","","","null","","484.59999999403954","","3","1","null","null","arrowup","[0.15,0.85,0.325,0.675]","","",""
"sailing-trial","407","1661675","0.0-11.0-372.0","","","","false","","","","","","","","","","1392.2999999821186","","253.40000000596046","","1","1","arrowleft","0","arrowright","[0.15,0.85,0.325,0.675]","","",""
"sailing-trial","408","1663433","0.0-11.0-373.0","","","","false","","","","","","","","","","null","","249.69999998807907","","2","0","null","null","arrowup","[0.15,0.85,0.325,0.675]","","",""
"sailing-trial","409","1668466","0.0-11.0-374.0","","","","false","","","","","","","","","","1563.4000000059605","","386.59999999403954","","1","1","arrowleft","0","arrowright","[0.15,0.85,0.325,0.675]","","",""
"sailing-trial","410","1671552","0.0-11.0-375.0","","","","false","","","","","","","","","","null","","696.6999999880791","","1","1","null","null","arrowup","[0.15,0.85,0.325,0.675]","","",""
"sailing-trial","411","1675406","0.0-11.0-376.0","","","","false","","","","","","","","","","397.69999998807907","","310.69999998807907","","1","1","arrowleft","0","arrowright","[0.15,0.85,0.325,0.675]","","",""
"sailing-trial","412","1678560","0.0-11.0-377.0","","","","false","","","","","","","","","","null","","817.5999999940395","","3","1","null","null","arrowup","[0.15,0.85,0.325,0.675]","","",""
"sailing-trial","413","1683131","0.0-11.0-378.0","","","","false","","","","","","","","","","1306.1000000238419","","366.30000001192093","","1","1","arrowleft","0","arrowright","[0.15,0.85,0.325,0.675]","","",""
"sailing-trial","414","1685417","0.0-11.0-379.0","","","","false","","","","","","","","","","null","","740.4000000059605","","0","0","null","null","arrowup","[0.15,0.85,0.325,0.675]","","",""
"sailing-trial","415","1689988","0.0-11.0-380.0","","","","false","","","","","","","","","","938","","278.2000000178814","","1","1","arrowleft","0","arrowright","[0.15,0.85,0.325,0.675]","","",""
"sailing-trial","416","1693760","0.0-11.0-381.0","","","","false","","","","","","","","","","null","","1723.300000011921","","2","1","null","null","arrowup","[0.15,0.85,0.325,0.675]","","",""
"sailing-trial","417","1697981","0.0-11.0-382.0","","","","false","","","","","","","","","","662.7999999821186","","308.90000000596046","","1","1","arrowleft","0","arrowright","[0.15,0.85,0.325,0.675]","","",""
"sailing-trial","418","1699530","0.0-11.0-383.0","","","","false","","","","","","","","","","null","","181.30000001192093","","0","0","null","null","arrowup","[0.15,0.85,0.325,0.675]","","",""
"sailing-trial","419","1705298","0.0-11.0-384.0","","","","false","","","","","","","","","","1484.4000000059605","","617.8000000119209","","1","0","arrowleft","0","arrowright","[0.325,0.675,0.15,0.85]","","",""
"sailing-trial","420","1707892","0.0-11.0-385.0","","","","false","","","","","","","","","","null","","722.2999999821186","","3","1","null","null","arrowup","[0.325,0.675,0.15,0.85]","","",""
"sailing-trial","421","1711828","0.0-11.0-386.0","","","","false","","","","","","","","","","588.5","","850.8999999761581","","0","0","arrowleft","0","arrowleft","[0.325,0.675,0.15,0.85]","","",""
"sailing-trial","422","1713930","0.0-11.0-387.0","","","","false","","","","","","","","","","null","","737.8000000119209","","0","0","null","null","arrowup","[0.325,0.675,0.15,0.85]","","",""
"sailing-trial","423","1723601","0.0-11.0-388.0","","","","false","","","","","","","","","","1718.199999988079","","5206.0999999940395","","2","0","arrowright","1","arrowleft","[0.325,0.675,0.15,0.85]","","",""
"sailing-trial","424","1726499","0.0-11.0-389.0","","","","false","","","","[{""event"":""fullscreenenter"",""trial"":3,""time"":12645},{""event"":""fullscreenexit"",""trial"":5,""time"":25813},{""event"":""blur"",""trial"":5,""time"":27348},{""event"":""focus"",""trial"":5,""time"":67391},{""event"":""blur"",""trial"":283,""time"":1258831},{""event"":""focus"",""trial"":283,""time"":1261065},{""event"":""blur"",""trial"":389,""time"":1600609},{""event"":""focus"",""trial"":390,""time"":1603402},{""event"":""blur"",""trial"":425,""time"":1730637},{""event"":""focus"",""trial"":425,""time"":1732731}]","false","","","","","null","","752.5999999940395","","2","0","null","null","arrowup","[0.325,0.675,0.15,0.85]","","",""
"sailing-trial","425","1733854","0.0-11.0-390.0","","","","false","","","","","","","","","","1238.699999988079","","163.69999998807907","","3","1","arrowright","1","arrowright","[0.325,0.675,0.15,0.85]","","",""
"sailing-trial","426","1735906","0.0-11.0-391.0","","","","false","","","","","","","","","","null","","183.10000002384186","","3","1","null","null","arrowup","[0.325,0.675,0.15,0.85]","","",""
"sailing-trial","427","1740161","0.0-11.0-392.0","","","","false","","","","","","","","","","579.7999999821186","","191.10000002384186","","3","1","arrowright","1","arrowright","[0.325,0.675,0.15,0.85]","","",""
"sailing-trial","428","1742361","0.0-11.0-393.0","","","","false","","","","","","","","","","null","","403.7999999821186","","1","0","null","null","arrowup","[0.325,0.675,0.15,0.85]","","",""
"sailing-trial","429","1745323","0.0-11.0-394.0","","","","false","","","","","","","","","","650.8000000119209","","57.60000002384186","","3","0","arrowright","1","arrowright","[0.325,0.675,0.15,0.85]","","",""
"sailing-trial","430","1747035","0.0-11.0-395.0","","","","false","","","","","","","","","","null","","567.6999999880791","","1","0","null","null","arrowup","[0.325,0.675,0.15,0.85]","","",""
"sailing-trial","431","1751607","0.0-11.0-396.0","","","","false","","","","","","","","","","647.6999999880791","","1317","","3","1","arrowright","1","arrowright","[0.325,0.675,0.15,0.85]","","",""
"sailing-trial","432","1753876","0.0-11.0-397.0","","","","false","","","","","","","","","","null","","476.09999999403954","","3","1","null","null","arrowup","[0.325,0.675,0.15,0.85]","","",""
"sailing-trial","433","1758197","0.0-11.0-398.0","","","","false","","","","","","","","","","1320.7999999821186","","225.5","","3","1","arrowright","1","arrowright","[0.325,0.675,0.15,0.85]","","",""
"sailing-trial","434","1759968","0.0-11.0-399.0","","","","false","","","","","","","","","","null","","457.40000000596046","","1","0","null","null","arrowup","[0.325,0.675,0.15,0.85]","","",""
"instructions","435","1766165","0.0-12.0","","","","","","","","","","6196.4000000059605","","","","","","","","","","","","","","","","[{""page_index"":0,""viewing_time"":6196}]"
"survey-debrief","436","1789230","0.0-13.0","","","","","","","","","","23064.09999999404","","","","","","","","","","","","","","{""difficulty"":""4"",""fun"":""2"",""clarity"":""5"",""strategy"":"""",""feedback"":""""}","",""
