"trial_type","trial_index","time_elapsed","internal_node_id","value","metadata","success","timeout","failed_images","failed_audio","failed_video","browser_interaction","low_quality","rt","stimulus","response","button_pressed","island_rt","island_response","boat_rt","boat_response","boat","reward","island_key","island","boat_key","reward_probabilities","responses","num_errors","view_history"
"pavlovia","0","6","0.0-0.0","","","","","","","","","","","","","","","","","","","","","","","","","",""
"call-function","1","7","0.0-1.0","","{""task_version"":""sailing_part1_v1"",""task_condition"":""good"",""boats"":[""D"",""A"",""B"",""C""],""boats_demo"":[""G"",""H"",""E"",""F""],""islands"":[""A"",""B""],""subject_id"":""14527"",""age"":""9"",""gender"":""Female""}","","","","","","","","","","","","","","","","","","","","","","","",""
"preload","2","18014","0.0-2.0","","","true","false","[]","[]","[]","[{""event"":""fullscreenenter"",""trial"":3,""time"":25534}]","false","","","","","","","","","","","","","","","","",""
"fullscreen","3","26514","0.0-3.0","","","true","","","","","","","","","","","","","","","","","","","","","","",""
"audio-keyboard-response","4","40111","0.0-4.0-0.0","","","","","","","","","","13194.666666666666","audio/beep_loop.wav"," ","","","","","","","","","","","","","",""
"audio-test","5","44736","0.0-4.0-1.0","","","","","","","","","","null","audio/turtle.mp3","","3","","","","","","","","","","","","",""
"audio-test","6","55275","0.0-4.0-2.0","","","","","","","","","","null","audio/shark.mp3","","2","","","","","","","","","","","","",""
"sailing-instructions","7","91397","0.0-5.0-0.0-0.0","","","","","","","","","","","","","","null","null","null","null","null","null","","","","","","",""
"sailing-trial","8","101307","0.0-5.0-0.0-1.0-0.0","","","","false","","","","","","","","","","8787.799999998882","","null","","null","null","arrowleft","0","null","null","","",""
"sailing-trial","9","105469","0.0-5.0-0.0-1.0-1.0","","","","false","","","","","","","","","","3037.5","","null","","null","null","arrowright","1","null","null","","",""
"sailing-trial","10","113430","0.0-5.0-0.0-1.0-2.0","","","","false","","","","","","","","","","6842.800000000745","","null","","null","null","arrowleft","0","null","null","","",""
"sailing-instructions","11","176424","0.0-5.0-0.0-2.0","","","","","","","","","","","","","","null","null","null","null","0","null","","","","","","",""
"sailing-trial","12","191417","0.0-5.0-0.0-3.0-0.0","","","","false","","","","","","","","","","null","","8571.60000000149","","2","1","null","null","arrowleft","[1,1,1,1]","","",""
"sailing-trial","13","199426","0.0-5.0-0.0-3.0-1.0","","","","false","","","","","","","","","","null","","3808.4000000003725","","3","1","null","null","arrowright","[1,1,1,1]","","",""
"sailing-trial","14","207056","0.0-5.0-0.0-3.0-2.0","","","","false","","","","","","","","","","null","","4083.4000000003725","","2","0","null","null","arrowleft","[0,0,0,0]","","",""
"sailing-instructions","15","216140","0.0-5.0-0.0-4.0","","","","","","","","","","","","","","null","null","null","null","null","null","","","","","","",""
"sailing-comprehension","16","287417","0.0-5.0-0.0-5.0","","","","","","","","","","43820.90000000037","","","","","","","","","","","","","","[""true"",""false"",""true"",""false""]","3",""
"sailing-instructions","17","339593","0.0-5.0-0.1-0.1","","","","","","","","","","","","","","null","null","null","null","null","null","","","","","","",""
"sailing-trial","18","344439","0.0-5.0-0.1-1.1-0.1","","","","false","","","","","","","","","","3736.5999999996275","","null","","null","null","arrowleft","0","null","null","","",""
"sailing-trial","19","347986","0.0-5.0-0.1-1.1-1.1","","","","false","","","","","","","","","","2421.4000000003725","","null","","null","null","arrowright","1","null","null","","",""
"sailing-trial","20","353667","0.0-5.0-0.1-1.1-2.1","","","","false","","","","","","","","","","4572.0999999996275","","null","","null","null","arrowright","1","null","null","","",""
"sailing-instructions","21","424212","0.0-5.0-0.1-2.1","","","","","","","","","","","","","","null","null","null","null","0","null","","","","","","",""
"sailing-trial","22","434333","0.0-5.0-0.1-3.1-0.1","","","","false","","","","","","","","","","null","","6586.700000001118","","2","1","null","null","arrowleft","[1,1,1,1]","","",""
"sailing-trial","23","438845","0.0-5.0-0.1-3.1-1.1","","","","false","","","","","","","","","","null","","1896.800000000745","","3","1","null","null","arrowright","[1,1,1,1]","","",""
"sailing-trial","24","444927","0.0-5.0-0.1-3.1-2.1","","","","false","","","","","","","","","","null","","2530.2999999988824","","2","0","null","null","arrowleft","[0,0,0,0]","","",""
"sailing-instructions","25","457115","0.0-5.0-0.1-4.1","","","","","","","","","","","","","","null","null","null","null","null","null","","","","","","",""
"sailing-comprehension","26","491500","0.0-5.0-0.1-5.1","","","","","","","","","","30327.300000000745","","","","","","","","","","","","","","[""true"",""true"",""false"",""false""]","1",""
"sailing-instructions","27","573563","0.0-6.0-0.0-0.0","","","","","","","","","","","","","","null","null","null","null","null","null","","","","","","",""
"sailing-comprehension","28","633531","0.0-6.0-0.0-1.0","","","","","","","","","","56580.40000000037","","","","","","","","","","","","","","[""true"",""false"",""true""]","0",""
"sailing-instructions","29","653050","0.0-7.0-0.0-0.0","","","","","","","","","","","","","","null","null","null","null","null","null","","","","","","",""
"sailing-trial","30","664013","0.0-7.0-0.0-1.0-0.0","","","","false","","","","","","","","","","null","","7951.699999999255","","0","0","null","null","arrowup","[0.2,0.8,0.2,0.8]","","",""
"sailing-trial","31","670240","0.0-7.0-0.0-1.0-1.0","","","","false","","","","","","","","","","null","","3731.5999999996275","","1","1","null","null","arrowup","[0.2,0.8,0.2,0.8]","","",""
"sailing-trial","32","675020","0.0-7.0-0.0-1.0-2.0","","","","false","","","","","","","","","","null","","1761.1000000014901","","2","0","null","null","arrowup","[0.2,0.8,0.2,0.8]","","",""
"sailing-trial","33","678731","0.0-7.0-0.0-1.0-3.0","","","","false","","","","","","","","","","null","","1542.699999999255","","3","1","null","null","arrowup","[0.2,0.8,0.2,0.8]","","",""
"sailing-comprehension","34","695970","0.0-7.0-0.0-2.0","","","","","","","","","","7827.5999999996275","","","","","","","","","","","","","","[""true""]","1",""
"sailing-instructions","35","711111","0.0-7.0-0.1-0.1","","","","","","","","","","","","","","null","null","null","null","null","null","","","","","","",""
"sailing-trial","36","715351","0.0-7.0-0.1-1.1-0.1","","","","false","","","","","","","","","","null","","2316","","0","1","null","null","arrowup","[0.2,0.8,0.2,0.8]","","",""
"sailing-trial","37","718098","0.0-7.0-0.1-1.1-1.1","","","","false","","","","","","","","","","null","","597.7000000011176","","1","1","null","null","arrowup","[0.2,0.8,0.2,0.8]","","",""
"sailing-trial","38","721614","0.0-7.0-0.1-1.1-2.1","","","","false","","","","","","","","","","null","","498","","2","0","null","null","arrowup","[0.2,0.8,0.2,0.8]","","",""
"sailing-trial","39","724776","0.0-7.0-0.1-1.1-3.1","","","","false","","","","","","","","","","null","","760","","3","1","null","null","arrowup","[0.2,0.8,0.2,0.8]","","",""
"sailing-comprehension","40","738361","0.0-7.0-0.1-2.1","","","","","","","","","","11584.400000000373","","","","","","","","","","","","","","[""false""]","0",""
"sailing-instructions","41","751878","0.0-8.0-0.0-0.0","","","","","","","","","","","","","","null","null","null","null","null","null","","","","","","",""
"sailing-comprehension","42","757877","0.0-8.0-0.0-1.0","","","","","","","","","","3930.699999999255","","","","","","","","","","","","","","[""true""]","0",""
"sailing-instructions","43","843119","0.0-9.0-0.0-0.0","","","","","","","","","","","","","","null","null","null","null","null","null","","","","","","",""
"sailing-trial","44","852905","0.0-9.0-0.0-1.0-0.0","","","","false","","","","","","","","","","1576.2000000011176","","4720.5999999996275","","3","1","arrowright","1","arrowright","[0.2,0.8,0.2,0.8]","","",""
"sailing-trial","45","857785","0.0-9.0-0.0-1.0-1.0","","","","false","","","","","","","","","","1120.7999999988824","","898.2000000011176","","1","1","arrowleft","0","arrowright","[0.2,0.8,0.2,0.8]","","",""
"sailing-trial","46","862365","0.0-9.0-0.0-1.0-2.0","","","","false","","","","","","","","","","null","","1719.300000000745","","0","0","null","null","arrowup","[0.2,0.8,0.2,0.8]","","",""
"sailing-trial","47","870790","0.0-9.0-0.0-1.0-3.0","","","","false","","","","","","","","","","2166.2000000011176","","2892.7999999988824","","3","1","arrowright","1","arrowright","[0.2,0.8,0.2,0.8]","","",""
"sailing-trial","48","874737","0.0-9.0-0.0-1.0-4.0","","","","false","","","","","","","","","","null","","1587","","3","0","null","null","arrowup","[0.2,0.8,0.2,0.8]","","",""
"sailing-trial","49","880167","0.0-9.0-0.0-1.0-5.0","","","","false","","","","","","","","","","1834.699999999255","","621.0999999996275","","1","1","arrowleft","0","arrowright","[0.2,0.8,0.2,0.8]","","",""
"sailing-instructions","50","943857","0.0-10.0","","","","","","","","","","","","","","null","null","null","null","null","null","","","","","","",""
"sailing-trial","51","950445","0.0-11.0-0.0","","","","false","","","","","","","","","","1583.300000000745","","1201.4000000003725","","3","0","arrowright","1","arrowright","[0.85,0.15,0.325,0.675]","","",""
"sailing-trial","52","953905","0.0-11.0-1.0","","","","false","","","","","","","","","","null","","1372.5999999996275","","3","1","null","null","arrowup","[0.85,0.15,0.325,0.675]","","",""
"sailing-trial","53","958883","0.0-11.0-2.0","","","","false","","","","","","","","","","1071.800000000745","","662.5999999996275","","1","0","arrowleft","0","arrowright","[0.85,0.15,0.325,0.675]","","",""
"sailing-trial","54","962198","0.0-11.0-3.0","","","","false","","","","","","","","","","null","","1243.2999999988824","","3","1","null","null","arrowup","[0.85,0.15,0.325,0.675]","","",""
"sailing-trial","55","966331","0.0-11.0-4.0","","","","false","","","","","","","","","","791.4000000003725","","390.7000000011176","","0","1","arrowleft","0","arrowleft","[0.85,0.15,0.325,0.675]","","",""
"sailing-trial","56","969654","0.0-11.0-5.0","","","","false","","","","","","","","","","null","","1257.9000000003725","","1","0","null","null","arrowup","[0.85,0.15,0.325,0.675]","","",""
"sailing-trial","57","974397","0.0-11.0-6.0","","","","false","","","","","","","","","","1258.800000000745","","514.2999999988824","","2","0","arrowright","1","arrowleft","[0.85,0.15,0.325,0.675]","","",""
"sailing-trial","58","977666","0.0-11.0-7.0","","","","false","","","","","","","","","","null","","1073.0999999996275","","3","0","null","null","arrowup","[0.85,0.15,0.325,0.675]","","",""
"sailing-trial","59","982441","0.0-11.0-8.0","","","","false","","","","","","","","","","1054.800000000745","","989.9000000003725","","2","0","arrowright","1","arrowleft","[0.85,0.15,0.325,0.675]","","",""
"sailing-trial","60","985346","0.0-11.0-9.0","","","","false","","","","","","","","","","null","","891.4000000003725","","0","1","null","null","arrowup","[0.85,0.15,0.325,0.675]","","",""
"sailing-trial","61","989792","0.0-11.0-10.0","","","","false","","","","","","","","","","1341","","95.29999999888241","","0","1","arrowleft","0","arrowleft","[0.85,0.15,0.325,0.675]","","",""
"sailing-trial","62","993233","0.0-11.0-11.0","","","","false","","","","","","","","","","null","","1621.2000000011176","","2","0","null","null","arrowup","[0.85,0.15,0.325,0.675]","","",""
"sailing-trial","63","998086","0.0-11.0-12.0","","","","false","","","","","","","","","","801.5999999996275","","1246.9000000003725","","0","1","arrowleft","0","arrowleft","[0.85,0.15,0.325,0.675]","","",""
"sailing-trial","64","1001066","0.0-11.0-13.0","","","","false","","","","","","","","","","null","","1143.5999999996275","","1","1","null","null","arrowup","[0.85,0.15,0.325,0.675]","","",""
"sailing-trial","65","1005229","0.0-11.0-14.0","","","","false","","","","","","","","","","859.0999999996275","","68.30000000074506","","0","1","arrowleft","0","arrowleft","[0.85,0.15,0.325,0.675]","","",""
"sailing-trial","66","1008152","0.0-11.0-15.0","","","","false","","","","","","","","","","null","","841.6999999992549","","2","0","null","null","arrowup","[0.85,0.15,0.325,0.675]","","",""
"sailing-trial","67","1011836","0.0-11.0-16.0","","","","false","","","","","","","","","","837.5","","465.5","","0","0","arrowleft","0","arrowleft","[0.675,0.325,0.15,0.85]","","",""
"sailing-trial","68","1014441","0.0-11.0-17.0","","","","false","","","","","","","","","","null","","1072.0999999996275","","0","0","null","null","arrowup","[0.675,0.325,0.15,0.85]","","",""
"sailing-trial","69","1019371","0.0-11.0-18.0","","","","false","","","","","","","","","","1092.0999999996275","","662.3999999985099","","3","1","arrowright","1","arrowright","[0.675,0.325,0.15,0.85]","","",""
"sailing-trial","70","1022415","0.0-11.0-19.0","","","","false","","","","","","","","","","null","","1137.5999999996275","","3","1","null","null","arrowup","[0.675,0.325,0.15,0.85]","","",""
"sailing-trial","71","1026029","0.0-11.0-20.0","","","","false","","","","","","","","","","600.0999999996275","","90.09999999962747","","1","1","arrowleft","0","arrowright","[0.675,0.325,0.15,0.85]","","",""
"sailing-trial","72","1029010","0.0-11.0-21.0","","","","false","","","","","","","","","","null","","1118.5999999996275","","0","1","null","null","arrowup","[0.675,0.325,0.15,0.85]","","",""
"sailing-trial","73","1032564","0.0-11.0-22.0","","","","false","","","","","","","","","","441.90000000037253","","391.19999999925494","","2","0","arrowright","1","arrowleft","[0.675,0.325,0.15,0.85]","","",""
"sailing-trial","74","1035870","0.0-11.0-23.0","","","","false","","","","","","","","","","null","","1733.300000000745","","1","0","null","null","arrowup","[0.675,0.325,0.15,0.85]","","",""
"sailing-trial","75","1040329","0.0-11.0-24.0","","","","false","","","","","","","","","","905.3999999985099","","856","","1","0","arrowleft","0","arrowright","[0.675,0.325,0.15,0.85]","","",""
"sailing-trial","76","1043806","0.0-11.0-25.0","","","","false","","","","","","","","","","null","","1815.2000000011176","","1","0","null","null","arrowup","[0.675,0.325,0.15,0.85]","","",""
"sailing-trial","77","1048511","0.0-11.0-26.0","","","","false","","","","","","","","","","1002.5999999996275","","603.3000000007451","","2","1","arrowright","1","arrowleft","[0.675,0.325,0.15,0.85]","","",""
"sailing-trial","78","1051557","0.0-11.0-27.0","","","","false","","","","","","","","","","null","","998","","3","1","null","null","arrowup","[0.675,0.325,0.15,0.85]","","",""
"sailing-trial","79","1055449","0.0-11.0-28.0","","","","false","","","","","","","","","","788","","620.3999999985099","","2","0","arrowright","1","arrowleft","[0.675,0.325,0.15,0.85]","","",""
"sailing-trial","80","1058637","0.0-11.0-29.0","","","","false","","","","","","","","","","null","","1293.300000000745","","3","1","null","null","arrowup","[0.675,0.325,0.15,0.85]","","",""
"sailing-trial","81","1064764","0.0-11.0-30.0","","","","false","","","","","","","","","","621.1000000014901","","2607.5","","2","1","arrowright","1","arrowleft","[0.675,0.325,0.15,0.85]","","",""
"sailing-trial","82","1068386","0.0-11.0-31.0","","","","false","","","","","","","","","","null","","2032.5","","2","0","null","null","arrowup","[0.675,0.325,0.15,0.85]","","",""
"sailing-trial","83","1072216","0.0-11.0-32.0","","","","false","","","","","","","","","","1331.7999999988824","","158.7000000011176","","1","0","arrowleft","0","arrowright","[0.675,0.325,0.15,0.85]","","",""
"sailing-trial","84","1075830","0.0-11.0-33.0","","","","false","","","","","","","","","","null","","1305.7000000011176","","1","0","null","null","arrowup","[0.675,0.325,0.15,0.85]","","",""
"sailing-trial","85","1079706","0.0-11.0-34.0","","","","false","","","","","","","","","","752.5","","458.69999999925494","","0","0","arrowleft","0","arrowleft","[0.15,0.85,0.675,0.325]","","",""
"sailing-trial","86","1083301","0.0-11.0-35.0","","","","false","","","","","","","","","","null","","1588","","2","1","null","null","arrowup","[0.15,0.85,0.675,0.325]","","",""
"sailing-trial","87","1088580","0.0-11.0-36.0","","","","false","","","","","","","","","","905.2000000011176","","770.8999999985099","","3","1","arrowright","1","arrowright","[0.15,0.85,0.675,0.325]","","",""
"sailing-trial","88","1091338","0.0-11.0-37.0","","","","false","","","","","","","","","","null","","1230.2000000011176","","2","0","null","null","arrowup","[0.15,0.85,0.675,0.325]","","",""
"sailing-trial","89","1095779","0.0-11.0-38.0","","","","false","","","","","","","","","","931.2999999988824","","1097.5","","0","0","arrowleft","0","arrowleft","[0.15,0.85,0.675,0.325]","","",""
"sailing-trial","90","1098120","0.0-11.0-39.0","","","","false","","","","","","","","","","null","","1075.2000000011176","","0","0","null","null","arrowup","[0.15,0.85,0.675,0.325]","","",""
"sailing-trial","91","1103066","0.0-11.0-40.0","","","","false","","","","","","","","","","888.4000000003725","","1027.5","","1","1","arrowleft","0","arrowright","[0.15,0.85,0.675,0.325]","","",""
"sailing-trial","92","1105763","0.0-11.0-41.0","","","","false","","","","","","","","","","null","","1135.0999999996275","","3","1","null","null","arrowup","[0.15,0.85,0.675,0.325]","","",""
"sailing-trial","93","1110909","0.0-11.0-42.0","","","","false","","","","","","","","","","1437.7000000011176","","689.4000000003725","","2","1","arrowright","1","arrowleft","[0.15,0.85,0.675,0.325]","","",""
"sailing-trial","94","1114466","0.0-11.0-43.0","","","","false","","","","","","","","","","null","","2190.5","","2","0","null","null","arrowup","[0.15,0.85,0.675,0.325]","","",""
"sailing-trial","95","1118486","0.0-11.0-44.0","","","","false","","","","","","","","","","1086.199999999255","","77.40000000037253","","2","1","arrowright","1","arrowleft","[0.15,0.85,0.675,0.325]","","",""
"sailing-trial","96","1121833","0.0-11.0-45.0","","","","false","","","","","","","","","","null","","1185.5","","2","1","null","null","arrowup","[0.15,0.85,0.675,0.325]","","",""
"sailing-trial","97","1126017","0.0-11.0-46.0","","","","false","","","","","","","","","","1194.300000000745","","443.1000000014901","","3","0","arrowright","1","arrowright","[0.15,0.85,0.675,0.325]","","",""
"sailing-trial","98","1129144","0.0-11.0-47.0","","","","false","","","","","","","","","","null","","1031.6000000014901","","2","1","null","null","arrowup","[0.15,0.85,0.675,0.325]","","",""
"sailing-trial","99","1133108","0.0-11.0-48.0","","","","false","","","","","","","","","","781.5","","84.30000000074506","","2","1","arrowright","1","arrowleft","[0.15,0.85,0.675,0.325]","","",""
"sailing-trial","100","1135746","0.0-11.0-49.0","","","","false","","","","","","","","","","null","","1012.9000000003725","","2","0","null","null","arrowup","[0.15,0.85,0.675,0.325]","","",""
"sailing-trial","101","1140651","0.0-11.0-50.0","","","","false","","","","","","","","","","898.7999999988824","","325.19999999925494","","1","1","arrowleft","0","arrowright","[0.15,0.85,0.675,0.325]","","",""
"sailing-trial","102","1143150","0.0-11.0-51.0","","","","false","","","","","","","","","","null","","999.2000000011176","","0","0","null","null","arrowup","[0.15,0.85,0.675,0.325]","","",""
"sailing-trial","103","1146805","0.0-11.0-52.0","","","","false","","","","","","","","","","753.2000000011176","","343.40000000037253","","1","0","arrowleft","0","arrowright","[0.85,0.15,0.325,0.675]","","",""
"sailing-trial","104","1149605","0.0-11.0-53.0","","","","false","","","","","","","","","","null","","1168.5","","2","0","null","null","arrowup","[0.85,0.15,0.325,0.675]","","",""
"sailing-trial","105","1154006","0.0-11.0-54.0","","","","false","","","","","","","","","","932.7999999988824","","830.3000000007451","","3","0","arrowright","1","arrowright","[0.85,0.15,0.325,0.675]","","",""
"sailing-trial","106","1156905","0.0-11.0-55.0","","","","false","","","","","","","","","","null","","988.4000000003725","","0","1","null","null","arrowup","[0.85,0.15,0.325,0.675]","","",""
"sailing-trial","107","1161051","0.0-11.0-56.0","","","","false","","","","","","","","","","859.6000000014901","","96.40000000037253","","0","1","arrowleft","0","arrowleft","[0.85,0.15,0.325,0.675]","","",""
"sailing-trial","108","1164151","0.0-11.0-57.0","","","","false","","","","","","","","","","null","","1161.199999999255","","1","1","null","null","arrowup","[0.85,0.15,0.325,0.675]","","",""
"sailing-trial","109","1167254","0.0-11.0-58.0","","","","false","","","","","","","","","","459.19999999925494","","63","","1","0","arrowleft","0","arrowright","[0.85,0.15,0.325,0.675]","","",""
"sailing-trial","110","1170795","0.0-11.0-59.0","","","","false","","","","","","","","","","null","","1228.9000000003725","","1","1","null","null","arrowup","[0.85,0.15,0.325,0.675]","","",""
"sailing-trial","111","1176293","0.0-11.0-60.0","","","","false","","","","","","","","","","2020.2999999988824","","858.1000000014901","","2","0","arrowright","1","arrowleft","[0.85,0.15,0.325,0.675]","","",""
"sailing-trial","112","1179461","0.0-11.0-61.0","","","","false","","","","","","","","","","null","","1525.2000000011176","","0","0","null","null","arrowup","[0.85,0.15,0.325,0.675]","","",""
"sailing-trial","113","1184217","0.0-11.0-62.0","","","","false","","","","","","","","","","735","","886.4000000003725","","3","1","arrowright","1","arrowright","[0.85,0.15,0.325,0.675]","","",""
"sailing-trial","114","1187196","0.0-11.0-63.0","","","","false","","","","","","","","","","null","","1187.199999999255","","3","1","null","null","arrowup","[0.85,0.15,0.325,0.675]","","",""
"sailing-trial","115","1191336","0.0-11.0-64.0","","","","false","","","","","","","","","","905.5","","675.9000000003725","","2","0","arrowright","1","arrowleft","[0.85,0.15,0.325,0.675]","","",""
"sailing-trial","116","1195456","0.0-11.0-65.0","","","","false","","","","","","","","","","null","","1853.9000000003725","","0","1","null","null","arrowup","[0.85,0.15,0.325,0.675]","","",""
"sailing-trial","117","1199509","0.0-11.0-66.0","","","","false","","","","","","","","","","769.5","","698.8000000007451","","1","0","arrowleft","0","arrowright","[0.85,0.15,0.325,0.675]","","",""
"sailing-trial","118","1202384","0.0-11.0-67.0","","","","false","","","","","","","","","","null","","1302.9000000003725","","1","0","null","null","arrowup","[0.85,0.15,0.325,0.675]","","",""
"sailing-trial","119","1207595","0.0-11.0-68.0","","","","false","","","","","","","","","","1146","","918.8999999985099","","1","1","arrowleft","0","arrowright","[0.15,0.85,0.675,0.325]","","",""
"sailing-trial","120","1211975","0.0-11.0-69.0","","","","false","","","","","","","","","","null","","2225.199999999255","","2","0","null","null","arrowup","[0.15,0.85,0.675,0.325]","","",""
"sailing-trial","121","1217938","0.0-11.0-70.0","","","","false","","","","","","","","","","2311.4000000003725","","548.8000000007451","","1","1","arrowleft","0","arrowright","[0.15,0.85,0.675,0.325]","","",""
"sailing-trial","122","1220830","0.0-11.0-71.0","","","","false","","","","","","","","","","null","","1317.2999999988824","","2","0","null","null","arrowup","[0.15,0.85,0.675,0.325]","","",""
"sailing-trial","123","1225465","0.0-11.0-72.0","","","","false","","","","","","","","","","960.9000000003725","","538.5","","2","1","arrowright","1","arrowleft","[0.15,0.85,0.675,0.325]","","",""
"sailing-trial","124","1230778","0.0-11.0-73.0","","","","false","","","","","","","","","","null","","1988.199999999255","","2","1","null","null","arrowup","[0.15,0.85,0.675,0.325]","","",""
"sailing-trial","125","1235590","0.0-11.0-74.0","","","","false","","","","","","","","","","920.3000000007451","","1228.800000000745","","2","0","arrowright","1","arrowleft","[0.15,0.85,0.675,0.325]","","",""
"sailing-trial","126","1238577","0.0-11.0-75.0","","","","false","","","","","","","","","","null","","1468.300000000745","","2","0","null","null","arrowup","[0.15,0.85,0.675,0.325]","","",""
"sailing-trial","127","1242951","0.0-11.0-76.0","","","","false","","","","","","","","","","992.7999999988824","","492.59999999962747","","1","1","arrowleft","0","arrowright","[0.15,0.85,0.675,0.325]","","",""
"sailing-trial","128","1245553","0.0-11.0-77.0","","","","false","","","","","","","","","","null","","1227.7000000011176","","2","0","null","null","arrowup","[0.15,0.85,0.675,0.325]","","",""
"sailing-trial","129","1250062","0.0-11.0-78.0","","","","false","","","","","","","","","","1092.2000000011176","","294.69999999925494","","1","1","arrowleft","0","arrowright","[0.15,0.85,0.675,0.325]","","",""
"sailing-trial","130","1252847","0.0-11.0-79.0","","","","false","","","","","","","","","","null","","1347.0999999996275","","0","0","null","null","arrowup","[0.15,0.85,0.675,0.325]","","",""
"sailing-trial","131","1257452","0.0-11.0-80.0","","","","false","","","","","","","","","","838.8000000007451","","140.30000000074506","","1","0","arrowleft","0","arrowright","[0.15,0.85,0.675,0.325]","","",""
"sailing-trial","132","1261834","0.0-11.0-81.0","","","","false","","","","","","","","","","null","","2291.199999999255","","1","1","null","null","arrowup","[0.15,0.85,0.675,0.325]","","",""
"sailing-trial","133","1265786","0.0-11.0-82.0","","","","false","","","","","","","","","","1087.5999999996275","","478","","0","0","arrowleft","0","arrowleft","[0.15,0.85,0.675,0.325]","","",""
"sailing-trial","134","1269812","0.0-11.0-83.0","","","","false","","","","","","","","","","null","","1434.2000000011176","","1","1","null","null","arrowup","[0.15,0.85,0.675,0.325]","","",""
"sailing-trial","135","1274259","0.0-11.0-84.0","","","","false","","","","","","","","","","1046.6000000014901","","887.8000000007451","","3","0","arrowright","1","arrowright","[0.15,0.85,0.675,0.325]","","",""
"sailing-trial","136","1276925","0.0-11.0-85.0","","","","false","","","","","","","","","","null","","1110.0999999996275","","2","0","null","null","arrowup","[0.15,0.85,0.675,0.325]","","",""
"sailing-trial","137","1280640","0.0-11.0-86.0","","","","false","","","","","","","","","","1573.2999999988824","","2.800000000745058","","2","0","arrowright","1","arrowleft","[0.15,0.85,0.675,0.325]","","",""
"sailing-trial","138","1283884","0.0-11.0-87.0","","","","false","","","","","","","","","","null","","1420.7000000011176","","2","1","null","null","arrowup","[0.15,0.85,0.675,0.325]","","",""
"sailing-trial","139","1289395","0.0-11.0-88.0","","","","false","","","","","","","","","","2130.800000000745","","281.7999999988824","","3","1","arrowright","1","arrowright","[0.15,0.85,0.675,0.325]","","",""
"sailing-trial","140","1292743","0.0-11.0-89.0","","","","false","","","","","","","","","","null","","1224.300000000745","","1","1","null","null","arrowup","[0.15,0.85,0.675,0.325]","","",""
"sailing-trial","141","1297092","0.0-11.0-90.0","","","","false","","","","","","","","","","1108.199999999255","","128.40000000037253","","3","1","arrowright","1","arrowright","[0.675,0.325,0.15,0.85]","","",""
"sailing-trial","142","1301702","0.0-11.0-91.0","","","","false","","","","","","","","","","null","","2497.9000000003725","","0","1","null","null","arrowup","[0.675,0.325,0.15,0.85]","","",""
"sailing-trial","143","1306533","0.0-11.0-92.0","","","","false","","","","","","","","","","1159.5","","643.5","","3","1","arrowright","1","arrowright","[0.675,0.325,0.15,0.85]","","",""
"sailing-trial","144","1309746","0.0-11.0-93.0","","","","false","","","","","","","","","","null","","1367.699999999255","","1","1","null","null","arrowup","[0.675,0.325,0.15,0.85]","","",""
"sailing-trial","145","1314259","0.0-11.0-94.0","","","","false","","","","","","","","","","1374.2999999988824","","60.899999998509884","","3","1","arrowright","1","arrowright","[0.675,0.325,0.15,0.85]","","",""
"sailing-trial","146","1317556","0.0-11.0-95.0","","","","false","","","","","","","","","","null","","1214.0999999996275","","0","1","null","null","arrowup","[0.675,0.325,0.15,0.85]","","",""
"sailing-trial","147","1322802","0.0-11.0-96.0","","","","false","","","","","","","","","","759.4000000003725","","1811","","2","0","arrowright","1","arrowleft","[0.675,0.325,0.15,0.85]","","",""
"sailing-trial","148","1326034","0.0-11.0-97.0","","","","false","","","","","","","","","","null","","1318.800000000745","","0","1","null","null","arrowup","[0.675,0.325,0.15,0.85]","","",""
"sailing-trial","149","1330242","0.0-11.0-98.0","","","","false","","","","","","","","","","986","","672","","1","0","arrowleft","0","arrowright","[0.675,0.325,0.15,0.85]","","",""
"sailing-trial","150","1333676","0.0-11.0-99.0","","","","false","","","","","","","","","","null","","1311","","0","1","null","null","arrowup","[0.675,0.325,0.15,0.85]","","",""
"sailing-trial","151","1339671","0.0-11.0-100.0","","","","false","","","","","","","","","","1240.0999999996275","","511.59999999962747","","1","1","arrowleft","0","arrowright","[0.675,0.325,0.15,0.85]","","",""
"sailing-trial","152","1344601","0.0-11.0-101.0","","","","false","","","","","","","","","","null","","3010.9000000003725","","3","0","null","null","arrowup","[0.675,0.325,0.15,0.85]","","",""
"sailing-trial","153","1349739","0.0-11.0-102.0","","","","false","","","","","","","","","","1911.9000000003725","","568.9000000003725","","1","0","arrowleft","0","arrowright","[0.675,0.325,0.15,0.85]","","",""
"sailing-trial","154","1352930","0.0-11.0-103.0","","","","false","","","","","","","","","","null","","1595.3999999985099","","2","0","null","null","arrowup","[0.675,0.325,0.15,0.85]","","",""
"sailing-trial","155","1357624","0.0-11.0-104.0","","","","false","","","","","","","","","","1222.2999999988824","","334.2999999988824","","0","1","arrowleft","0","arrowleft","[0.675,0.325,0.15,0.85]","","",""
"sailing-trial","156","1360876","0.0-11.0-105.0","","","","false","","","","","","","","","","null","","1877.5","","1","0","null","null","arrowup","[0.675,0.325,0.15,0.85]","","",""
"sailing-trial","157","1367516","0.0-11.0-106.0","","","","false","","","","","","","","","","1558.2999999988824","","2230.5","","2","0","arrowright","1","arrowleft","[0.675,0.325,0.15,0.85]","","",""
"sailing-trial","158","1371696","0.0-11.0-107.0","","","","false","","","","","","","","","","null","","1788.2999999988824","","0","1","null","null","arrowup","[0.675,0.325,0.15,0.85]","","",""
"sailing-trial","159","1376148","0.0-11.0-108.0","","","","false","","","","","","","","","","908.5","","497.30000000074506","","1","0","arrowleft","0","arrowright","[0.85,0.15,0.325,0.675]","","",""
"sailing-trial","160","1379138","0.0-11.0-109.0","","","","false","","","","","","","","","","null","","1018.0999999996275","","0","1","null","null","arrowup","[0.85,0.15,0.325,0.675]","","",""
"sailing-trial","161","1382756","0.0-11.0-110.0","","","","false","","","","","","","","","","851.8000000007451","","545.1000000014901","","3","0","arrowright","1","arrowright","[0.85,0.15,0.325,0.675]","","",""
"sailing-trial","162","1386351","0.0-11.0-111.0","","","","false","","","","","","","","","","null","","1661.800000000745","","3","1","null","null","arrowup","[0.85,0.15,0.325,0.675]","","",""
"sailing-trial","163","1389764","0.0-11.0-112.0","","","","false","","","","","","","","","","752.5999999996275","","49.5","","0","1","arrowleft","0","arrowleft","[0.85,0.15,0.325,0.675]","","",""
"sailing-trial","164","1393055","0.0-11.0-113.0","","","","false","","","","","","","","","","null","","1315","","1","0","null","null","arrowup","[0.85,0.15,0.325,0.675]","","",""
"sailing-trial","165","1396651","0.0-11.0-114.0","","","","false","","","","","","","","","","923.8999999985099","","353.19999999925494","","2","0","arrowright","1","arrowleft","[0.85,0.15,0.325,0.675]","","",""
"sailing-trial","166","1399804","0.0-11.0-115.0","","","","false","","","","","","","","","","null","","1521.1000000014901","","1","0","null","null","arrowup","[0.85,0.15,0.325,0.675]","","",""
"sailing-trial","167","1403385","0.0-11.0-116.0","","","","false","","","","","","","","","","908.5999999996275","","49.09999999962747","","1","0","arrowleft","0","arrowright","[0.85,0.15,0.325,0.675]","","",""
"sailing-trial","168","1406334","0.0-11.0-117.0","","","","false","","","","","","","","","","null","","1151.699999999255","","2","1","null","null","arrowup","[0.85,0.15,0.325,0.675]","","",""
"sailing-trial","169","1421199","0.0-11.0-118.0","","","","false","","","","","","","","","","7041.4000000003725","","5525.800000000745","","1","0","arrowleft","0","arrowright","[0.85,0.15,0.325,0.675]","","",""
"sailing-trial","170","1424149","0.0-11.0-119.0","","","","false","","","","","","","","","","null","","1380.199999999255","","1","0","null","null","arrowup","[0.85,0.15,0.325,0.675]","","",""
"sailing-trial","171","1429314","0.0-11.0-120.0","","","","false","","","","","","","","","","1161.2999999988824","","441.3999999985099","","0","1","arrowleft","0","arrowleft","[0.85,0.15,0.325,0.675]","","",""
"sailing-trial","172","1433194","0.0-11.0-121.0","","","","false","","","","","","","","","","null","","1755.0999999996275","","0","1","null","null","arrowup","[0.85,0.15,0.325,0.675]","","",""
"sailing-trial","173","1437725","0.0-11.0-122.0","","","","false","","","","","","","","","","996.5999999996275","","1136.2999999988824","","1","0","arrowleft","0","arrowright","[0.85,0.15,0.325,0.675]","","",""
"sailing-trial","174","1440705","0.0-11.0-123.0","","","","false","","","","","","","","","","null","","1538.5999999996275","","3","0","null","null","arrowup","[0.85,0.15,0.325,0.675]","","",""
"sailing-trial","175","1447182","0.0-11.0-124.0","","","","false","","","","","","","","","","2874.4000000003725","","832.7999999988824","","2","0","arrowright","1","arrowleft","[0.85,0.15,0.325,0.675]","","",""
"sailing-trial","176","1451864","0.0-11.0-125.0","","","","false","","","","","","","","","","null","","2379.9000000003725","","3","1","null","null","arrowup","[0.85,0.15,0.325,0.675]","","",""
"sailing-trial","177","1456945","0.0-11.0-126.0","","","","false","","","","","","","","","","1466.3999999985099","","972.5","","3","0","arrowright","1","arrowright","[0.85,0.15,0.325,0.675]","","",""
"sailing-trial","178","1460674","0.0-11.0-127.0","","","","false","","","","","","","","","","null","","1527.7999999988824","","1","0","null","null","arrowup","[0.85,0.15,0.325,0.675]","","",""
"sailing-trial","179","1464813","0.0-11.0-128.0","","","","false","","","","","","","","","","793.8000000007451","","391.09999999962747","","1","0","arrowleft","0","arrowright","[0.675,0.325,0.15,0.85]","","",""
"sailing-trial","180","1467883","0.0-11.0-129.0","","","","false","","","","","","","","","","null","","1073.4000000003725","","2","1","null","null","arrowup","[0.675,0.325,0.15,0.85]","","",""
"sailing-trial","181","1473049","0.0-11.0-130.0","","","","false","","","","","","","","","","1302.6000000014901","","906.3000000007451","","2","0","arrowright","1","arrowleft","[0.675,0.325,0.15,0.85]","","",""
"sailing-trial","182","1475857","0.0-11.0-131.0","","","","false","","","","","","","","","","null","","1153.5","","2","0","null","null","arrowup","[0.675,0.325,0.15,0.85]","","",""
"sailing-trial","183","1480473","0.0-11.0-132.0","","","","false","","","","","","","","","","1228.8999999985099","","233.09999999962747","","3","1","arrowright","1","arrowright","[0.675,0.325,0.15,0.85]","","",""
"sailing-trial","184","1483802","0.0-11.0-133.0","","","","false","","","","","","","","","","null","","1333.699999999255","","0","1","null","null","arrowup","[0.675,0.325,0.15,0.85]","","",""
"sailing-trial","185","1487449","0.0-11.0-134.0","","","","false","","","","","","","","","","673","","75.40000000037253","","2","1","arrowright","1","arrowleft","[0.675,0.325,0.15,0.85]","","",""
"sailing-trial","186","1491080","0.0-11.0-135.0","","","","false","","","","","","","","","","null","","1214","","0","1","null","null","arrowup","[0.675,0.325,0.15,0.85]","","",""
"sailing-trial","187","1494711","0.0-11.0-136.0","","","","false","","","","","","","","","","542.1999999992549","","502.19999999925494","","1","0","arrowleft","0","arrowright","[0.675,0.325,0.15,0.85]","","",""
"sailing-trial","188","1498540","0.0-11.0-137.0","","","","false","","","","","","","","","","null","","1676.199999999255","","3","1","null","null","arrowup","[0.675,0.325,0.15,0.85]","","",""
"sailing-trial","189","1503137","0.0-11.0-138.0","","","","false","","","","","","","","","","1159.300000000745","","249.80000000074506","","3","1","arrowright","1","arrowright","[0.675,0.325,0.15,0.85]","","",""
"sailing-trial","190","1506185","0.0-11.0-139.0","","","","false","","","","","","","","","","null","","1300.800000000745","","2","0","null","null","arrowup","[0.675,0.325,0.15,0.85]","","",""
"sailing-trial","191","1510113","0.0-11.0-140.0","","","","false","","","","","","","","","","660.5","","133.40000000037253","","2","1","arrowright","1","arrowleft","[0.675,0.325,0.15,0.85]","","",""
"sailing-trial","192","1512620","0.0-11.0-141.0","","","","false","","","","","","","","","","null","","1164","","1","0","null","null","arrowup","[0.675,0.325,0.15,0.85]","","",""
"sailing-trial","193","1516459","0.0-11.0-142.0","","","","false","","","","","","","","","","642.8000000007451","","93.20000000111759","","3","1","arrowright","1","arrowright","[0.675,0.325,0.15,0.85]","","",""
"sailing-trial","194","1519397","0.0-11.0-143.0","","","","false","","","","","","","","","","null","","1508.9000000003725","","3","0","null","null","arrowup","[0.675,0.325,0.15,0.85]","","",""
"sailing-trial","195","1522904","0.0-11.0-144.0","","","","false","","","","","","","","","","674.9000000003725","","250.7999999988824","","2","0","arrowright","1","arrowleft","[0.675,0.325,0.15,0.85]","","",""
"sailing-trial","196","1526051","0.0-11.0-145.0","","","","false","","","","","","","","","","null","","1290.699999999255","","0","1","null","null","arrowup","[0.675,0.325,0.15,0.85]","","",""
"sailing-trial","197","1529737","0.0-11.0-146.0","","","","false","","","","","","","","","","570.0999999996275","","502.09999999962747","","3","0","arrowright","1","arrowright","[0.85,0.15,0.325,0.675]","","",""
"sailing-trial","198","1532549","0.0-11.0-147.0","","","","false","","","","","","","","","","null","","1465.5","","1","0","null","null","arrowup","[0.85,0.15,0.325,0.675]","","",""
"sailing-trial","199","1536635","0.0-11.0-148.0","","","","false","","","","","","","","","","559.1999999992549","","899.4000000003725","","1","0","arrowleft","0","arrowright","[0.85,0.15,0.325,0.675]","","",""
"sailing-trial","200","1539442","0.0-11.0-149.0","","","","false","","","","","","","","","","null","","1216.5999999996275","","1","0","null","null","arrowup","[0.85,0.15,0.325,0.675]","","",""
"sailing-trial","201","1544179","0.0-11.0-150.0","","","","false","","","","","","","","","","744","","1414.1000000014901","","0","0","arrowleft","0","arrowleft","[0.85,0.15,0.325,0.675]","","",""
"sailing-trial","202","1547418","0.0-11.0-151.0","","","","false","","","","","","","","","","null","","1388.699999999255","","3","1","null","null","arrowup","[0.85,0.15,0.325,0.675]","","",""
"sailing-trial","203","1551346","0.0-11.0-152.0","","","","false","","","","","","","","","","909.1999999992549","","453.90000000037253","","0","0","arrowleft","0","arrowleft","[0.85,0.15,0.325,0.675]","","",""
"sailing-trial","204","1554000","0.0-11.0-153.0","","","","false","","","","","","","","","","null","","1068.4000000003725","","1","0","null","null","arrowup","[0.85,0.15,0.325,0.675]","","",""
"sailing-trial","205","1557842","0.0-11.0-154.0","","","","false","","","","","","","","","","536.5","","167.39999999850988","","3","1","arrowright","1","arrowright","[0.85,0.15,0.325,0.675]","","",""
"sailing-trial","206","1560339","0.0-11.0-155.0","","","","false","","","","","","","","","","null","","1263.8999999985099","","3","0","null","null","arrowup","[0.85,0.15,0.325,0.675]","","",""
"sailing-trial","207","1566101","0.0-11.0-156.0","","","","false","","","","","","","","","","2159.4000000003725","","358.19999999925494","","3","1","arrowright","1","arrowright","[0.85,0.15,0.325,0.675]","","",""
"sailing-trial","208","1568648","0.0-11.0-157.0","","","","false","","","","","","","","","","null","","1157.800000000745","","0","0","null","null","arrowup","[0.85,0.15,0.325,0.675]","","",""
"sailing-trial","209","1572630","0.0-11.0-158.0","","","","false","","","","","","","","","","850.0999999996275","","520.8999999985099","","2","1","arrowright","1","arrowleft","[0.85,0.15,0.325,0.675]","","",""
"sailing-trial","210","1578743","0.0-11.0-159.0","","","","false","","","","","","","","","","null","","4137","","3","1","null","null","arrowup","[0.85,0.15,0.325,0.675]","","",""
"sailing-trial","211","1581960","0.0-11.0-160.0","","","","false","","","","","","","","","","637.6000000014901","","2.900000000372529","","3","0","arrowright","1","arrowright","[0.85,0.15,0.325,0.675]","","",""
"sailing-trial","212","1584920","0.0-11.0-161.0","","","","false","","","","","","","","","","null","","1360.4000000003725","","1","0","null","null","arrowup","[0.85,0.15,0.325,0.675]","","",""
"sailing-trial","213","1589333","0.0-11.0-162.0","","","","false","","","","","","","","","","776.9000000003725","","480.5","","2","1","arrowright","1","arrowleft","[0.675,0.325,0.15,0.85]","","",""
"sailing-trial","214","1591734","0.0-11.0-163.0","","","","false","","","","","","","","","","null","","1193.800000000745","","2","0","null","null","arrowup","[0.675,0.325,0.15,0.85]","","",""
"sailing-trial","215","1596765","0.0-11.0-164.0","","","","false","","","","","","","","","","1383.2000000011176","","1075.7999999988824","","2","0","arrowright","1","arrowleft","[0.675,0.325,0.15,0.85]","","",""
"sailing-trial","216","1600108","0.0-11.0-165.0","","","","false","","","","","","","","","","null","","1163.199999999255","","1","1","null","null","arrowup","[0.675,0.325,0.15,0.85]","","",""
"sailing-trial","217","1604329","0.0-11.0-166.0","","","","false","","","","","","","","","","1099.5","","526.8999999985099","","1","0","arrowleft","0","arrowright","[0.675,0.325,0.15,0.85]","","",""
"sailing-trial","218","1607498","0.0-11.0-167.0","","","","false","","","","","","","","","","null","","1437.4000000003725","","0","0","null","null","arrowup","[0.675,0.325,0.15,0.85]","","",""
"sailing-trial","219","1611457","0.0-11.0-168.0","","","","false","","","","","","","","","","929.4000000003725","","499.5","","2","0","arrowright","1","arrowleft","[0.675,0.325,0.15,0.85]","","",""
"sailing-trial","220","1614245","0.0-11.0-169.0","","","","false","","","","","","","","","","null","","1368","","1","0","null","null","arrowup","[0.675,0.325,0.15,0.85]","","",""
"sailing-trial","221","1619700","0.0-11.0-170.0","","","","false","","","","","","","","","","1938.9000000003725","","735.2000000011176","","2","0","arrowright","1","arrowleft","[0.675,0.325,0.15,0.85]","","",""
"sailing-trial","222","1624187","0.0-11.0-171.0","","","","false","","","","","","","","","","null","","1235.699999999255","","3","1","null","null","arrowup","[0.675,0.325,0.15,0.85]","","",""
"sailing-trial","223","1628390","0.0-11.0-172.0","","","","false","","","","","","","","","","962.2999999988824","","631.1999999992549","","1","0","arrowleft","0","arrowright","[0.675,0.325,0.15,0.85]","","",""
"sailing-trial","224","1630754","0.0-11.0-173.0","","","","false","","","","","","","","","","null","","1045.800000000745","","2","0","null","null","arrowup","[0.675,0.325,0.15,0.85]","","",""
"sailing-trial","225","1634745","0.0-11.0-174.0","","","","false","","","","","","","","","","648.9000000003725","","495.30000000074506","","0","1","arrowleft","0","arrowleft","[0.675,0.325,0.15,0.85]","","",""
"sailing-trial","226","1638993","0.0-11.0-175.0","","","","false","","","","","","","","","","null","","2053.5999999996275","","3","1","null","null","arrowup","[0.675,0.325,0.15,0.85]","","",""
"sailing-trial","227","1643155","0.0-11.0-176.0","","","","false","","","","","","","","","","533.2000000011176","","461.30000000074506","","0","1","arrowleft","0","arrowleft","[0.675,0.325,0.15,0.85]","","",""
"sailing-trial","228","1646252","0.0-11.0-177.0","","","","false","","","","","","","","","","null","","1272.2999999988824","","1","1","null","null","arrowup","[0.675,0.325,0.15,0.85]","","",""
"sailing-trial","229","1650765","0.0-11.0-178.0","","","","false","","","","","","","","","","668.5999999996275","","994.7999999988824","","0","1","arrowleft","0","arrowleft","[0.85,0.15,0.325,0.675]","","",""
"sailing-trial","230","1653802","0.0-11.0-179.0","","","","false","","","","","","","","","","null","","1535.9000000003725","","1","0","null","null","arrowup","[0.85,0.15,0.325,0.675]","","",""
"sailing-trial","231","1657955","0.0-11.0-180.0","","","","false","","","","","","","","","","1264.6000000014901","","523","","1","0","arrowleft","0","arrowright","[0.85,0.15,0.325,0.675]","","",""
"sailing-trial","232","1660688","0.0-11.0-181.0","","","","false","","","","","","","","","","null","","1264.4000000003725","","3","0","null","null","arrowup","[0.85,0.15,0.325,0.675]","","",""
"sailing-trial","233","1664804","0.0-11.0-182.0","","","","false","","","","","","","","","","899.8000000007451","","569.5","","0","1","arrowleft","0","arrowleft","[0.85,0.15,0.325,0.675]","","",""
"sailing-trial","234","1667243","0.0-11.0-183.0","","","","false","","","","","","","","","","null","","1042.800000000745","","2","0","null","null","arrowup","[0.85,0.15,0.325,0.675]","","",""
"sailing-trial","235","1672016","0.0-11.0-184.0","","","","false","","","","","","","","","","767.7000000011176","","1163.6000000014901","","0","1","arrowleft","0","arrowleft","[0.85,0.15,0.325,0.675]","","",""
"sailing-trial","236","1675547","0.0-11.0-185.0","","","","false","","","","","","","","","","null","","1580.5","","0","1","null","null","arrowup","[0.85,0.15,0.325,0.675]","","",""
"sailing-trial","237","1680107","0.0-11.0-186.0","","","","false","","","","","","","","","","858.5999999996275","","844.4000000003725","","0","1","arrowleft","0","arrowleft","[0.85,0.15,0.325,0.675]","","",""
"sailing-trial","238","1683077","0.0-11.0-187.0","","","","false","","","","","","","","","","null","","1093.0999999996275","","0","0","null","null","arrowup","[0.85,0.15,0.325,0.675]","","",""
"sailing-trial","239","1687388","0.0-11.0-188.0","","","","false","","","","","","","","","","547","","938.5999999996275","","0","1","arrowleft","0","arrowleft","[0.85,0.15,0.325,0.675]","","",""
"sailing-trial","240","1690151","0.0-11.0-189.0","","","","false","","","","","","","","","","null","","686.5999999996275","","3","1","null","null","arrowup","[0.85,0.15,0.325,0.675]","","",""
"sailing-trial","241","1694280","0.0-11.0-190.0","","","","false","","","","","","","","","","509.80000000074506","","732.3000000007451","","0","1","arrowleft","0","arrowleft","[0.85,0.15,0.325,0.675]","","",""
"sailing-trial","242","1696761","0.0-11.0-191.0","","","","false","","","","","","","","","","null","","1136.0999999996275","","1","0","null","null","arrowup","[0.85,0.15,0.325,0.675]","","",""
"sailing-trial","243","1701589","0.0-11.0-192.0","","","","false","","","","","","","","","","775.7000000011176","","1153.9000000003725","","0","1","arrowleft","0","arrowleft","[0.85,0.15,0.325,0.675]","","",""
"sailing-trial","244","1704987","0.0-11.0-193.0","","","","false","","","","","","","","","","null","","1441.5999999996275","","2","1","null","null","arrowup","[0.85,0.15,0.325,0.675]","","",""
"sailing-trial","245","1708308","0.0-11.0-194.0","","","","false","","","","","","","","","","599.0999999996275","","466.59999999962747","","0","0","arrowleft","0","arrowleft","[0.15,0.85,0.675,0.325]","","",""
"sailing-trial","246","1711098","0.0-11.0-195.0","","","","false","","","","","","","","","","null","","1477","","3","0","null","null","arrowup","[0.15,0.85,0.675,0.325]","","",""
"sailing-trial","247","1715429","0.0-11.0-196.0","","","","false","","","","","","","","","","868.3000000007451","","584.2999999988824","","3","1","arrowright","1","arrowright","[0.15,0.85,0.675,0.325]","","",""
"sailing-trial","248","1719392","0.0-11.0-197.0","","","","false","","","","","","","","","","null","","2213.2000000011176","","2","1","null","null","arrowup","[0.15,0.85,0.675,0.325]","","",""
"sailing-trial","249","1722676","0.0-11.0-198.0","","","","false","","","","","","","","","","520.5","","237.2000000011176","","3","0","arrowright","1","arrowright","[0.15,0.85,0.675,0.325]","","",""
"sailing-trial","250","1726620","0.0-11.0-199.0","","","","false","","","","","","","","","","null","","1979.4000000003725","","1","1","null","null","arrowup","[0.15,0.85,0.675,0.325]","","",""
"sailing-trial","251","1731081","0.0-11.0-200.0","","","","false","","","","","","","","","","1131.7999999988824","","510.90000000037253","","2","0","arrowright","1","arrowleft","[0.15,0.85,0.675,0.325]","","",""
"sailing-trial","252","1734382","0.0-11.0-201.0","","","","false","","","","","","","","","","null","","1471.5999999996275","","2","0","null","null","arrowup","[0.15,0.85,0.675,0.325]","","",""
"sailing-trial","253","1739709","0.0-11.0-202.0","","","","false","","","","","","","","","","1537.5","","667.1000000014901","","1","1","arrowleft","0","arrowright","[0.15,0.85,0.675,0.325]","","",""
"sailing-trial","254","1742475","0.0-11.0-203.0","","","","false","","","","","","","","","","null","","1388.3999999985099","","2","0","null","null","arrowup","[0.15,0.85,0.675,0.325]","","",""
"sailing-trial","255","1748302","0.0-11.0-204.0","","","","false","","","","","","","","","","2288.300000000745","","397.40000000037253","","0","1","arrowleft","0","arrowleft","[0.15,0.85,0.675,0.325]","","",""
"sailing-trial","256","1752834","0.0-11.0-205.0","","","","false","","","","","","","","","","null","","1517.300000000745","","0","0","null","null","arrowup","[0.15,0.85,0.675,0.325]","","",""
"sailing-trial","257","1759009","0.0-11.0-206.0","","","","false","","","","","","","","","","1839.9000000003725","","792.2999999988824","","2","1","arrowright","1","arrowleft","[0.15,0.85,0.675,0.325]","","",""
"sailing-trial","258","1761934","0.0-11.0-207.0","","","","false","","","","","","","","","","null","","1284","","3","0","null","null","arrowup","[0.15,0.85,0.675,0.325]","","",""
"sailing-trial","259","1766720","0.0-11.0-208.0","","","","false","","","","","","","","","","1198.800000000745","","503.69999999925494","","2","1","arrowright","1","arrowleft","[0.15,0.85,0.675,0.325]","","",""
"sailing-trial","260","1771152","0.0-11.0-209.0","","","","false","","","","","","","","","","null","","1422.199999999255","","3","0","null","null","arrowup","[0.15,0.85,0.675,0.325]","","",""
"sailing-trial","261","1786160","0.0-11.0-210.0","","","","true","","","","","","","","","","null","","null","","null","null","null","null","null","[0.675,0.325,0.15,0.85]","","",""
"sailing-trial","262","1789968","0.0-11.0-211.0","","","","false","","","","","","","","","","null","","1547.5","","2","1","null","null","arrowup","[0.675,0.325,0.15,0.85]","","",""
"sailing-trial","263","1796511","0.0-11.0-212.0","","","","false","","","","","","","","","","1353.5","","1526.3999999985099","","0","1","arrowleft","0","arrowleft","[0.675,0.325,0.15,0.85]","","",""
"sailing-trial","264","1799559","0.0-11.0-213.0","","","","false","","","","","","","","","","null","","1116.5","","3","1","null","null","arrowup","[0.675,0.325,0.15,0.85]","","",""
"sailing-trial","265","1805116","0.0-11.0-214.0","","","","false","","","","","","","","","","1047.800000000745","","1106.2999999988824","","2","0","arrowright","1","arrowleft","[0.675,0.325,0.15,0.85]","","",""
"sailing-trial","266","1809064","0.0-11.0-215.0","","","","false","","","","","","","","","","null","","1734","","2","0","null","null","arrowup","[0.675,0.325,0.15,0.85]","","",""
"sailing-trial","267","1813140","0.0-11.0-216.0","","","","false","","","","","","","","","","1137.5999999996275","","218.69999999925494","","1","0","arrowleft","0","arrowright","[0.675,0.325,0.15,0.85]","","",""
"sailing-trial","268","1816227","0.0-11.0-217.0","","","","false","","","","","","","","","","null","","1431.800000000745","","3","0","null","null","arrowup","[0.675,0.325,0.15,0.85]","","",""
"sailing-trial","269","1822990","0.0-11.0-218.0","","","","false","","","","","","","","","","2078","","1457.7999999988824","","0","1","arrowleft","0","arrowleft","[0.675,0.325,0.15,0.85]","","",""
"sailing-trial","270","1827072","0.0-11.0-219.0","","","","false","","","","","","","","","","null","","1492.9000000003725","","0","1","null","null","arrowup","[0.675,0.325,0.15,0.85]","","",""
"sailing-trial","271","1833232","0.0-11.0-220.0","","","","false","","","","","","","","","","1964","","1076.699999999255","","2","1","arrowright","1","arrowleft","[0.675,0.325,0.15,0.85]","","",""
"sailing-trial","272","1836528","0.0-11.0-221.0","","","","false","","","","","","","","","","null","","1274.1000000014901","","0","0","null","null","arrowup","[0.675,0.325,0.15,0.85]","","",""
"sailing-trial","273","1841408","0.0-11.0-222.0","","","","false","","","","","","","","","","1121.5999999996275","","1080.9000000003725","","2","0","arrowright","1","arrowleft","[0.675,0.325,0.15,0.85]","","",""
"sailing-trial","274","1844350","0.0-11.0-223.0","","","","false","","","","","","","","","","null","","1349.7999999988824","","2","0","null","null","arrowup","[0.675,0.325,0.15,0.85]","","",""
"sailing-trial","275","1849871","0.0-11.0-224.0","","","","false","","","","","","","","","","604.2000000011176","","1014.7999999988824","","3","1","arrowright","1","arrowright","[0.675,0.325,0.15,0.85]","","",""
"sailing-trial","276","1853565","0.0-11.0-225.0","","","","false","","","","","","","","","","null","","1445.9000000003725","","3","1","null","null","arrowup","[0.675,0.325,0.15,0.85]","","",""
"sailing-trial","277","1857468","0.0-11.0-226.0","","","","false","","","","","","","","","","855.8999999985099","","505.2000000011176","","3","0","arrowright","1","arrowright","[0.85,0.15,0.325,0.675]","","",""
"sailing-trial","278","1860262","0.0-11.0-227.0","","","","false","","","","","","","","","","null","","1328.5999999996275","","3","0","null","null","arrowup","[0.85,0.15,0.325,0.675]","","",""
"sailing-trial","279","1864415","0.0-11.0-228.0","","","","false","","","","","","","","","","646.4000000003725","","404.90000000037253","","0","0","arrowleft","0","arrowleft","[0.85,0.15,0.325,0.675]","","",""
"sailing-trial","280","1866937","0.0-11.0-229.0","","","","false","","","","","","","","","","null","","1143.5","","1","0","null","null","arrowup","[0.85,0.15,0.325,0.675]","","",""
"sailing-trial","281","1871386","0.0-11.0-230.0","","","","false","","","","","","","","","","876.1999999992549","","752.5999999996275","","1","0","arrowleft","0","arrowright","[0.85,0.15,0.325,0.675]","","",""
"sailing-trial","282","1874400","0.0-11.0-231.0","","","","false","","","","","","","","","","null","","1133.300000000745","","2","1","null","null","arrowup","[0.85,0.15,0.325,0.675]","","",""
"sailing-trial","283","1878680","0.0-11.0-232.0","","","","false","","","","","","","","","","630.1999999992549","","1192.4000000003725","","2","0","arrowright","1","arrowleft","[0.85,0.15,0.325,0.675]","","",""
"sailing-trial","284","1881758","0.0-11.0-233.0","","","","false","","","","","","","","","","null","","1153.5999999996275","","3","1","null","null","arrowup","[0.85,0.15,0.325,0.675]","","",""
"sailing-trial","285","1886305","0.0-11.0-234.0","","","","false","","","","","","","","","","809.5999999996275","","661.4000000003725","","3","1","arrowright","1","arrowright","[0.85,0.15,0.325,0.675]","","",""
"sailing-trial","286","1889853","0.0-11.0-235.0","","","","false","","","","","","","","","","null","","1477.7999999988824","","1","1","null","null","arrowup","[0.85,0.15,0.325,0.675]","","",""
"sailing-trial","287","1893851","0.0-11.0-236.0","","","","false","","","","","","","","","","973.8000000007451","","430.90000000037253","","2","0","arrowright","1","arrowleft","[0.85,0.15,0.325,0.675]","","",""
"sailing-trial","288","1897115","0.0-11.0-237.0","","","","false","","","","","","","","","","null","","1244","","2","1","null","null","arrowup","[0.85,0.15,0.325,0.675]","","",""
"sailing-trial","289","1903825","0.0-11.0-238.0","","","","false","","","","","","","","","","1337.699999999255","","1878.7999999988824","","2","1","arrowright","1","arrowleft","[0.85,0.15,0.325,0.675]","","",""
"sailing-trial","290","1908836","0.0-11.0-239.0","","","","false","","","","","","","","","","null","","2796","","0","1","null","null","arrowup","[0.85,0.15,0.325,0.675]","","",""
"sailing-trial","291","1915697","0.0-11.0-240.0","","","","false","","","","","","","","","","2202.7999999988824","","1706.7999999988824","","2","1","arrowright","1","arrowleft","[0.85,0.15,0.325,0.675]","","",""
"sailing-trial","292","1921809","0.0-11.0-241.0","","","","false","","","","","","","","","","null","","4174","","3","1","null","null","arrowup","[0.85,0.15,0.325,0.675]","","",""
"sailing-trial","293","1926011","0.0-11.0-242.0","","","","false","","","","","","","","","","1272.2999999988824","","297.90000000037253","","2","0","arrowright","1","arrowleft","[0.85,0.15,0.325,0.675]","","",""
"sailing-trial","294","1928651","0.0-11.0-243.0","","","","false","","","","","","","","","","null","","1273.699999999255","","3","0","null","null","arrowup","[0.85,0.15,0.325,0.675]","","",""
"sailing-trial","295","1932324","0.0-11.0-244.0","","","","false","","","","","","","","","","529.5999999996275","","526.4000000003725","","2","0","arrowright","1","arrowleft","[0.85,0.15,0.325,0.675]","","",""
"sailing-trial","296","1934886","0.0-11.0-245.0","","","","false","","","","","","","","","","null","","560.5999999996275","","1","0","null","null","arrowup","[0.85,0.15,0.325,0.675]","","",""
"sailing-trial","297","1938964","0.0-11.0-246.0","","","","false","","","","","","","","","","1051.1000000014901","","639.9000000003725","","2","0","arrowright","1","arrowleft","[0.675,0.325,0.15,0.85]","","",""
"sailing-trial","298","1943758","0.0-11.0-247.0","","","","false","","","","","","","","","","null","","2578","","2","1","null","null","arrowup","[0.675,0.325,0.15,0.85]","","",""
"sailing-trial","299","1950198","0.0-11.0-248.0","","","","false","","","","","","","","","","2645.4000000003725","","812.2999999988824","","1","0","arrowleft","0","arrowright","[0.675,0.325,0.15,0.85]","","",""
"sailing-trial","300","1953774","0.0-11.0-249.0","","","","false","","","","","","","","","","null","","1779.5","","0","0","null","null","arrowup","[0.675,0.325,0.15,0.85]","","",""
"sailing-trial","301","1963777","0.0-11.0-250.0","","","","false","","","","","","","","","","3679.7999999988824","","2261.39999999851","","1","0","arrowleft","0","arrowright","[0.675,0.325,0.15,0.85]","","",""
"sailing-trial","302","1968206","0.0-11.0-251.0","","","","false","","","","","","","","","","null","","1421.5999999996275","","3","0","null","null","arrowup","[0.675,0.325,0.15,0.85]","","",""
"sailing-trial","303","1974908","0.0-11.0-252.0","","","","false","","","","","","","","","","3003.4000000003725","","1025.5999999996275","","2","0","arrowright","1","arrowleft","[0.675,0.325,0.15,0.85]","","",""
"sailing-trial","304","1980560","0.0-11.0-253.0","","","","false","","","","","","","","","","null","","4206.299999998882","","1","0","null","null","arrowup","[0.675,0.325,0.15,0.85]","","",""
"sailing-trial","305","1985884","0.0-11.0-254.0","","","","false","","","","","","","","","","852.9000000003725","","1603","","2","0","arrowright","1","arrowleft","[0.675,0.325,0.15,0.85]","","",""
"sailing-trial","306","1990827","0.0-11.0-255.0","","","","false","","","","","","","","","","null","","3558.2000000011176","","2","0","null","null","arrowup","[0.675,0.325,0.15,0.85]","","",""
"sailing-trial","307","1995938","0.0-11.0-256.0","","","","false","","","","","","","","","","1582.9000000003725","","822.5","","2","0","arrowright","1","arrowleft","[0.675,0.325,0.15,0.85]","","",""
"sailing-trial","308","2000163","0.0-11.0-257.0","","","","false","","","","","","","","","","null","","1215.699999999255","","0","0","null","null","arrowup","[0.675,0.325,0.15,0.85]","","",""
"sailing-trial","309","2003862","0.0-11.0-258.0","","","","false","","","","","","","","","","1103","","156.60000000149012","","2","0","arrowright","1","arrowleft","[0.675,0.325,0.15,0.85]","","",""
"sailing-trial","310","2009420","0.0-11.0-259.0","","","","false","","","","","","","","","","null","","3554.0999999996275","","3","1","null","null","arrowup","[0.675,0.325,0.15,0.85]","","",""
"sailing-trial","311","2016449","0.0-11.0-260.0","","","","false","","","","","","","","","","2057.5","","1798.4000000003725","","0","1","arrowleft","0","arrowleft","[0.675,0.325,0.15,0.85]","","",""
"sailing-trial","312","2020247","0.0-11.0-261.0","","","","false","","","","","","","","","","null","","2157.300000000745","","0","0","null","null","arrowup","[0.675,0.325,0.15,0.85]","","",""
"sailing-trial","313","2028022","0.0-11.0-262.0","","","","false","","","","","","","","","","4503","","587.5","","1","0","arrowleft","0","arrowright","[0.675,0.325,0.15,0.85]","","",""
"sailing-trial","314","2033001","0.0-11.0-263.0","","","","false","","","","","","","","","","null","","3360.0999999996275","","1","0","null","null","arrowup","[0.675,0.325,0.15,0.85]","","",""
"sailing-trial","315","2040227","0.0-11.0-264.0","","","","false","","","","","","","","","","3396.9000000003725","","818.5999999996275","","2","0","arrowright","1","arrowleft","[0.675,0.325,0.15,0.85]","","",""
"sailing-trial","316","2044300","0.0-11.0-265.0","","","","false","","","","","","","","","","null","","2097.5","","1","0","null","null","arrowup","[0.675,0.325,0.15,0.85]","","",""
"sailing-trial","317","2049157","0.0-11.0-266.0","","","","false","","","","","","","","","","1125.5999999996275","","930.0999999996275","","0","1","arrowleft","0","arrowleft","[0.675,0.325,0.15,0.85]","","",""
"sailing-trial","318","2054834","0.0-11.0-267.0","","","","false","","","","","","","","","","null","","3503.5","","0","1","null","null","arrowup","[0.675,0.325,0.15,0.85]","","",""
"sailing-trial","319","2061096","0.0-11.0-268.0","","","","false","","","","","","","","","","2896.9000000003725","","59.40000000037253","","2","1","arrowright","1","arrowleft","[0.85,0.15,0.325,0.675]","","",""
"sailing-trial","320","2064545","0.0-11.0-269.0","","","","false","","","","","","","","","","null","","1673.5","","1","0","null","null","arrowup","[0.85,0.15,0.325,0.675]","","",""
"sailing-trial","321","2071020","0.0-11.0-270.0","","","","false","","","","","","","","","","1583.300000000745","","1475.7000000011176","","2","1","arrowright","1","arrowleft","[0.85,0.15,0.325,0.675]","","",""
"sailing-trial","322","2075183","0.0-11.0-271.0","","","","false","","","","","","","","","","null","","2109.699999999255","","3","1","null","null","arrowup","[0.85,0.15,0.325,0.675]","","",""
"sailing-trial","323","2079915","0.0-11.0-272.0","","","","false","","","","","","","","","","1188.0999999996275","","547.2000000011176","","2","1","arrowright","1","arrowleft","[0.85,0.15,0.325,0.675]","","",""
"sailing-trial","324","2083904","0.0-11.0-273.0","","","","false","","","","","","","","","","null","","2408.4000000003725","","0","0","null","null","arrowup","[0.85,0.15,0.325,0.675]","","",""
"sailing-trial","325","2090224","0.0-11.0-274.0","","","","false","","","","","","","","","","2612","","471.80000000074506","","2","1","arrowright","1","arrowleft","[0.85,0.15,0.325,0.675]","","",""
"sailing-trial","326","2094983","0.0-11.0-275.0","","","","false","","","","","","","","","","null","","2910","","0","1","null","null","arrowup","[0.85,0.15,0.325,0.675]","","",""
"sailing-trial","327","2099863","0.0-11.0-276.0","","","","false","","","","","","","","","","1190.300000000745","","602.8000000007451","","3","1","arrowright","1","arrowright","[0.85,0.15,0.325,0.675]","","",""
"sailing-trial","328","2104742","0.0-11.0-277.0","","","","false","","","","","","","","","","null","","2862.89999999851","","2","1","null","null","arrowup","[0.85,0.15,0.325,0.675]","","",""
"sailing-trial","329","2108090","0.0-11.0-278.0","","","","false","","","","","","","","","","675.8000000007451","","120","","2","0","arrowright","1","arrowleft","[0.85,0.15,0.325,0.675]","","",""
"sailing-trial","330","2111836","0.0-11.0-279.0","","","","false","","","","","","","","","","null","","1775.5999999996275","","3","1","null","null","arrowup","[0.85,0.15,0.325,0.675]","","",""
"sailing-trial","331","2116899","0.0-11.0-280.0","","","","false","","","","","","","","","","1434.300000000745","","347.80000000074506","","3","1","arrowright","1","arrowright","[0.85,0.15,0.325,0.675]","","",""
"sailing-trial","332","2121113","0.0-11.0-281.0","","","","false","","","","","","","","","","null","","2447.2000000011176","","3","1","null","null","arrowup","[0.85,0.15,0.325,0.675]","","",""
"sailing-trial","333","2127350","0.0-11.0-282.0","","","","false","","","","","","","","","","2731.800000000745","","804.7000000011176","","2","0","arrowright","1","arrowleft","[0.85,0.15,0.325,0.675]","","",""
"sailing-trial","334","2130821","0.0-11.0-283.0","","","","false","","","","","","","","","","null","","1610.4000000003725","","0","1","null","null","arrowup","[0.85,0.15,0.325,0.675]","","",""
"sailing-trial","335","2135766","0.0-11.0-284.0","","","","false","","","","","","","","","","773.5","","1072.5","","0","1","arrowleft","0","arrowleft","[0.675,0.325,0.15,0.85]","","",""
"sailing-trial","336","2140564","0.0-11.0-285.0","","","","false","","","","","","","","","","null","","2707.5","","3","1","null","null","arrowup","[0.675,0.325,0.15,0.85]","","",""
"sailing-trial","337","2148689","0.0-11.0-286.0","","","","false","","","","","","","","","","3108.199999999255","","1940.699999999255","","1","1","arrowleft","0","arrowright","[0.675,0.325,0.15,0.85]","","",""
"sailing-trial","338","2154404","0.0-11.0-287.0","","","","false","","","","","","","","","","null","","4223.0999999996275","","0","0","null","null","arrowup","[0.675,0.325,0.15,0.85]","","",""
"sailing-trial","339","2159313","0.0-11.0-288.0","","","","false","","","","","","","","","","1981.4000000003725","","369.5","","2","0","arrowright","1","arrowleft","[0.675,0.325,0.15,0.85]","","",""
"sailing-trial","340","2162812","0.0-11.0-289.0","","","","false","","","","","","","","","","null","","1903.0999999996275","","0","1","null","null","arrowup","[0.675,0.325,0.15,0.85]","","",""
"sailing-trial","341","2166332","0.0-11.0-290.0","","","","false","","","","","","","","","","460.19999999925494","","752.2999999988824","","0","0","arrowleft","0","arrowleft","[0.675,0.325,0.15,0.85]","","",""
"sailing-trial","342","2170738","0.0-11.0-291.0","","","","false","","","","","","","","","","null","","2243.5999999996275","","3","1","null","null","arrowup","[0.675,0.325,0.15,0.85]","","",""
"sailing-trial","343","2175220","0.0-11.0-292.0","","","","false","","","","","","","","","","1146","","173.19999999925494","","3","1","arrowright","1","arrowright","[0.675,0.325,0.15,0.85]","","",""
"sailing-trial","344","2177986","0.0-11.0-293.0","","","","false","","","","","","","","","","null","","1392.9000000003725","","1","0","null","null","arrowup","[0.675,0.325,0.15,0.85]","","",""
"sailing-trial","345","2182629","0.0-11.0-294.0","","","","false","","","","","","","","","","888.8000000007451","","913.4000000003725","","3","1","arrowright","1","arrowright","[0.675,0.325,0.15,0.85]","","",""
"sailing-trial","346","2185825","0.0-11.0-295.0","","","","false","","","","","","","","","","null","","1421.7999999988824","","0","1","null","null","arrowup","[0.675,0.325,0.15,0.85]","","",""
"sailing-trial","347","2190594","0.0-11.0-296.0","","","","false","","","","","","","","","","1522.0999999996275","","616.9000000003725","","3","0","arrowright","1","arrowright","[0.675,0.325,0.15,0.85]","","",""
"sailing-trial","348","2193407","0.0-11.0-297.0","","","","false","","","","","","","","","","null","","1498","","2","0","null","null","arrowup","[0.675,0.325,0.15,0.85]","","",""
"sailing-trial","349","2197983","0.0-11.0-298.0","","","","false","","","","","","","","","","655.9000000003725","","620.4000000003725","","0","1","arrowleft","0","arrowleft","[0.675,0.325,0.15,0.85]","","",""
"sailing-trial","350","2199506","0.0-11.0-299.0","","","","false","","","","","","","","","","null","","476.90000000037253","","2","0","null","null","arrowup","[0.675,0.325,0.15,0.85]","","",""
"sailing-trial","351","2204096","0.0-11.0-300.0","","","","false","","","","","","","","","","593.5","","170.19999999925494","","0","1","arrowleft","0","arrowleft","[0.675,0.325,0.15,0.85]","","",""
"sailing-trial","352","2207692","0.0-11.0-301.0","","","","false","","","","","","","","","","null","","1146.9000000003725","","3","1","null","null","arrowup","[0.675,0.325,0.15,0.85]","","",""
"sailing-trial","353","2211659","0.0-11.0-302.0","","","","false","","","","","","","","","","400.19999999925494","","49.59999999962747","","0","0","arrowleft","0","arrowleft","[0.675,0.325,0.15,0.85]","","",""
"sailing-trial","354","2215301","0.0-11.0-303.0","","","","false","","","","","","","","","","null","","1316.7999999988824","","0","1","null","null","arrowup","[0.675,0.325,0.15,0.85]","","",""
"sailing-trial","355","2220620","0.0-11.0-304.0","","","","false","","","","","","","","","","2102","","629.4000000003725","","2","0","arrowright","1","arrowleft","[0.85,0.15,0.325,0.675]","","",""
"sailing-trial","356","2225844","0.0-11.0-305.0","","","","false","","","","","","","","","","null","","2199.5999999996275","","0","0","null","null","arrowup","[0.85,0.15,0.325,0.675]","","",""
"sailing-trial","357","2234706","0.0-11.0-306.0","","","","false","","","","","","","","","","3161","","3165","","2","0","arrowright","1","arrowleft","[0.85,0.15,0.325,0.675]","","",""
"sailing-trial","358","2237888","0.0-11.0-307.0","","","","false","","","","","","","","","","null","","1943.0999999996275","","1","0","null","null","arrowup","[0.85,0.15,0.325,0.675]","","",""
"sailing-trial","359","2243944","0.0-11.0-308.0","","","","false","","","","","","","","","","1519.699999999255","","1404.4000000003725","","2","1","arrowright","1","arrowleft","[0.85,0.15,0.325,0.675]","","",""
"sailing-trial","360","2249056","0.0-11.0-309.0","","","","false","","","","","","","","","","null","","3751.5999999996275","","2","0","null","null","arrowup","[0.85,0.15,0.325,0.675]","","",""
"sailing-trial","361","2253139","0.0-11.0-310.0","","","","false","","","","","","","","","","1188.2000000011176","","81","","0","1","arrowleft","0","arrowleft","[0.85,0.15,0.325,0.675]","","",""
"sailing-trial","362","2258485","0.0-11.0-311.0","","","","false","","","","","","","","","","null","","2329.60000000149","","1","0","null","null","arrowup","[0.85,0.15,0.325,0.675]","","",""
"sailing-trial","363","2263765","0.0-11.0-312.0","","","","false","","","","","","","","","","1510.0999999996275","","1197.3999999985099","","3","0","arrowright","1","arrowright","[0.85,0.15,0.325,0.675]","","",""
"sailing-trial","364","2267825","0.0-11.0-313.0","","","","false","","","","","","","","","","null","","1902.9000000003725","","3","1","null","null","arrowup","[0.85,0.15,0.325,0.675]","","",""
"sailing-trial","365","2273657","0.0-11.0-314.0","","","","false","","","","","","","","","","1881.7000000011176","","921.5","","0","1","arrowleft","0","arrowleft","[0.85,0.15,0.325,0.675]","","",""
"sailing-trial","366","2278801","0.0-11.0-315.0","","","","false","","","","","","","","","","null","","2120.5999999996275","","1","0","null","null","arrowup","[0.85,0.15,0.325,0.675]","","",""
"sailing-trial","367","2285854","0.0-11.0-316.0","","","","false","","","","","","","","","","3705.199999999255","","1143.8999999985099","","2","0","arrowright","1","arrowleft","[0.85,0.15,0.325,0.675]","","",""
"sailing-trial","368","2292755","0.0-11.0-317.0","","","","false","","","","","","","","","","null","","4435.0999999996275","","0","1","null","null","arrowup","[0.85,0.15,0.325,0.675]","","",""
"sailing-trial","369","2298235","0.0-11.0-318.0","","","","false","","","","","","","","","","362","","1071.199999999255","","1","0","arrowleft","0","arrowright","[0.85,0.15,0.325,0.675]","","",""
"sailing-trial","370","2305626","0.0-11.0-319.0","","","","false","","","","","","","","","","null","","5291.0999999996275","","1","0","null","null","arrowup","[0.85,0.15,0.325,0.675]","","",""
"sailing-trial","371","2314936","0.0-11.0-320.0","","","","false","","","","","","","","","","3635.7000000011176","","2245.0999999996275","","0","1","arrowleft","0","arrowleft","[0.85,0.15,0.325,0.675]","","",""
"sailing-trial","372","2317566","0.0-11.0-321.0","","","","false","","","","","","","","","","null","","1250.5","","1","0","null","null","arrowup","[0.85,0.15,0.325,0.675]","","",""
"sailing-trial","373","2323009","0.0-11.0-322.0","","","","false","","","","","","","","","","857.5","","1796.7000000011176","","2","0","arrowright","1","arrowleft","[0.85,0.15,0.325,0.675]","","",""
"sailing-trial","374","2326410","0.0-11.0-323.0","","","","false","","","","","","","","","","null","","1216.5999999996275","","0","1","null","null","arrowup","[0.85,0.15,0.325,0.675]","","",""
"sailing-trial","375","2334536","0.0-11.0-324.0","","","","false","","","","","","","","","","1247.5999999996275","","3432.199999999255","","0","1","arrowleft","0","arrowleft","[0.85,0.15,0.325,0.675]","","",""
"sailing-trial","376","2337833","0.0-11.0-325.0","","","","false","","","","","","","","","","null","","1338","","1","1","null","null","arrowup","[0.85,0.15,0.325,0.675]","","",""
"sailing-trial","377","2341628","0.0-11.0-326.0","","","","false","","","","","","","","","","137.59999999962747","","778.8999999985099","","0","0","arrowleft","0","arrowleft","[0.85,0.15,0.325,0.675]","","",""
"sailing-trial","378","2349725","0.0-11.0-327.0","","","","false","","","","","","","","","","null","","5966.699999999255","","3","1","null","null","arrowup","[0.85,0.15,0.325,0.675]","","",""
"sailing-trial","379","2358583","0.0-11.0-328.0","","","","false","","","","","","","","","","2005.199999999255","","2889.300000000745","","0","1","arrowleft","0","arrowleft","[0.675,0.325,0.15,0.85]","","",""
"sailing-trial","380","2361315","0.0-11.0-329.0","","","","false","","","","","","","","","","null","","1150.0999999996275","","3","1","null","null","arrowup","[0.675,0.325,0.15,0.85]","","",""
"sailing-trial","381","2364615","0.0-11.0-330.0","","","","false","","","","","","","","","","375","","295.30000000074506","","2","0","arrowright","1","arrowleft","[0.675,0.325,0.15,0.85]","","",""
"sailing-trial","382","2367307","0.0-11.0-331.0","","","","false","","","","","","","","","","null","","1062.699999999255","","2","0","null","null","arrowup","[0.675,0.325,0.15,0.85]","","",""
"sailing-trial","383","2371489","0.0-11.0-332.0","","","","false","","","","","","","","","","824.5","","768.5","","0","1","arrowleft","0","arrowleft","[0.675,0.325,0.15,0.85]","","",""
"sailing-trial","384","2373890","0.0-11.0-333.0","","","","false","","","","","","","","","","null","","1073.800000000745","","1","0","null","null","arrowup","[0.675,0.325,0.15,0.85]","","",""
"sailing-trial","385","2379053","0.0-11.0-334.0","","","","false","","","","","","","","","","1641.5","","750.9000000003725","","0","1","arrowleft","0","arrowleft","[0.675,0.325,0.15,0.85]","","",""
"sailing-trial","386","2382031","0.0-11.0-335.0","","","","false","","","","","","","","","","null","","1607","","3","0","null","null","arrowup","[0.675,0.325,0.15,0.85]","","",""
"sailing-trial","387","2386835","0.0-11.0-336.0","","","","false","","","","","","","","","","943.6999999992549","","1603.199999999255","","0","0","arrowleft","0","arrowleft","[0.675,0.325,0.15,0.85]","","",""
"sailing-trial","388","2391025","0.0-11.0-337.0","","","","false","","","","","","","","","","null","","1164.4000000003725","","0","0","null","null","arrowup","[0.675,0.325,0.15,0.85]","","",""
"sailing-trial","389","2394922","0.0-11.0-338.0","","","","false","","","","","","","","","","776.8000000007451","","631.7000000011176","","3","0","arrowright","1","arrowright","[0.675,0.325,0.15,0.85]","","",""
"sailing-trial","390","2399306","0.0-11.0-339.0","","","","false","","","","","","","","","","null","","2227","","2","0","null","null","arrowup","[0.675,0.325,0.15,0.85]","","",""
"sailing-trial","391","2406549","0.0-11.0-340.0","","","","false","","","","","","","","","","2983.4000000003725","","1710.7000000011176","","0","0","arrowleft","0","arrowleft","[0.675,0.325,0.15,0.85]","","",""
"sailing-trial","392","2421556","0.0-11.0-341.0","","","","true","","","","","","","","","","null","","null","","null","null","null","null","null","[0.675,0.325,0.15,0.85]","","",""
"sailing-trial","393","2428443","0.0-11.0-342.0","","","","false","","","","","","","","","","2225.4000000003725","","1177.3999999985099","","2","1","arrowright","1","arrowleft","[0.675,0.325,0.15,0.85]","","",""
"sailing-trial","394","2435182","0.0-11.0-343.0","","","","false","","","","","","","","","","null","","3856.2000000011176","","2","0","null","null","arrowup","[0.675,0.325,0.15,0.85]","","",""
"sailing-trial","395","2440383","0.0-11.0-344.0","","","","false","","","","","","","","","","1098.4000000003725","","786.3000000007451","","0","1","arrowleft","0","arrowleft","[0.675,0.325,0.15,0.85]","","",""
"sailing-trial","396","2445556","0.0-11.0-345.0","","","","false","","","","","","","","","","null","","3378","","3","0","null","null","arrowup","[0.675,0.325,0.15,0.85]","","",""
"sailing-trial","397","2452159","0.0-11.0-346.0","","","","false","","","","","","","","","","1846.5","","705.5999999996275","","2","0","arrowright","1","arrowleft","[0.85,0.15,0.325,0.675]","","",""
"sailing-trial","398","2457406","0.0-11.0-347.0","","","","false","","","","","","","","","","null","","2232.300000000745","","1","0","null","null","arrowup","[0.85,0.15,0.325,0.675]","","",""
"sailing-trial","399","2465814","0.0-11.0-348.0","","","","false","","","","","","","","","","2888","","1480.0999999996275","","2","0","arrowright","1","arrowleft","[0.85,0.15,0.325,0.675]","","",""
"sailing-trial","400","2469341","0.0-11.0-349.0","","","","false","","","","","","","","","","null","","1566.800000000745","","1","0","null","null","arrowup","[0.85,0.15,0.325,0.675]","","",""
"sailing-trial","401","2477904","0.0-11.0-350.0","","","","false","","","","","","","","","","2174.4000000003725","","2364.800000000745","","2","0","arrowright","1","arrowleft","[0.85,0.15,0.325,0.675]","","",""
"sailing-trial","402","2481848","0.0-11.0-351.0","","","","false","","","","","","","","","","null","","1345.5999999996275","","2","1","null","null","arrowup","[0.85,0.15,0.325,0.675]","","",""
"sailing-trial","403","2489359","0.0-11.0-352.0","","","","false","","","","","","","","","","3361.7999999988824","","756.7000000011176","","2","1","arrowright","1","arrowleft","[0.85,0.15,0.325,0.675]","","",""
"sailing-trial","404","2495439","0.0-11.0-353.0","","","","false","","","","","","","","","","null","","3051.7000000011176","","3","0","null","null","arrowup","[0.85,0.15,0.325,0.675]","","",""
"sailing-trial","405","2506431","0.0-11.0-354.0","","","","false","","","","","","","","","","4807.5999999996275","","2147.4000000003725","","2","0","arrowright","1","arrowleft","[0.85,0.15,0.325,0.675]","","",""
"sailing-trial","406","2511849","0.0-11.0-355.0","","","","false","","","","","","","","","","null","","2795.0999999996275","","1","0","null","null","arrowup","[0.85,0.15,0.325,0.675]","","",""
"sailing-trial","407","2519570","0.0-11.0-356.0","","","","false","","","","","","","","","","2904","","1577.2999999988824","","2","0","arrowright","1","arrowleft","[0.85,0.15,0.325,0.675]","","",""
"sailing-trial","408","2523313","0.0-11.0-357.0","","","","false","","","","","","","","","","null","","1319.800000000745","","0","1","null","null","arrowup","[0.85,0.15,0.325,0.675]","","",""
"sailing-trial","409","2529542","0.0-11.0-358.0","","","","false","","","","","","","","","","1679","","1437.4000000003725","","0","1","arrowleft","0","arrowleft","[0.85,0.15,0.325,0.675]","","",""
"sailing-trial","410","2533873","0.0-11.0-359.0","","","","false","","","","","","","","","","null","","1990.9000000003725","","0","1","null","null","arrowup","[0.85,0.15,0.325,0.675]","","",""
"sailing-trial","411","2540650","0.0-11.0-360.0","","","","false","","","","","","","","","","2679.4000000003725","","624.7000000011176","","0","1","arrowleft","0","arrowleft","[0.85,0.15,0.325,0.675]","","",""
"sailing-trial","412","2543847","0.0-11.0-361.0","","","","false","","","","","","","","","","null","","1347.0999999996275","","2","1","null","null","arrowup","[0.85,0.15,0.325,0.675]","","",""
"sailing-trial","413","2548927","0.0-11.0-362.0","","","","false","","","","","","","","","","589.9000000003725","","1583.7999999988824","","2","1","arrowright","1","arrowleft","[0.85,0.15,0.325,0.675]","","",""
"sailing-trial","414","2553042","0.0-11.0-363.0","","","","false","","","","","","","","","","null","","1810.699999999255","","0","1","null","null","arrowup","[0.85,0.15,0.325,0.675]","","",""
"sailing-trial","415","2557954","0.0-11.0-364.0","","","","false","","","","","","","","","","1108.9000000003725","","554.9000000003725","","0","1","arrowleft","0","arrowleft","[0.85,0.15,0.325,0.675]","","",""
"sailing-trial","416","2561343","0.0-11.0-365.0","","","","false","","","","","","","","","","null","","1586","","2","0","null","null","arrowup","[0.85,0.15,0.325,0.675]","","",""
"sailing-trial","417","2565041","0.0-11.0-366.0","","","","false","","","","","","","","","","1130.699999999255","","414.7000000011176","","2","0","arrowright","1","arrowleft","[0.675,0.325,0.15,0.85]","","",""
"sailing-trial","418","2568047","0.0-11.0-367.0","","","","false","","","","","","","","","","null","","1171","","3","1","null","null","arrowup","[0.675,0.325,0.15,0.85]","","",""
"sailing-trial","419","2572193","0.0-11.0-368.0","","","","false","","","","","","","","","","1144.199999999255","","78.40000000037253","","0","1","arrowleft","0","arrowleft","[0.675,0.325,0.15,0.85]","","",""
"sailing-trial","420","2574716","0.0-11.0-369.0","","","","false","","","","","","","","","","null","","795.9000000003725","","3","0","null","null","arrowup","[0.675,0.325,0.15,0.85]","","",""
"sailing-trial","421","2580085","0.0-11.0-370.0","","","","false","","","","","","","","","","879.2999999988824","","969.2999999988824","","0","1","arrowleft","0","arrowleft","[0.675,0.325,0.15,0.85]","","",""
"sailing-trial","422","2583132","0.0-11.0-371.0","","","","false","","","","","","","","","","null","","963.7999999988824","","3","1","null","null","arrowup","[0.675,0.325,0.15,0.85]","","",""
"sailing-trial","423","2586582","0.0-11.0-372.0","","","","false","","","","","","","","","","597.8999999985099","","405.19999999925494","","0","0","arrowleft","0","arrowleft","[0.675,0.325,0.15,0.85]","","",""
"sailing-trial","424","2590061","0.0-11.0-373.0","","","","false","","","","","","","","","","null","","1019.6999999992549","","2","1","null","null","arrowup","[0.675,0.325,0.15,0.85]","","",""
"sailing-trial","425","2596007","0.0-11.0-374.0","","","","false","","","","","","","","","","1058.0999999996275","","1782.5","","3","1","arrowright","1","arrowright","[0.675,0.325,0.15,0.85]","","",""
"sailing-trial","426","2598752","0.0-11.0-375.0","","","","false","","","","","","","","","","null","","854.8999999985099","","3","1","null","null","arrowup","[0.675,0.325,0.15,0.85]","","",""
"sailing-trial","427","2602615","0.0-11.0-376.0","","","","false","","","","","","","","","","723.8000000007451","","772.7999999988824","","2","0","arrowright","1","arrowleft","[0.675,0.325,0.15,0.85]","","",""
"sailing-trial","428","2606713","0.0-11.0-377.0","","","","false","","","","","","","","","","null","","1663.300000000745","","1","1","null","null","arrowup","[0.675,0.325,0.15,0.85]","","",""
"sailing-trial","429","2610429","0.0-11.0-378.0","","","","false","","","","","","","","","","472.90000000037253","","907","","2","0","arrowright","1","arrowleft","[0.675,0.325,0.15,0.85]","","",""
"sailing-trial","430","2613326","0.0-11.0-379.0","","","","false","","","","","","","","","","null","","1500.0999999996275","","2","0","null","null","arrowup","[0.675,0.325,0.15,0.85]","","",""
"sailing-trial","431","2617770","0.0-11.0-380.0","","","","false","","","","","","","","","","633.9000000003725","","963.7000000011176","","0","1","arrowleft","0","arrowleft","[0.675,0.325,0.15,0.85]","","",""
"sailing-trial","432","2620657","0.0-11.0-381.0","","","","false","","","","","","","","","","null","","1502.7999999988824","","1","0","null","null","arrowup","[0.675,0.325,0.15,0.85]","","",""
"sailing-trial","433","2624181","0.0-11.0-382.0","","","","false","","","","","","","","","","598.5","","62.5","","0","1","arrowleft","0","arrowleft","[0.85,0.15,0.325,0.675]","","",""
"sailing-trial","434","2628944","0.0-11.0-383.0","","","","false","","","","","","","","","","null","","2816.60000000149","","0","1","null","null","arrowup","[0.85,0.15,0.325,0.675]","","",""
"sailing-trial","435","2636039","0.0-11.0-384.0","","","","false","","","","","","","","","","484","","756.5","","0","1","arrowleft","0","arrowleft","[0.85,0.15,0.325,0.675]","","",""
"sailing-trial","436","2640304","0.0-11.0-385.0","","","","false","","","","","","","","","","null","","1430.5","","0","1","null","null","arrowup","[0.85,0.15,0.325,0.675]","","",""
"sailing-trial","437","2645564","0.0-11.0-386.0","","","","false","","","","","","","","","","1664.800000000745","","573.1999999992549","","0","1","arrowleft","0","arrowleft","[0.85,0.15,0.325,0.675]","","",""
"sailing-trial","438","2648876","0.0-11.0-387.0","","","","false","","","","","","","","","","null","","1788.6000000014901","","2","0","null","null","arrowup","[0.85,0.15,0.325,0.675]","","",""
"sailing-trial","439","2653542","0.0-11.0-388.0","","","","false","","","","","","","","","","1125.9000000003725","","675.1999999992549","","0","1","arrowleft","0","arrowleft","[0.85,0.15,0.325,0.675]","","",""
"sailing-trial","440","2656954","0.0-11.0-389.0","","","","false","","","","","","","","","","null","","1383.9000000003725","","3","1","null","null","arrowup","[0.85,0.15,0.325,0.675]","","",""
"sailing-trial","441","2661651","0.0-11.0-390.0","","","","false","","","","","","","","","","1196.5","","606.1999999992549","","0","1","arrowleft","0","arrowleft","[0.85,0.15,0.325,0.675]","","",""
"sailing-trial","442","2665115","0.0-11.0-391.0","","","","false","","","","","","","","","","null","","1116.699999999255","","0","1","null","null","arrowup","[0.85,0.15,0.325,0.675]","","",""
"sailing-trial","443","2669178","0.0-11.0-392.0","","","","false","","","","","","","","","","1041.4000000003725","","112.20000000111759","","0","1","arrowleft","0","arrowleft","[0.85,0.15,0.325,0.675]","","",""
"sailing-trial","444","2672961","0.0-11.0-393.0","","","","false","","","","","","","","","","null","","1884","","0","1","null","null","arrowup","[0.85,0.15,0.325,0.675]","","",""
"sailing-trial","445","2677707","0.0-11.0-394.0","","","","false","","","","","","","","","","997.6999999992549","","1173.699999999255","","0","0","arrowleft","0","arrowleft","[0.85,0.15,0.325,0.675]","","",""
"sailing-trial","446","2681068","0.0-11.0-395.0","","","","false","","","","","","","","","","null","","1725.7000000011176","","1","1","null","null","arrowup","[0.85,0.15,0.325,0.675]","","",""
"sailing-trial","447","2685381","0.0-11.0-396.0","","","","false","","","","","","","","","","1284.4000000003725","","542","","2","0","arrowright","1","arrowleft","[0.85,0.15,0.325,0.675]","","",""
"sailing-trial","448","2688879","0.0-11.0-397.0","","","","false","","","","","","","","","","null","","1172.199999999255","","0","1","null","null","arrowup","[0.85,0.15,0.325,0.675]","","",""
"sailing-trial","449","2692577","0.0-11.0-398.0","","","","false","","","","","","","","","","610.0999999996275","","187.2999999988824","","3","1","arrowright","1","arrowright","[0.85,0.15,0.325,0.675]","","",""
"sailing-trial","450","2695990","0.0-11.0-399.0","","","","false","","","","","","","","","","null","","1604","","1","1","null","null","arrowup","[0.85,0.15,0.325,0.675]","","",""
"instructions","451","2710458","0.0-12.0","","","","","","","","","","14467.099999999627","","","","","","","","","","","","","","","","[{""page_index"":0,""viewing_time"":14465.199999999255}]"
"survey-debrief","452","2913697","0.0-13.0","","","","","","","","","","203230.90000000037","","","","","","","","","","","","","","{""difficulty"":""3"",""fun"":""2"",""clarity"":""5"",""strategy"":""Yes I wrote a few things down"",""feedback"":""The game was  a little fast and a little fun.""}","",""
