"trial_type","trial_index","time_elapsed","internal_node_id","value","metadata","success","timeout","failed_images","failed_audio","failed_video","browser_interaction","low_quality","rt","stimulus","response","button_pressed","island_rt","island_response","boat_rt","boat_response","boat","reward","island_key","island","boat_key","reward_probabilities","responses","num_errors","view_history"
"pavlovia","0","24","0.0-0.0","","","","","","","","","","","","","","","","","","","","","","","","","",""
"call-function","1","25","0.0-1.0","","{""task_version"":""sailing_part1_v1"",""task_condition"":""good"",""boats"":[""A"",""D"",""C"",""B""],""boats_demo"":[""E"",""F"",""H"",""G""],""islands"":[""B"",""A""],""subject_id"":""15468"",""age"":""17"",""gender"":""Female""}","","","","","","","","","","","","","","","","","","","","","","","",""
"preload","2","8026","0.0-2.0","","","true","false","[]","[]","[]","","","","","","","","","","","","","","","","","","",""
"fullscreen","3","13405","0.0-3.0","","","true","","","","","[{""event"":""focus"",""trial"":0,""time"":1},{""event"":""fullscreenenter"",""trial"":4,""time"":14124}]","false","","","","","","","","","","","","","","","","",""
"audio-keyboard-response","4","16566","0.0-4.0-0.0","","","","","","","","","","2344","audio/beep_loop.wav"," ","","","","","","","","","","","","","",""
"audio-test","5","18804","0.0-4.0-1.0","","","","","","","","","","null","audio/turtle.mp3","","3","","","","","","","","","","","","",""
"audio-test","6","21576","0.0-4.0-2.0","","","","","","","","","","null","audio/shark.mp3","","2","","","","","","","","","","","","",""
"sailing-instructions","7","57115","0.0-5.0-0.0-0.0","","","","","","","","","","","","","","null","null","null","null","null","null","","","","","","",""
"sailing-trial","8","65492","0.0-5.0-0.0-1.0-0.0","","","","false","","","","","","","","","","7222","","null","","null","null","arrowleft","0","null","null","","",""
"sailing-trial","9","67695","0.0-5.0-0.0-1.0-1.0","","","","false","","","","","","","","","","1035","","null","","null","null","arrowright","1","null","null","","",""
"sailing-trial","10","70248","0.0-5.0-0.0-1.0-2.0","","","","false","","","","","","","","","","1409","","null","","null","null","arrowright","1","null","null","","",""
"sailing-instructions","11","116143","0.0-5.0-0.0-2.0","","","","","","","","","","","","","","null","null","null","null","0","null","","","","","","",""
"sailing-trial","12","123102","0.0-5.0-0.0-3.0-0.0","","","","false","","","","","","","","","","null","","3308","","2","1","null","null","arrowleft","[1,1,1,1]","","",""
"sailing-trial","13","126950","0.0-5.0-0.0-3.0-1.0","","","","false","","","","","","","","","","null","","942","","3","1","null","null","arrowright","[1,1,1,1]","","",""
"sailing-trial","14","131321","0.0-5.0-0.0-3.0-2.0","","","","false","","","","","","","","","","null","","1336","","2","0","null","null","arrowleft","[0,0,0,0]","","",""
"sailing-instructions","15","139016","0.0-5.0-0.0-4.0","","","","","","","","","","","","","","null","null","null","null","null","null","","","","","","",""
"sailing-comprehension","16","154349","0.0-5.0-0.0-5.0","","","","","","","","","","13208","","","","","","","","","","","","","","[""true"",""true"",""false"",""true""]","0",""
"sailing-instructions","17","227415","0.0-6.0-0.0-0.0","","","","","","","","","","","","","","null","null","null","null","null","null","","","","","","",""
"sailing-comprehension","18","241470","0.0-6.0-0.0-1.0","","","","","","","","","","12074","","","","","","","","","","","","","","[""true"",""false"",""true""]","0",""
"sailing-instructions","19","259154","0.0-7.0-0.0-0.0","","","","","","","","","","","","","","null","null","null","null","null","null","","","","","","",""
"sailing-trial","20","265251","0.0-7.0-0.0-1.0-0.0","","","","false","","","","","","","","","","null","","3062","","0","0","null","null","arrowup","[0.2,0.8,0.2,0.8]","","",""
"sailing-trial","21","269062","0.0-7.0-0.0-1.0-1.0","","","","false","","","","","","","","","","null","","1253","","1","0","null","null","arrowup","[0.2,0.8,0.2,0.8]","","",""
"sailing-trial","22","271927","0.0-7.0-0.0-1.0-2.0","","","","false","","","","","","","","","","null","","960","","2","0","null","null","arrowup","[0.2,0.8,0.2,0.8]","","",""
"sailing-trial","23","275018","0.0-7.0-0.0-1.0-3.0","","","","false","","","","","","","","","","null","","718","","3","1","null","null","arrowup","[0.2,0.8,0.2,0.8]","","",""
"sailing-comprehension","24","286350","0.0-7.0-0.0-2.0","","","","","","","","","","7503","","","","","","","","","","","","","","[""false""]","0",""
"sailing-instructions","25","297827","0.0-8.0-0.0-0.0","","","","","","","","","","","","","","null","null","null","null","null","null","","","","","","",""
"sailing-comprehension","26","308737","0.0-8.0-0.0-1.0","","","","","","","","","","3958","","","","","","","","","","","","","","[""true""]","0",""
"sailing-instructions","27","339583","0.0-9.0-0.0-0.0","","","","","","","","","","","","","","null","null","null","null","null","null","","","","","","",""
"sailing-trial","28","346110","0.0-9.0-0.0-1.0-0.0","","","","false","","","","","","","","","","1852","","769","","2","0","arrowright","1","arrowleft","[0.2,0.8,0.2,0.8]","","",""
"sailing-trial","29","350310","0.0-9.0-0.0-1.0-1.0","","","","false","","","","","","","","","","1105","","40","","3","1","arrowright","1","arrowright","[0.2,0.8,0.2,0.8]","","",""
"sailing-trial","30","353933","0.0-9.0-0.0-1.0-2.0","","","","false","","","","","","","","","","null","","1340","","0","0","null","null","arrowup","[0.2,0.8,0.2,0.8]","","",""
"sailing-trial","31","358392","0.0-9.0-0.0-1.0-3.0","","","","false","","","","","","","","","","948","","189","","1","1","arrowleft","0","arrowright","[0.2,0.8,0.2,0.8]","","",""
"sailing-trial","32","362567","0.0-9.0-0.0-1.0-4.0","","","","false","","","","","","","","","","null","","1378","","3","0","null","null","arrowup","[0.2,0.8,0.2,0.8]","","",""
"sailing-trial","33","366603","0.0-9.0-0.0-1.0-5.0","","","","false","","","","","","","","","","786","","66","","3","0","arrowright","1","arrowright","[0.2,0.8,0.2,0.8]","","",""
"sailing-instructions","34","393154","0.0-10.0","","","","","","","","","","","","","","null","null","null","null","null","null","","","","","","",""
"sailing-trial","35","398812","0.0-11.0-0.0","","","","false","","","","","","","","","","1466","","439","","1","0","arrowleft","0","arrowright","[0.15,0.85,0.675,0.325]","","",""
"sailing-trial","36","403461","0.0-11.0-1.0","","","","false","","","","","","","","","","null","","1547","","3","0","null","null","arrowup","[0.15,0.85,0.675,0.325]","","",""
"sailing-trial","37","408235","0.0-11.0-2.0","","","","false","","","","","","","","","","649","","67","","0","0","arrowleft","0","arrowleft","[0.15,0.85,0.675,0.325]","","",""
"sailing-trial","38","412522","0.0-11.0-3.0","","","","false","","","","","","","","","","null","","1235","","0","0","null","null","arrowup","[0.15,0.85,0.675,0.325]","","",""
"sailing-trial","39","417812","0.0-11.0-4.0","","","","false","","","","","","","","","","1078","","142","","3","0","arrowright","1","arrowright","[0.15,0.85,0.675,0.325]","","",""
"sailing-trial","40","421727","0.0-11.0-5.0","","","","false","","","","","","","","","","null","","884","","3","0","null","null","arrowup","[0.15,0.85,0.675,0.325]","","",""
"sailing-trial","41","426635","0.0-11.0-6.0","","","","false","","","","","","","","","","556","","181","","2","0","arrowright","1","arrowleft","[0.15,0.85,0.675,0.325]","","",""
"sailing-trial","42","430883","0.0-11.0-7.0","","","","false","","","","","","","","","","null","","1225","","0","0","null","null","arrowup","[0.15,0.85,0.675,0.325]","","",""
"sailing-trial","43","435864","0.0-11.0-8.0","","","","false","","","","","","","","","","570","","355","","2","0","arrowright","1","arrowleft","[0.15,0.85,0.675,0.325]","","",""
"sailing-trial","44","439117","0.0-11.0-9.0","","","","false","","","","","","","","","","null","","1105","","1","1","null","null","arrowup","[0.15,0.85,0.675,0.325]","","",""
"sailing-trial","45","443868","0.0-11.0-10.0","","","","false","","","","","","","","","","1031","","714","","3","1","arrowright","1","arrowright","[0.15,0.85,0.675,0.325]","","",""
"sailing-trial","46","447996","0.0-11.0-11.0","","","","false","","","","","","","","","","null","","1078","","2","0","null","null","arrowup","[0.15,0.85,0.675,0.325]","","",""
"sailing-trial","47","452028","0.0-11.0-12.0","","","","false","","","","","","","","","","553","","104","","0","1","arrowleft","0","arrowleft","[0.15,0.85,0.675,0.325]","","",""
"sailing-trial","48","456553","0.0-11.0-13.0","","","","false","","","","","","","","","","null","","1482","","3","0","null","null","arrowup","[0.15,0.85,0.675,0.325]","","",""
"sailing-trial","49","461287","0.0-11.0-14.0","","","","false","","","","","","","","","","659","","23","","0","0","arrowleft","0","arrowleft","[0.15,0.85,0.675,0.325]","","",""
"sailing-trial","50","465326","0.0-11.0-15.0","","","","false","","","","","","","","","","null","","969","","0","0","null","null","arrowup","[0.15,0.85,0.675,0.325]","","",""
"sailing-trial","51","470772","0.0-11.0-16.0","","","","false","","","","","","","","","","534","","819","","0","0","arrowleft","0","arrowleft","[0.15,0.85,0.675,0.325]","","",""
"sailing-trial","52","473957","0.0-11.0-17.0","","","","false","","","","","","","","","","null","","1138","","2","1","null","null","arrowup","[0.15,0.85,0.675,0.325]","","",""
"sailing-trial","53","479260","0.0-11.0-18.0","","","","false","","","","","","","","","","1506","","533","","3","1","arrowright","1","arrowright","[0.15,0.85,0.675,0.325]","","",""
"sailing-trial","54","482784","0.0-11.0-19.0","","","","false","","","","","","","","","","null","","1603","","1","1","null","null","arrowup","[0.15,0.85,0.675,0.325]","","",""
"sailing-trial","55","487684","0.0-11.0-20.0","","","","false","","","","","","","","","","625","","67","","2","0","arrowright","1","arrowleft","[0.85,0.15,0.325,0.675]","","",""
"sailing-trial","56","491715","0.0-11.0-21.0","","","","false","","","","","","","","","","null","","740","","1","0","null","null","arrowup","[0.85,0.15,0.325,0.675]","","",""
"sailing-trial","57","496742","0.0-11.0-22.0","","","","false","","","","","","","","","","862","","66","","2","0","arrowright","1","arrowleft","[0.85,0.15,0.325,0.675]","","",""
"sailing-trial","58","501008","0.0-11.0-23.0","","","","false","","","","","","","","","","null","","1172","","1","0","null","null","arrowup","[0.85,0.15,0.325,0.675]","","",""
"sailing-trial","59","506170","0.0-11.0-24.0","","","","false","","","","","","","","","","763","","301","","1","0","arrowleft","0","arrowright","[0.85,0.15,0.325,0.675]","","",""
"sailing-trial","60","509375","0.0-11.0-25.0","","","","false","","","","","","","","","","null","","1074","","2","1","null","null","arrowup","[0.85,0.15,0.325,0.675]","","",""
"sailing-trial","61","513665","0.0-11.0-26.0","","","","false","","","","","","","","","","876","","181","","0","1","arrowleft","0","arrowleft","[0.85,0.15,0.325,0.675]","","",""
"sailing-trial","62","517320","0.0-11.0-27.0","","","","false","","","","","","","","","","null","","1503","","0","1","null","null","arrowup","[0.85,0.15,0.325,0.675]","","",""
"sailing-trial","63","523708","0.0-11.0-28.0","","","","false","","","","","","","","","","2213","","108","","2","0","arrowright","1","arrowleft","[0.85,0.15,0.325,0.675]","","",""
"sailing-trial","64","526492","0.0-11.0-29.0","","","","false","","","","","","","","","","null","","769","","3","1","null","null","arrowup","[0.85,0.15,0.325,0.675]","","",""
"sailing-trial","65","530130","0.0-11.0-30.0","","","","false","","","","","","","","","","657","","52","","2","1","arrowright","1","arrowleft","[0.85,0.15,0.325,0.675]","","",""
"sailing-trial","66","534064","0.0-11.0-31.0","","","","false","","","","","","","","","","null","","843","","1","0","null","null","arrowup","[0.85,0.15,0.325,0.675]","","",""
"sailing-trial","67","539036","0.0-11.0-32.0","","","","false","","","","","","","","","","618","","297","","3","0","arrowright","1","arrowright","[0.85,0.15,0.325,0.675]","","",""
"sailing-trial","68","542952","0.0-11.0-33.0","","","","false","","","","","","","","","","null","","880","","1","0","null","null","arrowup","[0.85,0.15,0.325,0.675]","","",""
"sailing-trial","69","546555","0.0-11.0-34.0","","","","false","","","","","","","","","","549","","30","","3","1","arrowright","1","arrowright","[0.85,0.15,0.325,0.675]","","",""
"sailing-trial","70","550770","0.0-11.0-35.0","","","","false","","","","","","","","","","null","","1147","","1","0","null","null","arrowup","[0.85,0.15,0.325,0.675]","","",""
"sailing-trial","71","555782","0.0-11.0-36.0","","","","false","","","","","","","","","","622","","349","","1","0","arrowleft","0","arrowright","[0.85,0.15,0.325,0.675]","","",""
"sailing-trial","72","559467","0.0-11.0-37.0","","","","false","","","","","","","","","","null","","647","","1","0","null","null","arrowup","[0.85,0.15,0.325,0.675]","","",""
"sailing-trial","73","564919","0.0-11.0-38.0","","","","false","","","","","","","","","","724","","495","","0","0","arrowleft","0","arrowleft","[0.675,0.325,0.15,0.85]","","",""
"sailing-trial","74","567748","0.0-11.0-39.0","","","","false","","","","","","","","","","null","","794","","0","1","null","null","arrowup","[0.675,0.325,0.15,0.85]","","",""
"sailing-trial","75","571710","0.0-11.0-40.0","","","","false","","","","","","","","","","905","","69","","0","1","arrowleft","0","arrowleft","[0.675,0.325,0.15,0.85]","","",""
"sailing-trial","76","575392","0.0-11.0-41.0","","","","false","","","","","","","","","","null","","631","","2","0","null","null","arrowup","[0.675,0.325,0.15,0.85]","","",""
"sailing-trial","77","580349","0.0-11.0-42.0","","","","false","","","","","","","","","","709","","188","","1","0","arrowleft","0","arrowright","[0.675,0.325,0.15,0.85]","","",""
"sailing-trial","78","584501","0.0-11.0-43.0","","","","false","","","","","","","","","","null","","1072","","1","0","null","null","arrowup","[0.675,0.325,0.15,0.85]","","",""
"sailing-trial","79","590251","0.0-11.0-44.0","","","","false","","","","","","","","","","1104","","1323","","3","1","arrowright","1","arrowright","[0.675,0.325,0.15,0.85]","","",""
"sailing-trial","80","593388","0.0-11.0-45.0","","","","false","","","","","","","","","","null","","1059","","3","1","null","null","arrowup","[0.675,0.325,0.15,0.85]","","",""
"sailing-trial","81","600161","0.0-11.0-46.0","","","","false","","","","","","","","","","2470","","1062","","3","1","arrowright","1","arrowright","[0.675,0.325,0.15,0.85]","","",""
"sailing-trial","82","604235","0.0-11.0-47.0","","","","false","","","","","","","","","","null","","1035","","1","0","null","null","arrowup","[0.675,0.325,0.15,0.85]","","",""
"sailing-trial","83","609839","0.0-11.0-48.0","","","","false","","","","","","","","","","891","","624","","0","0","arrowleft","0","arrowleft","[0.675,0.325,0.15,0.85]","","",""
"sailing-trial","84","612402","0.0-11.0-49.0","","","","false","","","","","","","","","","null","","639","","0","1","null","null","arrowup","[0.675,0.325,0.15,0.85]","","",""
"sailing-trial","85","618536","0.0-11.0-50.0","","","","false","","","","","","","","","","1134","","936","","3","0","arrowright","1","arrowright","[0.675,0.325,0.15,0.85]","","",""
"sailing-trial","86","621398","0.0-11.0-51.0","","","","false","","","","","","","","","","null","","692","","0","1","null","null","arrowup","[0.675,0.325,0.15,0.85]","","",""
"sailing-trial","87","627167","0.0-11.0-52.0","","","","false","","","","","","","","","","1276","","390","","2","0","arrowright","1","arrowleft","[0.675,0.325,0.15,0.85]","","",""
"sailing-trial","88","630163","0.0-11.0-53.0","","","","false","","","","","","","","","","null","","813","","3","1","null","null","arrowup","[0.675,0.325,0.15,0.85]","","",""
"sailing-trial","89","636001","0.0-11.0-54.0","","","","false","","","","","","","","","","1117","","434","","1","0","arrowleft","0","arrowright","[0.675,0.325,0.15,0.85]","","",""
"sailing-trial","90","638862","0.0-11.0-55.0","","","","false","","","","","","","","","","null","","809","","3","1","null","null","arrowup","[0.675,0.325,0.15,0.85]","","",""
"sailing-trial","91","644784","0.0-11.0-56.0","","","","false","","","","","","","","","","1434","","414","","0","0","arrowleft","0","arrowleft","[0.675,0.325,0.15,0.85]","","",""
"sailing-trial","92","648203","0.0-11.0-57.0","","","","false","","","","","","","","","","null","","1304","","1","1","null","null","arrowup","[0.675,0.325,0.15,0.85]","","",""
"sailing-trial","93","653052","0.0-11.0-58.0","","","","false","","","","","","","","","","1081","","823","","3","1","arrowright","1","arrowright","[0.675,0.325,0.15,0.85]","","",""
"sailing-trial","94","656448","0.0-11.0-59.0","","","","false","","","","","","","","","","null","","1431","","3","1","null","null","arrowup","[0.675,0.325,0.15,0.85]","","",""
"sailing-trial","95","660728","0.0-11.0-60.0","","","","false","","","","","","","","","","867","","315","","1","1","arrowleft","0","arrowright","[0.675,0.325,0.15,0.85]","","",""
"sailing-trial","96","663437","0.0-11.0-61.0","","","","false","","","","","","","","","","null","","728","","1","1","null","null","arrowup","[0.675,0.325,0.15,0.85]","","",""
"sailing-trial","97","668772","0.0-11.0-62.0","","","","false","","","","","","","","","","1171","","77","","1","0","arrowleft","0","arrowright","[0.85,0.15,0.325,0.675]","","",""
"sailing-trial","98","671642","0.0-11.0-63.0","","","","false","","","","","","","","","","null","","944","","3","1","null","null","arrowup","[0.85,0.15,0.325,0.675]","","",""
"sailing-trial","99","675906","0.0-11.0-64.0","","","","false","","","","","","","","","","1152","","39","","2","1","arrowright","1","arrowleft","[0.85,0.15,0.325,0.675]","","",""
"sailing-trial","100","679618","0.0-11.0-65.0","","","","false","","","","","","","","","","null","","655","","1","0","null","null","arrowup","[0.85,0.15,0.325,0.675]","","",""
"sailing-trial","101","684552","0.0-11.0-66.0","","","","false","","","","","","","","","","853","","1087","","3","1","arrowright","1","arrowright","[0.85,0.15,0.325,0.675]","","",""
"sailing-trial","102","687366","0.0-11.0-67.0","","","","false","","","","","","","","","","null","","782","","0","1","null","null","arrowup","[0.85,0.15,0.325,0.675]","","",""
"sailing-trial","103","692926","0.0-11.0-68.0","","","","false","","","","","","","","","","1150","","345","","1","0","arrowleft","0","arrowright","[0.85,0.15,0.325,0.675]","","",""
"sailing-trial","104","696664","0.0-11.0-69.0","","","","false","","","","","","","","","","null","","685","","1","0","null","null","arrowup","[0.85,0.15,0.325,0.675]","","",""
"sailing-trial","105","700606","0.0-11.0-70.0","","","","false","","","","","","","","","","518","","325","","0","1","arrowleft","0","arrowleft","[0.85,0.15,0.325,0.675]","","",""
"sailing-trial","106","703226","0.0-11.0-71.0","","","","false","","","","","","","","","","null","","677","","0","1","null","null","arrowup","[0.85,0.15,0.325,0.675]","","",""
"sailing-trial","107","707407","0.0-11.0-72.0","","","","false","","","","","","","","","","795","","263","","3","1","arrowright","1","arrowright","[0.85,0.15,0.325,0.675]","","",""
"sailing-trial","108","711798","0.0-11.0-73.0","","","","false","","","","","","","","","","null","","1332","","1","0","null","null","arrowup","[0.85,0.15,0.325,0.675]","","",""
"sailing-trial","109","716662","0.0-11.0-74.0","","","","false","","","","","","","","","","1280","","479","","3","1","arrowright","1","arrowright","[0.85,0.15,0.325,0.675]","","",""
"sailing-trial","110","721235","0.0-11.0-75.0","","","","false","","","","","","","","","","null","","1497","","2","0","null","null","arrowup","[0.85,0.15,0.325,0.675]","","",""
"sailing-trial","111","726538","0.0-11.0-76.0","","","","false","","","","","","","","","","917","","130","","0","0","arrowleft","0","arrowleft","[0.85,0.15,0.325,0.675]","","",""
"sailing-trial","112","729417","0.0-11.0-77.0","","","","false","","","","","","","","","","null","","982","","3","1","null","null","arrowup","[0.85,0.15,0.325,0.675]","","",""
"sailing-trial","113","735017","0.0-11.0-78.0","","","","false","","","","","","","","","","989","","362","","3","0","arrowright","1","arrowright","[0.15,0.85,0.675,0.325]","","",""
"sailing-trial","114","739054","0.0-11.0-79.0","","","","false","","","","","","","","","","null","","907","","0","0","null","null","arrowup","[0.15,0.85,0.675,0.325]","","",""
"sailing-trial","115","743487","0.0-11.0-80.0","","","","false","","","","","","","","","","736","","510","","2","1","arrowright","1","arrowleft","[0.15,0.85,0.675,0.325]","","",""
"sailing-trial","116","746578","0.0-11.0-81.0","","","","false","","","","","","","","","","null","","1125","","2","1","null","null","arrowup","[0.15,0.85,0.675,0.325]","","",""
"sailing-trial","117","754577","0.0-11.0-82.0","","","","false","","","","","","","","","","1270","","2637","","3","0","arrowright","1","arrowright","[0.15,0.85,0.675,0.325]","","",""
"sailing-trial","118","757680","0.0-11.0-83.0","","","","false","","","","","","","","","","null","","1096","","1","1","null","null","arrowup","[0.15,0.85,0.675,0.325]","","",""
"sailing-trial","119","762622","0.0-11.0-84.0","","","","false","","","","","","","","","","762","","123","","2","0","arrowright","1","arrowleft","[0.15,0.85,0.675,0.325]","","",""
"sailing-trial","120","765718","0.0-11.0-85.0","","","","false","","","","","","","","","","null","","910","","0","1","null","null","arrowup","[0.15,0.85,0.675,0.325]","","",""
"sailing-trial","121","770037","0.0-11.0-86.0","","","","false","","","","","","","","","","874","","291","","1","1","arrowleft","0","arrowright","[0.15,0.85,0.675,0.325]","","",""
"sailing-trial","122","774187","0.0-11.0-87.0","","","","false","","","","","","","","","","null","","1098","","2","0","null","null","arrowup","[0.15,0.85,0.675,0.325]","","",""
"sailing-trial","123","778612","0.0-11.0-88.0","","","","false","","","","","","","","","","857","","450","","0","1","arrowleft","0","arrowleft","[0.15,0.85,0.675,0.325]","","",""
"sailing-trial","124","782681","0.0-11.0-89.0","","","","false","","","","","","","","","","null","","1039","","0","0","null","null","arrowup","[0.15,0.85,0.675,0.325]","","",""
"sailing-trial","125","787727","0.0-11.0-90.0","","","","false","","","","","","","","","","893","","915","","3","1","arrowright","1","arrowright","[0.15,0.85,0.675,0.325]","","",""
"sailing-trial","126","790772","0.0-11.0-91.0","","","","false","","","","","","","","","","null","","985","","2","1","null","null","arrowup","[0.15,0.85,0.675,0.325]","","",""
"sailing-trial","127","795954","0.0-11.0-92.0","","","","false","","","","","","","","","","813","","303","","2","0","arrowright","1","arrowleft","[0.15,0.85,0.675,0.325]","","",""
"sailing-trial","128","799527","0.0-11.0-93.0","","","","false","","","","","","","","","","null","","1553","","1","1","null","null","arrowup","[0.15,0.85,0.675,0.325]","","",""
"sailing-trial","129","804400","0.0-11.0-94.0","","","","false","","","","","","","","","","687","","1125","","1","1","arrowleft","0","arrowright","[0.325,0.675,0.85,0.15]","","",""
"sailing-trial","130","807683","0.0-11.0-95.0","","","","false","","","","","","","","","","null","","1293","","2","1","null","null","arrowup","[0.325,0.675,0.85,0.15]","","",""
"sailing-trial","131","812788","0.0-11.0-96.0","","","","false","","","","","","","","","","667","","398","","0","0","arrowleft","0","arrowleft","[0.325,0.675,0.85,0.15]","","",""
"sailing-trial","132","816747","0.0-11.0-97.0","","","","false","","","","","","","","","","null","","1909","","3","1","null","null","arrowup","[0.325,0.675,0.85,0.15]","","",""
"sailing-trial","133","821937","0.0-11.0-98.0","","","","false","","","","","","","","","","1096","","1086","","1","1","arrowleft","0","arrowright","[0.325,0.675,0.85,0.15]","","",""
"sailing-trial","134","825889","0.0-11.0-99.0","","","","false","","","","","","","","","","null","","657","","3","0","null","null","arrowup","[0.325,0.675,0.85,0.15]","","",""
"sailing-trial","135","830052","0.0-11.0-100.0","","","","false","","","","","","","","","","795","","421","","2","1","arrowright","1","arrowleft","[0.325,0.675,0.85,0.15]","","",""
"sailing-trial","136","832885","0.0-11.0-101.0","","","","false","","","","","","","","","","null","","879","","1","1","null","null","arrowup","[0.325,0.675,0.85,0.15]","","",""
"sailing-trial","137","838772","0.0-11.0-102.0","","","","false","","","","","","","","","","708","","1062","","3","0","arrowright","1","arrowright","[0.325,0.675,0.85,0.15]","","",""
"sailing-trial","138","842914","0.0-11.0-103.0","","","","false","","","","","","","","","","null","","1095","","0","0","null","null","arrowup","[0.325,0.675,0.85,0.15]","","",""
"sailing-trial","139","847237","0.0-11.0-104.0","","","","false","","","","","","","","","","749","","523","","2","1","arrowright","1","arrowleft","[0.325,0.675,0.85,0.15]","","",""
"sailing-trial","140","851486","0.0-11.0-105.0","","","","false","","","","","","","","","","null","","1190","","3","0","null","null","arrowup","[0.325,0.675,0.85,0.15]","","",""
"sailing-trial","141","856926","0.0-11.0-106.0","","","","false","","","","","","","","","","768","","399","","3","0","arrowright","1","arrowright","[0.325,0.675,0.85,0.15]","","",""
"sailing-trial","142","861396","0.0-11.0-107.0","","","","false","","","","","","","","","","null","","1427","","3","0","null","null","arrowup","[0.325,0.675,0.85,0.15]","","",""
"sailing-trial","143","867565","0.0-11.0-108.0","","","","false","","","","","","","","","","1568","","533","","0","0","arrowleft","0","arrowleft","[0.325,0.675,0.85,0.15]","","",""
"sailing-trial","144","871623","0.0-11.0-109.0","","","","false","","","","","","","","","","null","","1015","","3","0","null","null","arrowup","[0.325,0.675,0.85,0.15]","","",""
"sailing-trial","145","877804","0.0-11.0-110.0","","","","false","","","","","","","","","","1065","","1025","","1","0","arrowleft","0","arrowright","[0.325,0.675,0.85,0.15]","","",""
"sailing-trial","146","882018","0.0-11.0-111.0","","","","false","","","","","","","","","","null","","1138","","3","0","null","null","arrowup","[0.325,0.675,0.85,0.15]","","",""
"sailing-trial","147","887273","0.0-11.0-112.0","","","","false","","","","","","","","","","796","","401","","0","0","arrowleft","0","arrowleft","[0.15,0.85,0.675,0.325]","","",""
"sailing-trial","148","892087","0.0-11.0-113.0","","","","false","","","","","","","","","","null","","1741","","1","0","null","null","arrowup","[0.15,0.85,0.675,0.325]","","",""
"sailing-trial","149","896836","0.0-11.0-114.0","","","","false","","","","","","","","","","777","","931","","3","1","arrowright","1","arrowright","[0.15,0.85,0.675,0.325]","","",""
"sailing-trial","150","900900","0.0-11.0-115.0","","","","false","","","","","","","","","","null","","1007","","2","0","null","null","arrowup","[0.15,0.85,0.675,0.325]","","",""
"sailing-trial","151","905988","0.0-11.0-116.0","","","","false","","","","","","","","","","708","","291","","2","0","arrowright","1","arrowleft","[0.15,0.85,0.675,0.325]","","",""
"sailing-trial","152","909157","0.0-11.0-117.0","","","","false","","","","","","","","","","null","","933","","2","1","null","null","arrowup","[0.15,0.85,0.675,0.325]","","",""
"sailing-trial","153","915197","0.0-11.0-118.0","","","","false","","","","","","","","","","781","","1168","","3","0","arrowright","1","arrowright","[0.15,0.85,0.675,0.325]","","",""
"sailing-trial","154","918050","0.0-11.0-119.0","","","","false","","","","","","","","","","null","","935","","2","1","null","null","arrowup","[0.15,0.85,0.675,0.325]","","",""
"sailing-trial","155","924221","0.0-11.0-120.0","","","","false","","","","","","","","","","736","","1376","","3","0","arrowright","1","arrowright","[0.15,0.85,0.675,0.325]","","",""
"sailing-trial","156","928628","0.0-11.0-121.0","","","","false","","","","","","","","","","null","","1357","","0","0","null","null","arrowup","[0.15,0.85,0.675,0.325]","","",""
"sailing-trial","157","933823","0.0-11.0-122.0","","","","false","","","","","","","","","","1130","","1119","","1","1","arrowleft","0","arrowright","[0.15,0.85,0.675,0.325]","","",""
"sailing-trial","158","936754","0.0-11.0-123.0","","","","false","","","","","","","","","","null","","936","","1","1","null","null","arrowup","[0.15,0.85,0.675,0.325]","","",""
"sailing-trial","159","940522","0.0-11.0-124.0","","","","false","","","","","","","","","","671","","113","","1","1","arrowleft","0","arrowright","[0.15,0.85,0.675,0.325]","","",""
"sailing-trial","160","944215","0.0-11.0-125.0","","","","false","","","","","","","","","","null","","658","","3","0","null","null","arrowup","[0.15,0.85,0.675,0.325]","","",""
"sailing-trial","161","948779","0.0-11.0-126.0","","","","false","","","","","","","","","","594","","1041","","1","1","arrowleft","0","arrowright","[0.15,0.85,0.675,0.325]","","",""
"sailing-trial","162","952847","0.0-11.0-127.0","","","","false","","","","","","","","","","null","","1023","","0","0","null","null","arrowup","[0.15,0.85,0.675,0.325]","","",""
"sailing-trial","163","956737","0.0-11.0-128.0","","","","false","","","","","","","","","","585","","208","","1","1","arrowleft","0","arrowright","[0.15,0.85,0.675,0.325]","","",""
"sailing-trial","164","959939","0.0-11.0-129.0","","","","false","","","","","","","","","","null","","1256","","1","1","null","null","arrowup","[0.15,0.85,0.675,0.325]","","",""
"sailing-trial","165","964907","0.0-11.0-130.0","","","","false","","","","","","","","","","1294","","515","","1","1","arrowleft","0","arrowright","[0.15,0.85,0.675,0.325]","","",""
"sailing-trial","166","969088","0.0-11.0-131.0","","","","false","","","","","","","","","","null","","1085","","0","0","null","null","arrowup","[0.15,0.85,0.675,0.325]","","",""
"sailing-trial","167","972885","0.0-11.0-132.0","","","","false","","","","","","","","","","616","","131","","1","1","arrowleft","0","arrowright","[0.15,0.85,0.675,0.325]","","",""
"sailing-trial","168","977128","0.0-11.0-133.0","","","","false","","","","","","","","","","null","","1191","","3","0","null","null","arrowup","[0.15,0.85,0.675,0.325]","","",""
"sailing-trial","169","981423","0.0-11.0-134.0","","","","false","","","","","","","","","","954","","309","","1","1","arrowleft","0","arrowright","[0.325,0.675,0.85,0.15]","","",""
"sailing-trial","170","984779","0.0-11.0-135.0","","","","false","","","","","","","","","","null","","1247","","2","1","null","null","arrowup","[0.325,0.675,0.85,0.15]","","",""
"sailing-trial","171","989038","0.0-11.0-136.0","","","","false","","","","","","","","","","734","","393","","1","1","arrowleft","0","arrowright","[0.325,0.675,0.85,0.15]","","",""
"sailing-trial","172","992110","0.0-11.0-137.0","","","","false","","","","","","","","","","null","","1141","","0","1","null","null","arrowup","[0.325,0.675,0.85,0.15]","","",""
"sailing-trial","173","997361","0.0-11.0-138.0","","","","false","","","","","","","","","","1068","","114","","1","0","arrowleft","0","arrowright","[0.325,0.675,0.85,0.15]","","",""
"sailing-trial","174","1001454","0.0-11.0-139.0","","","","false","","","","","","","","","","null","","1025","","3","0","null","null","arrowup","[0.325,0.675,0.85,0.15]","","",""
"sailing-trial","175","1005870","0.0-11.0-140.0","","","","false","","","","","","","","","","639","","622","","1","1","arrowleft","0","arrowright","[0.325,0.675,0.85,0.15]","","",""
"sailing-trial","176","1009851","0.0-11.0-141.0","","","","false","","","","","","","","","","null","","939","","0","0","null","null","arrowup","[0.325,0.675,0.85,0.15]","","",""
"sailing-trial","177","1015121","0.0-11.0-142.0","","","","false","","","","","","","","","","1270","","755","","2","1","arrowright","1","arrowleft","[0.325,0.675,0.85,0.15]","","",""
"sailing-trial","178","1019220","0.0-11.0-143.0","","","","false","","","","","","","","","","null","","1064","","0","0","null","null","arrowup","[0.325,0.675,0.85,0.15]","","",""
"sailing-trial","179","1022989","0.0-11.0-144.0","","","","false","","","","","","","","","","620","","54","","2","1","arrowright","1","arrowleft","[0.325,0.675,0.85,0.15]","","",""
"sailing-trial","180","1027543","0.0-11.0-145.0","","","","false","","","","","","","","","","null","","1510","","1","0","null","null","arrowup","[0.325,0.675,0.85,0.15]","","",""
"sailing-trial","181","1031588","0.0-11.0-146.0","","","","false","","","","","","","","","","529","","546","","2","1","arrowright","1","arrowleft","[0.325,0.675,0.85,0.15]","","",""
"sailing-trial","182","1035369","0.0-11.0-147.0","","","","false","","","","","","","","","","null","","751","","1","0","null","null","arrowup","[0.325,0.675,0.85,0.15]","","",""
"sailing-trial","183","1040166","0.0-11.0-148.0","","","","false","","","","","","","","","","763","","1098","","2","1","arrowright","1","arrowleft","[0.325,0.675,0.85,0.15]","","",""
"sailing-trial","184","1044319","0.0-11.0-149.0","","","","false","","","","","","","","","","null","","1079","","0","0","null","null","arrowup","[0.325,0.675,0.85,0.15]","","",""
"sailing-trial","185","1048915","0.0-11.0-150.0","","","","false","","","","","","","","","","690","","725","","2","1","arrowright","1","arrowleft","[0.15,0.85,0.675,0.325]","","",""
"sailing-trial","186","1053060","0.0-11.0-151.0","","","","false","","","","","","","","","","null","","1097","","3","0","null","null","arrowup","[0.15,0.85,0.675,0.325]","","",""
"sailing-trial","187","1057389","0.0-11.0-152.0","","","","false","","","","","","","","","","891","","251","","1","1","arrowleft","0","arrowright","[0.15,0.85,0.675,0.325]","","",""
"sailing-trial","188","1061499","0.0-11.0-153.0","","","","false","","","","","","","","","","null","","1056","","2","0","null","null","arrowup","[0.15,0.85,0.675,0.325]","","",""
"sailing-trial","189","1066476","0.0-11.0-154.0","","","","false","","","","","","","","","","726","","190","","2","0","arrowright","1","arrowleft","[0.15,0.85,0.675,0.325]","","",""
"sailing-trial","190","1069679","0.0-11.0-155.0","","","","false","","","","","","","","","","null","","924","","1","1","null","null","arrowup","[0.15,0.85,0.675,0.325]","","",""
"sailing-trial","191","1074950","0.0-11.0-156.0","","","","false","","","","","","","","","","746","","412","","1","0","arrowleft","0","arrowright","[0.15,0.85,0.675,0.325]","","",""
"sailing-trial","192","1078057","0.0-11.0-157.0","","","","false","","","","","","","","","","null","","1042","","2","1","null","null","arrowup","[0.15,0.85,0.675,0.325]","","",""
"sailing-trial","193","1086714","0.0-11.0-158.0","","","","false","","","","","","","","","","1441","","3119","","0","0","arrowleft","0","arrowleft","[0.15,0.85,0.675,0.325]","","",""
"sailing-trial","194","1089706","0.0-11.0-159.0","","","","false","","","","","","","","","","null","","892","","2","1","null","null","arrowup","[0.15,0.85,0.675,0.325]","","",""
"sailing-trial","195","1093786","0.0-11.0-160.0","","","","false","","","","","","","","","","751","","199","","1","1","arrowleft","0","arrowright","[0.15,0.85,0.675,0.325]","","",""
"sailing-trial","196","1096910","0.0-11.0-161.0","","","","false","","","","","","","","","","null","","995","","2","1","null","null","arrowup","[0.15,0.85,0.675,0.325]","","",""
"sailing-trial","197","1101946","0.0-11.0-162.0","","","","false","","","","","","","","","","726","","244","","2","0","arrowright","1","arrowleft","[0.15,0.85,0.675,0.325]","","",""
"sailing-trial","198","1106097","0.0-11.0-163.0","","","","false","","","","","","","","","","null","","1083","","2","0","null","null","arrowup","[0.15,0.85,0.675,0.325]","","",""
"sailing-trial","199","1111888","0.0-11.0-164.0","","","","false","","","","","","","","","","971","","783","","3","0","arrowright","1","arrowright","[0.15,0.85,0.675,0.325]","","",""
"sailing-trial","200","1115477","0.0-11.0-165.0","","","","false","","","","","","","","","","null","","547","","0","0","null","null","arrowup","[0.15,0.85,0.675,0.325]","","",""
"sailing-trial","201","1120988","0.0-11.0-166.0","","","","false","","","","","","","","","","990","","417","","2","0","arrowright","1","arrowleft","[0.15,0.85,0.675,0.325]","","",""
"sailing-trial","202","1125121","0.0-11.0-167.0","","","","false","","","","","","","","","","null","","1066","","0","0","null","null","arrowup","[0.15,0.85,0.675,0.325]","","",""
"sailing-trial","203","1130973","0.0-11.0-168.0","","","","false","","","","","","","","","","842","","928","","1","0","arrowleft","0","arrowright","[0.325,0.675,0.85,0.15]","","",""
"sailing-trial","204","1134771","0.0-11.0-169.0","","","","false","","","","","","","","","","null","","782","","3","0","null","null","arrowup","[0.325,0.675,0.85,0.15]","","",""
"sailing-trial","205","1139733","0.0-11.0-170.0","","","","false","","","","","","","","","","763","","144","","1","0","arrowleft","0","arrowright","[0.325,0.675,0.85,0.15]","","",""
"sailing-trial","206","1143103","0.0-11.0-171.0","","","","false","","","","","","","","","","null","","981","","2","1","null","null","arrowup","[0.325,0.675,0.85,0.15]","","",""
"sailing-trial","207","1148261","0.0-11.0-172.0","","","","false","","","","","","","","","","1030","","35","","0","0","arrowleft","0","arrowleft","[0.325,0.675,0.85,0.15]","","",""
"sailing-trial","208","1152525","0.0-11.0-173.0","","","","false","","","","","","","","","","null","","1221","","1","0","null","null","arrowup","[0.325,0.675,0.85,0.15]","","",""
"sailing-trial","209","1156463","0.0-11.0-174.0","","","","false","","","","","","","","","","842","","153","","2","1","arrowright","1","arrowleft","[0.325,0.675,0.85,0.15]","","",""
"sailing-trial","210","1160326","0.0-11.0-175.0","","","","false","","","","","","","","","","null","","819","","0","0","null","null","arrowup","[0.325,0.675,0.85,0.15]","","",""
"sailing-trial","211","1164453","0.0-11.0-176.0","","","","false","","","","","","","","","","975","","57","","2","1","arrowright","1","arrowleft","[0.325,0.675,0.85,0.15]","","",""
"sailing-trial","212","1168745","0.0-11.0-177.0","","","","false","","","","","","","","","","null","","1236","","3","0","null","null","arrowup","[0.325,0.675,0.85,0.15]","","",""
"sailing-trial","213","1173485","0.0-11.0-178.0","","","","false","","","","","","","","","","963","","827","","2","1","arrowright","1","arrowleft","[0.325,0.675,0.85,0.15]","","",""
"sailing-trial","214","1177535","0.0-11.0-179.0","","","","false","","","","","","","","","","null","","1018","","0","0","null","null","arrowup","[0.325,0.675,0.85,0.15]","","",""
"sailing-trial","215","1181582","0.0-11.0-180.0","","","","false","","","","","","","","","","787","","315","","2","1","arrowright","1","arrowleft","[0.325,0.675,0.85,0.15]","","",""
"sailing-trial","216","1184455","0.0-11.0-181.0","","","","false","","","","","","","","","","null","","954","","2","1","null","null","arrowup","[0.325,0.675,0.85,0.15]","","",""
"sailing-trial","217","1188672","0.0-11.0-182.0","","","","false","","","","","","","","","","831","","218","","2","1","arrowright","1","arrowleft","[0.325,0.675,0.85,0.15]","","",""
"sailing-trial","218","1192768","0.0-11.0-183.0","","","","false","","","","","","","","","","null","","1070","","3","0","null","null","arrowup","[0.325,0.675,0.85,0.15]","","",""
"sailing-trial","219","1197257","0.0-11.0-184.0","","","","false","","","","","","","","","","861","","404","","2","1","arrowright","1","arrowleft","[0.325,0.675,0.85,0.15]","","",""
"sailing-trial","220","1201271","0.0-11.0-185.0","","","","false","","","","","","","","","","null","","933","","0","0","null","null","arrowup","[0.325,0.675,0.85,0.15]","","",""
"sailing-trial","221","1206954","0.0-11.0-186.0","","","","false","","","","","","","","","","1371","","785","","2","1","arrowright","1","arrowleft","[0.85,0.15,0.325,0.675]","","",""
"sailing-trial","222","1210663","0.0-11.0-187.0","","","","false","","","","","","","","","","null","","1782","","3","1","null","null","arrowup","[0.85,0.15,0.325,0.675]","","",""
"sailing-trial","223","1216368","0.0-11.0-188.0","","","","false","","","","","","","","","","842","","776","","2","0","arrowright","1","arrowleft","[0.85,0.15,0.325,0.675]","","",""
"sailing-trial","224","1220253","0.0-11.0-189.0","","","","false","","","","","","","","","","null","","723","","3","0","null","null","arrowup","[0.85,0.15,0.325,0.675]","","",""
"sailing-trial","225","1224499","0.0-11.0-190.0","","","","false","","","","","","","","","","812","","493","","3","1","arrowright","1","arrowright","[0.85,0.15,0.325,0.675]","","",""
"sailing-trial","226","1228320","0.0-11.0-191.0","","","","false","","","","","","","","","","null","","778","","2","0","null","null","arrowup","[0.85,0.15,0.325,0.675]","","",""
"sailing-trial","227","1233529","0.0-11.0-192.0","","","","false","","","","","","","","","","1019","","125","","2","0","arrowright","1","arrowleft","[0.85,0.15,0.325,0.675]","","",""
"sailing-trial","228","1236060","0.0-11.0-193.0","","","","false","","","","","","","","","","null","","418","","0","1","null","null","arrowup","[0.85,0.15,0.325,0.675]","","",""
"sailing-trial","229","1240106","0.0-11.0-194.0","","","","false","","","","","","","","","","720","","251","","1","1","arrowleft","0","arrowright","[0.85,0.15,0.325,0.675]","","",""
"sailing-trial","230","1242897","0.0-11.0-195.0","","","","false","","","","","","","","","","null","","804","","0","1","null","null","arrowup","[0.85,0.15,0.325,0.675]","","",""
"sailing-trial","231","1248003","0.0-11.0-196.0","","","","false","","","","","","","","","","970","","61","","1","0","arrowleft","0","arrowright","[0.85,0.15,0.325,0.675]","","",""
"sailing-trial","232","1250649","0.0-11.0-197.0","","","","false","","","","","","","","","","null","","685","","0","1","null","null","arrowup","[0.85,0.15,0.325,0.675]","","",""
"sailing-trial","233","1254889","0.0-11.0-198.0","","","","false","","","","","","","","","","948","","328","","2","1","arrowright","1","arrowleft","[0.85,0.15,0.325,0.675]","","",""
"sailing-trial","234","1257984","0.0-11.0-199.0","","","","false","","","","","","","","","","null","","1035","","3","1","null","null","arrowup","[0.85,0.15,0.325,0.675]","","",""
"sailing-trial","235","1263386","0.0-11.0-200.0","","","","false","","","","","","","","","","1070","","269","","1","0","arrowleft","0","arrowright","[0.85,0.15,0.325,0.675]","","",""
"sailing-trial","236","1266322","0.0-11.0-201.0","","","","false","","","","","","","","","","null","","1030","","3","1","null","null","arrowup","[0.85,0.15,0.325,0.675]","","",""
"sailing-trial","237","1270622","0.0-11.0-202.0","","","","false","","","","","","","","","","705","","398","","0","1","arrowleft","0","arrowleft","[0.675,0.325,0.15,0.85]","","",""
"sailing-trial","238","1274643","0.0-11.0-203.0","","","","false","","","","","","","","","","null","","998","","3","0","null","null","arrowup","[0.675,0.325,0.15,0.85]","","",""
"sailing-trial","239","1280088","0.0-11.0-204.0","","","","false","","","","","","","","","","988","","406","","3","0","arrowright","1","arrowright","[0.675,0.325,0.15,0.85]","","",""
"sailing-trial","240","1282751","0.0-11.0-205.0","","","","false","","","","","","","","","","null","","784","","0","1","null","null","arrowup","[0.675,0.325,0.15,0.85]","","",""
"sailing-trial","241","1288300","0.0-11.0-206.0","","","","false","","","","","","","","","","643","","808","","0","0","arrowleft","0","arrowleft","[0.675,0.325,0.15,0.85]","","",""
"sailing-trial","242","1291528","0.0-11.0-207.0","","","","false","","","","","","","","","","null","","1318","","3","1","null","null","arrowup","[0.675,0.325,0.15,0.85]","","",""
"sailing-trial","243","1297826","0.0-11.0-208.0","","","","false","","","","","","","","","","1116","","869","","1","0","arrowleft","0","arrowright","[0.675,0.325,0.15,0.85]","","",""
"sailing-trial","244","1301991","0.0-11.0-209.0","","","","false","","","","","","","","","","null","","1119","","2","0","null","null","arrowup","[0.675,0.325,0.15,0.85]","","",""
"sailing-trial","245","1308029","0.0-11.0-210.0","","","","false","","","","","","","","","","936","","856","","0","0","arrowleft","0","arrowleft","[0.675,0.325,0.15,0.85]","","",""
"sailing-trial","246","1311297","0.0-11.0-211.0","","","","false","","","","","","","","","","null","","967","","1","1","null","null","arrowup","[0.675,0.325,0.15,0.85]","","",""
"sailing-trial","247","1316322","0.0-11.0-212.0","","","","false","","","","","","","","","","932","","16","","2","0","arrowright","1","arrowleft","[0.675,0.325,0.15,0.85]","","",""
"sailing-trial","248","1320831","0.0-11.0-213.0","","","","false","","","","","","","","","","null","","1450","","2","0","null","null","arrowup","[0.675,0.325,0.15,0.85]","","",""
"sailing-trial","249","1324447","0.0-11.0-214.0","","","","false","","","","","","","","","","521","","99","","3","1","arrowright","1","arrowright","[0.675,0.325,0.15,0.85]","","",""
"sailing-trial","250","1328421","0.0-11.0-215.0","","","","false","","","","","","","","","","null","","925","","2","0","null","null","arrowup","[0.675,0.325,0.15,0.85]","","",""
"sailing-trial","251","1333716","0.0-11.0-216.0","","","","false","","","","","","","","","","826","","1491","","3","1","arrowright","1","arrowright","[0.675,0.325,0.15,0.85]","","",""
"sailing-trial","252","1337133","0.0-11.0-217.0","","","","false","","","","","","","","","","null","","1545","","3","1","null","null","arrowup","[0.675,0.325,0.15,0.85]","","",""
"sailing-trial","253","1342591","0.0-11.0-218.0","","","","false","","","","","","","","","","743","","410","","3","0","arrowright","1","arrowright","[0.85,0.15,0.325,0.675]","","",""
"sailing-trial","254","1345700","0.0-11.0-219.0","","","","false","","","","","","","","","","null","","1175","","2","1","null","null","arrowup","[0.85,0.15,0.325,0.675]","","",""
"sailing-trial","255","1351466","0.0-11.0-220.0","","","","false","","","","","","","","","","839","","847","","1","0","arrowleft","0","arrowright","[0.85,0.15,0.325,0.675]","","",""
"sailing-trial","256","1355720","0.0-11.0-221.0","","","","false","","","","","","","","","","null","","1218","","2","0","null","null","arrowup","[0.85,0.15,0.325,0.675]","","",""
"sailing-trial","257","1361420","0.0-11.0-222.0","","","","false","","","","","","","","","","655","","788","","3","0","arrowright","1","arrowright","[0.85,0.15,0.325,0.675]","","",""
"sailing-trial","258","1365995","0.0-11.0-223.0","","","","false","","","","","","","","","","null","","1533","","2","0","null","null","arrowup","[0.85,0.15,0.325,0.675]","","",""
"sailing-trial","259","1371576","0.0-11.0-224.0","","","","false","","","","","","","","","","981","","324","","0","0","arrowleft","0","arrowleft","[0.85,0.15,0.325,0.675]","","",""
"sailing-trial","260","1373935","0.0-11.0-225.0","","","","false","","","","","","","","","","null","","136","","0","1","null","null","arrowup","[0.85,0.15,0.325,0.675]","","",""
"sailing-trial","261","1379672","0.0-11.0-226.0","","","","false","","","","","","","","","","971","","676","","3","0","arrowright","1","arrowright","[0.85,0.15,0.325,0.675]","","",""
"sailing-trial","262","1381685","0.0-11.0-227.0","","","","false","","","","","","","","","","null","","625","","1","0","null","null","arrowup","[0.85,0.15,0.325,0.675]","","",""
"sailing-trial","263","1386093","0.0-11.0-228.0","","","","false","","","","","","","","","","860","","104","","0","1","arrowleft","0","arrowleft","[0.85,0.15,0.325,0.675]","","",""
"sailing-trial","264","1390371","0.0-11.0-229.0","","","","false","","","","","","","","","","null","","1242","","1","0","null","null","arrowup","[0.85,0.15,0.325,0.675]","","",""
"sailing-trial","265","1395344","0.0-11.0-230.0","","","","false","","","","","","","","","","556","","369","","1","0","arrowleft","0","arrowright","[0.85,0.15,0.325,0.675]","","",""
"sailing-trial","266","1398556","0.0-11.0-231.0","","","","false","","","","","","","","","","null","","1358","","0","1","null","null","arrowup","[0.85,0.15,0.325,0.675]","","",""
"sailing-trial","267","1403771","0.0-11.0-232.0","","","","false","","","","","","","","","","785","","331","","3","0","arrowright","1","arrowright","[0.85,0.15,0.325,0.675]","","",""
"sailing-trial","268","1406777","0.0-11.0-233.0","","","","false","","","","","","","","","","null","","1022","","0","1","null","null","arrowup","[0.85,0.15,0.325,0.675]","","",""
"sailing-trial","269","1410677","0.0-11.0-234.0","","","","false","","","","","","","","","","723","","123","","3","1","arrowright","1","arrowright","[0.325,0.675,0.85,0.15]","","",""
"sailing-trial","270","1413272","0.0-11.0-235.0","","","","false","","","","","","","","","","null","","591","","3","1","null","null","arrowup","[0.325,0.675,0.85,0.15]","","",""
"sailing-trial","271","1418130","0.0-11.0-236.0","","","","false","","","","","","","","","","738","","37","","3","0","arrowright","1","arrowright","[0.325,0.675,0.85,0.15]","","",""
"sailing-trial","272","1421715","0.0-11.0-237.0","","","","false","","","","","","","","","","null","","544","","0","0","null","null","arrowup","[0.325,0.675,0.85,0.15]","","",""
"sailing-trial","273","1425667","0.0-11.0-238.0","","","","false","","","","","","","","","","665","","388","","1","1","arrowleft","0","arrowright","[0.325,0.675,0.85,0.15]","","",""
"sailing-trial","274","1429766","0.0-11.0-239.0","","","","false","","","","","","","","","","null","","1071","","1","0","null","null","arrowup","[0.325,0.675,0.85,0.15]","","",""
"sailing-trial","275","1435023","0.0-11.0-240.0","","","","false","","","","","","","","","","864","","301","","0","0","arrowleft","0","arrowleft","[0.325,0.675,0.85,0.15]","","",""
"sailing-trial","276","1438740","0.0-11.0-241.0","","","","false","","","","","","","","","","null","","673","","3","0","null","null","arrowup","[0.325,0.675,0.85,0.15]","","",""
"sailing-trial","277","1444801","0.0-11.0-242.0","","","","false","","","","","","","","","","675","","1317","","3","0","arrowright","1","arrowright","[0.325,0.675,0.85,0.15]","","",""
"sailing-trial","278","1447814","0.0-11.0-243.0","","","","false","","","","","","","","","","null","","1125","","2","1","null","null","arrowup","[0.325,0.675,0.85,0.15]","","",""
"sailing-trial","279","1453306","0.0-11.0-244.0","","","","false","","","","","","","","","","991","","460","","1","0","arrowleft","0","arrowright","[0.325,0.675,0.85,0.15]","","",""
"sailing-trial","280","1455524","0.0-11.0-245.0","","","","false","","","","","","","","","","null","","290","","3","1","null","null","arrowup","[0.325,0.675,0.85,0.15]","","",""
"sailing-trial","281","1460777","0.0-11.0-246.0","","","","false","","","","","","","","","","658","","516","","0","0","arrowleft","0","arrowleft","[0.325,0.675,0.85,0.15]","","",""
"sailing-trial","282","1463224","0.0-11.0-247.0","","","","false","","","","","","","","","","null","","442","","1","1","null","null","arrowup","[0.325,0.675,0.85,0.15]","","",""
"sailing-trial","283","1469244","0.0-11.0-248.0","","","","false","","","","","","","","","","764","","1181","","3","0","arrowright","1","arrowright","[0.325,0.675,0.85,0.15]","","",""
"sailing-trial","284","1472470","0.0-11.0-249.0","","","","false","","","","","","","","","","null","","999","","1","1","null","null","arrowup","[0.325,0.675,0.85,0.15]","","",""
"sailing-trial","285","1476149","0.0-11.0-250.0","","","","false","","","","","","","","","","510","","5","","2","1","arrowright","1","arrowleft","[0.325,0.675,0.85,0.15]","","",""
"sailing-trial","286","1481389","0.0-11.0-251.0","","","","false","","","","","","","","","","null","","2204","","1","0","null","null","arrowup","[0.325,0.675,0.85,0.15]","","",""
"sailing-trial","287","1486471","0.0-11.0-252.0","","","","false","","","","","","","","","","594","","405","","2","0","arrowright","1","arrowleft","[0.325,0.675,0.85,0.15]","","",""
"sailing-trial","288","1489993","0.0-11.0-253.0","","","","false","","","","","","","","","","null","","497","","2","0","null","null","arrowup","[0.325,0.675,0.85,0.15]","","",""
"sailing-trial","289","1494686","0.0-11.0-254.0","","","","false","","","","","","","","","","239","","389","","3","0","arrowright","1","arrowright","[0.325,0.675,0.85,0.15]","","",""
"sailing-trial","290","1498847","0.0-11.0-255.0","","","","false","","","","","","","","","","null","","1135","","0","0","null","null","arrowup","[0.325,0.675,0.85,0.15]","","",""
"sailing-trial","291","1503740","0.0-11.0-256.0","","","","false","","","","","","","","","","469","","343","","2","0","arrowright","1","arrowleft","[0.15,0.85,0.675,0.325]","","",""
"sailing-trial","292","1506573","0.0-11.0-257.0","","","","false","","","","","","","","","","null","","783","","2","1","null","null","arrowup","[0.15,0.85,0.675,0.325]","","",""
"sailing-trial","293","1511730","0.0-11.0-258.0","","","","false","","","","","","","","","","644","","462","","2","0","arrowright","1","arrowleft","[0.15,0.85,0.675,0.325]","","",""
"sailing-trial","294","1515671","0.0-11.0-259.0","","","","false","","","","","","","","","","null","","920","","2","0","null","null","arrowup","[0.15,0.85,0.675,0.325]","","",""
"sailing-trial","295","1521008","0.0-11.0-260.0","","","","false","","","","","","","","","","600","","696","","1","0","arrowleft","0","arrowright","[0.15,0.85,0.675,0.325]","","",""
"sailing-trial","296","1524950","0.0-11.0-261.0","","","","false","","","","","","","","","","null","","907","","0","0","null","null","arrowup","[0.15,0.85,0.675,0.325]","","",""
"sailing-trial","297","1529746","0.0-11.0-262.0","","","","false","","","","","","","","","","713","","25","","0","0","arrowleft","0","arrowleft","[0.15,0.85,0.675,0.325]","","",""
"sailing-trial","298","1533647","0.0-11.0-263.0","","","","false","","","","","","","","","","null","","1913","","2","1","null","null","arrowup","[0.15,0.85,0.675,0.325]","","",""
"sailing-trial","299","1538404","0.0-11.0-264.0","","","","false","","","","","","","","","","596","","25","","0","0","arrowleft","0","arrowleft","[0.15,0.85,0.675,0.325]","","",""
"sailing-trial","300","1542133","0.0-11.0-265.0","","","","false","","","","","","","","","","null","","1771","","1","1","null","null","arrowup","[0.15,0.85,0.675,0.325]","","",""
"sailing-trial","301","1545935","0.0-11.0-266.0","","","","false","","","","","","","","","","610","","271","","3","1","arrowright","1","arrowright","[0.15,0.85,0.675,0.325]","","",""
"sailing-trial","302","1549002","0.0-11.0-267.0","","","","false","","","","","","","","","","null","","1084","","3","1","null","null","arrowup","[0.15,0.85,0.675,0.325]","","",""
"sailing-trial","303","1554828","0.0-11.0-268.0","","","","false","","","","","","","","","","910","","840","","3","0","arrowright","1","arrowright","[0.15,0.85,0.675,0.325]","","",""
"sailing-trial","304","1557573","0.0-11.0-269.0","","","","false","","","","","","","","","","null","","853","","2","1","null","null","arrowup","[0.15,0.85,0.675,0.325]","","",""
"sailing-trial","305","1561374","0.0-11.0-270.0","","","","false","","","","","","","","","","707","","109","","1","1","arrowleft","0","arrowright","[0.15,0.85,0.675,0.325]","","",""
"sailing-trial","306","1564004","0.0-11.0-271.0","","","","false","","","","","","","","","","null","","689","","2","1","null","null","arrowup","[0.15,0.85,0.675,0.325]","","",""
"sailing-trial","307","1569088","0.0-11.0-272.0","","","","false","","","","","","","","","","794","","199","","1","0","arrowleft","0","arrowright","[0.325,0.675,0.85,0.15]","","",""
"sailing-trial","308","1572435","0.0-11.0-273.0","","","","false","","","","","","","","","","null","","1237","","1","1","null","null","arrowup","[0.325,0.675,0.85,0.15]","","",""
"sailing-trial","309","1577570","0.0-11.0-274.0","","","","false","","","","","","","","","","799","","269","","3","0","arrowright","1","arrowright","[0.325,0.675,0.85,0.15]","","",""
"sailing-trial","310","1580493","0.0-11.0-275.0","","","","false","","","","","","","","","","null","","1002","","1","1","null","null","arrowup","[0.325,0.675,0.85,0.15]","","",""
"sailing-trial","311","1586437","0.0-11.0-276.0","","","","false","","","","","","","","","","1561","","312","","0","0","arrowleft","0","arrowleft","[0.325,0.675,0.85,0.15]","","",""
"sailing-trial","312","1589474","0.0-11.0-277.0","","","","false","","","","","","","","","","null","","1217","","1","1","null","null","arrowup","[0.325,0.675,0.85,0.15]","","",""
"sailing-trial","313","1595574","0.0-11.0-278.0","","","","false","","","","","","","","","","1158","","653","","3","0","arrowright","1","arrowright","[0.325,0.675,0.85,0.15]","","",""
"sailing-trial","314","1599450","0.0-11.0-279.0","","","","false","","","","","","","","","","null","","819","","3","0","null","null","arrowup","[0.325,0.675,0.85,0.15]","","",""
"sailing-trial","315","1604644","0.0-11.0-280.0","","","","false","","","","","","","","","","775","","360","","1","0","arrowleft","0","arrowright","[0.325,0.675,0.85,0.15]","","",""
"sailing-trial","316","1608603","0.0-11.0-281.0","","","","false","","","","","","","","","","null","","912","","3","0","null","null","arrowup","[0.325,0.675,0.85,0.15]","","",""
"sailing-trial","317","1611955","0.0-11.0-282.0","","","","false","","","","","","","","","","568","","211","","3","1","arrowright","1","arrowright","[0.325,0.675,0.85,0.15]","","",""
"sailing-trial","318","1616053","0.0-11.0-283.0","","","","false","","","","","","","","","","null","","1041","","0","0","null","null","arrowup","[0.325,0.675,0.85,0.15]","","",""
"sailing-trial","319","1619958","0.0-11.0-284.0","","","","false","","","","","","","","","","563","","402","","0","1","arrowleft","0","arrowleft","[0.325,0.675,0.85,0.15]","","",""
"sailing-trial","320","1623579","0.0-11.0-285.0","","","","false","","","","","","","","","","null","","583","","0","0","null","null","arrowup","[0.325,0.675,0.85,0.15]","","",""
"sailing-trial","321","1626874","0.0-11.0-286.0","","","","false","","","","","","","","","","257","","37","","1","1","arrowleft","0","arrowright","[0.325,0.675,0.85,0.15]","","",""
"sailing-trial","322","1631322","0.0-11.0-287.0","","","","false","","","","","","","","","","null","","1148","","0","0","null","null","arrowup","[0.325,0.675,0.85,0.15]","","",""
"sailing-trial","323","1636536","0.0-11.0-288.0","","","","false","","","","","","","","","","582","","586","","3","0","arrowright","1","arrowright","[0.325,0.675,0.85,0.15]","","",""
"sailing-trial","324","1640442","0.0-11.0-289.0","","","","false","","","","","","","","","","null","","838","","3","0","null","null","arrowup","[0.325,0.675,0.85,0.15]","","",""
"sailing-trial","325","1645404","0.0-11.0-290.0","","","","false","","","","","","","","","","278","","582","","2","0","arrowright","1","arrowleft","[0.15,0.85,0.675,0.325]","","",""
"sailing-trial","326","1649509","0.0-11.0-291.0","","","","false","","","","","","","","","","null","","1038","","0","0","null","null","arrowup","[0.15,0.85,0.675,0.325]","","",""
"sailing-trial","327","1653829","0.0-11.0-292.0","","","","false","","","","","","","","","","799","","512","","1","1","arrowleft","0","arrowright","[0.15,0.85,0.675,0.325]","","",""
"sailing-trial","328","1656994","0.0-11.0-293.0","","","","false","","","","","","","","","","null","","1009","","3","1","null","null","arrowup","[0.15,0.85,0.675,0.325]","","",""
"sailing-trial","329","1660838","0.0-11.0-294.0","","","","false","","","","","","","","","","661","","261","","1","1","arrowleft","0","arrowright","[0.15,0.85,0.675,0.325]","","",""
"sailing-trial","330","1663515","0.0-11.0-295.0","","","","false","","","","","","","","","","null","","753","","0","1","null","null","arrowup","[0.15,0.85,0.675,0.325]","","",""
"sailing-trial","331","1668364","0.0-11.0-296.0","","","","false","","","","","","","","","","703","","85","","0","0","arrowleft","0","arrowleft","[0.15,0.85,0.675,0.325]","","",""
"sailing-trial","332","1671807","0.0-11.0-297.0","","","","false","","","","","","","","","","null","","299","","1","0","null","null","arrowup","[0.15,0.85,0.675,0.325]","","",""
"sailing-trial","333","1674300","0.0-11.0-298.0","","","","false","","","","","","","","","","83","","273","","3","0","arrowright","1","arrowright","[0.15,0.85,0.675,0.325]","","",""
"sailing-trial","334","1678232","0.0-11.0-299.0","","","","false","","","","","","","","","","null","","881","","0","0","null","null","arrowup","[0.15,0.85,0.675,0.325]","","",""
"sailing-trial","335","1681981","0.0-11.0-300.0","","","","false","","","","","","","","","","437","","338","","2","1","arrowright","1","arrowleft","[0.15,0.85,0.675,0.325]","","",""
"sailing-trial","336","1684705","0.0-11.0-301.0","","","","false","","","","","","","","","","null","","694","","0","1","null","null","arrowup","[0.15,0.85,0.675,0.325]","","",""
"sailing-trial","337","1690887","0.0-11.0-302.0","","","","false","","","","","","","","","","836","","1215","","2","0","arrowright","1","arrowleft","[0.15,0.85,0.675,0.325]","","",""
"sailing-trial","338","1696097","0.0-11.0-303.0","","","","false","","","","","","","","","","null","","2057","","1","0","null","null","arrowup","[0.15,0.85,0.675,0.325]","","",""
"sailing-trial","339","1700943","0.0-11.0-304.0","","","","false","","","","","","","","","","688","","1128","","3","1","arrowright","1","arrowright","[0.15,0.85,0.675,0.325]","","",""
"sailing-trial","340","1705352","0.0-11.0-305.0","","","","false","","","","","","","","","","null","","1372","","3","0","null","null","arrowup","[0.15,0.85,0.675,0.325]","","",""
"sailing-trial","341","1709763","0.0-11.0-306.0","","","","false","","","","","","","","","","616","","690","","1","1","arrowleft","0","arrowright","[0.325,0.675,0.85,0.15]","","",""
"sailing-trial","342","1713850","0.0-11.0-307.0","","","","false","","","","","","","","","","null","","1047","","1","0","null","null","arrowup","[0.325,0.675,0.85,0.15]","","",""
"sailing-trial","343","1718175","0.0-11.0-308.0","","","","false","","","","","","","","","","701","","179","","0","1","arrowleft","0","arrowleft","[0.325,0.675,0.85,0.15]","","",""
"sailing-trial","344","1722300","0.0-11.0-309.0","","","","false","","","","","","","","","","null","","880","","0","0","null","null","arrowup","[0.325,0.675,0.85,0.15]","","",""
"sailing-trial","345","1725888","0.0-11.0-310.0","","","","false","","","","","","","","","","586","","95","","1","1","arrowleft","0","arrowright","[0.325,0.675,0.85,0.15]","","",""
"sailing-trial","346","1729472","0.0-11.0-311.0","","","","false","","","","","","","","","","null","","535","","1","0","null","null","arrowup","[0.325,0.675,0.85,0.15]","","",""
"sailing-trial","347","1734271","0.0-11.0-312.0","","","","false","","","","","","","","","","428","","1099","","3","1","arrowright","1","arrowright","[0.325,0.675,0.85,0.15]","","",""
"sailing-trial","348","1736744","0.0-11.0-313.0","","","","false","","","","","","","","","","null","","596","","1","1","null","null","arrowup","[0.325,0.675,0.85,0.15]","","",""
"sailing-trial","349","1741739","0.0-11.0-314.0","","","","false","","","","","","","","","","933","","1072","","3","1","arrowright","1","arrowright","[0.325,0.675,0.85,0.15]","","",""
"sailing-trial","350","1744838","0.0-11.0-315.0","","","","false","","","","","","","","","","null","","963","","2","1","null","null","arrowup","[0.325,0.675,0.85,0.15]","","",""
"sailing-trial","351","1748885","0.0-11.0-316.0","","","","false","","","","","","","","","","686","","294","","1","1","arrowleft","0","arrowright","[0.325,0.675,0.85,0.15]","","",""
"sailing-trial","352","1753027","0.0-11.0-317.0","","","","false","","","","","","","","","","null","","977","","3","0","null","null","arrowup","[0.325,0.675,0.85,0.15]","","",""
"sailing-trial","353","1758300","0.0-11.0-318.0","","","","false","","","","","","","","","","1189","","21","","1","0","arrowleft","0","arrowright","[0.325,0.675,0.85,0.15]","","",""
"sailing-trial","354","1761736","0.0-11.0-319.0","","","","false","","","","","","","","","","null","","1308","","1","1","null","null","arrowup","[0.325,0.675,0.85,0.15]","","",""
"sailing-trial","355","1767718","0.0-11.0-320.0","","","","false","","","","","","","","","","1057","","825","","3","0","arrowright","1","arrowright","[0.325,0.675,0.85,0.15]","","",""
"sailing-trial","356","1771408","0.0-11.0-321.0","","","","false","","","","","","","","","","null","","1418","","2","1","null","null","arrowup","[0.325,0.675,0.85,0.15]","","",""
"sailing-trial","357","1775532","0.0-11.0-322.0","","","","false","","","","","","","","","","900","","139","","0","1","arrowleft","0","arrowleft","[0.325,0.675,0.85,0.15]","","",""
"sailing-trial","358","1778472","0.0-11.0-323.0","","","","false","","","","","","","","","","null","","1034","","0","1","null","null","arrowup","[0.325,0.675,0.85,0.15]","","",""
"sailing-trial","359","1783491","0.0-11.0-324.0","","","","false","","","","","","","","","","770","","144","","0","0","arrowleft","0","arrowleft","[0.325,0.675,0.85,0.15]","","",""
"sailing-trial","360","1787105","0.0-11.0-325.0","","","","false","","","","","","","","","","null","","342","","0","0","null","null","arrowup","[0.325,0.675,0.85,0.15]","","",""
"sailing-trial","361","1792063","0.0-11.0-326.0","","","","false","","","","","","","","","","986","","915","","3","1","arrowright","1","arrowright","[0.15,0.85,0.675,0.325]","","",""
"sailing-trial","362","1798139","0.0-11.0-327.0","","","","false","","","","","","","","","","null","","3042","","2","0","null","null","arrowup","[0.15,0.85,0.675,0.325]","","",""
"sailing-trial","363","1801606","0.0-11.0-328.0","","","","false","","","","","","","","","","949","","206","","3","0","arrowright","1","arrowright","[0.15,0.85,0.675,0.325]","","",""
"sailing-trial","364","1805583","0.0-11.0-329.0","","","","false","","","","","","","","","","null","","2046","","3","1","null","null","arrowup","[0.15,0.85,0.675,0.325]","","",""
"sailing-trial","365","1811339","0.0-11.0-330.0","","","","false","","","","","","","","","","1179","","384","","0","0","arrowleft","0","arrowleft","[0.15,0.85,0.675,0.325]","","",""
"sailing-trial","366","1816025","0.0-11.0-331.0","","","","false","","","","","","","","","","null","","1566","","2","0","null","null","arrowup","[0.15,0.85,0.675,0.325]","","",""
"sailing-trial","367","1820734","0.0-11.0-332.0","","","","false","","","","","","","","","","726","","807","","3","1","arrowright","1","arrowright","[0.15,0.85,0.675,0.325]","","",""
"sailing-trial","368","1823290","0.0-11.0-333.0","","","","false","","","","","","","","","","null","","574","","1","1","null","null","arrowup","[0.15,0.85,0.675,0.325]","","",""
"sailing-trial","369","1828585","0.0-11.0-334.0","","","","false","","","","","","","","","","887","","314","","2","0","arrowright","1","arrowleft","[0.15,0.85,0.675,0.325]","","",""
"sailing-trial","370","1831943","0.0-11.0-335.0","","","","false","","","","","","","","","","null","","1118","","2","1","null","null","arrowup","[0.15,0.85,0.675,0.325]","","",""
"sailing-trial","371","1836399","0.0-11.0-336.0","","","","false","","","","","","","","","","875","","643","","3","1","arrowright","1","arrowright","[0.15,0.85,0.675,0.325]","","",""
"sailing-trial","372","1839924","0.0-11.0-337.0","","","","false","","","","","","","","","","null","","500","","0","0","null","null","arrowup","[0.15,0.85,0.675,0.325]","","",""
"sailing-trial","373","1844729","0.0-11.0-338.0","","","","false","","","","","","","","","","715","","34","","3","0","arrowright","1","arrowright","[0.15,0.85,0.675,0.325]","","",""
"sailing-trial","374","1848183","0.0-11.0-339.0","","","","false","","","","","","","","","","null","","1371","","2","1","null","null","arrowup","[0.15,0.85,0.675,0.325]","","",""
"sailing-trial","375","1853717","0.0-11.0-340.0","","","","false","","","","","","","","","","1002","","450","","1","0","arrowleft","0","arrowright","[0.15,0.85,0.675,0.325]","","",""
"sailing-trial","376","1858044","0.0-11.0-341.0","","","","false","","","","","","","","","","null","","1273","","1","0","null","null","arrowup","[0.15,0.85,0.675,0.325]","","",""
"sailing-trial","377","1862925","0.0-11.0-342.0","","","","false","","","","","","","","","","537","","315","","1","0","arrowleft","0","arrowright","[0.675,0.325,0.15,0.85]","","",""
"sailing-trial","378","1865815","0.0-11.0-343.0","","","","false","","","","","","","","","","null","","773","","1","1","null","null","arrowup","[0.675,0.325,0.15,0.85]","","",""
"sailing-trial","379","1871936","0.0-11.0-344.0","","","","false","","","","","","","","","","1570","","281","","0","0","arrowleft","0","arrowleft","[0.675,0.325,0.15,0.85]","","",""
"sailing-trial","380","1876643","0.0-11.0-345.0","","","","false","","","","","","","","","","null","","1642","","2","0","null","null","arrowup","[0.675,0.325,0.15,0.85]","","",""
"sailing-trial","381","1881654","0.0-11.0-346.0","","","","false","","","","","","","","","","719","","155","","1","0","arrowleft","0","arrowright","[0.675,0.325,0.15,0.85]","","",""
"sailing-trial","382","1884329","0.0-11.0-347.0","","","","false","","","","","","","","","","null","","723","","3","1","null","null","arrowup","[0.675,0.325,0.15,0.85]","","",""
"sailing-trial","383","1889618","0.0-11.0-348.0","","","","false","","","","","","","","","","890","","322","","1","0","arrowleft","0","arrowright","[0.675,0.325,0.15,0.85]","","",""
"sailing-trial","384","1893843","0.0-11.0-349.0","","","","false","","","","","","","","","","null","","1182","","2","0","null","null","arrowup","[0.675,0.325,0.15,0.85]","","",""
"sailing-trial","385","1897956","0.0-11.0-350.0","","","","false","","","","","","","","","","959","","119","","3","1","arrowright","1","arrowright","[0.675,0.325,0.15,0.85]","","",""
"sailing-trial","386","1901656","0.0-11.0-351.0","","","","false","","","","","","","","","","null","","621","","2","0","null","null","arrowup","[0.675,0.325,0.15,0.85]","","",""
"sailing-trial","387","1907171","0.0-11.0-352.0","","","","false","","","","","","","","","","715","","731","","3","0","arrowright","1","arrowright","[0.675,0.325,0.15,0.85]","","",""
"sailing-trial","388","1909824","0.0-11.0-353.0","","","","false","","","","","","","","","","null","","429","","0","1","null","null","arrowup","[0.675,0.325,0.15,0.85]","","",""
"sailing-trial","389","1915105","0.0-11.0-354.0","","","","false","","","","","","","","","","1944","","344","","3","1","arrowright","1","arrowright","[0.675,0.325,0.15,0.85]","","",""
"sailing-trial","390","1917514","0.0-11.0-355.0","","","","false","","","","","","","","","","null","","446","","3","1","null","null","arrowup","[0.675,0.325,0.15,0.85]","","",""
"sailing-trial","391","1921638","0.0-11.0-356.0","","","","false","","","","","","","","","","920","","150","","1","1","arrowleft","0","arrowright","[0.675,0.325,0.15,0.85]","","",""
"sailing-trial","392","1923261","0.0-11.0-357.0","","","","false","","","","","","","","","","null","","234","","2","0","null","null","arrowup","[0.675,0.325,0.15,0.85]","","",""
"sailing-trial","393","1927762","0.0-11.0-358.0","","","","false","","","","","","","","","","724","","822","","3","1","arrowright","1","arrowright","[0.675,0.325,0.15,0.85]","","",""
"sailing-trial","394","1930544","0.0-11.0-359.0","","","","false","","","","","","","","","","null","","808","","3","1","null","null","arrowup","[0.675,0.325,0.15,0.85]","","",""
"sailing-trial","395","1934874","0.0-11.0-360.0","","","","false","","","","","","","","","","456","","907","","3","1","arrowright","1","arrowright","[0.675,0.325,0.15,0.85]","","",""
"sailing-trial","396","1938855","0.0-11.0-361.0","","","","false","","","","","","","","","","null","","704","","2","0","null","null","arrowup","[0.675,0.325,0.15,0.85]","","",""
"sailing-trial","397","1944446","0.0-11.0-362.0","","","","false","","","","","","","","","","1191","","361","","0","0","arrowleft","0","arrowleft","[0.325,0.675,0.85,0.15]","","",""
"sailing-trial","398","1948797","0.0-11.0-363.0","","","","false","","","","","","","","","","null","","2172","","3","1","null","null","arrowup","[0.325,0.675,0.85,0.15]","","",""
"sailing-trial","399","1953403","0.0-11.0-364.0","","","","false","","","","","","","","","","779","","465","","3","1","arrowright","1","arrowright","[0.325,0.675,0.85,0.15]","","",""
"sailing-trial","400","1956662","0.0-11.0-365.0","","","","false","","","","","","","","","","null","","1323","","1","1","null","null","arrowup","[0.325,0.675,0.85,0.15]","","",""
"sailing-trial","401","1961615","0.0-11.0-366.0","","","","false","","","","","","","","","","1374","","591","","2","1","arrowright","1","arrowleft","[0.325,0.675,0.85,0.15]","","",""
"sailing-trial","402","1964506","0.0-11.0-367.0","","","","false","","","","","","","","","","null","","853","","2","1","null","null","arrowup","[0.325,0.675,0.85,0.15]","","",""
"sailing-trial","403","1968508","0.0-11.0-368.0","","","","false","","","","","","","","","","954","","135","","2","1","arrowright","1","arrowleft","[0.325,0.675,0.85,0.15]","","",""
"sailing-trial","404","1972638","0.0-11.0-369.0","","","","false","","","","","","","","","","null","","1036","","3","0","null","null","arrowup","[0.325,0.675,0.85,0.15]","","",""
"sailing-trial","405","1978834","0.0-11.0-370.0","","","","false","","","","","","","","","","857","","1278","","0","0","arrowleft","0","arrowleft","[0.325,0.675,0.85,0.15]","","",""
"sailing-trial","406","1983479","0.0-11.0-371.0","","","","false","","","","","","","","","","null","","1493","","3","0","null","null","arrowup","[0.325,0.675,0.85,0.15]","","",""
"sailing-trial","407","1987839","0.0-11.0-372.0","","","","false","","","","","","","","","","730","","145","","1","1","arrowleft","0","arrowright","[0.325,0.675,0.85,0.15]","","",""
"sailing-trial","408","1991033","0.0-11.0-373.0","","","","false","","","","","","","","","","null","","1251","","1","1","null","null","arrowup","[0.325,0.675,0.85,0.15]","","",""
"sailing-trial","409","1995428","0.0-11.0-374.0","","","","false","","","","","","","","","","1094","","319","","1","1","arrowleft","0","arrowright","[0.325,0.675,0.85,0.15]","","",""
"sailing-trial","410","1998228","0.0-11.0-375.0","","","","false","","","","","","","","","","null","","893","","0","1","null","null","arrowup","[0.325,0.675,0.85,0.15]","","",""
"sailing-trial","411","2003780","0.0-11.0-376.0","","","","false","","","","","","","","","","934","","510","","1","0","arrowleft","0","arrowright","[0.325,0.675,0.85,0.15]","","",""
"sailing-trial","412","2006763","0.0-11.0-377.0","","","","false","","","","","","","","","","null","","1028","","2","1","null","null","arrowup","[0.325,0.675,0.85,0.15]","","",""
"sailing-trial","413","2012791","0.0-11.0-378.0","","","","false","","","","","","","","","","1371","","583","","1","0","arrowleft","0","arrowright","[0.325,0.675,0.85,0.15]","","",""
"sailing-trial","414","2016929","0.0-11.0-379.0","","","","false","","","","","","","","","","null","","1113","","1","0","null","null","arrowup","[0.325,0.675,0.85,0.15]","","",""
"sailing-trial","415","2021100","0.0-11.0-380.0","","","","false","","","","","","","","","","671","","287","","1","1","arrowleft","0","arrowright","[0.325,0.675,0.85,0.15]","","",""
"sailing-trial","416","2022973","0.0-11.0-381.0","","","","false","","","","","","","","","","null","","763","","1","0","null","null","arrowup","[0.325,0.675,0.85,0.15]","","",""
"sailing-trial","417","2027923","0.0-11.0-382.0","","","","false","","","","","","","","","","744","","51","","2","0","arrowright","1","arrowleft","[0.15,0.85,0.675,0.325]","","",""
"sailing-trial","418","2031840","0.0-11.0-383.0","","","","false","","","","","","","","","","null","","898","","2","0","null","null","arrowup","[0.15,0.85,0.675,0.325]","","",""
"sailing-trial","419","2036745","0.0-11.0-384.0","","","","false","","","","","","","","","","676","","196","","3","0","arrowright","1","arrowright","[0.15,0.85,0.675,0.325]","","",""
"sailing-trial","420","2042354","0.0-11.0-385.0","","","","false","","","","","","","","","","null","","2503","","3","0","null","null","arrowup","[0.15,0.85,0.675,0.325]","","",""
"sailing-trial","421","2046551","0.0-11.0-386.0","","","","false","","","","","","","","","","715","","583","","3","1","arrowright","1","arrowright","[0.15,0.85,0.675,0.325]","","",""
"sailing-trial","422","2049119","0.0-11.0-387.0","","","","false","","","","","","","","","","null","","669","","2","1","null","null","arrowup","[0.15,0.85,0.675,0.325]","","",""
"sailing-trial","423","2053757","0.0-11.0-388.0","","","","false","","","","","","","","","","1141","","468","","3","1","arrowright","1","arrowright","[0.15,0.85,0.675,0.325]","","",""
"sailing-trial","424","2056306","0.0-11.0-389.0","","","","false","","","","","","","","","","null","","629","","1","1","null","null","arrowup","[0.15,0.85,0.675,0.325]","","",""
"sailing-trial","425","2060221","0.0-11.0-390.0","","","","false","","","","","","","","","","625","","285","","3","1","arrowright","1","arrowright","[0.15,0.85,0.675,0.325]","","",""
"sailing-trial","426","2063332","0.0-11.0-391.0","","","","false","","","","","","","","","","null","","84","","0","0","null","null","arrowup","[0.15,0.85,0.675,0.325]","","",""
"sailing-trial","427","2067590","0.0-11.0-392.0","","","","false","","","","","","","","","","79","","92","","3","0","arrowright","1","arrowright","[0.15,0.85,0.675,0.325]","","",""
"sailing-trial","428","2071073","0.0-11.0-393.0","","","","false","","","","","","","","","","null","","402","","3","0","null","null","arrowup","[0.15,0.85,0.675,0.325]","","",""
"sailing-trial","429","2075876","0.0-11.0-394.0","","","","false","","","","","","","","","","879","","755","","1","1","arrowleft","0","arrowright","[0.15,0.85,0.675,0.325]","","",""
"sailing-trial","430","2078862","0.0-11.0-395.0","","","","false","","","","","","","","","","null","","989","","2","1","null","null","arrowup","[0.15,0.85,0.675,0.325]","","",""
"sailing-trial","431","2082835","0.0-11.0-396.0","","","","false","","","","","","","","","","603","","419","","1","1","arrowleft","0","arrowright","[0.15,0.85,0.675,0.325]","","",""
"sailing-trial","432","2088018","0.0-11.0-397.0","","","","false","","","","","","","","","","null","","2137","","0","0","null","null","arrowup","[0.15,0.85,0.675,0.325]","","",""
"sailing-trial","433","2091707","0.0-11.0-398.0","","","","false","","","","","","","","","","795","","527","","0","0","arrowleft","0","arrowleft","[0.15,0.85,0.675,0.325]","","",""
"sailing-trial","434","2095568","0.0-11.0-399.0","","","","false","","","","","","","","","","null","","837","","3","0","null","null","arrowup","[0.15,0.85,0.675,0.325]","","",""
"instructions","435","2097151","0.0-12.0","","","","","","","","","","1581","","","","","","","","","","","","","","","","[{""page_index"":0,""viewing_time"":1581}]"
"survey-debrief","436","2121625","0.0-13.0","","","","","","","","","","24471","","","","","","","","","","","","","","{""difficulty"":""4"",""fun"":""4"",""clarity"":""5"",""strategy"":""not really"",""feedback"":""""}","",""
