"trial_type","trial_index","time_elapsed","internal_node_id","value","metadata","success","timeout","failed_images","failed_audio","failed_video","browser_interaction","low_quality","rt","stimulus","response","button_pressed","island_rt","island_response","boat_rt","boat_response","boat","reward","island_key","island","boat_key","reward_probabilities","responses","num_errors","view_history"
"pavlovia","0","7","0.0-0.0","","","","","","","","","","","","","","","","","","","","","","","","","",""
"call-function","1","8","0.0-1.0","","{""task_version"":""sailing_part1_v1"",""task_condition"":""good"",""boats"":[""A"",""B"",""C"",""D""],""boats_demo"":[""E"",""G"",""F"",""H""],""islands"":[""B"",""A""],""subject_id"":""14534"",""age"":""10"",""gender"":""Male""}","","","","","","","","","","","","","","","","","","","","","","","",""
"preload","2","3164","0.0-2.0","","","true","false","[]","[]","[]","[{""event"":""fullscreenenter"",""trial"":3,""time"":4457}]","false","","","","","","","","","","","","","","","","",""
"fullscreen","3","5390","0.0-3.0","","","true","","","","","","","","","","","","","","","","","","","","","","",""
"audio-keyboard-response","4","18955","0.0-4.0-0.0","","","","","","","","","","13429.333333333334","audio/beep_loop.wav"," ","","","","","","","","","","","","","",""
"audio-test","5","21164","0.0-4.0-1.0","","","","","","","","","","null","audio/turtle.mp3","","3","","","","","","","","","","","","",""
"audio-test","6","23308","0.0-4.0-2.0","","","","","","","","","","null","audio/shark.mp3","","2","","","","","","","","","","","","",""
"sailing-instructions","7","55012","0.0-5.0-0.0-0.0","","","","","","","","","","","","","","null","null","null","null","null","null","","","","","","",""
"sailing-trial","8","61832","0.0-5.0-0.0-1.0-0.0","","","","false","","","","","","","","","","5692.100000023842","","null","","null","null","arrowleft","0","null","null","","",""
"sailing-trial","9","64582","0.0-5.0-0.0-1.0-1.0","","","","false","","","","","","","","","","1603.199999988079","","null","","null","null","arrowright","1","null","null","","",""
"sailing-trial","10","67563","0.0-5.0-0.0-1.0-2.0","","","","false","","","","","","","","","","1825.9000000357628","","null","","null","null","arrowleft","0","null","null","","",""
"sailing-instructions","11","109501","0.0-5.0-0.0-2.0","","","","","","","","","","","","","","null","null","null","null","0","null","","","","","","",""
"sailing-trial","12","116968","0.0-5.0-0.0-3.0-0.0","","","","false","","","","","","","","","","null","","3217.600000023842","","2","1","null","null","arrowleft","[1,1,1,1]","","",""
"sailing-trial","13","121641","0.0-5.0-0.0-3.0-1.0","","","","false","","","","","","","","","","null","","1380.8999999761581","","3","1","null","null","arrowright","[1,1,1,1]","","",""
"sailing-trial","14","126340","0.0-5.0-0.0-3.0-2.0","","","","false","","","","","","","","","","null","","1285.9000000357628","","2","0","null","null","arrowleft","[0,0,0,0]","","",""
"sailing-instructions","15","133798","0.0-5.0-0.0-4.0","","","","","","","","","","","","","","null","null","null","null","null","null","","","","","","",""
"sailing-comprehension","16","154950","0.0-5.0-0.0-5.0","","","","","","","","","","17196.100000023842","","","","","","","","","","","","","","[""true"",""true"",""false"",""true""]","0",""
"sailing-instructions","17","215228","0.0-6.0-0.0-0.0","","","","","","","","","","","","","","null","null","null","null","null","null","","","","","","",""
"sailing-comprehension","18","231476","0.0-6.0-0.0-1.0","","","","","","","","","","13833.899999976158","","","","","","","","","","","","","","[""true"",""false"",""true""]","0",""
"sailing-instructions","19","245388","0.0-7.0-0.0-0.0","","","","","","","","","","","","","","null","null","null","null","null","null","","","","","","",""
"sailing-trial","20","253010","0.0-7.0-0.0-1.0-0.0","","","","false","","","","","","","","","","null","","4597.399999976158","","0","0","null","null","arrowup","[0.2,0.8,0.2,0.8]","","",""
"sailing-trial","21","259273","0.0-7.0-0.0-1.0-1.0","","","","false","","","","","","","","","","null","","3330.400000035763","","1","1","null","null","arrowup","[0.2,0.8,0.2,0.8]","","",""
"sailing-trial","22","263772","0.0-7.0-0.0-1.0-2.0","","","","false","","","","","","","","","","null","","1612","","2","1","null","null","arrowup","[0.2,0.8,0.2,0.8]","","",""
"sailing-trial","23","267922","0.0-7.0-0.0-1.0-3.0","","","","false","","","","","","","","","","null","","1607.300000011921","","3","1","null","null","arrowup","[0.2,0.8,0.2,0.8]","","",""
"sailing-comprehension","24","282634","0.0-7.0-0.0-2.0","","","","","","","","","","5500.600000023842","","","","","","","","","","","","","","[""true""]","1",""
"sailing-instructions","25","296396","0.0-7.0-0.1-0.1","","","","","","","","","","","","","","null","null","null","null","null","null","","","","","","",""
"sailing-trial","26","300835","0.0-7.0-0.1-1.1-0.1","","","","false","","","","","","","","","","null","","1625.199999988079","","0","0","null","null","arrowup","[0.2,0.8,0.2,0.8]","","",""
"sailing-trial","27","303618","0.0-7.0-0.1-1.1-1.1","","","","false","","","","","","","","","","null","","1084.199999988079","","1","0","null","null","arrowup","[0.2,0.8,0.2,0.8]","","",""
"sailing-trial","28","307002","0.0-7.0-0.1-1.1-2.1","","","","false","","","","","","","","","","null","","1387.0999999642372","","2","0","null","null","arrowup","[0.2,0.8,0.2,0.8]","","",""
"sailing-trial","29","310134","0.0-7.0-0.1-1.1-3.1","","","","false","","","","","","","","","","null","","1066.4000000357628","","3","1","null","null","arrowup","[0.2,0.8,0.2,0.8]","","",""
"sailing-comprehension","30","314923","0.0-7.0-0.1-2.1","","","","","","","","","","3122.699999988079","","","","","","","","","","","","","","[""false""]","0",""
"sailing-instructions","31","325524","0.0-8.0-0.0-0.0","","","","","","","","","","","","","","null","null","null","null","null","null","","","","","","",""
"sailing-comprehension","32","330272","0.0-8.0-0.0-1.0","","","","","","","","","","3146.600000023842","","","","","","","","","","","","","","[""true""]","0",""
"sailing-instructions","33","352358","0.0-9.0-0.0-0.0","","","","","","","","","","","","","","null","null","null","null","null","null","","","","","","",""
"sailing-trial","34","358982","0.0-9.0-0.0-1.0-0.0","","","","false","","","","","","","","","","1783.6000000238419","","922.3999999761581","","0","1","arrowleft","0","arrowleft","[0.2,0.8,0.2,0.8]","","",""
"sailing-trial","35","367333","0.0-9.0-0.0-1.0-1.0","","","","false","","","","","","","","","","1953.199999988079","","2237.399999976158","","2","0","arrowright","1","arrowleft","[0.2,0.8,0.2,0.8]","","",""
"sailing-trial","36","371709","0.0-9.0-0.0-1.0-2.0","","","","false","","","","","","","","","","null","","2018.699999988079","","0","1","null","null","arrowup","[0.2,0.8,0.2,0.8]","","",""
"sailing-trial","37","378292","0.0-9.0-0.0-1.0-3.0","","","","false","","","","","","","","","","1871.699999988079","","1173.800000011921","","0","1","arrowleft","0","arrowleft","[0.2,0.8,0.2,0.8]","","",""
"sailing-trial","38","381946","0.0-9.0-0.0-1.0-4.0","","","","false","","","","","","","","","","null","","1561.5999999642372","","3","1","null","null","arrowup","[0.2,0.8,0.2,0.8]","","",""
"sailing-trial","39","387396","0.0-9.0-0.0-1.0-5.0","","","","false","","","","","","","","","","1638.199999988079","","578.6999999880791","","3","0","arrowright","1","arrowright","[0.2,0.8,0.2,0.8]","","",""
"sailing-instructions","40","412058","0.0-10.0","","","","","","","","","","","","","","null","null","null","null","null","null","","","","","","",""
"sailing-trial","41","417204","0.0-11.0-0.0","","","","false","","","","","","","","","","1441.300000011921","","443","","0","0","arrowleft","0","arrowleft","[0.325,0.675,0.15,0.85]","","",""
"sailing-trial","42","420904","0.0-11.0-1.0","","","","false","","","","","","","","","","null","","2125.100000023842","","0","0","null","null","arrowup","[0.325,0.675,0.15,0.85]","","",""
"sailing-trial","43","426256","0.0-11.0-2.0","","","","false","","","","","","","","","","1490.3999999761581","","626.3000000119209","","3","1","arrowright","1","arrowright","[0.325,0.675,0.15,0.85]","","",""
"sailing-trial","44","429718","0.0-11.0-3.0","","","","false","","","","","","","","","","null","","1533.6000000238419","","1","1","null","null","arrowup","[0.325,0.675,0.15,0.85]","","",""
"sailing-trial","45","434551","0.0-11.0-4.0","","","","false","","","","","","","","","","1273","","593.8999999761581","","1","1","arrowleft","0","arrowright","[0.325,0.675,0.15,0.85]","","",""
"sailing-trial","46","437418","0.0-11.0-5.0","","","","false","","","","","","","","","","null","","996.0999999642372","","3","1","null","null","arrowup","[0.325,0.675,0.15,0.85]","","",""
"sailing-trial","47","441719","0.0-11.0-6.0","","","","false","","","","","","","","","","1023.3000000119209","","540.5","","3","0","arrowright","1","arrowright","[0.325,0.675,0.15,0.85]","","",""
"sailing-trial","48","445103","0.0-11.0-7.0","","","","false","","","","","","","","","","null","","1490.300000011921","","3","1","null","null","arrowup","[0.325,0.675,0.15,0.85]","","",""
"sailing-trial","49","449620","0.0-11.0-8.0","","","","false","","","","","","","","","","839","","546.5","","1","1","arrowleft","0","arrowright","[0.325,0.675,0.15,0.85]","","",""
"sailing-trial","50","452254","0.0-11.0-9.0","","","","false","","","","","","","","","","null","","1256.2999999523163","","2","0","null","null","arrowup","[0.325,0.675,0.15,0.85]","","",""
"sailing-trial","51","456869","0.0-11.0-10.0","","","","false","","","","","","","","","","1179.199999988079","","629.6000000238419","","3","1","arrowright","1","arrowright","[0.325,0.675,0.15,0.85]","","",""
"sailing-trial","52","459180","0.0-11.0-11.0","","","","false","","","","","","","","","","null","","876.8999999761581","","0","0","null","null","arrowup","[0.325,0.675,0.15,0.85]","","",""
"sailing-trial","53","463274","0.0-11.0-12.0","","","","false","","","","","","","","","","822","","452.80000001192093","","0","0","arrowleft","0","arrowleft","[0.325,0.675,0.15,0.85]","","",""
"sailing-trial","54","466020","0.0-11.0-13.0","","","","false","","","","","","","","","","null","","1381.5999999642372","","0","0","null","null","arrowup","[0.325,0.675,0.15,0.85]","","",""
"sailing-trial","55","470367","0.0-11.0-14.0","","","","false","","","","","","","","","","1107.5","","188.5","","3","1","arrowright","1","arrowright","[0.325,0.675,0.15,0.85]","","",""
"sailing-trial","56","472867","0.0-11.0-15.0","","","","false","","","","","","","","","","null","","654.5","","1","1","null","null","arrowup","[0.325,0.675,0.15,0.85]","","",""
"sailing-trial","57","478417","0.0-11.0-16.0","","","","false","","","","","","","","","","1175","","2053","","0","0","arrowleft","0","arrowleft","[0.15,0.85,0.325,0.675]","","",""
"sailing-trial","58","480778","0.0-11.0-17.0","","","","false","","","","","","","","","","null","","1071.800000011921","","0","0","null","null","arrowup","[0.15,0.85,0.325,0.675]","","",""
"sailing-trial","59","484112","0.0-11.0-18.0","","","","false","","","","","","","","","","1026.699999988079","","32.89999997615814","","3","0","arrowright","1","arrowright","[0.15,0.85,0.325,0.675]","","",""
"sailing-trial","60","486933","0.0-11.0-19.0","","","","false","","","","","","","","","","null","","1079","","1","1","null","null","arrowup","[0.15,0.85,0.325,0.675]","","",""
"sailing-trial","61","490964","0.0-11.0-20.0","","","","false","","","","","","","","","","877.3000000119209","","310.39999997615814","","1","1","arrowleft","0","arrowright","[0.15,0.85,0.325,0.675]","","",""
"sailing-trial","62","493523","0.0-11.0-21.0","","","","false","","","","","","","","","","null","","732.1999999880791","","2","0","null","null","arrowup","[0.15,0.85,0.325,0.675]","","",""
"sailing-trial","63","497566","0.0-11.0-22.0","","","","false","","","","","","","","","","970.8999999761581","","187.89999997615814","","3","1","arrowright","1","arrowright","[0.15,0.85,0.325,0.675]","","",""
"sailing-trial","64","499897","0.0-11.0-23.0","","","","false","","","","","","","","","","null","","557.8999999761581","","1","1","null","null","arrowup","[0.15,0.85,0.325,0.675]","","",""
"sailing-trial","65","504537","0.0-11.0-24.0","","","","false","","","","","","","","","","1074.199999988079","","1009.1999999880791","","0","0","arrowleft","0","arrowleft","[0.15,0.85,0.325,0.675]","","",""
"sailing-trial","66","507031","0.0-11.0-25.0","","","","false","","","","","","","","","","null","","729.1999999880791","","1","1","null","null","arrowup","[0.15,0.85,0.325,0.675]","","",""
"sailing-trial","67","510246","0.0-11.0-26.0","","","","false","","","","","","","","","","531.6999999880791","","0.800000011920929","","3","1","arrowright","1","arrowright","[0.15,0.85,0.325,0.675]","","",""
"sailing-trial","68","512364","0.0-11.0-27.0","","","","false","","","","","","","","","","null","","447.5","","0","1","null","null","arrowup","[0.15,0.85,0.325,0.675]","","",""
"sailing-trial","69","515945","0.0-11.0-28.0","","","","false","","","","","","","","","","593.8999999761581","","303.10000002384186","","1","1","arrowleft","0","arrowright","[0.15,0.85,0.325,0.675]","","",""
"sailing-trial","70","517921","0.0-11.0-29.0","","","","false","","","","","","","","","","null","","775.4000000357628","","2","0","null","null","arrowup","[0.15,0.85,0.325,0.675]","","",""
"sailing-trial","71","521194","0.0-11.0-30.0","","","","false","","","","","","","","","","764.1000000238419","","5.600000023841858","","3","0","arrowright","1","arrowright","[0.15,0.85,0.325,0.675]","","",""
"sailing-trial","72","523272","0.0-11.0-31.0","","","","false","","","","","","","","","","null","","763.8000000119209","","0","0","null","null","arrowup","[0.15,0.85,0.325,0.675]","","",""
"sailing-trial","73","527539","0.0-11.0-32.0","","","","false","","","","","","","","","","1044.4000000357628","","872.9000000357628","","0","0","arrowleft","0","arrowleft","[0.15,0.85,0.325,0.675]","","",""
"sailing-trial","74","529484","0.0-11.0-33.0","","","","false","","","","","","","","","","null","","681.0999999642372","","0","0","null","null","arrowup","[0.15,0.85,0.325,0.675]","","",""
"sailing-trial","75","532903","0.0-11.0-34.0","","","","false","","","","","","","","","","891.5","","174.9000000357628","","3","0","arrowright","1","arrowright","[0.325,0.675,0.15,0.85]","","",""
"sailing-trial","76","535207","0.0-11.0-35.0","","","","false","","","","","","","","","","null","","1020.5","","2","0","null","null","arrowup","[0.325,0.675,0.15,0.85]","","",""
"sailing-trial","77","538687","0.0-11.0-36.0","","","","false","","","","","","","","","","952.3000000119209","","318.19999998807907","","1","0","arrowleft","0","arrowright","[0.325,0.675,0.15,0.85]","","",""
"sailing-trial","78","540940","0.0-11.0-37.0","","","","false","","","","","","","","","","null","","985.6999999880791","","2","0","null","null","arrowup","[0.325,0.675,0.15,0.85]","","",""
"sailing-trial","79","546391","0.0-11.0-38.0","","","","false","","","","","","","","","","821","","1613.7999999523163","","3","1","arrowright","1","arrowright","[0.325,0.675,0.15,0.85]","","",""
"sailing-trial","80","548842","0.0-11.0-39.0","","","","false","","","","","","","","","","null","","651.3000000119209","","3","1","null","null","arrowup","[0.325,0.675,0.15,0.85]","","",""
"sailing-trial","81","552034","0.0-11.0-40.0","","","","false","","","","","","","","","","592","","253.19999998807907","","0","0","arrowleft","0","arrowleft","[0.325,0.675,0.15,0.85]","","",""
"sailing-trial","82","554477","0.0-11.0-41.0","","","","false","","","","","","","","","","null","","584","","3","0","null","null","arrowup","[0.325,0.675,0.15,0.85]","","",""
"sailing-trial","83","559107","0.0-11.0-42.0","","","","false","","","","","","","","","","980.5","","240.0999999642372","","2","0","arrowright","1","arrowleft","[0.325,0.675,0.15,0.85]","","",""
"sailing-trial","84","561829","0.0-11.0-43.0","","","","false","","","","","","","","","","null","","718.6000000238419","","3","0","null","null","arrowup","[0.325,0.675,0.15,0.85]","","",""
"sailing-trial","85","565091","0.0-11.0-44.0","","","","false","","","","","","","","","","729","","75.19999998807907","","0","0","arrowleft","0","arrowleft","[0.325,0.675,0.15,0.85]","","",""
"sailing-trial","86","567018","0.0-11.0-45.0","","","","false","","","","","","","","","","null","","642","","1","0","null","null","arrowup","[0.325,0.675,0.15,0.85]","","",""
"sailing-trial","87","571236","0.0-11.0-46.0","","","","false","","","","","","","","","","607.6000000238419","","753.8999999761581","","3","1","arrowright","1","arrowright","[0.325,0.675,0.15,0.85]","","",""
"sailing-trial","88","572825","0.0-11.0-47.0","","","","false","","","","","","","","","","null","","188.9000000357628","","2","0","null","null","arrowup","[0.325,0.675,0.15,0.85]","","",""
"sailing-trial","89","577803","0.0-11.0-48.0","","","","false","","","","","","","","","","813.8000000119209","","1378.199999988079","","1","1","arrowleft","0","arrowright","[0.325,0.675,0.15,0.85]","","",""
"sailing-trial","90","580036","0.0-11.0-49.0","","","","false","","","","","","","","","","null","","570.8000000119209","","3","1","null","null","arrowup","[0.325,0.675,0.15,0.85]","","",""
"sailing-trial","91","584181","0.0-11.0-50.0","","","","false","","","","","","","","","","570.3999999761581","","1259.0999999642372","","3","0","arrowright","1","arrowright","[0.15,0.85,0.325,0.675]","","",""
"sailing-trial","92","586551","0.0-11.0-51.0","","","","false","","","","","","","","","","null","","635.7000000476837","","3","1","null","null","arrowup","[0.15,0.85,0.325,0.675]","","",""
"sailing-trial","93","589822","0.0-11.0-52.0","","","","false","","","","","","","","","","789.3000000119209","","177.30000001192093","","0","0","arrowleft","0","arrowleft","[0.15,0.85,0.325,0.675]","","",""
"sailing-trial","94","592185","0.0-11.0-53.0","","","","false","","","","","","","","","","null","","598.6999999880791","","3","1","null","null","arrowup","[0.15,0.85,0.325,0.675]","","",""
"sailing-trial","95","596718","0.0-11.0-54.0","","","","false","","","","","","","","","","654.5999999642372","","1131.699999988079","","3","1","arrowright","1","arrowright","[0.15,0.85,0.325,0.675]","","",""
"sailing-trial","96","598868","0.0-11.0-55.0","","","","false","","","","","","","","","","null","","566.6000000238419","","3","1","null","null","arrowup","[0.15,0.85,0.325,0.675]","","",""
"sailing-trial","97","602642","0.0-11.0-56.0","","","","false","","","","","","","","","","595.1000000238419","","861.3999999761581","","0","0","arrowleft","0","arrowleft","[0.15,0.85,0.325,0.675]","","",""
"sailing-trial","98","605032","0.0-11.0-57.0","","","","false","","","","","","","","","","null","","680.8999999761581","","0","0","null","null","arrowup","[0.15,0.85,0.325,0.675]","","",""
"sailing-trial","99","609267","0.0-11.0-58.0","","","","false","","","","","","","","","","643.8000000119209","","384.0999999642372","","3","1","arrowright","1","arrowright","[0.15,0.85,0.325,0.675]","","",""
"sailing-trial","100","611999","0.0-11.0-59.0","","","","false","","","","","","","","","","null","","542.6999999880791","","3","1","null","null","arrowup","[0.15,0.85,0.325,0.675]","","",""
"sailing-trial","101","616531","0.0-11.0-60.0","","","","false","","","","","","","","","","820.5","","906.0999999642372","","1","1","arrowleft","0","arrowright","[0.15,0.85,0.325,0.675]","","",""
"sailing-trial","102","618781","0.0-11.0-61.0","","","","false","","","","","","","","","","null","","726","","2","1","null","null","arrowup","[0.15,0.85,0.325,0.675]","","",""
"sailing-trial","103","623015","0.0-11.0-62.0","","","","false","","","","","","","","","","699.4000000357628","","686.5999999642372","","3","1","arrowright","1","arrowright","[0.15,0.85,0.325,0.675]","","",""
"sailing-trial","104","624843","0.0-11.0-63.0","","","","false","","","","","","","","","","null","","670.2999999523163","","0","0","null","null","arrowup","[0.15,0.85,0.325,0.675]","","",""
"sailing-trial","105","628886","0.0-11.0-64.0","","","","false","","","","","","","","","","989","","77.30000001192093","","1","1","arrowleft","0","arrowright","[0.15,0.85,0.325,0.675]","","",""
"sailing-trial","106","630596","0.0-11.0-65.0","","","","false","","","","","","","","","","null","","495.7999999523163","","0","0","null","null","arrowup","[0.15,0.85,0.325,0.675]","","",""
"sailing-trial","107","633742","0.0-11.0-66.0","","","","false","","","","","","","","","","702.8999999761581","","41.30000001192093","","3","0","arrowright","1","arrowright","[0.15,0.85,0.325,0.675]","","",""
"sailing-trial","108","636261","0.0-11.0-67.0","","","","false","","","","","","","","","","null","","699.9000000357628","","1","1","null","null","arrowup","[0.15,0.85,0.325,0.675]","","",""
"sailing-trial","109","640929","0.0-11.0-68.0","","","","false","","","","","","","","","","651.5999999642372","","1239.3999999761581","","1","1","arrowleft","0","arrowright","[0.15,0.85,0.325,0.675]","","",""
"sailing-trial","110","642807","0.0-11.0-69.0","","","","false","","","","","","","","","","null","","144.4000000357628","","2","0","null","null","arrowup","[0.15,0.85,0.325,0.675]","","",""
"sailing-trial","111","646064","0.0-11.0-70.0","","","","false","","","","","","","","","","564.5","","410.10000002384186","","3","0","arrowright","1","arrowright","[0.675,0.325,0.85,0.15]","","",""
"sailing-trial","112","649663","0.0-11.0-71.0","","","","false","","","","","","","","","","null","","559.1999999880791","","0","1","null","null","arrowup","[0.675,0.325,0.85,0.15]","","",""
"sailing-trial","113","653027","0.0-11.0-72.0","","","","false","","","","","","","","","","559.6999999880791","","94.69999998807907","","0","1","arrowleft","0","arrowleft","[0.675,0.325,0.85,0.15]","","",""
"sailing-trial","114","655296","0.0-11.0-73.0","","","","false","","","","","","","","","","null","","610.5","","1","1","null","null","arrowup","[0.675,0.325,0.85,0.15]","","",""
"sailing-trial","115","659194","0.0-11.0-74.0","","","","false","","","","","","","","","","453.7999999523163","","637.5","","3","1","arrowright","1","arrowright","[0.675,0.325,0.85,0.15]","","",""
"sailing-trial","116","660807","0.0-11.0-75.0","","","","false","","","","","","","","","","null","","535.5999999642372","","0","0","null","null","arrowup","[0.675,0.325,0.85,0.15]","","",""
"sailing-trial","117","664494","0.0-11.0-76.0","","","","false","","","","","","","","","","633.5","","484.69999998807907","","0","1","arrowleft","0","arrowleft","[0.675,0.325,0.85,0.15]","","",""
"sailing-trial","118","666960","0.0-11.0-77.0","","","","false","","","","","","","","","","null","","926","","2","1","null","null","arrowup","[0.675,0.325,0.85,0.15]","","",""
"sailing-trial","119","670249","0.0-11.0-78.0","","","","false","","","","","","","","","","461.5","","508.19999998807907","","3","0","arrowright","1","arrowright","[0.675,0.325,0.85,0.15]","","",""
"sailing-trial","120","673558","0.0-11.0-79.0","","","","false","","","","","","","","","","null","","771.9000000357628","","1","1","null","null","arrowup","[0.675,0.325,0.85,0.15]","","",""
"sailing-trial","121","677676","0.0-11.0-80.0","","","","false","","","","","","","","","","422.89999997615814","","318.69999998807907","","0","1","arrowleft","0","arrowleft","[0.675,0.325,0.85,0.15]","","",""
"sailing-trial","122","680542","0.0-11.0-81.0","","","","false","","","","","","","","","","null","","556.5","","0","1","null","null","arrowup","[0.675,0.325,0.85,0.15]","","",""
"sailing-trial","123","685077","0.0-11.0-82.0","","","","false","","","","","","","","","","529","","1549.699999988079","","3","0","arrowright","1","arrowright","[0.675,0.325,0.85,0.15]","","",""
"sailing-trial","124","687212","0.0-11.0-83.0","","","","false","","","","","","","","","","null","","835","","3","0","null","null","arrowup","[0.675,0.325,0.85,0.15]","","",""
"sailing-trial","125","690085","0.0-11.0-84.0","","","","false","","","","","","","","","","672.3000000119209","","79","","1","0","arrowleft","0","arrowright","[0.675,0.325,0.85,0.15]","","",""
"sailing-trial","126","692908","0.0-11.0-85.0","","","","false","","","","","","","","","","null","","955.1000000238419","","1","1","null","null","arrowup","[0.675,0.325,0.85,0.15]","","",""
"sailing-trial","127","696623","0.0-11.0-86.0","","","","false","","","","","","","","","","536.5","","485.80000001192093","","2","1","arrowright","1","arrowleft","[0.675,0.325,0.85,0.15]","","",""
"sailing-trial","128","700122","0.0-11.0-87.0","","","","false","","","","","","","","","","null","","517.6000000238419","","0","1","null","null","arrowup","[0.675,0.325,0.85,0.15]","","",""
"sailing-trial","129","703888","0.0-11.0-88.0","","","","false","","","","","","","","","","622.0999999642372","","496","","1","1","arrowleft","0","arrowright","[0.325,0.675,0.15,0.85]","","",""
"sailing-trial","130","706789","0.0-11.0-89.0","","","","false","","","","","","","","","","null","","835.3999999761581","","3","1","null","null","arrowup","[0.325,0.675,0.15,0.85]","","",""
"sailing-trial","131","710355","0.0-11.0-90.0","","","","false","","","","","","","","","","612.1000000238419","","111.69999998807907","","3","1","arrowright","1","arrowright","[0.325,0.675,0.15,0.85]","","",""
"sailing-trial","132","712522","0.0-11.0-91.0","","","","false","","","","","","","","","","null","","535","","3","1","null","null","arrowup","[0.325,0.675,0.15,0.85]","","",""
"sailing-trial","133","715185","0.0-11.0-92.0","","","","false","","","","","","","","","","493.69999998807907","","41","","0","0","arrowleft","0","arrowleft","[0.325,0.675,0.15,0.85]","","",""
"sailing-trial","134","718018","0.0-11.0-93.0","","","","false","","","","","","","","","","null","","725","","1","1","null","null","arrowup","[0.325,0.675,0.15,0.85]","","",""
"sailing-trial","135","721169","0.0-11.0-94.0","","","","false","","","","","","","","","","528.8000000119209","","215.80000001192093","","2","0","arrowright","1","arrowleft","[0.325,0.675,0.15,0.85]","","",""
"sailing-trial","136","723769","0.0-11.0-95.0","","","","false","","","","","","","","","","null","","595.2000000476837","","1","1","null","null","arrowup","[0.325,0.675,0.15,0.85]","","",""
"sailing-trial","137","727884","0.0-11.0-96.0","","","","false","","","","","","","","","","743.5","","537.8000000119209","","1","1","arrowleft","0","arrowright","[0.325,0.675,0.15,0.85]","","",""
"sailing-trial","138","729802","0.0-11.0-97.0","","","","false","","","","","","","","","","null","","582.0999999642372","","1","0","null","null","arrowup","[0.325,0.675,0.15,0.85]","","",""
"sailing-trial","139","734418","0.0-11.0-98.0","","","","false","","","","","","","","","","1204.8999999761581","","660.3000000119209","","3","1","arrowright","1","arrowright","[0.325,0.675,0.15,0.85]","","",""
"sailing-trial","140","736252","0.0-11.0-99.0","","","","false","","","","","","","","","","null","","100.20000004768372","","2","1","null","null","arrowup","[0.325,0.675,0.15,0.85]","","",""
"sailing-trial","141","739941","0.0-11.0-100.0","","","","false","","","","","","","","","","589.1999999880791","","781.3000000119209","","0","0","arrowleft","0","arrowleft","[0.325,0.675,0.15,0.85]","","",""
"sailing-trial","142","742484","0.0-11.0-101.0","","","","false","","","","","","","","","","null","","824.1999999880791","","3","1","null","null","arrowup","[0.325,0.675,0.15,0.85]","","",""
"sailing-trial","143","747532","0.0-11.0-102.0","","","","false","","","","","","","","","","660.6000000238419","","531.5","","3","0","arrowright","1","arrowright","[0.325,0.675,0.15,0.85]","","",""
"sailing-trial","144","749182","0.0-11.0-103.0","","","","false","","","","","","","","","","null","","528","","2","0","null","null","arrowup","[0.325,0.675,0.15,0.85]","","",""
"sailing-trial","145","752603","0.0-11.0-104.0","","","","false","","","","","","","","","","814.0999999642372","","422.5","","0","0","arrowleft","0","arrowleft","[0.325,0.675,0.15,0.85]","","",""
"sailing-trial","146","754552","0.0-11.0-105.0","","","","false","","","","","","","","","","null","","679.6999999880791","","0","0","null","null","arrowup","[0.325,0.675,0.15,0.85]","","",""
"sailing-trial","147","757748","0.0-11.0-106.0","","","","false","","","","","","","","","","537.2000000476837","","422.2000000476837","","3","0","arrowright","1","arrowright","[0.325,0.675,0.15,0.85]","","",""
"sailing-trial","148","760582","0.0-11.0-107.0","","","","false","","","","","","","","","","null","","845.3999999761581","","1","1","null","null","arrowup","[0.325,0.675,0.15,0.85]","","",""
"sailing-trial","149","764346","0.0-11.0-108.0","","","","false","","","","","","","","","","524.3999999761581","","407.5","","1","1","arrowleft","0","arrowright","[0.325,0.675,0.15,0.85]","","",""
"sailing-trial","150","766145","0.0-11.0-109.0","","","","false","","","","","","","","","","null","","469.30000001192093","","0","0","null","null","arrowup","[0.325,0.675,0.15,0.85]","","",""
"sailing-trial","151","770182","0.0-11.0-110.0","","","","false","","","","","","","","","","707.3999999761581","","418.30000001192093","","2","1","arrowright","1","arrowleft","[0.675,0.325,0.85,0.15]","","",""
"sailing-trial","152","772896","0.0-11.0-111.0","","","","false","","","","","","","","","","null","","911.1999999880791","","0","1","null","null","arrowup","[0.675,0.325,0.85,0.15]","","",""
"sailing-trial","153","776677","0.0-11.0-112.0","","","","false","","","","","","","","","","838.6000000238419","","145.69999998807907","","0","1","arrowleft","0","arrowleft","[0.675,0.325,0.85,0.15]","","",""
"sailing-trial","154","779063","0.0-11.0-113.0","","","","false","","","","","","","","","","null","","752.1999999880791","","1","1","null","null","arrowup","[0.675,0.325,0.85,0.15]","","",""
"sailing-trial","155","781849","0.0-11.0-114.0","","","","false","","","","","","","","","","565.8000000119209","","15.599999964237213","","3","0","arrowright","1","arrowright","[0.675,0.325,0.85,0.15]","","",""
"sailing-trial","156","783697","0.0-11.0-115.0","","","","false","","","","","","","","","","null","","538.3999999761581","","3","0","null","null","arrowup","[0.675,0.325,0.85,0.15]","","",""
"sailing-trial","157","789412","0.0-11.0-116.0","","","","false","","","","","","","","","","584.6999999880791","","2303.900000035763","","0","1","arrowleft","0","arrowleft","[0.675,0.325,0.85,0.15]","","",""
"sailing-trial","158","791977","0.0-11.0-117.0","","","","false","","","","","","","","","","null","","700.5","","2","1","null","null","arrowup","[0.675,0.325,0.85,0.15]","","",""
"sailing-trial","159","795326","0.0-11.0-118.0","","","","false","","","","","","","","","","433","","108.19999998807907","","2","1","arrowright","1","arrowleft","[0.675,0.325,0.85,0.15]","","",""
"sailing-trial","160","797876","0.0-11.0-119.0","","","","false","","","","","","","","","","null","","365.89999997615814","","1","1","null","null","arrowup","[0.675,0.325,0.85,0.15]","","",""
"sailing-trial","161","803258","0.0-11.0-120.0","","","","false","","","","","","","","","","679.6999999880791","","1837.5999999642372","","0","1","arrowleft","0","arrowleft","[0.675,0.325,0.85,0.15]","","",""
"sailing-trial","162","805334","0.0-11.0-121.0","","","","false","","","","","","","","","","null","","813","","3","0","null","null","arrowup","[0.675,0.325,0.85,0.15]","","",""
"sailing-trial","163","809911","0.0-11.0-122.0","","","","false","","","","","","","","","","768.6999999880791","","646.3000000119209","","3","0","arrowright","1","arrowright","[0.675,0.325,0.85,0.15]","","",""
"sailing-trial","164","813590","0.0-11.0-123.0","","","","false","","","","","","","","","","null","","1796.5","","1","1","null","null","arrowup","[0.675,0.325,0.85,0.15]","","",""
"sailing-trial","165","817953","0.0-11.0-124.0","","","","false","","","","","","","","","","1449.699999988079","","702.6000000238419","","0","0","arrowleft","0","arrowleft","[0.675,0.325,0.85,0.15]","","",""
"sailing-trial","166","820925","0.0-11.0-125.0","","","","false","","","","","","","","","","null","","1217.9000000357628","","3","1","null","null","arrowup","[0.675,0.325,0.85,0.15]","","",""
"sailing-trial","167","824507","0.0-11.0-126.0","","","","false","","","","","","","","","","573.8000000119209","","19.400000035762787","","2","1","arrowright","1","arrowleft","[0.675,0.325,0.85,0.15]","","",""
"sailing-trial","168","829041","0.0-11.0-127.0","","","","false","","","","","","","","","","null","","725.6999999880791","","0","1","null","null","arrowup","[0.675,0.325,0.85,0.15]","","",""
"sailing-trial","169","832540","0.0-11.0-128.0","","","","false","","","","","","","","","","664.9000000357628","","3.700000047683716","","0","1","arrowleft","0","arrowleft","[0.85,0.15,0.675,0.325]","","",""
"sailing-trial","170","834619","0.0-11.0-129.0","","","","false","","","","","","","","","","null","","571.1999999880791","","1","0","null","null","arrowup","[0.85,0.15,0.675,0.325]","","",""
"sailing-trial","171","838218","0.0-11.0-130.0","","","","false","","","","","","","","","","642.1000000238419","","226.10000002384186","","1","0","arrowleft","0","arrowright","[0.85,0.15,0.675,0.325]","","",""
"sailing-trial","172","841472","0.0-11.0-131.0","","","","false","","","","","","","","","","null","","1111.9000000357628","","3","1","null","null","arrowup","[0.85,0.15,0.675,0.325]","","",""
"sailing-trial","173","844434","0.0-11.0-132.0","","","","false","","","","","","","","","","625.1000000238419","","15","","3","0","arrowright","1","arrowright","[0.85,0.15,0.675,0.325]","","",""
"sailing-trial","174","846141","0.0-11.0-133.0","","","","false","","","","","","","","","","null","","489.39999997615814","","3","0","null","null","arrowup","[0.85,0.15,0.675,0.325]","","",""
"sailing-trial","175","851021","0.0-11.0-134.0","","","","false","","","","","","","","","","571.8999999761581","","406.80000001192093","","0","1","arrowleft","0","arrowleft","[0.85,0.15,0.675,0.325]","","",""
"sailing-trial","176","852975","0.0-11.0-135.0","","","","false","","","","","","","","","","null","","749.1000000238419","","3","0","null","null","arrowup","[0.85,0.15,0.675,0.325]","","",""
"sailing-trial","177","856918","0.0-11.0-136.0","","","","false","","","","","","","","","","1021.7000000476837","","307.10000002384186","","2","1","arrowright","1","arrowleft","[0.85,0.15,0.675,0.325]","","",""
"sailing-trial","178","858634","0.0-11.0-137.0","","","","false","","","","","","","","","","null","","581.3000000119209","","1","0","null","null","arrowup","[0.85,0.15,0.675,0.325]","","",""
"sailing-trial","179","862669","0.0-11.0-138.0","","","","false","","","","","","","","","","894.5999999642372","","396.10000002384186","","0","1","arrowleft","0","arrowleft","[0.85,0.15,0.675,0.325]","","",""
"sailing-trial","180","864369","0.0-11.0-139.0","","","","false","","","","","","","","","","null","","501.80000001192093","","1","0","null","null","arrowup","[0.85,0.15,0.675,0.325]","","",""
"sailing-trial","181","867448","0.0-11.0-140.0","","","","false","","","","","","","","","","520.8999999761581","","334.60000002384186","","3","0","arrowright","1","arrowright","[0.85,0.15,0.675,0.325]","","",""
"sailing-trial","182","869533","0.0-11.0-141.0","","","","false","","","","","","","","","","null","","763.3000000119209","","3","0","null","null","arrowup","[0.85,0.15,0.675,0.325]","","",""
"sailing-trial","183","874499","0.0-11.0-142.0","","","","false","","","","","","","","","","515.1000000238419","","745.3000000119209","","0","0","arrowleft","0","arrowleft","[0.85,0.15,0.675,0.325]","","",""
"sailing-trial","184","877951","0.0-11.0-143.0","","","","false","","","","","","","","","","null","","1295","","0","1","null","null","arrowup","[0.85,0.15,0.675,0.325]","","",""
"sailing-trial","185","881191","0.0-11.0-144.0","","","","false","","","","","","","","","","571.8000000119209","","400.5","","3","0","arrowright","1","arrowright","[0.675,0.325,0.85,0.15]","","",""
"sailing-trial","186","884066","0.0-11.0-145.0","","","","false","","","","","","","","","","null","","630.5999999642372","","1","1","null","null","arrowup","[0.675,0.325,0.85,0.15]","","",""
"sailing-trial","187","888885","0.0-11.0-146.0","","","","false","","","","","","","","","","846.6999999880791","","234.89999997615814","","2","0","arrowright","1","arrowleft","[0.675,0.325,0.85,0.15]","","",""
"sailing-trial","188","891745","0.0-11.0-147.0","","","","false","","","","","","","","","","null","","808.5","","1","0","null","null","arrowup","[0.675,0.325,0.85,0.15]","","",""
"sailing-trial","189","896161","0.0-11.0-148.0","","","","false","","","","","","","","","","472.9000000357628","","385.19999998807907","","3","0","arrowright","1","arrowright","[0.675,0.325,0.85,0.15]","","",""
"sailing-trial","190","898308","0.0-11.0-149.0","","","","false","","","","","","","","","","null","","559.3000000119209","","1","0","null","null","arrowup","[0.675,0.325,0.85,0.15]","","",""
"sailing-trial","191","901847","0.0-11.0-150.0","","","","false","","","","","","","","","","490.80000001192093","","271.7999999523163","","0","1","arrowleft","0","arrowleft","[0.675,0.325,0.85,0.15]","","",""
"sailing-trial","192","904215","0.0-11.0-151.0","","","","false","","","","","","","","","","null","","849.5","","0","1","null","null","arrowup","[0.675,0.325,0.85,0.15]","","",""
"sailing-trial","193","908847","0.0-11.0-152.0","","","","false","","","","","","","","","","606.1000000238419","","47","","0","1","arrowleft","0","arrowleft","[0.675,0.325,0.85,0.15]","","",""
"sailing-trial","194","911809","0.0-11.0-153.0","","","","false","","","","","","","","","","null","","898.3000000119209","","0","0","null","null","arrowup","[0.675,0.325,0.85,0.15]","","",""
"sailing-trial","195","915632","0.0-11.0-154.0","","","","false","","","","","","","","","","1279.699999988079","","339.9000000357628","","3","0","arrowright","1","arrowright","[0.675,0.325,0.85,0.15]","","",""
"sailing-trial","196","918827","0.0-11.0-155.0","","","","false","","","","","","","","","","null","","1187.2999999523163","","1","1","null","null","arrowup","[0.675,0.325,0.85,0.15]","","",""
"sailing-trial","197","922478","0.0-11.0-156.0","","","","false","","","","","","","","","","561.6999999880791","","220.19999998807907","","0","1","arrowleft","0","arrowleft","[0.675,0.325,0.85,0.15]","","",""
"sailing-trial","198","924028","0.0-11.0-157.0","","","","false","","","","","","","","","","null","","240.80000001192093","","1","0","null","null","arrowup","[0.675,0.325,0.85,0.15]","","",""
"sailing-trial","199","927411","0.0-11.0-158.0","","","","false","","","","","","","","","","576.1999999880791","","21.799999952316284","","2","1","arrowright","1","arrowleft","[0.675,0.325,0.85,0.15]","","",""
"sailing-trial","200","930961","0.0-11.0-159.0","","","","false","","","","","","","","","","null","","572.9000000357628","","2","1","null","null","arrowup","[0.675,0.325,0.85,0.15]","","",""
"sailing-trial","201","934457","0.0-11.0-160.0","","","","false","","","","","","","","","","578.5999999642372","","581.4000000357628","","0","0","arrowleft","0","arrowleft","[0.675,0.325,0.85,0.15]","","",""
"sailing-trial","202","937228","0.0-11.0-161.0","","","","false","","","","","","","","","","null","","1022.3999999761581","","1","1","null","null","arrowup","[0.675,0.325,0.85,0.15]","","",""
"sailing-trial","203","942045","0.0-11.0-162.0","","","","false","","","","","","","","","","581.2000000476837","","534.3000000119209","","1","1","arrowleft","0","arrowright","[0.675,0.325,0.85,0.15]","","",""
"sailing-trial","204","944940","0.0-11.0-163.0","","","","false","","","","","","","","","","null","","765.9000000357628","","2","1","null","null","arrowup","[0.675,0.325,0.85,0.15]","","",""
"sailing-trial","205","948256","0.0-11.0-164.0","","","","false","","","","","","","","","","631.5999999642372","","424.5999999642372","","3","0","arrowright","1","arrowright","[0.85,0.15,0.675,0.325]","","",""
"sailing-trial","206","951639","0.0-11.0-165.0","","","","false","","","","","","","","","","null","","1437.699999988079","","1","1","null","null","arrowup","[0.85,0.15,0.675,0.325]","","",""
"sailing-trial","207","955701","0.0-11.0-166.0","","","","false","","","","","","","","","","466.80000001192093","","1102.699999988079","","2","0","arrowright","1","arrowleft","[0.85,0.15,0.675,0.325]","","",""
"sailing-trial","208","958257","0.0-11.0-167.0","","","","false","","","","","","","","","","null","","924.7999999523163","","0","1","null","null","arrowup","[0.85,0.15,0.675,0.325]","","",""
"sailing-trial","209","962757","0.0-11.0-168.0","","","","false","","","","","","","","","","564","","364.69999998807907","","0","1","arrowleft","0","arrowleft","[0.85,0.15,0.675,0.325]","","",""
"sailing-trial","210","964923","0.0-11.0-169.0","","","","false","","","","","","","","","","null","","478.69999998807907","","1","1","null","null","arrowup","[0.85,0.15,0.675,0.325]","","",""
"sailing-trial","211","969424","0.0-11.0-170.0","","","","false","","","","","","","","","","957.6999999880791","","388.80000001192093","","0","1","arrowleft","0","arrowleft","[0.85,0.15,0.675,0.325]","","",""
"sailing-trial","212","972772","0.0-11.0-171.0","","","","false","","","","","","","","","","null","","1469.199999988079","","2","1","null","null","arrowup","[0.85,0.15,0.675,0.325]","","",""
"sailing-trial","213","976323","0.0-11.0-172.0","","","","false","","","","","","","","","","644","","188.79999995231628","","0","1","arrowleft","0","arrowleft","[0.85,0.15,0.675,0.325]","","",""
"sailing-trial","214","978340","0.0-11.0-173.0","","","","false","","","","","","","","","","null","","654.0999999642372","","2","0","null","null","arrowup","[0.85,0.15,0.675,0.325]","","",""
"sailing-trial","215","983221","0.0-11.0-174.0","","","","false","","","","","","","","","","741.6999999880791","","1292","","0","1","arrowleft","0","arrowleft","[0.85,0.15,0.675,0.325]","","",""
"sailing-trial","216","985504","0.0-11.0-175.0","","","","false","","","","","","","","","","null","","569.0999999642372","","0","1","null","null","arrowup","[0.85,0.15,0.675,0.325]","","",""
"sailing-trial","217","989103","0.0-11.0-176.0","","","","false","","","","","","","","","","673.8000000119209","","99.69999998807907","","0","1","arrowleft","0","arrowleft","[0.85,0.15,0.675,0.325]","","",""
"sailing-trial","218","991784","0.0-11.0-177.0","","","","false","","","","","","","","","","null","","480.80000001192093","","2","1","null","null","arrowup","[0.85,0.15,0.675,0.325]","","",""
"sailing-trial","219","995468","0.0-11.0-178.0","","","","false","","","","","","","","","","567","","459.19999998807907","","0","1","arrowleft","0","arrowleft","[0.85,0.15,0.675,0.325]","","",""
"sailing-trial","220","997784","0.0-11.0-179.0","","","","false","","","","","","","","","","null","","541","","2","1","null","null","arrowup","[0.85,0.15,0.675,0.325]","","",""
"sailing-trial","221","1001486","0.0-11.0-180.0","","","","false","","","","","","","","","","535.1999999880791","","355.60000002384186","","0","1","arrowleft","0","arrowleft","[0.675,0.325,0.85,0.15]","","",""
"sailing-trial","222","1003231","0.0-11.0-181.0","","","","false","","","","","","","","","","null","","576.8000000119209","","3","0","null","null","arrowup","[0.675,0.325,0.85,0.15]","","",""
"sailing-trial","223","1007151","0.0-11.0-182.0","","","","false","","","","","","","","","","1047.5","","275.7000000476837","","2","1","arrowright","1","arrowleft","[0.675,0.325,0.85,0.15]","","",""
"sailing-trial","224","1009318","0.0-11.0-183.0","","","","false","","","","","","","","","","null","","461","","0","1","null","null","arrowup","[0.675,0.325,0.85,0.15]","","",""
"sailing-trial","225","1013733","0.0-11.0-184.0","","","","false","","","","","","","","","","770.8000000119209","","414.89999997615814","","2","1","arrowright","1","arrowleft","[0.675,0.325,0.85,0.15]","","",""
"sailing-trial","226","1016234","0.0-11.0-185.0","","","","false","","","","","","","","","","null","","572.8000000119209","","2","1","null","null","arrowup","[0.675,0.325,0.85,0.15]","","",""
"sailing-trial","227","1019766","0.0-11.0-186.0","","","","false","","","","","","","","","","798.5","","39.5","","2","1","arrowright","1","arrowleft","[0.675,0.325,0.85,0.15]","","",""
"sailing-trial","228","1021869","0.0-11.0-187.0","","","","false","","","","","","","","","","null","","509.89999997615814","","0","0","null","null","arrowup","[0.675,0.325,0.85,0.15]","","",""
"sailing-trial","229","1026066","0.0-11.0-188.0","","","","false","","","","","","","","","","763.6999999880791","","597","","2","1","arrowright","1","arrowleft","[0.675,0.325,0.85,0.15]","","",""
"sailing-trial","230","1028480","0.0-11.0-189.0","","","","false","","","","","","","","","","null","","607.5","","2","1","null","null","arrowup","[0.675,0.325,0.85,0.15]","","",""
"sailing-trial","231","1032564","0.0-11.0-190.0","","","","false","","","","","","","","","","719.1999999880791","","1245","","2","0","arrowright","1","arrowleft","[0.675,0.325,0.85,0.15]","","",""
"sailing-trial","232","1036128","0.0-11.0-191.0","","","","false","","","","","","","","","","null","","1358.699999988079","","1","1","null","null","arrowup","[0.675,0.325,0.85,0.15]","","",""
"sailing-trial","233","1039696","0.0-11.0-192.0","","","","false","","","","","","","","","","494","","400.4000000357628","","2","1","arrowright","1","arrowleft","[0.675,0.325,0.85,0.15]","","",""
"sailing-trial","234","1043196","0.0-11.0-193.0","","","","false","","","","","","","","","","null","","113.80000001192093","","2","1","null","null","arrowup","[0.675,0.325,0.85,0.15]","","",""
"sailing-trial","235","1047834","0.0-11.0-194.0","","","","false","","","","","","","","","","732.6999999880791","","390.69999998807907","","0","0","arrowleft","0","arrowleft","[0.675,0.325,0.85,0.15]","","",""
"sailing-trial","236","1050613","0.0-11.0-195.0","","","","false","","","","","","","","","","null","","1195.1000000238419","","0","1","null","null","arrowup","[0.675,0.325,0.85,0.15]","","",""
"sailing-trial","237","1054108","0.0-11.0-196.0","","","","false","","","","","","","","","","710.6999999880791","","692.5","","1","0","arrowleft","0","arrowright","[0.85,0.15,0.675,0.325]","","",""
"sailing-trial","238","1056607","0.0-11.0-197.0","","","","false","","","","","","","","","","null","","902.6000000238419","","1","0","null","null","arrowup","[0.85,0.15,0.675,0.325]","","",""
"sailing-trial","239","1060609","0.0-11.0-198.0","","","","false","","","","","","","","","","639.1999999880791","","338.30000001192093","","0","1","arrowleft","0","arrowleft","[0.85,0.15,0.675,0.325]","","",""
"sailing-trial","240","1063094","0.0-11.0-199.0","","","","false","","","","","","","","","","null","","467","","1","0","null","null","arrowup","[0.85,0.15,0.675,0.325]","","",""
"sailing-trial","241","1066660","0.0-11.0-200.0","","","","false","","","","","","","","","","537.5","","360.19999998807907","","2","1","arrowright","1","arrowleft","[0.85,0.15,0.675,0.325]","","",""
"sailing-trial","242","1069021","0.0-11.0-201.0","","","","false","","","","","","","","","","null","","810.8999999761581","","2","0","null","null","arrowup","[0.85,0.15,0.675,0.325]","","",""
"sailing-trial","243","1072988","0.0-11.0-202.0","","","","false","","","","","","","","","","1014.4000000357628","","633.3000000119209","","3","0","arrowright","1","arrowright","[0.85,0.15,0.675,0.325]","","",""
"sailing-trial","244","1075053","0.0-11.0-203.0","","","","false","","","","","","","","","","null","","737.5","","3","0","null","null","arrowup","[0.85,0.15,0.675,0.325]","","",""
"sailing-trial","245","1078198","0.0-11.0-204.0","","","","false","","","","","","","","","","714.8999999761581","","303.9000000357628","","0","0","arrowleft","0","arrowleft","[0.85,0.15,0.675,0.325]","","",""
"sailing-trial","246","1081463","0.0-11.0-205.0","","","","false","","","","","","","","","","null","","931.1999999880791","","3","0","null","null","arrowup","[0.85,0.15,0.675,0.325]","","",""
"sailing-trial","247","1084730","0.0-11.0-206.0","","","","false","","","","","","","","","","602.8999999761581","","410.4000000357628","","1","0","arrowleft","0","arrowright","[0.85,0.15,0.675,0.325]","","",""
"sailing-trial","248","1087740","0.0-11.0-207.0","","","","false","","","","","","","","","","null","","1416.5999999642372","","3","0","null","null","arrowup","[0.85,0.15,0.675,0.325]","","",""
"sailing-trial","249","1092756","0.0-11.0-208.0","","","","false","","","","","","","","","","654.5999999642372","","1160.3999999761581","","0","1","arrowleft","0","arrowleft","[0.85,0.15,0.675,0.325]","","",""
"sailing-trial","250","1094403","0.0-11.0-209.0","","","","false","","","","","","","","","","null","","578.3000000119209","","1","0","null","null","arrowup","[0.85,0.15,0.675,0.325]","","",""
"sailing-trial","251","1097788","0.0-11.0-210.0","","","","false","","","","","","","","","","598.9000000357628","","169.5999999642372","","2","1","arrowright","1","arrowleft","[0.85,0.15,0.675,0.325]","","",""
"sailing-trial","252","1099268","0.0-11.0-211.0","","","","false","","","","","","","","","","null","","422.39999997615814","","1","0","null","null","arrowup","[0.85,0.15,0.675,0.325]","","",""
"sailing-trial","253","1103738","0.0-11.0-212.0","","","","false","","","","","","","","","","1164.8999999761581","","637.3000000119209","","0","1","arrowleft","0","arrowleft","[0.325,0.675,0.15,0.85]","","",""
"sailing-trial","254","1105942","0.0-11.0-213.0","","","","false","","","","","","","","","","null","","966.5","","0","0","null","null","arrowup","[0.325,0.675,0.15,0.85]","","",""
"sailing-trial","255","1109637","0.0-11.0-214.0","","","","false","","","","","","","","","","670.1999999880791","","259.80000001192093","","3","1","arrowright","1","arrowright","[0.325,0.675,0.15,0.85]","","",""
"sailing-trial","256","1111986","0.0-11.0-215.0","","","","false","","","","","","","","","","null","","501.80000001192093","","3","1","null","null","arrowup","[0.325,0.675,0.15,0.85]","","",""
"sailing-trial","257","1114961","0.0-11.0-216.0","","","","false","","","","","","","","","","470.89999997615814","","372.4000000357628","","0","0","arrowleft","0","arrowleft","[0.325,0.675,0.15,0.85]","","",""
"sailing-trial","258","1116500","0.0-11.0-217.0","","","","false","","","","","","","","","","null","","478.80000001192093","","1","0","null","null","arrowup","[0.325,0.675,0.15,0.85]","","",""
"sailing-trial","259","1119938","0.0-11.0-218.0","","","","false","","","","","","","","","","547.1999999880791","","60.69999998807907","","3","1","arrowright","1","arrowright","[0.325,0.675,0.15,0.85]","","",""
"sailing-trial","260","1121951","0.0-11.0-219.0","","","","false","","","","","","","","","","null","","601.8000000119209","","2","0","null","null","arrowup","[0.325,0.675,0.15,0.85]","","",""
"sailing-trial","261","1125769","0.0-11.0-220.0","","","","false","","","","","","","","","","718","","260.89999997615814","","3","1","arrowright","1","arrowright","[0.325,0.675,0.15,0.85]","","",""
"sailing-trial","262","1127786","0.0-11.0-221.0","","","","false","","","","","","","","","","null","","154.30000001192093","","3","1","null","null","arrowup","[0.325,0.675,0.15,0.85]","","",""
"sailing-trial","263","1131470","0.0-11.0-222.0","","","","false","","","","","","","","","","482","","619.4000000357628","","3","1","arrowright","1","arrowright","[0.325,0.675,0.15,0.85]","","",""
"sailing-trial","264","1133448","0.0-11.0-223.0","","","","false","","","","","","","","","","null","","580.6999999880791","","2","0","null","null","arrowup","[0.325,0.675,0.15,0.85]","","",""
"sailing-trial","265","1137319","0.0-11.0-224.0","","","","false","","","","","","","","","","604.6999999880791","","449.4000000357628","","3","1","arrowright","1","arrowright","[0.325,0.675,0.15,0.85]","","",""
"sailing-trial","266","1139912","0.0-11.0-225.0","","","","false","","","","","","","","","","null","","470.80000001192093","","1","1","null","null","arrowup","[0.325,0.675,0.15,0.85]","","",""
"sailing-trial","267","1143817","0.0-11.0-226.0","","","","false","","","","","","","","","","492.5","","519.2000000476837","","3","1","arrowright","1","arrowright","[0.325,0.675,0.15,0.85]","","",""
"sailing-trial","268","1146450","0.0-11.0-227.0","","","","false","","","","","","","","","","null","","570.1999999880791","","1","1","null","null","arrowup","[0.325,0.675,0.15,0.85]","","",""
"sailing-trial","269","1150199","0.0-11.0-228.0","","","","false","","","","","","","","","","541.7000000476837","","586.6000000238419","","3","1","arrowright","1","arrowright","[0.325,0.675,0.15,0.85]","","",""
"sailing-trial","270","1151770","0.0-11.0-229.0","","","","false","","","","","","","","","","null","","93.5","","2","0","null","null","arrowup","[0.325,0.675,0.15,0.85]","","",""
"sailing-trial","271","1155104","0.0-11.0-230.0","","","","false","","","","","","","","","","716.0999999642372","","384.80000001192093","","3","0","arrowright","1","arrowright","[0.675,0.325,0.85,0.15]","","",""
"sailing-trial","272","1158415","0.0-11.0-231.0","","","","false","","","","","","","","","","null","","486.69999998807907","","3","0","null","null","arrowup","[0.675,0.325,0.85,0.15]","","",""
"sailing-trial","273","1161619","0.0-11.0-232.0","","","","false","","","","","","","","","","653.5999999642372","","326.5","","3","0","arrowright","1","arrowright","[0.675,0.325,0.85,0.15]","","",""
"sailing-trial","274","1164565","0.0-11.0-233.0","","","","false","","","","","","","","","","null","","570.9000000357628","","1","1","null","null","arrowup","[0.675,0.325,0.85,0.15]","","",""
"sailing-trial","275","1168063","0.0-11.0-234.0","","","","false","","","","","","","","","","591.3000000119209","","169.69999998807907","","2","1","arrowright","1","arrowleft","[0.675,0.325,0.85,0.15]","","",""
"sailing-trial","276","1169727","0.0-11.0-235.0","","","","false","","","","","","","","","","null","","105","","2","0","null","null","arrowup","[0.675,0.325,0.85,0.15]","","",""
"sailing-trial","277","1174362","0.0-11.0-236.0","","","","false","","","","","","","","","","942.4000000357628","","714","","0","1","arrowleft","0","arrowleft","[0.675,0.325,0.85,0.15]","","",""
"sailing-trial","278","1177329","0.0-11.0-237.0","","","","false","","","","","","","","","","null","","526","","2","1","null","null","arrowup","[0.675,0.325,0.85,0.15]","","",""
"sailing-trial","279","1180437","0.0-11.0-238.0","","","","false","","","","","","","","","","787","","262.80000001192093","","1","0","arrowleft","0","arrowright","[0.675,0.325,0.85,0.15]","","",""
"sailing-trial","280","1182297","0.0-11.0-239.0","","","","false","","","","","","","","","","null","","777.5","","1","0","null","null","arrowup","[0.675,0.325,0.85,0.15]","","",""
"sailing-trial","281","1185548","0.0-11.0-240.0","","","","false","","","","","","","","","","648","","271.5","","0","0","arrowleft","0","arrowleft","[0.675,0.325,0.85,0.15]","","",""
"sailing-trial","282","1188278","0.0-11.0-241.0","","","","false","","","","","","","","","","null","","690.8000000119209","","2","1","null","null","arrowup","[0.675,0.325,0.85,0.15]","","",""
"sailing-trial","283","1191519","0.0-11.0-242.0","","","","false","","","","","","","","","","538","","376.5999999642372","","3","0","arrowright","1","arrowright","[0.675,0.325,0.85,0.15]","","",""
"sailing-trial","284","1194662","0.0-11.0-243.0","","","","false","","","","","","","","","","null","","1294","","0","1","null","null","arrowup","[0.675,0.325,0.85,0.15]","","",""
"sailing-trial","285","1198110","0.0-11.0-244.0","","","","false","","","","","","","","","","537.8999999761581","","288.5","","2","1","arrowright","1","arrowleft","[0.675,0.325,0.85,0.15]","","",""
"sailing-trial","286","1200432","0.0-11.0-245.0","","","","false","","","","","","","","","","null","","896.1999999880791","","3","0","null","null","arrowup","[0.675,0.325,0.85,0.15]","","",""
"sailing-trial","287","1204509","0.0-11.0-246.0","","","","false","","","","","","","","","","822.1000000238419","","433.5","","2","1","arrowright","1","arrowleft","[0.675,0.325,0.85,0.15]","","",""
"sailing-trial","288","1206761","0.0-11.0-247.0","","","","false","","","","","","","","","","null","","900.6999999880791","","1","0","null","null","arrowup","[0.675,0.325,0.85,0.15]","","",""
"sailing-trial","289","1210861","0.0-11.0-248.0","","","","false","","","","","","","","","","690.8000000119209","","365.19999998807907","","0","1","arrowleft","0","arrowleft","[0.675,0.325,0.85,0.15]","","",""
"sailing-trial","290","1213391","0.0-11.0-249.0","","","","false","","","","","","","","","","null","","614.8000000119209","","1","1","null","null","arrowup","[0.675,0.325,0.85,0.15]","","",""
"sailing-trial","291","1218190","0.0-11.0-250.0","","","","false","","","","","","","","","","667.8000000119209","","161.30000001192093","","0","1","arrowleft","0","arrowleft","[0.675,0.325,0.85,0.15]","","",""
"sailing-trial","292","1220696","0.0-11.0-251.0","","","","false","","","","","","","","","","null","","983.1000000238419","","1","1","null","null","arrowup","[0.675,0.325,0.85,0.15]","","",""
"sailing-trial","293","1224508","0.0-11.0-252.0","","","","false","","","","","","","","","","625.8999999761581","","358.4000000357628","","0","1","arrowleft","0","arrowleft","[0.675,0.325,0.85,0.15]","","",""
"sailing-trial","294","1226606","0.0-11.0-253.0","","","","false","","","","","","","","","","null","","497.69999998807907","","0","1","null","null","arrowup","[0.675,0.325,0.85,0.15]","","",""
"sailing-trial","295","1229822","0.0-11.0-254.0","","","","false","","","","","","","","","","567.1999999880791","","319.39999997615814","","0","0","arrowleft","0","arrowleft","[0.15,0.85,0.325,0.675]","","",""
"sailing-trial","296","1231797","0.0-11.0-255.0","","","","false","","","","","","","","","","null","","0.19999998807907104","","0","0","null","null","arrowup","[0.15,0.85,0.325,0.675]","","",""
"sailing-trial","297","1235173","0.0-11.0-256.0","","","","false","","","","","","","","","","572.3000000119209","","11.800000011920929","","3","1","arrowright","1","arrowright","[0.15,0.85,0.325,0.675]","","",""
"sailing-trial","298","1237337","0.0-11.0-257.0","","","","false","","","","","","","","","","null","","944","","0","0","null","null","arrowup","[0.15,0.85,0.325,0.675]","","",""
"sailing-trial","299","1241554","0.0-11.0-258.0","","","","false","","","","","","","","","","44.59999996423721","","1327.1000000238419","","3","1","arrowright","1","arrowright","[0.15,0.85,0.325,0.675]","","",""
"sailing-trial","300","1243820","0.0-11.0-259.0","","","","false","","","","","","","","","","null","","587.1999999880791","","3","1","null","null","arrowup","[0.15,0.85,0.325,0.675]","","",""
"sailing-trial","301","1247131","0.0-11.0-260.0","","","","false","","","","","","","","","","512.8000000119209","","246.60000002384186","","3","0","arrowright","1","arrowright","[0.15,0.85,0.325,0.675]","","",""
"sailing-trial","302","1250535","0.0-11.0-261.0","","","","false","","","","","","","","","","null","","852.7999999523163","","2","1","null","null","arrowup","[0.15,0.85,0.325,0.675]","","",""
"sailing-trial","303","1254429","0.0-11.0-262.0","","","","false","","","","","","","","","","551.1999999880791","","382.89999997615814","","0","0","arrowleft","0","arrowleft","[0.15,0.85,0.325,0.675]","","",""
"sailing-trial","304","1257787","0.0-11.0-263.0","","","","false","","","","","","","","","","null","","1010.2000000476837","","2","1","null","null","arrowup","[0.15,0.85,0.325,0.675]","","",""
"sailing-trial","305","1263202","0.0-11.0-264.0","","","","false","","","","","","","","","","486.30000001192093","","280.4000000357628","","1","1","arrowleft","0","arrowright","[0.15,0.85,0.325,0.675]","","",""
"sailing-trial","306","1265800","0.0-11.0-265.0","","","","false","","","","","","","","","","null","","598.2999999523163","","3","1","null","null","arrowup","[0.15,0.85,0.325,0.675]","","",""
"sailing-trial","307","1269802","0.0-11.0-266.0","","","","false","","","","","","","","","","804.3000000119209","","267.19999998807907","","1","1","arrowleft","0","arrowright","[0.15,0.85,0.325,0.675]","","",""
"sailing-trial","308","1272092","0.0-11.0-267.0","","","","false","","","","","","","","","","null","","1042.5","","2","0","null","null","arrowup","[0.15,0.85,0.325,0.675]","","",""
"sailing-trial","309","1276083","0.0-11.0-268.0","","","","false","","","","","","","","","","812.6000000238419","","403.30000001192093","","2","1","arrowright","1","arrowleft","[0.15,0.85,0.325,0.675]","","",""
"sailing-trial","310","1279316","0.0-11.0-269.0","","","","false","","","","","","","","","","null","","820.8000000119209","","3","1","null","null","arrowup","[0.15,0.85,0.325,0.675]","","",""
"sailing-trial","311","1282899","0.0-11.0-270.0","","","","false","","","","","","","","","","560.3999999761581","","176.5","","2","1","arrowright","1","arrowleft","[0.15,0.85,0.325,0.675]","","",""
"sailing-trial","312","1284665","0.0-11.0-271.0","","","","false","","","","","","","","","","null","","531.1000000238419","","2","0","null","null","arrowup","[0.15,0.85,0.325,0.675]","","",""
"sailing-trial","313","1287755","0.0-11.0-272.0","","","","false","","","","","","","","","","501.39999997615814","","369.19999998807907","","2","0","arrowright","1","arrowleft","[0.15,0.85,0.325,0.675]","","",""
"sailing-trial","314","1290328","0.0-11.0-273.0","","","","false","","","","","","","","","","null","","667.9000000357628","","2","0","null","null","arrowup","[0.15,0.85,0.325,0.675]","","",""
"sailing-trial","315","1293370","0.0-11.0-274.0","","","","false","","","","","","","","","","488.0999999642372","","349","","3","0","arrowright","1","arrowright","[0.325,0.675,0.15,0.85]","","",""
"sailing-trial","316","1296580","0.0-11.0-275.0","","","","false","","","","","","","","","","null","","1251.800000011921","","1","1","null","null","arrowup","[0.325,0.675,0.15,0.85]","","",""
"sailing-trial","317","1299287","0.0-11.0-276.0","","","","false","","","","","","","","","","313.80000001192093","","208.5","","0","0","arrowleft","0","arrowleft","[0.325,0.675,0.15,0.85]","","",""
"sailing-trial","318","1301287","0.0-11.0-277.0","","","","false","","","","","","","","","","null","","785.9000000357628","","1","0","null","null","arrowup","[0.325,0.675,0.15,0.85]","","",""
"sailing-trial","319","1305247","0.0-11.0-278.0","","","","false","","","","","","","","","","965.5","","299.30000001192093","","1","1","arrowleft","0","arrowright","[0.325,0.675,0.15,0.85]","","",""
"sailing-trial","320","1307681","0.0-11.0-279.0","","","","false","","","","","","","","","","null","","210","","0","1","null","null","arrowup","[0.325,0.675,0.15,0.85]","","",""
"sailing-trial","321","1311095","0.0-11.0-280.0","","","","false","","","","","","","","","","486.39999997615814","","173","","1","1","arrowleft","0","arrowright","[0.325,0.675,0.15,0.85]","","",""
"sailing-trial","322","1312861","0.0-11.0-281.0","","","","false","","","","","","","","","","null","","190.10000002384186","","0","1","null","null","arrowup","[0.325,0.675,0.15,0.85]","","",""
"sailing-trial","323","1316779","0.0-11.0-282.0","","","","false","","","","","","","","","","796.2999999523163","","376.19999998807907","","1","1","arrowleft","0","arrowright","[0.325,0.675,0.15,0.85]","","",""
"sailing-trial","324","1320096","0.0-11.0-283.0","","","","false","","","","","","","","","","null","","360.2999999523163","","3","1","null","null","arrowup","[0.325,0.675,0.15,0.85]","","",""
"sailing-trial","325","1323827","0.0-11.0-284.0","","","","false","","","","","","","","","","648.6999999880791","","262.69999998807907","","1","1","arrowleft","0","arrowright","[0.325,0.675,0.15,0.85]","","",""
"sailing-trial","326","1325752","0.0-11.0-285.0","","","","false","","","","","","","","","","null","","488.89999997615814","","0","0","null","null","arrowup","[0.325,0.675,0.15,0.85]","","",""
"sailing-trial","327","1329344","0.0-11.0-286.0","","","","false","","","","","","","","","","551.6999999880791","","16.80000001192093","","3","1","arrowright","1","arrowright","[0.325,0.675,0.15,0.85]","","",""
"sailing-trial","328","1331362","0.0-11.0-287.0","","","","false","","","","","","","","","","null","","238.5","","3","1","null","null","arrowup","[0.325,0.675,0.15,0.85]","","",""
"sailing-trial","329","1337110","0.0-11.0-288.0","","","","false","","","","","","","","","","703.9000000357628","","277.5999999642372","","3","1","arrowright","1","arrowright","[0.325,0.675,0.15,0.85]","","",""
"sailing-trial","330","1340227","0.0-11.0-289.0","","","","false","","","","","","","","","","null","","505.10000002384186","","3","1","null","null","arrowup","[0.325,0.675,0.15,0.85]","","",""
"sailing-trial","331","1345543","0.0-11.0-290.0","","","","false","","","","","","","","","","636.1999999880791","","1900.800000011921","","3","1","arrowright","1","arrowright","[0.325,0.675,0.15,0.85]","","",""
"sailing-trial","332","1348059","0.0-11.0-291.0","","","","false","","","","","","","","","","null","","152.60000002384186","","2","1","null","null","arrowup","[0.325,0.675,0.15,0.85]","","",""
"sailing-trial","333","1352407","0.0-11.0-292.0","","","","false","","","","","","","","","","983.8000000119209","","409.19999998807907","","3","1","arrowright","1","arrowright","[0.15,0.85,0.325,0.675]","","",""
"sailing-trial","334","1354522","0.0-11.0-293.0","","","","false","","","","","","","","","","null","","444.2000000476837","","3","1","null","null","arrowup","[0.15,0.85,0.325,0.675]","","",""
"sailing-trial","335","1357974","0.0-11.0-294.0","","","","false","","","","","","","","","","548","","251.29999995231628","","3","1","arrowright","1","arrowright","[0.15,0.85,0.325,0.675]","","",""
"sailing-trial","336","1359639","0.0-11.0-295.0","","","","false","","","","","","","","","","null","","437.30000001192093","","2","0","null","null","arrowup","[0.15,0.85,0.325,0.675]","","",""
"sailing-trial","337","1362764","0.0-11.0-296.0","","","","false","","","","","","","","","","656.8000000119209","","368","","3","0","arrowright","1","arrowright","[0.15,0.85,0.325,0.675]","","",""
"sailing-trial","338","1364710","0.0-11.0-297.0","","","","false","","","","","","","","","","null","","885.3999999761581","","0","0","null","null","arrowup","[0.15,0.85,0.325,0.675]","","",""
"sailing-trial","339","1369505","0.0-11.0-298.0","","","","false","","","","","","","","","","1310.3999999761581","","41","","2","1","arrowright","1","arrowleft","[0.15,0.85,0.325,0.675]","","",""
"sailing-trial","340","1371076","0.0-11.0-299.0","","","","false","","","","","","","","","","null","","434.7000000476837","","3","0","null","null","arrowup","[0.15,0.85,0.325,0.675]","","",""
"sailing-trial","341","1374136","0.0-11.0-300.0","","","","false","","","","","","","","","","467.5999999642372","","131.30000001192093","","0","0","arrowleft","0","arrowleft","[0.15,0.85,0.325,0.675]","","",""
"sailing-trial","342","1376124","0.0-11.0-301.0","","","","false","","","","","","","","","","null","","499.9000000357628","","3","0","null","null","arrowup","[0.15,0.85,0.325,0.675]","","",""
"sailing-trial","343","1379739","0.0-11.0-302.0","","","","false","","","","","","","","","","505.39999997615814","","21.299999952316284","","1","1","arrowleft","0","arrowright","[0.15,0.85,0.325,0.675]","","",""
"sailing-trial","344","1382219","0.0-11.0-303.0","","","","false","","","","","","","","","","null","","1208.199999988079","","3","0","null","null","arrowup","[0.15,0.85,0.325,0.675]","","",""
"sailing-trial","345","1386301","0.0-11.0-304.0","","","","false","","","","","","","","","","1302","","250","","1","1","arrowleft","0","arrowright","[0.15,0.85,0.325,0.675]","","",""
"sailing-trial","346","1388254","0.0-11.0-305.0","","","","false","","","","","","","","","","null","","241.9000000357628","","2","1","null","null","arrowup","[0.15,0.85,0.325,0.675]","","",""
"sailing-trial","347","1391734","0.0-11.0-306.0","","","","false","","","","","","","","","","445.2000000476837","","236.30000001192093","","1","1","arrowleft","0","arrowright","[0.15,0.85,0.325,0.675]","","",""
"sailing-trial","348","1394986","0.0-11.0-307.0","","","","false","","","","","","","","","","null","","1287.300000011921","","2","1","null","null","arrowup","[0.15,0.85,0.325,0.675]","","",""
"sailing-trial","349","1398750","0.0-11.0-308.0","","","","false","","","","","","","","","","564.6999999880791","","434.69999998807907","","1","1","arrowleft","0","arrowright","[0.15,0.85,0.325,0.675]","","",""
"sailing-trial","350","1401039","0.0-11.0-309.0","","","","false","","","","","","","","","","null","","1008.5","","3","0","null","null","arrowup","[0.15,0.85,0.325,0.675]","","",""
"sailing-trial","351","1404751","0.0-11.0-310.0","","","","false","","","","","","","","","","625.5","","70","","1","1","arrowleft","0","arrowright","[0.325,0.675,0.15,0.85]","","",""
"sailing-trial","352","1406915","0.0-11.0-311.0","","","","false","","","","","","","","","","null","","503.80000001192093","","0","1","null","null","arrowup","[0.325,0.675,0.15,0.85]","","",""
"sailing-trial","353","1410199","0.0-11.0-312.0","","","","false","","","","","","","","","","356.69999998807907","","333.30000001192093","","1","1","arrowleft","0","arrowright","[0.325,0.675,0.15,0.85]","","",""
"sailing-trial","354","1414982","0.0-11.0-313.0","","","","false","","","","","","","","","","null","","2657.300000011921","","1","1","null","null","arrowup","[0.325,0.675,0.15,0.85]","","",""
"sailing-trial","355","1418116","0.0-11.0-314.0","","","","false","","","","","","","","","","340.5","","24.100000023841858","","3","1","arrowright","1","arrowright","[0.325,0.675,0.15,0.85]","","",""
"sailing-trial","356","1420149","0.0-11.0-315.0","","","","false","","","","","","","","","","null","","699.3000000119209","","0","0","null","null","arrowup","[0.325,0.675,0.15,0.85]","","",""
"sailing-trial","357","1423698","0.0-11.0-316.0","","","","false","","","","","","","","","","538.4000000357628","","320.69999998807907","","3","1","arrowright","1","arrowright","[0.325,0.675,0.15,0.85]","","",""
"sailing-trial","358","1426680","0.0-11.0-317.0","","","","false","","","","","","","","","","null","","1133.3999999761581","","3","1","null","null","arrowup","[0.325,0.675,0.15,0.85]","","",""
"sailing-trial","359","1430013","0.0-11.0-318.0","","","","false","","","","","","","","","","516.8000000119209","","127.89999997615814","","3","1","arrowright","1","arrowright","[0.325,0.675,0.15,0.85]","","",""
"sailing-trial","360","1431545","0.0-11.0-319.0","","","","false","","","","","","","","","","null","","92.40000003576279","","2","0","null","null","arrowup","[0.325,0.675,0.15,0.85]","","",""
"sailing-trial","361","1434776","0.0-11.0-320.0","","","","false","","","","","","","","","","590.5999999642372","","386.19999998807907","","2","0","arrowright","1","arrowleft","[0.325,0.675,0.15,0.85]","","",""
"sailing-trial","362","1437678","0.0-11.0-321.0","","","","false","","","","","","","","","","null","","1629.300000011921","","2","0","null","null","arrowup","[0.325,0.675,0.15,0.85]","","",""
"sailing-trial","363","1441179","0.0-11.0-322.0","","","","false","","","","","","","","","","453.30000001192093","","415.89999997615814","","3","1","arrowright","1","arrowright","[0.325,0.675,0.15,0.85]","","",""
"sailing-trial","364","1443317","0.0-11.0-323.0","","","","false","","","","","","","","","","null","","10.200000047683716","","0","0","null","null","arrowup","[0.325,0.675,0.15,0.85]","","",""
"sailing-trial","365","1447012","0.0-11.0-324.0","","","","false","","","","","","","","","","815.2000000476837","","45.5","","3","1","arrowright","1","arrowright","[0.325,0.675,0.15,0.85]","","",""
"sailing-trial","366","1449047","0.0-11.0-325.0","","","","false","","","","","","","","","","null","","133.10000002384186","","3","1","null","null","arrowup","[0.325,0.675,0.15,0.85]","","",""
"sailing-trial","367","1452612","0.0-11.0-326.0","","","","false","","","","","","","","","","568.3999999761581","","226.80000001192093","","3","1","arrowright","1","arrowright","[0.15,0.85,0.325,0.675]","","",""
"sailing-trial","368","1455195","0.0-11.0-327.0","","","","false","","","","","","","","","","null","","1189.1000000238419","","0","0","null","null","arrowup","[0.15,0.85,0.325,0.675]","","",""
"sailing-trial","369","1460028","0.0-11.0-328.0","","","","false","","","","","","","","","","519.3000000119209","","424.5999999642372","","3","1","arrowright","1","arrowright","[0.15,0.85,0.325,0.675]","","",""
"sailing-trial","370","1462529","0.0-11.0-329.0","","","","false","","","","","","","","","","null","","489.89999997615814","","3","1","null","null","arrowup","[0.15,0.85,0.325,0.675]","","",""
"sailing-trial","371","1466044","0.0-11.0-330.0","","","","false","","","","","","","","","","543.8999999761581","","150.70000004768372","","3","1","arrowright","1","arrowright","[0.15,0.85,0.325,0.675]","","",""
"sailing-trial","372","1468097","0.0-11.0-331.0","","","","false","","","","","","","","","","null","","636.1000000238419","","3","0","null","null","arrowup","[0.15,0.85,0.325,0.675]","","",""
"sailing-trial","373","1471725","0.0-11.0-332.0","","","","false","","","","","","","","","","436.39999997615814","","377.30000001192093","","3","1","arrowright","1","arrowright","[0.15,0.85,0.325,0.675]","","",""
"sailing-trial","374","1475091","0.0-11.0-333.0","","","","false","","","","","","","","","","null","","493.69999998807907","","3","1","null","null","arrowup","[0.15,0.85,0.325,0.675]","","",""
"sailing-trial","375","1479724","0.0-11.0-334.0","","","","false","","","","","","","","","","1430","","266.19999998807907","","3","1","arrowright","1","arrowright","[0.15,0.85,0.325,0.675]","","",""
"sailing-trial","376","1482820","0.0-11.0-335.0","","","","false","","","","","","","","","","null","","470","","2","0","null","null","arrowup","[0.15,0.85,0.325,0.675]","","",""
"sailing-trial","377","1488041","0.0-11.0-336.0","","","","false","","","","","","","","","","928.1999999880791","","1634.8999999761581","","3","1","arrowright","1","arrowright","[0.15,0.85,0.325,0.675]","","",""
"sailing-trial","378","1489848","0.0-11.0-337.0","","","","false","","","","","","","","","","null","","780.6999999880791","","2","0","null","null","arrowup","[0.15,0.85,0.325,0.675]","","",""
"sailing-trial","379","1493073","0.0-11.0-338.0","","","","false","","","","","","","","","","653.8000000119209","","28.599999964237213","","3","1","arrowright","1","arrowright","[0.15,0.85,0.325,0.675]","","",""
"sailing-trial","380","1494820","0.0-11.0-339.0","","","","false","","","","","","","","","","null","","491.10000002384186","","0","0","null","null","arrowup","[0.15,0.85,0.325,0.675]","","",""
"sailing-trial","381","1498588","0.0-11.0-340.0","","","","false","","","","","","","","","","1154.199999988079","","475","","3","0","arrowright","1","arrowright","[0.15,0.85,0.325,0.675]","","",""
"sailing-trial","382","1500973","0.0-11.0-341.0","","","","false","","","","","","","","","","null","","617.6999999880791","","2","1","null","null","arrowup","[0.15,0.85,0.325,0.675]","","",""
"sailing-trial","383","1504339","0.0-11.0-342.0","","","","false","","","","","","","","","","417.39999997615814","","213.29999995231628","","2","1","arrowright","1","arrowleft","[0.15,0.85,0.325,0.675]","","",""
"sailing-trial","384","1506853","0.0-11.0-343.0","","","","false","","","","","","","","","","null","","691.5","","0","1","null","null","arrowup","[0.15,0.85,0.325,0.675]","","",""
"sailing-trial","385","1509917","0.0-11.0-344.0","","","","false","","","","","","","","","","402.60000002384186","","320.69999998807907","","2","0","arrowright","1","arrowleft","[0.15,0.85,0.325,0.675]","","",""
"sailing-trial","386","1512922","0.0-11.0-345.0","","","","false","","","","","","","","","","null","","684.2000000476837","","1","1","null","null","arrowup","[0.15,0.85,0.325,0.675]","","",""
"sailing-trial","387","1516993","0.0-11.0-346.0","","","","false","","","","","","","","","","462.69999998807907","","239.60000002384186","","0","0","arrowleft","0","arrowleft","[0.325,0.675,0.15,0.85]","","",""
"sailing-trial","388","1519713","0.0-11.0-347.0","","","","false","","","","","","","","","","null","","1668.699999988079","","2","0","null","null","arrowup","[0.325,0.675,0.15,0.85]","","",""
"sailing-trial","389","1523577","0.0-11.0-348.0","","","","false","","","","","","","","","","719.8999999761581","","140.30000001192093","","1","0","arrowleft","0","arrowright","[0.325,0.675,0.15,0.85]","","",""
"sailing-trial","390","1527533","0.0-11.0-349.0","","","","false","","","","","","","","","","null","","1459.1000000238419","","0","1","null","null","arrowup","[0.325,0.675,0.15,0.85]","","",""
"sailing-trial","391","1535781","0.0-11.0-350.0","","","","false","","","","","","","","","","3741.899999976158","","479.5","","0","0","arrowleft","0","arrowleft","[0.325,0.675,0.15,0.85]","","",""
"sailing-trial","392","1537515","0.0-11.0-351.0","","","","false","","","","","","","","","","null","","643.1999999880791","","2","0","null","null","arrowup","[0.325,0.675,0.15,0.85]","","",""
"sailing-trial","393","1541000","0.0-11.0-352.0","","","","false","","","","","","","","","","762","","4","","3","1","arrowright","1","arrowright","[0.325,0.675,0.15,0.85]","","",""
"sailing-trial","394","1543321","0.0-11.0-353.0","","","","false","","","","","","","","","","null","","798.9000000357628","","0","0","null","null","arrowup","[0.325,0.675,0.15,0.85]","","",""
"sailing-trial","395","1549016","0.0-11.0-354.0","","","","false","","","","","","","","","","611.6000000238419","","510.7999999523163","","3","1","arrowright","1","arrowright","[0.325,0.675,0.15,0.85]","","",""
"sailing-trial","396","1551699","0.0-11.0-355.0","","","","false","","","","","","","","","","null","","715.2999999523163","","1","1","null","null","arrowup","[0.325,0.675,0.15,0.85]","","",""
"sailing-trial","397","1555296","0.0-11.0-356.0","","","","false","","","","","","","","","","583.3000000119209","","502.60000002384186","","3","0","arrowright","1","arrowright","[0.325,0.675,0.15,0.85]","","",""
"sailing-trial","398","1557834","0.0-11.0-357.0","","","","false","","","","","","","","","","null","","1193.199999988079","","0","0","null","null","arrowup","[0.325,0.675,0.15,0.85]","","",""
"sailing-trial","399","1561321","0.0-11.0-358.0","","","","false","","","","","","","","","","508.2999999523163","","81.19999998807907","","2","0","arrowright","1","arrowleft","[0.325,0.675,0.15,0.85]","","",""
"sailing-trial","400","1564374","0.0-11.0-359.0","","","","false","","","","","","","","","","null","","1130.800000011921","","2","0","null","null","arrowup","[0.325,0.675,0.15,0.85]","","",""
"sailing-trial","401","1568833","0.0-11.0-360.0","","","","false","","","","","","","","","","313.5","","314.10000002384186","","1","0","arrowleft","0","arrowright","[0.325,0.675,0.15,0.85]","","",""
"sailing-trial","402","1571693","0.0-11.0-361.0","","","","false","","","","","","","","","","null","","1375.5","","0","0","null","null","arrowup","[0.325,0.675,0.15,0.85]","","",""
"sailing-trial","403","1575893","0.0-11.0-362.0","","","","false","","","","","","","","","","512.1000000238419","","150.30000001192093","","0","0","arrowleft","0","arrowleft","[0.15,0.85,0.325,0.675]","","",""
"sailing-trial","404","1578713","0.0-11.0-363.0","","","","false","","","","","","","","","","null","","681","","3","1","null","null","arrowup","[0.15,0.85,0.325,0.675]","","",""
"sailing-trial","405","1583214","0.0-11.0-364.0","","","","false","","","","","","","","","","495.5999999642372","","385","","1","1","arrowleft","0","arrowright","[0.15,0.85,0.325,0.675]","","",""
"sailing-trial","406","1585009","0.0-11.0-365.0","","","","false","","","","","","","","","","null","","596.6000000238419","","0","0","null","null","arrowup","[0.15,0.85,0.325,0.675]","","",""
"sailing-trial","407","1588394","0.0-11.0-366.0","","","","false","","","","","","","","","","454.39999997615814","","315.69999998807907","","3","1","arrowright","1","arrowright","[0.15,0.85,0.325,0.675]","","",""
"sailing-trial","408","1590810","0.0-11.0-367.0","","","","false","","","","","","","","","","null","","530.3000000119209","","1","1","null","null","arrowup","[0.15,0.85,0.325,0.675]","","",""
"sailing-trial","409","1594528","0.0-11.0-368.0","","","","false","","","","","","","","","","526.3000000119209","","235.30000001192093","","3","1","arrowright","1","arrowright","[0.15,0.85,0.325,0.675]","","",""
"sailing-trial","410","1596623","0.0-11.0-369.0","","","","false","","","","","","","","","","null","","643.3000000119209","","0","0","null","null","arrowup","[0.15,0.85,0.325,0.675]","","",""
"sailing-trial","411","1599532","0.0-11.0-370.0","","","","false","","","","","","","","","","499.30000001192093","","200.69999998807907","","3","0","arrowright","1","arrowright","[0.15,0.85,0.325,0.675]","","",""
"sailing-trial","412","1601273","0.0-11.0-371.0","","","","false","","","","","","","","","","null","","549.3000000119209","","2","0","null","null","arrowup","[0.15,0.85,0.325,0.675]","","",""
"sailing-trial","413","1604164","0.0-11.0-372.0","","","","false","","","","","","","","","","500","","20","","2","0","arrowright","1","arrowleft","[0.15,0.85,0.325,0.675]","","",""
"sailing-trial","414","1606842","0.0-11.0-373.0","","","","false","","","","","","","","","","null","","915","","2","1","null","null","arrowup","[0.15,0.85,0.325,0.675]","","",""
"sailing-trial","415","1609646","0.0-11.0-374.0","","","","false","","","","","","","","","","734.8000000119209","","41.60000002384186","","2","0","arrowright","1","arrowleft","[0.15,0.85,0.325,0.675]","","",""
"sailing-trial","416","1612723","0.0-11.0-375.0","","","","false","","","","","","","","","","null","","808.9000000357628","","3","1","null","null","arrowup","[0.15,0.85,0.325,0.675]","","",""
"sailing-trial","417","1616320","0.0-11.0-376.0","","","","false","","","","","","","","","","455.60000002384186","","889.5","","3","0","arrowright","1","arrowright","[0.15,0.85,0.325,0.675]","","",""
"sailing-trial","418","1618874","0.0-11.0-377.0","","","","false","","","","","","","","","","null","","910.1999999880791","","0","1","null","null","arrowup","[0.15,0.85,0.325,0.675]","","",""
"sailing-trial","419","1621980","0.0-11.0-378.0","","","","false","","","","","","","","","","540.8999999761581","","278.69999998807907","","0","0","arrowleft","0","arrowleft","[0.15,0.85,0.325,0.675]","","",""
"sailing-trial","420","1624573","0.0-11.0-379.0","","","","false","","","","","","","","","","null","","915.3000000119209","","1","1","null","null","arrowup","[0.15,0.85,0.325,0.675]","","",""
"sailing-trial","421","1627570","0.0-11.0-380.0","","","","false","","","","","","","","","","526.6000000238419","","264.19999998807907","","2","0","arrowright","1","arrowleft","[0.15,0.85,0.325,0.675]","","",""
"sailing-trial","422","1629891","0.0-11.0-381.0","","","","false","","","","","","","","","","null","","1170.699999988079","","3","0","null","null","arrowup","[0.15,0.85,0.325,0.675]","","",""
"sailing-trial","423","1633989","0.0-11.0-382.0","","","","false","","","","","","","","","","817.4000000357628","","150.0999999642372","","1","1","arrowleft","0","arrowright","[0.15,0.85,0.325,0.675]","","",""
"sailing-trial","424","1635543","0.0-11.0-383.0","","","","false","","","","","","","","","","null","","238.30000001192093","","0","0","null","null","arrowup","[0.15,0.85,0.325,0.675]","","",""
"sailing-trial","425","1639007","0.0-11.0-384.0","","","","false","","","","","","","","","","678.1999999880791","","156.69999998807907","","1","1","arrowleft","0","arrowright","[0.325,0.675,0.15,0.85]","","",""
"sailing-trial","426","1642013","0.0-11.0-385.0","","","","false","","","","","","","","","","null","","401.69999998807907","","2","0","null","null","arrowup","[0.325,0.675,0.15,0.85]","","",""
"sailing-trial","427","1646054","0.0-11.0-386.0","","","","false","","","","","","","","","","995.2999999523163","","103.10000002384186","","1","1","arrowleft","0","arrowright","[0.325,0.675,0.15,0.85]","","",""
"sailing-trial","428","1648319","0.0-11.0-387.0","","","","false","","","","","","","","","","null","","679","","3","1","null","null","arrowup","[0.325,0.675,0.15,0.85]","","",""
"sailing-trial","429","1651559","0.0-11.0-388.0","","","","false","","","","","","","","","","550.1999999880791","","365.69999998807907","","1","0","arrowleft","0","arrowright","[0.325,0.675,0.15,0.85]","","",""
"sailing-trial","430","1654236","0.0-11.0-389.0","","","","false","","","","","","","","","","null","","881.6999999880791","","1","1","null","null","arrowup","[0.325,0.675,0.15,0.85]","","",""
"sailing-trial","431","1657521","0.0-11.0-390.0","","","","false","","","","","","","","","","384.10000002384186","","7.899999976158142","","0","1","arrowleft","0","arrowleft","[0.325,0.675,0.15,0.85]","","",""
"sailing-trial","432","1660163","0.0-11.0-391.0","","","","false","","","","","","","","","","null","","957.0999999642372","","0","0","null","null","arrowup","[0.325,0.675,0.15,0.85]","","",""
"sailing-trial","433","1663816","0.0-11.0-392.0","","","","false","","","","","","","","","","623.8000000119209","","281.69999998807907","","0","1","arrowleft","0","arrowleft","[0.325,0.675,0.15,0.85]","","",""
"sailing-trial","434","1666497","0.0-11.0-393.0","","","","false","","","","","","","","","","null","","540","","2","0","null","null","arrowup","[0.325,0.675,0.15,0.85]","","",""
"sailing-trial","435","1669375","0.0-11.0-394.0","","","","false","","","","","","","","","","588.7999999523163","","207.69999998807907","","0","0","arrowleft","0","arrowleft","[0.325,0.675,0.15,0.85]","","",""
"sailing-trial","436","1672339","0.0-11.0-395.0","","","","false","","","","","","","","","","null","","107.19999998807907","","3","1","null","null","arrowup","[0.325,0.675,0.15,0.85]","","",""
"sailing-trial","437","1675332","0.0-11.0-396.0","","","","false","","","","","","","","","","494.30000001192093","","100.89999997615814","","2","0","arrowright","1","arrowleft","[0.325,0.675,0.15,0.85]","","",""
"sailing-trial","438","1677360","0.0-11.0-397.0","","","","false","","","","","","","","","","null","","813.9000000357628","","2","0","null","null","arrowup","[0.325,0.675,0.15,0.85]","","",""
"sailing-trial","439","1680982","0.0-11.0-398.0","","","","false","","","","","","","","","","808.1999999880791","","37.59999996423721","","3","1","arrowright","1","arrowright","[0.325,0.675,0.15,0.85]","","",""
"sailing-trial","440","1684817","0.0-11.0-399.0","","","","false","","","","","","","","","","null","","451.10000002384186","","1","1","null","null","arrowup","[0.325,0.675,0.15,0.85]","","",""
"instructions","441","1687764","0.0-12.0","","","","","","","","","","2944.800000011921","","","","","","","","","","","","","","","","[{""page_index"":0,""viewing_time"":2943.800000011921}]"
"survey-debrief","442","1707030","0.0-13.0","","","","","","","","","","19263.400000035763","","","","","","","","","","","","","","{""difficulty"":""4"",""fun"":""4"",""clarity"":""4"",""strategy"":""no"",""feedback"":""no""}","",""
