"trial_type","trial_index","time_elapsed","internal_node_id","value","metadata","success","timeout","failed_images","failed_audio","failed_video","browser_interaction","low_quality","rt","stimulus","response","button_pressed","island_rt","island_response","boat_rt","boat_response","boat","reward","island_key","island","boat_key","reward_probabilities","responses","num_errors","view_history"
"pavlovia","0","5","0.0-0.0","","","","","","","","","","","","","","","","","","","","","","","","","",""
"call-function","1","5","0.0-1.0","","{""task_version"":""sailing_part1_v1"",""task_condition"":""good"",""boats"":[""B"",""D"",""C"",""A""],""boats_demo"":[""E"",""H"",""G"",""F""],""islands"":[""B"",""A""],""subject_id"":""13980"",""age"":""19"",""gender"":""Female""}","","","","","","","","","","","","","","","","","","","","","","","",""
"preload","2","4277","0.0-2.0","","","true","false","[]","[]","[]","[{""event"":""fullscreenenter"",""trial"":3,""time"":5754}]","false","","","","","","","","","","","","","","","","",""
"fullscreen","3","6746","0.0-3.0","","","true","","","","","","","","","","","","","","","","","","","","","","",""
"audio-keyboard-response","4","9444","0.0-4.0-0.0","","","","","","","","","","2669.3333333333335","audio/beep_loop.wav"," ","","","","","","","","","","","","","",""
"audio-test","5","10933","0.0-4.0-1.0","","","","","","","","","","null","audio/turtle.mp3","","3","","","","","","","","","","","","",""
"audio-test","6","12805","0.0-4.0-2.0","","","","","","","","[{""event"":""fullscreenenter"",""trial"":3,""time"":5754},{""event"":""blur"",""trial"":7,""time"":28486},{""event"":""focus"",""trial"":7,""time"":31233}]","false","null","audio/shark.mp3","","2","","","","","","","","","","","","",""
"sailing-instructions","7","45028","0.0-5.0-0.0-0.0","","","","","","","","","","","","","","null","null","null","null","null","null","","","","","","",""
"sailing-trial","8","47736","0.0-5.0-0.0-1.0-0.0","","","","false","","","","","","","","","","1538.5","","null","","null","null","arrowleft","0","null","null","","",""
"sailing-trial","9","50602","0.0-5.0-0.0-1.0-1.0","","","","false","","","","","","","","","","1687","","null","","null","null","arrowright","1","null","null","","",""
"sailing-trial","10","52969","0.0-5.0-0.0-1.0-2.0","","","","false","","","","","","","","","","1180.7999999523163","","null","","null","null","arrowleft","0","null","null","","",""
"sailing-instructions","11","95428","0.0-5.0-0.0-2.0","","","","","","","","","","","","","","null","null","null","null","0","null","","","","","","",""
"sailing-trial","12","102988","0.0-5.0-0.0-3.0-0.0","","","","false","","","","","","","","","","null","","3785.399999976158","","2","1","null","null","arrowleft","[1,1,1,1]","","",""
"sailing-trial","13","106926","0.0-5.0-0.0-3.0-1.0","","","","false","","","","","","","","","","null","","1145.1000000238419","","3","1","null","null","arrowright","[1,1,1,1]","","",""
"sailing-trial","14","110819","0.0-5.0-0.0-3.0-2.0","","","","false","","","","","","","","","","null","","1205.2000000476837","","2","0","null","null","arrowleft","[0,0,0,0]","","",""
"sailing-instructions","15","118540","0.0-5.0-0.0-4.0","","","","","","","","","","","","","","null","null","null","null","null","null","","","","","","",""
"sailing-comprehension","16","137547","0.0-5.0-0.0-5.0","","","","","","","","","","14198.600000023842","","","","","","","","","","","","","","[""true"",""true"",""false"",""true""]","0",""
"sailing-instructions","17","206203","0.0-6.0-0.0-0.0","","","","","","","","","","","","","","null","null","null","null","null","null","","","","","","",""
"sailing-comprehension","18","222657","0.0-6.0-0.0-1.0","","","","","","","","","","9278.800000071526","","","","","","","","","","","","","","[""true"",""true"",""true""]","1",""
"sailing-instructions","19","283651","0.0-6.0-0.1-0.1","","","","","","","","","","","","","","null","null","null","null","null","null","","","","","","",""
"sailing-comprehension","20","299162","0.0-6.0-0.1-1.1","","","","","","","","","","9982.699999928474","","","","","","","","","","","","","","[""true"",""true"",""true""]","1",""
"sailing-instructions","21","314427","0.0-7.0-0.0-0.0","","","","","","","","","","","","","","null","null","null","null","null","null","","","","","","",""
"sailing-trial","22","320897","0.0-7.0-0.0-1.0-0.0","","","","false","","","","","","","","","","null","","3963.6999999284744","","0","0","null","null","arrowup","[0.2,0.8,0.2,0.8]","","",""
"sailing-trial","23","325126","0.0-7.0-0.0-1.0-1.0","","","","false","","","","","","","","","","null","","1787.3999999761581","","1","1","null","null","arrowup","[0.2,0.8,0.2,0.8]","","",""
"sailing-trial","24","329161","0.0-7.0-0.0-1.0-2.0","","","","false","","","","","","","","","","null","","2118.399999976158","","2","0","null","null","arrowup","[0.2,0.8,0.2,0.8]","","",""
"sailing-trial","25","332172","0.0-7.0-0.0-1.0-3.0","","","","false","","","","","","","","","","null","","1091.8999999761581","","3","1","null","null","arrowup","[0.2,0.8,0.2,0.8]","","",""
"sailing-comprehension","26","340857","0.0-7.0-0.0-2.0","","","","","","","","","","3253.1999999284744","","","","","","","","","","","","","","[""true""]","1",""
"sailing-instructions","27","354376","0.0-7.0-0.1-0.1","","","","","","","","","","","","","","null","null","null","null","null","null","","","","","","",""
"sailing-trial","28","357468","0.0-7.0-0.1-1.1-0.1","","","","false","","","","","","","","","","null","","1268.1999999284744","","0","1","null","null","arrowup","[0.2,0.8,0.2,0.8]","","",""
"sailing-trial","29","359602","0.0-7.0-0.1-1.1-1.1","","","","false","","","","","","","","","","null","","336.2999999523163","","1","1","null","null","arrowup","[0.2,0.8,0.2,0.8]","","",""
"sailing-trial","30","361217","0.0-7.0-0.1-1.1-2.1","","","","false","","","","","","","","","","null","","346.5","","2","0","null","null","arrowup","[0.2,0.8,0.2,0.8]","","",""
"sailing-trial","31","363977","0.0-7.0-0.1-1.1-3.1","","","","false","","","","","","","","","","null","","515.9000000953674","","3","1","null","null","arrowup","[0.2,0.8,0.2,0.8]","","",""
"sailing-comprehension","32","369770","0.0-7.0-0.1-2.1","","","","","","","","","","3935.899999976158","","","","","","","","","","","","","","[""false""]","0",""
"sailing-instructions","33","380713","0.0-8.0-0.0-0.0","","","","","","","","","","","","","","null","null","null","null","null","null","","","","","","",""
"sailing-comprehension","34","387632","0.0-8.0-0.0-1.0","","","","","","","","","","2640","","","","","","","","","","","","","","[""true""]","0",""
"sailing-instructions","35","419337","0.0-9.0-0.0-0.0","","","","","","","","","","","","","","null","null","null","null","null","null","","","","","","",""
"sailing-trial","36","424799","0.0-9.0-0.0-1.0-0.0","","","","false","","","","","","","","","","1635.5","","852.2999999523163","","1","1","arrowleft","0","arrowright","[0.2,0.8,0.2,0.8]","","",""
"sailing-trial","37","428366","0.0-9.0-0.0-1.0-1.0","","","","false","","","","","","","","","","701.6000000238419","","72.30000007152557","","2","0","arrowright","1","arrowleft","[0.2,0.8,0.2,0.8]","","",""
"sailing-trial","38","431301","0.0-9.0-0.0-1.0-2.0","","","","false","","","","","","","","","","null","","1213.5","","0","0","null","null","arrowup","[0.2,0.8,0.2,0.8]","","",""
"sailing-trial","39","435196","0.0-9.0-0.0-1.0-3.0","","","","false","","","","","","","","","","807","","408.2999999523163","","0","0","arrowleft","0","arrowleft","[0.2,0.8,0.2,0.8]","","",""
"sailing-trial","40","438289","0.0-9.0-0.0-1.0-4.0","","","","false","","","","","","","","","","null","","1279","","3","1","null","null","arrowup","[0.2,0.8,0.2,0.8]","","",""
"sailing-trial","41","442395","0.0-9.0-0.0-1.0-5.0","","","","false","","","","","","","","","","546.2999999523163","","401.2999999523163","","3","1","arrowright","1","arrowright","[0.2,0.8,0.2,0.8]","","",""
"sailing-instructions","42","465281","0.0-10.0","","","","","","","","","","","","","","null","null","null","null","null","null","","","","","","",""
"sailing-trial","43","469711","0.0-11.0-0.0","","","","false","","","","","","","","","","1123.5","","232.80000007152557","","1","1","arrowleft","0","arrowright","[0.15,0.85,0.675,0.325]","","",""
"sailing-trial","44","472011","0.0-11.0-1.0","","","","false","","","","","","","","","","null","","795.4000000953674","","3","0","null","null","arrowup","[0.15,0.85,0.675,0.325]","","",""
"sailing-trial","45","475548","0.0-11.0-2.0","","","","false","","","","","","","","","","535","","108.80000007152557","","2","1","arrowright","1","arrowleft","[0.15,0.85,0.675,0.325]","","",""
"sailing-trial","46","478465","0.0-11.0-3.0","","","","false","","","","","","","","","","null","","1118","","0","0","null","null","arrowup","[0.15,0.85,0.675,0.325]","","",""
"sailing-trial","47","481451","0.0-11.0-4.0","","","","false","","","","","","","","","","498.10000002384186","","101.29999995231628","","3","0","arrowright","1","arrowright","[0.15,0.85,0.675,0.325]","","",""
"sailing-trial","48","485715","0.0-11.0-5.0","","","","false","","","","","","","","","","null","","2047.6999999284744","","2","1","null","null","arrowup","[0.15,0.85,0.675,0.325]","","",""
"sailing-trial","49","488996","0.0-11.0-6.0","","","","false","","","","","","","","","","503.10000002384186","","442.89999997615814","","0","0","arrowleft","0","arrowleft","[0.15,0.85,0.675,0.325]","","",""
"sailing-trial","50","491366","0.0-11.0-7.0","","","","false","","","","","","","","","","null","","557.8999999761581","","2","1","null","null","arrowup","[0.15,0.85,0.675,0.325]","","",""
"sailing-trial","51","494448","0.0-11.0-8.0","","","","false","","","","","","","","","","499.5","","128.5","","3","0","arrowright","1","arrowright","[0.15,0.85,0.675,0.325]","","",""
"sailing-trial","52","497866","0.0-11.0-9.0","","","","false","","","","","","","","","","null","","1786.2999999523163","","2","1","null","null","arrowup","[0.15,0.85,0.675,0.325]","","",""
"sailing-trial","53","501683","0.0-11.0-10.0","","","","false","","","","","","","","","","552.3000000715256","","395.39999997615814","","2","1","arrowright","1","arrowleft","[0.15,0.85,0.675,0.325]","","",""
"sailing-trial","54","504283","0.0-11.0-11.0","","","","false","","","","","","","","","","null","","1182.6999999284744","","3","0","null","null","arrowup","[0.15,0.85,0.675,0.325]","","",""
"sailing-trial","55","507570","0.0-11.0-12.0","","","","false","","","","","","","","","","543.6999999284744","","178.39999997615814","","1","0","arrowleft","0","arrowright","[0.15,0.85,0.675,0.325]","","",""
"sailing-trial","56","509819","0.0-11.0-13.0","","","","false","","","","","","","","","","null","","1039.1000000238419","","3","0","null","null","arrowup","[0.15,0.85,0.675,0.325]","","",""
"sailing-trial","57","513147","0.0-11.0-14.0","","","","false","","","","","","","","","","727.1999999284744","","77.60000002384186","","2","0","arrowright","1","arrowleft","[0.15,0.85,0.675,0.325]","","",""
"sailing-trial","58","515384","0.0-11.0-15.0","","","","false","","","","","","","","","","null","","478.90000009536743","","2","1","null","null","arrowup","[0.15,0.85,0.675,0.325]","","",""
"sailing-trial","59","518365","0.0-11.0-16.0","","","","false","","","","","","","","","","378","","221.60000002384186","","3","0","arrowright","1","arrowright","[0.325,0.675,0.85,0.15]","","",""
"sailing-trial","60","520394","0.0-11.0-17.0","","","","false","","","","","","","","","","null","","669.1999999284744","","3","0","null","null","arrowup","[0.325,0.675,0.85,0.15]","","",""
"sailing-trial","61","523820","0.0-11.0-18.0","","","","false","","","","","","","","","","383.8000000715256","","437","","0","0","arrowleft","0","arrowleft","[0.325,0.675,0.85,0.15]","","",""
"sailing-trial","62","525899","0.0-11.0-19.0","","","","false","","","","","","","","","","null","","773.7999999523163","","1","0","null","null","arrowup","[0.325,0.675,0.85,0.15]","","",""
"sailing-trial","63","529331","0.0-11.0-20.0","","","","false","","","","","","","","","","583.4000000953674","","320.5","","3","0","arrowright","1","arrowright","[0.325,0.675,0.85,0.15]","","",""
"sailing-trial","64","531147","0.0-11.0-21.0","","","","false","","","","","","","","","","null","","727.6999999284744","","0","0","null","null","arrowup","[0.325,0.675,0.85,0.15]","","",""
"sailing-trial","65","535053","0.0-11.0-22.0","","","","false","","","","","","","","","","495.5","","361.7999999523163","","1","1","arrowleft","0","arrowright","[0.325,0.675,0.85,0.15]","","",""
"sailing-trial","66","537067","0.0-11.0-23.0","","","","false","","","","","","","","","","null","","437.10000002384186","","3","0","null","null","arrowup","[0.325,0.675,0.85,0.15]","","",""
"sailing-trial","67","540316","0.0-11.0-24.0","","","","false","","","","","","","","","","519.5","","107.39999997615814","","0","1","arrowleft","0","arrowleft","[0.325,0.675,0.85,0.15]","","",""
"sailing-trial","68","543333","0.0-11.0-25.0","","","","false","","","","","","","","","","null","","1173.5","","1","1","null","null","arrowup","[0.325,0.675,0.85,0.15]","","",""
"sailing-trial","69","546811","0.0-11.0-26.0","","","","false","","","","","","","","","","501.7000000476837","","25.600000023841858","","3","0","arrowright","1","arrowright","[0.325,0.675,0.85,0.15]","","",""
"sailing-trial","70","548443","0.0-11.0-27.0","","","","false","","","","","","","","","","null","","375.39999997615814","","1","0","null","null","arrowup","[0.325,0.675,0.85,0.15]","","",""
"sailing-trial","71","552283","0.0-11.0-28.0","","","","false","","","","","","","","","","679.7999999523163","","318.2999999523163","","2","1","arrowright","1","arrowleft","[0.325,0.675,0.85,0.15]","","",""
"sailing-trial","72","554595","0.0-11.0-29.0","","","","false","","","","","","","","","","null","","998.7000000476837","","0","0","null","null","arrowup","[0.325,0.675,0.85,0.15]","","",""
"sailing-trial","73","558549","0.0-11.0-30.0","","","","false","","","","","","","","","","519.1999999284744","","422.90000009536743","","1","1","arrowleft","0","arrowright","[0.325,0.675,0.85,0.15]","","",""
"sailing-trial","74","561167","0.0-11.0-31.0","","","","false","","","","","","","","","","null","","828.5999999046326","","0","1","null","null","arrowup","[0.325,0.675,0.85,0.15]","","",""
"sailing-trial","75","564259","0.0-11.0-32.0","","","","false","","","","","","","","","","595.1999999284744","","77.40000009536743","","0","0","arrowleft","0","arrowleft","[0.325,0.675,0.85,0.15]","","",""
"sailing-trial","76","566355","0.0-11.0-33.0","","","","false","","","","","","","","","","null","","830.5","","3","0","null","null","arrowup","[0.325,0.675,0.85,0.15]","","",""
"sailing-trial","77","569967","0.0-11.0-34.0","","","","false","","","","","","","","","","582.7999999523163","","125","","3","1","arrowright","1","arrowright","[0.15,0.85,0.675,0.325]","","",""
"sailing-trial","78","572316","0.0-11.0-35.0","","","","false","","","","","","","","","","null","","555.0999999046326","","3","1","null","null","arrowup","[0.15,0.85,0.675,0.325]","","",""
"sailing-trial","79","575698","0.0-11.0-36.0","","","","false","","","","","","","","","","845.1000000238419","","181","","2","0","arrowright","1","arrowleft","[0.15,0.85,0.675,0.325]","","",""
"sailing-trial","80","577866","0.0-11.0-37.0","","","","false","","","","","","","","","","null","","511.7000000476837","","2","1","null","null","arrowup","[0.15,0.85,0.675,0.325]","","",""
"sailing-trial","81","580900","0.0-11.0-38.0","","","","false","","","","","","","","","","111.80000007152557","","83.20000004768372","","1","1","arrowleft","0","arrowright","[0.15,0.85,0.675,0.325]","","",""
"sailing-trial","82","583268","0.0-11.0-39.0","","","","false","","","","","","","","","","null","","390.89999997615814","","3","1","null","null","arrowup","[0.15,0.85,0.675,0.325]","","",""
"sailing-trial","83","587402","0.0-11.0-40.0","","","","false","","","","","","","","","","982.1000000238419","","337.3000000715256","","0","1","arrowleft","0","arrowleft","[0.15,0.85,0.675,0.325]","","",""
"sailing-trial","84","589751","0.0-11.0-41.0","","","","false","","","","","","","","","","null","","640","","2","1","null","null","arrowup","[0.15,0.85,0.675,0.325]","","",""
"sailing-trial","85","593335","0.0-11.0-42.0","","","","false","","","","","","","","","","674.5","","82","","3","1","arrowright","1","arrowright","[0.15,0.85,0.675,0.325]","","",""
"sailing-trial","86","594995","0.0-11.0-43.0","","","","false","","","","","","","","","","null","","443.2000000476837","","0","0","null","null","arrowup","[0.15,0.85,0.675,0.325]","","",""
"sailing-trial","87","599452","0.0-11.0-44.0","","","","false","","","","","","","","","","702.7000000476837","","464.1999999284744","","2","1","arrowright","1","arrowleft","[0.15,0.85,0.675,0.325]","","",""
"sailing-trial","88","601700","0.0-11.0-45.0","","","","false","","","","","","","","","","null","","613.3999999761581","","1","1","null","null","arrowup","[0.15,0.85,0.675,0.325]","","",""
"sailing-trial","89","605483","0.0-11.0-46.0","","","","false","","","","","","","","","","542.8999999761581","","378.1999999284744","","1","1","arrowleft","0","arrowright","[0.15,0.85,0.675,0.325]","","",""
"sailing-trial","90","606930","0.0-11.0-47.0","","","","false","","","","","","","","","","null","","142.5","","3","0","null","null","arrowup","[0.15,0.85,0.675,0.325]","","",""
"sailing-trial","91","609931","0.0-11.0-48.0","","","","false","","","","","","","","","","417.09999990463257","","309.10000002384186","","0","0","arrowleft","0","arrowleft","[0.15,0.85,0.675,0.325]","","",""
"sailing-trial","92","612435","0.0-11.0-49.0","","","","false","","","","","","","","","","null","","782.8999999761581","","1","1","null","null","arrowup","[0.15,0.85,0.675,0.325]","","",""
"sailing-trial","93","615999","0.0-11.0-50.0","","","","false","","","","","","","","","","583.6000000238419","","41.89999997615814","","3","1","arrowright","1","arrowright","[0.675,0.325,0.15,0.85]","","",""
"sailing-trial","94","619418","0.0-11.0-51.0","","","","false","","","","","","","","","","null","","1481.7000000476837","","0","1","null","null","arrowup","[0.675,0.325,0.15,0.85]","","",""
"sailing-trial","95","622723","0.0-11.0-52.0","","","","false","","","","","","","","","","616.1000000238419","","346.7000000476837","","2","0","arrowright","1","arrowleft","[0.675,0.325,0.15,0.85]","","",""
"sailing-trial","96","625410","0.0-11.0-53.0","","","","false","","","","","","","","","","null","","1278.5999999046326","","0","0","null","null","arrowup","[0.675,0.325,0.15,0.85]","","",""
"sailing-trial","97","628771","0.0-11.0-54.0","","","","false","","","","","","","","","","655.8999999761581","","160.79999995231628","","1","0","arrowleft","0","arrowright","[0.675,0.325,0.15,0.85]","","",""
"sailing-trial","98","632083","0.0-11.0-55.0","","","","false","","","","","","","","","","null","","1454.4000000953674","","2","1","null","null","arrowup","[0.675,0.325,0.15,0.85]","","",""
"sailing-trial","99","635400","0.0-11.0-56.0","","","","false","","","","","","","","","","206.5","","168","","0","1","arrowleft","0","arrowleft","[0.675,0.325,0.15,0.85]","","",""
"sailing-trial","100","638433","0.0-11.0-57.0","","","","false","","","","","","","","","","null","","1089.8999999761581","","3","1","null","null","arrowup","[0.675,0.325,0.15,0.85]","","",""
"sailing-trial","101","642400","0.0-11.0-58.0","","","","false","","","","","","","","","","688.8000000715256","","351","","3","1","arrowright","1","arrowright","[0.675,0.325,0.15,0.85]","","",""
"sailing-trial","102","644899","0.0-11.0-59.0","","","","false","","","","","","","","","","null","","681.6000000238419","","0","1","null","null","arrowup","[0.675,0.325,0.15,0.85]","","",""
"sailing-trial","103","648538","0.0-11.0-60.0","","","","false","","","","","","","","","","582.8000000715256","","432.60000002384186","","2","0","arrowright","1","arrowleft","[0.675,0.325,0.15,0.85]","","",""
"sailing-trial","104","651474","0.0-11.0-61.0","","","","false","","","","","","","","","","null","","1294.0999999046326","","2","0","null","null","arrowup","[0.675,0.325,0.15,0.85]","","",""
"sailing-trial","105","654745","0.0-11.0-62.0","","","","false","","","","","","","","","","551","","418.5","","1","0","arrowleft","0","arrowright","[0.675,0.325,0.15,0.85]","","",""
"sailing-trial","106","657615","0.0-11.0-63.0","","","","false","","","","","","","","","","null","","1335.7999999523163","","0","1","null","null","arrowup","[0.675,0.325,0.15,0.85]","","",""
"sailing-trial","107","661815","0.0-11.0-64.0","","","","false","","","","","","","","","","842","","424.8000000715256","","0","1","arrowleft","0","arrowleft","[0.675,0.325,0.15,0.85]","","",""
"sailing-trial","108","664626","0.0-11.0-65.0","","","","false","","","","","","","","","","null","","1289.5","","2","0","null","null","arrowup","[0.675,0.325,0.15,0.85]","","",""
"sailing-trial","109","667965","0.0-11.0-66.0","","","","false","","","","","","","","","","615.6999999284744","","105.19999992847443","","3","1","arrowright","1","arrowright","[0.675,0.325,0.15,0.85]","","",""
"sailing-trial","110","670588","0.0-11.0-67.0","","","","false","","","","","","","","","","null","","1283.7999999523163","","2","0","null","null","arrowup","[0.675,0.325,0.15,0.85]","","",""
"sailing-trial","111","674090","0.0-11.0-68.0","","","","false","","","","","","","","","","676.2999999523163","","280.2999999523163","","2","0","arrowright","1","arrowleft","[0.15,0.85,0.675,0.325]","","",""
"sailing-trial","112","676010","0.0-11.0-69.0","","","","false","","","","","","","","","","null","","702.8999999761581","","2","0","null","null","arrowup","[0.15,0.85,0.675,0.325]","","",""
"sailing-trial","113","678889","0.0-11.0-70.0","","","","false","","","","","","","","","","486.89999997615814","","87.29999995231628","","1","0","arrowleft","0","arrowright","[0.15,0.85,0.675,0.325]","","",""
"sailing-trial","114","682614","0.0-11.0-71.0","","","","false","","","","","","","","","","null","","1975.6000000238419","","2","1","null","null","arrowup","[0.15,0.85,0.675,0.325]","","",""
"sailing-trial","115","686397","0.0-11.0-72.0","","","","false","","","","","","","","","","570.3000000715256","","68.10000002384186","","1","1","arrowleft","0","arrowright","[0.15,0.85,0.675,0.325]","","",""
"sailing-trial","116","688218","0.0-11.0-73.0","","","","false","","","","","","","","","","null","","459.3000000715256","","0","0","null","null","arrowup","[0.15,0.85,0.675,0.325]","","",""
"sailing-trial","117","691442","0.0-11.0-74.0","","","","false","","","","","","","","","","542.8000000715256","","277","","0","0","arrowleft","0","arrowleft","[0.15,0.85,0.675,0.325]","","",""
"sailing-trial","118","694581","0.0-11.0-75.0","","","","false","","","","","","","","","","null","","1606.7999999523163","","1","1","null","null","arrowup","[0.15,0.85,0.675,0.325]","","",""
"sailing-trial","119","697770","0.0-11.0-76.0","","","","false","","","","","","","","","","643","","75.79999995231628","","3","0","arrowright","1","arrowright","[0.15,0.85,0.675,0.325]","","",""
"sailing-trial","120","699658","0.0-11.0-77.0","","","","false","","","","","","","","","","null","","638.3999999761581","","3","0","null","null","arrowup","[0.15,0.85,0.675,0.325]","","",""
"sailing-trial","121","703598","0.0-11.0-78.0","","","","false","","","","","","","","","","791.2999999523163","","267.10000002384186","","2","1","arrowright","1","arrowleft","[0.15,0.85,0.675,0.325]","","",""
"sailing-trial","122","705713","0.0-11.0-79.0","","","","false","","","","","","","","","","null","","770.5","","2","0","null","null","arrowup","[0.15,0.85,0.675,0.325]","","",""
"sailing-trial","123","709650","0.0-11.0-80.0","","","","false","","","","","","","","","","567.6999999284744","","480.89999997615814","","1","1","arrowleft","0","arrowright","[0.15,0.85,0.675,0.325]","","",""
"sailing-trial","124","711834","0.0-11.0-81.0","","","","false","","","","","","","","","","null","","967.3000000715256","","0","0","null","null","arrowup","[0.15,0.85,0.675,0.325]","","",""
"sailing-trial","125","716481","0.0-11.0-82.0","","","","false","","","","","","","","","","607.2999999523163","","226.5","","0","0","arrowleft","0","arrowleft","[0.15,0.85,0.675,0.325]","","",""
"sailing-trial","126","720978","0.0-11.0-83.0","","","","false","","","","","","","","","","null","","1671.7999999523163","","0","0","null","null","arrowup","[0.15,0.85,0.675,0.325]","","",""
"sailing-trial","127","724599","0.0-11.0-84.0","","","","false","","","","","","","","","","510.6999999284744","","359.1999999284744","","3","1","arrowright","1","arrowright","[0.15,0.85,0.675,0.325]","","",""
"sailing-trial","128","727382","0.0-11.0-85.0","","","","false","","","","","","","","","","null","","474","","1","1","null","null","arrowup","[0.15,0.85,0.675,0.325]","","",""
"sailing-trial","129","730593","0.0-11.0-86.0","","","","false","","","","","","","","","","258.10000002384186","","625.6000000238419","","2","0","arrowright","1","arrowleft","[0.15,0.85,0.675,0.325]","","",""
"sailing-trial","130","733398","0.0-11.0-87.0","","","","false","","","","","","","","","","null","","1238.8999999761581","","1","1","null","null","arrowup","[0.15,0.85,0.675,0.325]","","",""
"sailing-trial","131","736615","0.0-11.0-88.0","","","","false","","","","","","","","","","507","","23.100000023841858","","1","1","arrowleft","0","arrowright","[0.15,0.85,0.675,0.325]","","",""
"sailing-trial","132","739597","0.0-11.0-89.0","","","","false","","","","","","","","","","null","","1225","","2","1","null","null","arrowup","[0.15,0.85,0.675,0.325]","","",""
"sailing-trial","133","742649","0.0-11.0-90.0","","","","false","","","","","","","","","","451.10000002384186","","185.69999992847443","","0","0","arrowleft","0","arrowleft","[0.325,0.675,0.85,0.15]","","",""
"sailing-trial","134","746815","0.0-11.0-91.0","","","","false","","","","","","","","","","null","","2520","","3","1","null","null","arrowup","[0.325,0.675,0.85,0.15]","","",""
"sailing-trial","135","749697","0.0-11.0-92.0","","","","false","","","","","","","","","","521.1000000238419","","174.30000007152557","","3","0","arrowright","1","arrowright","[0.325,0.675,0.85,0.15]","","",""
"sailing-trial","136","751697","0.0-11.0-93.0","","","","false","","","","","","","","","","null","","727.2000000476837","","0","0","null","null","arrowup","[0.325,0.675,0.85,0.15]","","",""
"sailing-trial","137","755548","0.0-11.0-94.0","","","","false","","","","","","","","","","663.4000000953674","","189","","2","1","arrowright","1","arrowleft","[0.325,0.675,0.85,0.15]","","",""
"sailing-trial","138","757370","0.0-11.0-95.0","","","","false","","","","","","","","","","null","","107.40000009536743","","3","0","null","null","arrowup","[0.325,0.675,0.85,0.15]","","",""
"sailing-trial","139","760225","0.0-11.0-96.0","","","","false","","","","","","","","","","565.7999999523163","","7.200000047683716","","0","0","arrowleft","0","arrowleft","[0.325,0.675,0.85,0.15]","","",""
"sailing-trial","140","761994","0.0-11.0-97.0","","","","false","","","","","","","","","","null","","335.5","","3","0","null","null","arrowup","[0.325,0.675,0.85,0.15]","","",""
"sailing-trial","141","766016","0.0-11.0-98.0","","","","false","","","","","","","","","","926.6000000238419","","46.39999997615814","","1","1","arrowleft","0","arrowright","[0.325,0.675,0.85,0.15]","","",""
"sailing-trial","142","768181","0.0-11.0-99.0","","","","false","","","","","","","","","","null","","584.7000000476837","","1","1","null","null","arrowup","[0.325,0.675,0.85,0.15]","","",""
"sailing-trial","143","774615","0.0-11.0-100.0","","","","false","","","","","","","","","","2587.4000000953674","","308","","2","1","arrowright","1","arrowleft","[0.325,0.675,0.85,0.15]","","",""
"sailing-trial","144","776548","0.0-11.0-101.0","","","","false","","","","","","","","","","null","","161.10000002384186","","1","1","null","null","arrowup","[0.325,0.675,0.85,0.15]","","",""
"sailing-trial","145","779582","0.0-11.0-102.0","","","","false","","","","","","","","","","156.29999995231628","","246.79999995231628","","0","1","arrowleft","0","arrowleft","[0.325,0.675,0.85,0.15]","","",""
"sailing-trial","146","782033","0.0-11.0-103.0","","","","false","","","","","","","","","","null","","1226","","3","0","null","null","arrowup","[0.325,0.675,0.85,0.15]","","",""
"sailing-trial","147","785681","0.0-11.0-104.0","","","","false","","","","","","","","","","576.1000000238419","","267.39999997615814","","2","1","arrowright","1","arrowleft","[0.325,0.675,0.85,0.15]","","",""
"sailing-trial","148","787777","0.0-11.0-105.0","","","","false","","","","","","","","","","null","","1054.8000000715256","","1","0","null","null","arrowup","[0.325,0.675,0.85,0.15]","","",""
"sailing-trial","149","791451","0.0-11.0-106.0","","","","false","","","","","","","","","","534.9000000953674","","327.10000002384186","","1","1","arrowleft","0","arrowright","[0.325,0.675,0.85,0.15]","","",""
"sailing-trial","150","793010","0.0-11.0-107.0","","","","false","","","","","","","","","","null","","301","","0","0","null","null","arrowup","[0.325,0.675,0.85,0.15]","","",""
"sailing-trial","151","795937","0.0-11.0-108.0","","","","false","","","","","","","","","","478.60000002384186","","183.39999997615814","","0","0","arrowleft","0","arrowleft","[0.15,0.85,0.675,0.325]","","",""
"sailing-trial","152","798057","0.0-11.0-109.0","","","","false","","","","","","","","","","null","","1079.1999999284744","","3","0","null","null","arrowup","[0.15,0.85,0.675,0.325]","","",""
"sailing-trial","153","802147","0.0-11.0-110.0","","","","false","","","","","","","","","","816","","392.7000000476837","","3","1","arrowright","1","arrowright","[0.15,0.85,0.675,0.325]","","",""
"sailing-trial","154","803889","0.0-11.0-111.0","","","","false","","","","","","","","","","null","","717.7999999523163","","0","0","null","null","arrowup","[0.15,0.85,0.675,0.325]","","",""
"sailing-trial","155","807399","0.0-11.0-112.0","","","","false","","","","","","","","","","654.3999999761581","","141.89999997615814","","2","1","arrowright","1","arrowleft","[0.15,0.85,0.675,0.325]","","",""
"sailing-trial","156","809765","0.0-11.0-113.0","","","","false","","","","","","","","","","null","","579","","1","1","null","null","arrowup","[0.15,0.85,0.675,0.325]","","",""
"sailing-trial","157","812547","0.0-11.0-114.0","","","","false","","","","","","","","","","13.5","","52.699999928474426","","1","1","arrowleft","0","arrowright","[0.15,0.85,0.675,0.325]","","",""
"sailing-trial","158","814040","0.0-11.0-115.0","","","","false","","","","","","","","","","null","","293.10000002384186","","1","0","null","null","arrowup","[0.15,0.85,0.675,0.325]","","",""
"sailing-trial","159","817577","0.0-11.0-116.0","","","","false","","","","","","","","","","527.8999999761581","","565.1000000238419","","0","0","arrowleft","0","arrowleft","[0.15,0.85,0.675,0.325]","","",""
"sailing-trial","160","820864","0.0-11.0-117.0","","","","false","","","","","","","","","","null","","1542.6999999284744","","1","1","null","null","arrowup","[0.15,0.85,0.675,0.325]","","",""
"sailing-trial","161","824365","0.0-11.0-118.0","","","","false","","","","","","","","","","568","","161.69999992847443","","1","1","arrowleft","0","arrowright","[0.15,0.85,0.675,0.325]","","",""
"sailing-trial","162","828832","0.0-11.0-119.0","","","","false","","","","","","","","","","null","","1618.8000000715256","","1","0","null","null","arrowup","[0.15,0.85,0.675,0.325]","","",""
"sailing-trial","163","834380","0.0-11.0-120.0","","","","false","","","","","","","","","","993","","1704.8999999761581","","1","1","arrowleft","0","arrowright","[0.15,0.85,0.675,0.325]","","",""
"sailing-trial","164","839145","0.0-11.0-121.0","","","","false","","","","","","","","","","null","","3242.3000000715256","","2","0","null","null","arrowup","[0.15,0.85,0.675,0.325]","","",""
"sailing-trial","165","843759","0.0-11.0-122.0","","","","false","","","","","","","","","","1606","","709.8000000715256","","3","0","arrowright","1","arrowright","[0.15,0.85,0.675,0.325]","","",""
"sailing-trial","166","845564","0.0-11.0-123.0","","","","false","","","","","","","","","","null","","111.39999997615814","","1","1","null","null","arrowup","[0.15,0.85,0.675,0.325]","","",""
"sailing-trial","167","849871","0.0-11.0-124.0","","","","false","","","","","","","","","","1794.6000000238419","","77.39999997615814","","0","0","arrowleft","0","arrowleft","[0.15,0.85,0.675,0.325]","","",""
"sailing-trial","168","851881","0.0-11.0-125.0","","","","false","","","","","","","","","","null","","271.60000002384186","","0","1","null","null","arrowup","[0.15,0.85,0.675,0.325]","","",""
"sailing-trial","169","854937","0.0-11.0-126.0","","","","false","","","","","","","","","","254.29999995231628","","687.2999999523163","","3","0","arrowright","1","arrowright","[0.15,0.85,0.675,0.325]","","",""
"sailing-trial","170","856823","0.0-11.0-127.0","","","","false","","","","","","","","","","null","","733.7000000476837","","2","0","null","null","arrowup","[0.15,0.85,0.675,0.325]","","",""
"sailing-trial","171","860113","0.0-11.0-128.0","","","","false","","","","","","","","","","407.7000000476837","","27.200000047683716","","1","1","arrowleft","0","arrowright","[0.15,0.85,0.675,0.325]","","",""
"sailing-trial","172","861617","0.0-11.0-129.0","","","","false","","","","","","","","","","null","","477.2000000476837","","3","0","null","null","arrowup","[0.15,0.85,0.675,0.325]","","",""
"sailing-trial","173","864495","0.0-11.0-130.0","","","","false","","","","","","","","","","486","","288.10000002384186","","1","0","arrowleft","0","arrowright","[0.325,0.675,0.85,0.15]","","",""
"sailing-trial","174","866160","0.0-11.0-131.0","","","","false","","","","","","","","","","null","","568.9000000953674","","0","0","null","null","arrowup","[0.325,0.675,0.85,0.15]","","",""
"sailing-trial","175","870871","0.0-11.0-132.0","","","","false","","","","","","","","","","543.2000000476837","","1415.7000000476837","","2","1","arrowright","1","arrowleft","[0.325,0.675,0.85,0.15]","","",""
"sailing-trial","176","873353","0.0-11.0-133.0","","","","false","","","","","","","","","","null","","1303.4000000953674","","3","0","null","null","arrowup","[0.325,0.675,0.85,0.15]","","",""
"sailing-trial","177","877016","0.0-11.0-134.0","","","","false","","","","","","","","","","679.6000000238419","","298.1999999284744","","3","0","arrowright","1","arrowright","[0.325,0.675,0.85,0.15]","","",""
"sailing-trial","178","879779","0.0-11.0-135.0","","","","false","","","","","","","","","","null","","926.2999999523163","","1","1","null","null","arrowup","[0.325,0.675,0.85,0.15]","","",""
"sailing-trial","179","883163","0.0-11.0-136.0","","","","false","","","","","","","","","","51.60000002384186","","553.8999999761581","","1","1","arrowleft","0","arrowright","[0.325,0.675,0.85,0.15]","","",""
"sailing-trial","180","885163","0.0-11.0-137.0","","","","false","","","","","","","","","","null","","99.39999997615814","","2","1","null","null","arrowup","[0.325,0.675,0.85,0.15]","","",""
"sailing-trial","181","889197","0.0-11.0-138.0","","","","false","","","","","","","","","","802.7000000476837","","299.40000009536743","","2","1","arrowright","1","arrowleft","[0.325,0.675,0.85,0.15]","","",""
"sailing-trial","182","891049","0.0-11.0-139.0","","","","false","","","","","","","","","","null","","761.7000000476837","","2","0","null","null","arrowup","[0.325,0.675,0.85,0.15]","","",""
"sailing-trial","183","894613","0.0-11.0-140.0","","","","false","","","","","","","","","","254.10000002384186","","600.2000000476837","","0","1","arrowleft","0","arrowleft","[0.325,0.675,0.85,0.15]","","",""
"sailing-trial","184","896128","0.0-11.0-141.0","","","","false","","","","","","","","","","null","","273.7999999523163","","1","0","null","null","arrowup","[0.325,0.675,0.85,0.15]","","",""
"sailing-trial","185","898737","0.0-11.0-142.0","","","","false","","","","","","","","","","158.90000009536743","","144.40000009536743","","3","0","arrowright","1","arrowright","[0.325,0.675,0.85,0.15]","","",""
"sailing-trial","186","900487","0.0-11.0-143.0","","","","false","","","","","","","","","","null","","341.8000000715256","","3","0","null","null","arrowup","[0.325,0.675,0.85,0.15]","","",""
"sailing-trial","187","903279","0.0-11.0-144.0","","","","false","","","","","","","","","","351.3000000715256","","234.79999995231628","","0","0","arrowleft","0","arrowleft","[0.325,0.675,0.85,0.15]","","",""
"sailing-trial","188","906347","0.0-11.0-145.0","","","","false","","","","","","","","","","null","","1287.7000000476837","","2","1","null","null","arrowup","[0.325,0.675,0.85,0.15]","","",""
"sailing-trial","189","908985","0.0-11.0-146.0","","","","false","","","","","","","","","","228.10000002384186","","259.2999999523163","","3","0","arrowright","1","arrowright","[0.325,0.675,0.85,0.15]","","",""
"sailing-trial","190","910648","0.0-11.0-147.0","","","","false","","","","","","","","","","null","","325.7999999523163","","3","0","null","null","arrowup","[0.325,0.675,0.85,0.15]","","",""
"sailing-trial","191","914583","0.0-11.0-148.0","","","","false","","","","","","","","","","238.80000007152557","","280.60000002384186","","1","0","arrowleft","0","arrowright","[0.325,0.675,0.85,0.15]","","",""
"sailing-trial","192","916596","0.0-11.0-149.0","","","","false","","","","","","","","","","null","","287","","1","1","null","null","arrowup","[0.325,0.675,0.85,0.15]","","",""
"sailing-trial","193","920418","0.0-11.0-150.0","","","","false","","","","","","","","","","746.4000000953674","","269.7999999523163","","0","1","arrowleft","0","arrowleft","[0.15,0.85,0.675,0.325]","","",""
"sailing-trial","194","922398","0.0-11.0-151.0","","","","false","","","","","","","","","","null","","196.10000002384186","","3","1","null","null","arrowup","[0.15,0.85,0.675,0.325]","","",""
"sailing-trial","195","925798","0.0-11.0-152.0","","","","false","","","","","","","","","","328.5","","86.60000002384186","","1","1","arrowleft","0","arrowright","[0.15,0.85,0.675,0.325]","","",""
"sailing-trial","196","927511","0.0-11.0-153.0","","","","false","","","","","","","","","","null","","384","","0","0","null","null","arrowup","[0.15,0.85,0.675,0.325]","","",""
"sailing-trial","197","930695","0.0-11.0-154.0","","","","false","","","","","","","","","","791.2000000476837","","16.100000023841858","","0","0","arrowleft","0","arrowleft","[0.15,0.85,0.675,0.325]","","",""
"sailing-trial","198","932946","0.0-11.0-155.0","","","","false","","","","","","","","","","null","","367.89999997615814","","3","1","null","null","arrowup","[0.15,0.85,0.675,0.325]","","",""
"sailing-trial","199","935863","0.0-11.0-156.0","","","","false","","","","","","","","","","508.5","","273.90000009536743","","3","0","arrowright","1","arrowright","[0.15,0.85,0.675,0.325]","","",""
"sailing-trial","200","938032","0.0-11.0-157.0","","","","false","","","","","","","","","","null","","503.6999999284744","","0","0","null","null","arrowup","[0.15,0.85,0.675,0.325]","","",""
"sailing-trial","201","941563","0.0-11.0-158.0","","","","false","","","","","","","","","","318.89999997615814","","326.2000000476837","","1","1","arrowleft","0","arrowright","[0.15,0.85,0.675,0.325]","","",""
"sailing-trial","202","944255","0.0-11.0-159.0","","","","false","","","","","","","","","","null","","699","","3","0","null","null","arrowup","[0.15,0.85,0.675,0.325]","","",""
"sailing-trial","203","947027","0.0-11.0-160.0","","","","false","","","","","","","","","","215.5","","168.89999997615814","","0","0","arrowleft","0","arrowleft","[0.15,0.85,0.675,0.325]","","",""
"sailing-trial","204","949345","0.0-11.0-161.0","","","","false","","","","","","","","","","null","","731.4000000953674","","2","1","null","null","arrowup","[0.15,0.85,0.675,0.325]","","",""
"sailing-trial","205","952547","0.0-11.0-162.0","","","","false","","","","","","","","","","374.1999999284744","","21.800000071525574","","3","1","arrowright","1","arrowright","[0.15,0.85,0.675,0.325]","","",""
"sailing-trial","206","953952","0.0-11.0-163.0","","","","false","","","","","","","","","","null","","211.30000007152557","","0","0","null","null","arrowup","[0.15,0.85,0.675,0.325]","","",""
"sailing-trial","207","957879","0.0-11.0-164.0","","","","false","","","","","","","","","","614.1000000238419","","325","","1","1","arrowleft","0","arrowright","[0.15,0.85,0.675,0.325]","","",""
"sailing-trial","208","959303","0.0-11.0-165.0","","","","false","","","","","","","","","","null","","150.60000002384186","","0","0","null","null","arrowup","[0.15,0.85,0.675,0.325]","","",""
"sailing-trial","209","961791","0.0-11.0-166.0","","","","false","","","","","","","","","","87.40000009536743","","251.70000004768372","","0","0","arrowleft","0","arrowleft","[0.325,0.675,0.85,0.15]","","",""
"sailing-trial","210","965262","0.0-11.0-167.0","","","","false","","","","","","","","","","null","","1734.6000000238419","","3","1","null","null","arrowup","[0.325,0.675,0.85,0.15]","","",""
"sailing-trial","211","968512","0.0-11.0-168.0","","","","false","","","","","","","","","","304","","267.8000000715256","","2","1","arrowright","1","arrowleft","[0.325,0.675,0.85,0.15]","","",""
"sailing-trial","212","970006","0.0-11.0-169.0","","","","false","","","","","","","","","","null","","61.10000002384186","","1","0","null","null","arrowup","[0.325,0.675,0.85,0.15]","","",""
"sailing-trial","213","972399","0.0-11.0-170.0","","","","false","","","","","","","","","","72","","40.200000047683716","","3","0","arrowright","1","arrowright","[0.325,0.675,0.85,0.15]","","",""
"sailing-trial","214","974648","0.0-11.0-171.0","","","","false","","","","","","","","","","null","","399.60000002384186","","1","0","null","null","arrowup","[0.325,0.675,0.85,0.15]","","",""
"sailing-trial","215","978696","0.0-11.0-172.0","","","","false","","","","","","","","","","278.5","","334.59999990463257","","1","1","arrowleft","0","arrowright","[0.325,0.675,0.85,0.15]","","",""
"sailing-trial","216","980579","0.0-11.0-173.0","","","","false","","","","","","","","","","null","","53.89999997615814","","1","1","null","null","arrowup","[0.325,0.675,0.85,0.15]","","",""
"sailing-trial","217","983590","0.0-11.0-174.0","","","","false","","","","","","","","","","290.89999997615814","","312.89999997615814","","0","0","arrowleft","0","arrowleft","[0.325,0.675,0.85,0.15]","","",""
"sailing-trial","218","986270","0.0-11.0-175.0","","","","false","","","","","","","","","","null","","1447.5","","0","0","null","null","arrowup","[0.325,0.675,0.85,0.15]","","",""
"sailing-trial","219","989278","0.0-11.0-176.0","","","","false","","","","","","","","","","551.2999999523163","","155.5","","3","0","arrowright","1","arrowright","[0.325,0.675,0.85,0.15]","","",""
"sailing-trial","220","990942","0.0-11.0-177.0","","","","false","","","","","","","","","","null","","447.60000002384186","","3","0","null","null","arrowup","[0.325,0.675,0.85,0.15]","","",""
"sailing-trial","221","995911","0.0-11.0-178.0","","","","false","","","","","","","","","","1255.3999999761581","","387","","2","1","arrowright","1","arrowleft","[0.325,0.675,0.85,0.15]","","",""
"sailing-trial","222","999162","0.0-11.0-179.0","","","","false","","","","","","","","","","null","","1158.1000000238419","","1","1","null","null","arrowup","[0.325,0.675,0.85,0.15]","","",""
"sailing-trial","223","1003080","0.0-11.0-180.0","","","","false","","","","","","","","","","691.7999999523163","","386.1999999284744","","1","1","arrowleft","0","arrowright","[0.325,0.675,0.85,0.15]","","",""
"sailing-trial","224","1005045","0.0-11.0-181.0","","","","false","","","","","","","","","","null","","141.89999997615814","","1","1","null","null","arrowup","[0.325,0.675,0.85,0.15]","","",""
"sailing-trial","225","1008584","0.0-11.0-182.0","","","","false","","","","","","","","","","1072.5","","214.60000002384186","","0","0","arrowleft","0","arrowleft","[0.15,0.85,0.675,0.325]","","",""
"sailing-trial","226","1010946","0.0-11.0-183.0","","","","false","","","","","","","","","","null","","542","","2","1","null","null","arrowup","[0.15,0.85,0.675,0.325]","","",""
"sailing-trial","227","1014966","0.0-11.0-184.0","","","","false","","","","","","","","","","787.5","","37.40000009536743","","1","1","arrowleft","0","arrowright","[0.15,0.85,0.675,0.325]","","",""
"sailing-trial","228","1016471","0.0-11.0-185.0","","","","false","","","","","","","","","","null","","200.19999992847443","","0","0","null","null","arrowup","[0.15,0.85,0.675,0.325]","","",""
"sailing-trial","229","1019548","0.0-11.0-186.0","","","","false","","","","","","","","","","111.20000004768372","","107.80000007152557","","2","1","arrowright","1","arrowleft","[0.15,0.85,0.675,0.325]","","",""
"sailing-trial","230","1021184","0.0-11.0-187.0","","","","false","","","","","","","","","","null","","130","","0","0","null","null","arrowup","[0.15,0.85,0.675,0.325]","","",""
"sailing-trial","231","1024079","0.0-11.0-188.0","","","","false","","","","","","","","","","54.10000002384186","","153.69999992847443","","3","1","arrowright","1","arrowright","[0.15,0.85,0.675,0.325]","","",""
"sailing-trial","232","1025800","0.0-11.0-189.0","","","","false","","","","","","","","","","null","","350.60000002384186","","3","0","null","null","arrowup","[0.15,0.85,0.675,0.325]","","",""
"sailing-trial","233","1029007","0.0-11.0-190.0","","","","false","","","","","","","","","","733.8999999761581","","245.5","","0","0","arrowleft","0","arrowleft","[0.15,0.85,0.675,0.325]","","",""
"sailing-trial","234","1032519","0.0-11.0-191.0","","","","false","","","","","","","","","","null","","2303.1999999284744","","0","0","null","null","arrowup","[0.15,0.85,0.675,0.325]","","",""
"sailing-trial","235","1036046","0.0-11.0-192.0","","","","false","","","","","","","","","","542.6000000238419","","345.5","","2","1","arrowright","1","arrowleft","[0.15,0.85,0.675,0.325]","","",""
"sailing-trial","236","1038279","0.0-11.0-193.0","","","","false","","","","","","","","","","null","","304.1999999284744","","1","1","null","null","arrowup","[0.15,0.85,0.675,0.325]","","",""
"sailing-trial","237","1043030","0.0-11.0-194.0","","","","false","","","","","","","","","","79.10000002384186","","1700.7999999523163","","2","1","arrowright","1","arrowleft","[0.15,0.85,0.675,0.325]","","",""
"sailing-trial","238","1045895","0.0-11.0-195.0","","","","false","","","","","","","","","","null","","1015.6999999284744","","1","1","null","null","arrowup","[0.15,0.85,0.675,0.325]","","",""
"sailing-trial","239","1049935","0.0-11.0-196.0","","","","false","","","","","","","","","","1158.8999999761581","","312.09999990463257","","1","0","arrowleft","0","arrowright","[0.15,0.85,0.675,0.325]","","",""
"sailing-trial","240","1052847","0.0-11.0-197.0","","","","false","","","","","","","","","","null","","1110.2999999523163","","2","1","null","null","arrowup","[0.15,0.85,0.675,0.325]","","",""
"sailing-trial","241","1056679","0.0-11.0-198.0","","","","false","","","","","","","","","","574.3999999761581","","187.59999990463257","","2","1","arrowright","1","arrowleft","[0.325,0.675,0.85,0.15]","","",""
"sailing-trial","242","1058303","0.0-11.0-199.0","","","","false","","","","","","","","","","null","","360","","3","0","null","null","arrowup","[0.325,0.675,0.85,0.15]","","",""
"sailing-trial","243","1061150","0.0-11.0-200.0","","","","false","","","","","","","","","","336","","298.60000002384186","","0","0","arrowleft","0","arrowleft","[0.325,0.675,0.85,0.15]","","",""
"sailing-trial","244","1063478","0.0-11.0-201.0","","","","false","","","","","","","","","","null","","695.1999999284744","","3","0","null","null","arrowup","[0.325,0.675,0.85,0.15]","","",""
"sailing-trial","245","1068564","0.0-11.0-202.0","","","","false","","","","","","","","","","1503.6000000238419","","426.39999997615814","","1","1","arrowleft","0","arrowright","[0.325,0.675,0.85,0.15]","","",""
"sailing-trial","246","1069927","0.0-11.0-203.0","","","","false","","","","","","","","","","null","","41.799999952316284","","0","0","null","null","arrowup","[0.325,0.675,0.85,0.15]","","",""
"sailing-trial","247","1073229","0.0-11.0-204.0","","","","false","","","","","","","","","","46.89999997615814","","387.5","","1","1","arrowleft","0","arrowright","[0.325,0.675,0.85,0.15]","","",""
"sailing-trial","248","1077464","0.0-11.0-205.0","","","","false","","","","","","","","","","null","","2464.600000023842","","0","1","null","null","arrowup","[0.325,0.675,0.85,0.15]","","",""
"sailing-trial","249","1081345","0.0-11.0-206.0","","","","false","","","","","","","","","","45.200000047683716","","974.3999999761581","","0","1","arrowleft","0","arrowleft","[0.325,0.675,0.85,0.15]","","",""
"sailing-trial","250","1085606","0.0-11.0-207.0","","","","false","","","","","","","","","","null","","3219.7999999523163","","2","0","null","null","arrowup","[0.325,0.675,0.85,0.15]","","",""
"sailing-trial","251","1089574","0.0-11.0-208.0","","","","false","","","","","","","","","","1303.3999999761581","","135.39999997615814","","1","0","arrowleft","0","arrowright","[0.325,0.675,0.85,0.15]","","",""
"sailing-trial","252","1094261","0.0-11.0-209.0","","","","false","","","","","","","","","","null","","3063","","0","0","null","null","arrowup","[0.325,0.675,0.85,0.15]","","",""
"sailing-trial","253","1097662","0.0-11.0-210.0","","","","false","","","","","","","","","","631.7999999523163","","358.90000009536743","","3","0","arrowright","1","arrowright","[0.325,0.675,0.85,0.15]","","",""
"sailing-trial","254","1100366","0.0-11.0-211.0","","","","false","","","","","","","","","","null","","143","","2","0","null","null","arrowup","[0.325,0.675,0.85,0.15]","","",""
"sailing-trial","255","1103729","0.0-11.0-212.0","","","","false","","","","","","","","","","358.7999999523163","","237.89999997615814","","1","1","arrowleft","0","arrowright","[0.325,0.675,0.85,0.15]","","",""
"sailing-trial","256","1105695","0.0-11.0-213.0","","","","false","","","","","","","","","","null","","324.39999997615814","","1","1","null","null","arrowup","[0.325,0.675,0.85,0.15]","","",""
"sailing-trial","257","1109344","0.0-11.0-214.0","","","","false","","","","","","","","","","526.1000000238419","","290.7000000476837","","1","1","arrowleft","0","arrowright","[0.325,0.675,0.85,0.15]","","",""
"sailing-trial","258","1111622","0.0-11.0-215.0","","","","false","","","","","","","","","","null","","686.2999999523163","","3","0","null","null","arrowup","[0.325,0.675,0.85,0.15]","","",""
"sailing-trial","259","1114962","0.0-11.0-216.0","","","","false","","","","","","","","","","415.2999999523163","","122.89999997615814","","1","1","arrowleft","0","arrowright","[0.325,0.675,0.85,0.15]","","",""
"sailing-trial","260","1117262","0.0-11.0-217.0","","","","false","","","","","","","","","","null","","698.8000000715256","","0","1","null","null","arrowup","[0.325,0.675,0.85,0.15]","","",""
"sailing-trial","261","1120612","0.0-11.0-218.0","","","","false","","","","","","","","","","334.90000009536743","","50.60000002384186","","1","1","arrowleft","0","arrowright","[0.325,0.675,0.85,0.15]","","",""
"sailing-trial","262","1122031","0.0-11.0-219.0","","","","false","","","","","","","","","","null","","304.8000000715256","","3","0","null","null","arrowup","[0.325,0.675,0.85,0.15]","","",""
"sailing-trial","263","1124800","0.0-11.0-220.0","","","","false","","","","","","","","","","518.8999999761581","","125.20000004768372","","1","0","arrowleft","0","arrowright","[0.325,0.675,0.85,0.15]","","",""
"sailing-trial","264","1126862","0.0-11.0-221.0","","","","false","","","","","","","","","","null","","397.10000002384186","","2","1","null","null","arrowup","[0.325,0.675,0.85,0.15]","","",""
"sailing-trial","265","1129980","0.0-11.0-222.0","","","","false","","","","","","","","","","302.8000000715256","","110","","1","1","arrowleft","0","arrowright","[0.15,0.85,0.675,0.325]","","",""
"sailing-trial","266","1132446","0.0-11.0-223.0","","","","false","","","","","","","","","","null","","744.8000000715256","","0","1","null","null","arrowup","[0.15,0.85,0.675,0.325]","","",""
"sailing-trial","267","1135563","0.0-11.0-224.0","","","","false","","","","","","","","","","55","","80.10000002384186","","1","1","arrowleft","0","arrowright","[0.15,0.85,0.675,0.325]","","",""
"sailing-trial","268","1137611","0.0-11.0-225.0","","","","false","","","","","","","","","","null","","353.90000009536743","","1","1","null","null","arrowup","[0.15,0.85,0.675,0.325]","","",""
"sailing-trial","269","1140744","0.0-11.0-226.0","","","","false","","","","","","","","","","257.7999999523163","","57.10000002384186","","1","1","arrowleft","0","arrowright","[0.15,0.85,0.675,0.325]","","",""
"sailing-trial","270","1143744","0.0-11.0-227.0","","","","false","","","","","","","","","","null","","1476.3999999761581","","1","1","null","null","arrowup","[0.15,0.85,0.675,0.325]","","",""
"sailing-trial","271","1146761","0.0-11.0-228.0","","","","false","","","","","","","","","","92","","82.79999995231628","","1","1","arrowleft","0","arrowright","[0.15,0.85,0.675,0.325]","","",""
"sailing-trial","272","1148406","0.0-11.0-229.0","","","","false","","","","","","","","","","null","","364.1999999284744","","0","0","null","null","arrowup","[0.15,0.85,0.675,0.325]","","",""
"sailing-trial","273","1152746","0.0-11.0-230.0","","","","false","","","","","","","","","","494.89999997615814","","406.2000000476837","","1","1","arrowleft","0","arrowright","[0.15,0.85,0.675,0.325]","","",""
"sailing-trial","274","1156628","0.0-11.0-231.0","","","","false","","","","","","","","","","null","","1898.2000000476837","","2","1","null","null","arrowup","[0.15,0.85,0.675,0.325]","","",""
"sailing-trial","275","1161195","0.0-11.0-232.0","","","","false","","","","","","","","","","1296.6999999284744","","396.8000000715256","","3","1","arrowright","1","arrowright","[0.15,0.85,0.675,0.325]","","",""
"sailing-trial","276","1165793","0.0-11.0-233.0","","","","false","","","","","","","","","","null","","2841.5","","3","1","null","null","arrowup","[0.15,0.85,0.675,0.325]","","",""
"sailing-trial","277","1169237","0.0-11.0-234.0","","","","false","","","","","","","","","","365.09999990463257","","340.6999999284744","","0","0","arrowleft","0","arrowleft","[0.15,0.85,0.675,0.325]","","",""
"sailing-trial","278","1171545","0.0-11.0-235.0","","","","false","","","","","","","","","","null","","471.39999997615814","","1","1","null","null","arrowup","[0.15,0.85,0.675,0.325]","","",""
"sailing-trial","279","1174811","0.0-11.0-236.0","","","","false","","","","","","","","","","267.5","","305.90000009536743","","2","1","arrowright","1","arrowleft","[0.15,0.85,0.675,0.325]","","",""
"sailing-trial","280","1177428","0.0-11.0-237.0","","","","false","","","","","","","","","","null","","777.2000000476837","","1","1","null","null","arrowup","[0.15,0.85,0.675,0.325]","","",""
"sailing-trial","281","1181445","0.0-11.0-238.0","","","","false","","","","","","","","","","880.9000000953674","","39.700000047683716","","1","1","arrowleft","0","arrowright","[0.15,0.85,0.675,0.325]","","",""
"sailing-trial","282","1184910","0.0-11.0-239.0","","","","false","","","","","","","","","","null","","1703.2999999523163","","1","1","null","null","arrowup","[0.15,0.85,0.675,0.325]","","",""
"sailing-trial","283","1187810","0.0-11.0-240.0","","","","false","","","","","","","","","","110.20000004768372","","34.10000002384186","","1","1","arrowleft","0","arrowright","[0.15,0.85,0.675,0.325]","","",""
"sailing-trial","284","1190727","0.0-11.0-241.0","","","","false","","","","","","","","","","null","","1273.7999999523163","","1","1","null","null","arrowup","[0.15,0.85,0.675,0.325]","","",""
"sailing-trial","285","1193517","0.0-11.0-242.0","","","","false","","","","","","","","","","157.5","","192.09999990463257","","1","0","arrowleft","0","arrowright","[0.85,0.15,0.325,0.675]","","",""
"sailing-trial","286","1195394","0.0-11.0-243.0","","","","false","","","","","","","","","","null","","263.39999997615814","","0","1","null","null","arrowup","[0.85,0.15,0.325,0.675]","","",""
"sailing-trial","287","1198246","0.0-11.0-244.0","","","","false","","","","","","","","","","578.1999999284744","","30.100000023841858","","1","0","arrowleft","0","arrowright","[0.85,0.15,0.325,0.675]","","",""
"sailing-trial","288","1199885","0.0-11.0-245.0","","","","false","","","","","","","","","","null","","310.39999997615814","","2","0","null","null","arrowup","[0.85,0.15,0.325,0.675]","","",""
"sailing-trial","289","1203213","0.0-11.0-246.0","","","","false","","","","","","","","","","1055.0999999046326","","70","","2","0","arrowright","1","arrowleft","[0.85,0.15,0.325,0.675]","","",""
"sailing-trial","290","1205678","0.0-11.0-247.0","","","","false","","","","","","","","","","null","","494.2999999523163","","2","1","null","null","arrowup","[0.85,0.15,0.325,0.675]","","",""
"sailing-trial","291","1208381","0.0-11.0-248.0","","","","false","","","","","","","","","","390","","176.29999995231628","","1","0","arrowleft","0","arrowright","[0.85,0.15,0.325,0.675]","","",""
"sailing-trial","292","1210429","0.0-11.0-249.0","","","","false","","","","","","","","","","null","","342.59999990463257","","0","1","null","null","arrowup","[0.85,0.15,0.325,0.675]","","",""
"sailing-trial","293","1213362","0.0-11.0-250.0","","","","false","","","","","","","","","","206.79999995231628","","91.19999992847443","","0","1","arrowleft","0","arrowleft","[0.85,0.15,0.325,0.675]","","",""
"sailing-trial","294","1217172","0.0-11.0-251.0","","","","false","","","","","","","","","","null","","2529.8000000715256","","0","0","null","null","arrowup","[0.85,0.15,0.325,0.675]","","",""
"sailing-trial","295","1222172","0.0-11.0-252.0","","","","false","","","","","","","","","","2279.5","","449.3000000715256","","1","0","arrowleft","0","arrowright","[0.85,0.15,0.325,0.675]","","",""
"sailing-trial","296","1226426","0.0-11.0-253.0","","","","false","","","","","","","","","","null","","2631.3000000715256","","3","1","null","null","arrowup","[0.85,0.15,0.325,0.675]","","",""
"sailing-trial","297","1232685","0.0-11.0-254.0","","","","false","","","","","","","","","","585.1999999284744","","3306.2999999523163","","1","0","arrowleft","0","arrowright","[0.85,0.15,0.325,0.675]","","",""
"sailing-trial","298","1235610","0.0-11.0-255.0","","","","false","","","","","","","","","","null","","878.6000000238419","","0","1","null","null","arrowup","[0.85,0.15,0.325,0.675]","","",""
"sailing-trial","299","1239965","0.0-11.0-256.0","","","","false","","","","","","","","","","2081.600000023842","","8.200000047683716","","1","0","arrowleft","0","arrowright","[0.85,0.15,0.325,0.675]","","",""
"sailing-trial","300","1242559","0.0-11.0-257.0","","","","false","","","","","","","","","","null","","957.5","","0","1","null","null","arrowup","[0.85,0.15,0.325,0.675]","","",""
"sailing-trial","301","1245341","0.0-11.0-258.0","","","","false","","","","","","","","","","339.89999997615814","","104.10000002384186","","1","0","arrowleft","0","arrowright","[0.675,0.325,0.15,0.85]","","",""
"sailing-trial","302","1246876","0.0-11.0-259.0","","","","false","","","","","","","","","","null","","326.60000002384186","","1","0","null","null","arrowup","[0.675,0.325,0.15,0.85]","","",""
"sailing-trial","303","1249712","0.0-11.0-260.0","","","","false","","","","","","","","","","63.5","","37.89999997615814","","0","1","arrowleft","0","arrowleft","[0.675,0.325,0.15,0.85]","","",""
"sailing-trial","304","1251213","0.0-11.0-261.0","","","","false","","","","","","","","","","null","","275.60000002384186","","1","0","null","null","arrowup","[0.675,0.325,0.15,0.85]","","",""
"sailing-trial","305","1255127","0.0-11.0-262.0","","","","false","","","","","","","","","","110.29999995231628","","126.39999997615814","","3","1","arrowright","1","arrowright","[0.675,0.325,0.15,0.85]","","",""
"sailing-trial","306","1256811","0.0-11.0-263.0","","","","false","","","","","","","","","","null","","60.5","","0","1","null","null","arrowup","[0.675,0.325,0.15,0.85]","","",""
"sailing-trial","307","1260029","0.0-11.0-264.0","","","","false","","","","","","","","","","719.7000000476837","","261.59999990463257","","3","0","arrowright","1","arrowright","[0.675,0.325,0.15,0.85]","","",""
"sailing-trial","308","1261960","0.0-11.0-265.0","","","","false","","","","","","","","","","null","","158.19999992847443","","3","1","null","null","arrowup","[0.675,0.325,0.15,0.85]","","",""
"sailing-trial","309","1265940","0.0-11.0-266.0","","","","false","","","","","","","","","","123.39999997615814","","1720","","3","0","arrowright","1","arrowright","[0.675,0.325,0.15,0.85]","","",""
"sailing-trial","310","1269127","0.0-11.0-267.0","","","","false","","","","","","","","","","null","","1238.8999999761581","","2","1","null","null","arrowup","[0.675,0.325,0.15,0.85]","","",""
"sailing-trial","311","1272376","0.0-11.0-268.0","","","","false","","","","","","","","","","318.5","","233.89999997615814","","0","1","arrowleft","0","arrowleft","[0.675,0.325,0.15,0.85]","","",""
"sailing-trial","312","1273956","0.0-11.0-269.0","","","","false","","","","","","","","","","null","","266.7999999523163","","1","0","null","null","arrowup","[0.675,0.325,0.15,0.85]","","",""
"sailing-trial","313","1277178","0.0-11.0-270.0","","","","false","","","","","","","","","","184.30000007152557","","237.60000002384186","","3","1","arrowright","1","arrowright","[0.675,0.325,0.15,0.85]","","",""
"sailing-trial","314","1280029","0.0-11.0-271.0","","","","false","","","","","","","","","","null","","1153.1000000238419","","2","0","null","null","arrowup","[0.675,0.325,0.15,0.85]","","",""
"sailing-trial","315","1283243","0.0-11.0-272.0","","","","false","","","","","","","","","","246.19999992847443","","240.10000002384186","","1","1","arrowleft","0","arrowright","[0.675,0.325,0.15,0.85]","","",""
"sailing-trial","316","1286092","0.0-11.0-273.0","","","","false","","","","","","","","","","null","","1600.5","","1","0","null","null","arrowup","[0.675,0.325,0.15,0.85]","","",""
"sailing-trial","317","1290660","0.0-11.0-274.0","","","","false","","","","","","","","","","974.6000000238419","","801.1999999284744","","0","1","arrowleft","0","arrowleft","[0.675,0.325,0.15,0.85]","","",""
"sailing-trial","318","1294236","0.0-11.0-275.0","","","","false","","","","","","","","","","null","","2022.3999999761581","","2","0","null","null","arrowup","[0.675,0.325,0.15,0.85]","","",""
"sailing-trial","319","1298560","0.0-11.0-276.0","","","","false","","","","","","","","","","471.10000002384186","","837.8999999761581","","3","1","arrowright","1","arrowright","[0.675,0.325,0.15,0.85]","","",""
"sailing-trial","320","1299997","0.0-11.0-277.0","","","","false","","","","","","","","","","null","","26.899999976158142","","0","0","null","null","arrowup","[0.675,0.325,0.15,0.85]","","",""
"sailing-trial","321","1303301","0.0-11.0-278.0","","","","false","","","","","","","","","","358.39999997615814","","220.79999995231628","","1","0","arrowleft","0","arrowright","[0.85,0.15,0.325,0.675]","","",""
"sailing-trial","322","1304933","0.0-11.0-279.0","","","","false","","","","","","","","","","null","","29.90000009536743","","2","0","null","null","arrowup","[0.85,0.15,0.325,0.675]","","",""
"sailing-trial","323","1307776","0.0-11.0-280.0","","","","false","","","","","","","","","","102.30000007152557","","50.799999952316284","","2","1","arrowright","1","arrowleft","[0.85,0.15,0.325,0.675]","","",""
"sailing-trial","324","1310443","0.0-11.0-281.0","","","","false","","","","","","","","","","null","","891","","3","1","null","null","arrowup","[0.85,0.15,0.325,0.675]","","",""
"sailing-trial","325","1313692","0.0-11.0-282.0","","","","false","","","","","","","","","","216.20000004768372","","241.19999992847443","","0","1","arrowleft","0","arrowleft","[0.85,0.15,0.325,0.675]","","",""
"sailing-trial","326","1315359","0.0-11.0-283.0","","","","false","","","","","","","","","","null","","62.5","","0","1","null","null","arrowup","[0.85,0.15,0.325,0.675]","","",""
"sailing-trial","327","1318724","0.0-11.0-284.0","","","","false","","","","","","","","","","955.6000000238419","","262.7999999523163","","3","0","arrowright","1","arrowright","[0.85,0.15,0.325,0.675]","","",""
"sailing-trial","328","1320692","0.0-11.0-285.0","","","","false","","","","","","","","","","null","","695.2999999523163","","1","0","null","null","arrowup","[0.85,0.15,0.325,0.675]","","",""
"sailing-trial","329","1323276","0.0-11.0-286.0","","","","false","","","","","","","","","","135.5","","217.39999997615814","","0","0","arrowleft","0","arrowleft","[0.85,0.15,0.325,0.675]","","",""
"sailing-trial","330","1325608","0.0-11.0-287.0","","","","false","","","","","","","","","","null","","575.3999999761581","","1","0","null","null","arrowup","[0.85,0.15,0.325,0.675]","","",""
"sailing-trial","331","1329161","0.0-11.0-288.0","","","","false","","","","","","","","","","667.3000000715256","","41.59999990463257","","3","1","arrowright","1","arrowright","[0.85,0.15,0.325,0.675]","","",""
"sailing-trial","332","1331036","0.0-11.0-289.0","","","","false","","","","","","","","","","null","","426.1999999284744","","2","0","null","null","arrowup","[0.85,0.15,0.325,0.675]","","",""
"sailing-trial","333","1334343","0.0-11.0-290.0","","","","false","","","","","","","","","","543","","140.09999990463257","","0","1","arrowleft","0","arrowleft","[0.85,0.15,0.325,0.675]","","",""
"sailing-trial","334","1336756","0.0-11.0-291.0","","","","false","","","","","","","","","","null","","940.2000000476837","","3","0","null","null","arrowup","[0.85,0.15,0.325,0.675]","","",""
"sailing-trial","335","1339460","0.0-11.0-292.0","","","","false","","","","","","","","","","199.20000004768372","","125","","1","0","arrowleft","0","arrowright","[0.85,0.15,0.325,0.675]","","",""
"sailing-trial","336","1341593","0.0-11.0-293.0","","","","false","","","","","","","","","","null","","559.2000000476837","","3","1","null","null","arrowup","[0.85,0.15,0.325,0.675]","","",""
"sailing-trial","337","1344745","0.0-11.0-294.0","","","","false","","","","","","","","","","74.40000009536743","","257.5","","0","1","arrowleft","0","arrowleft","[0.15,0.85,0.675,0.325]","","",""
"sailing-trial","338","1347794","0.0-11.0-295.0","","","","false","","","","","","","","","","null","","1057.7999999523163","","2","1","null","null","arrowup","[0.15,0.85,0.675,0.325]","","",""
"sailing-trial","339","1350724","0.0-11.0-296.0","","","","false","","","","","","","","","","464.5","","304.2999999523163","","3","0","arrowright","1","arrowright","[0.15,0.85,0.675,0.325]","","",""
"sailing-trial","340","1351852","0.0-11.0-297.0","","","","false","","","","","","","","","","null","","0.10000002384185791","","2","0","null","null","arrowup","[0.15,0.85,0.675,0.325]","","",""
"sailing-trial","341","1357160","0.0-11.0-298.0","","","","false","","","","","","","","","","1878.7999999523163","","622.3000000715256","","1","1","arrowleft","0","arrowright","[0.15,0.85,0.675,0.325]","","",""
"sailing-trial","342","1358540","0.0-11.0-299.0","","","","false","","","","","","","","","","null","","35","","3","0","null","null","arrowup","[0.15,0.85,0.675,0.325]","","",""
"sailing-trial","343","1361847","0.0-11.0-300.0","","","","false","","","","","","","","","","487","","194.5","","0","0","arrowleft","0","arrowleft","[0.15,0.85,0.675,0.325]","","",""
"sailing-trial","344","1363700","0.0-11.0-301.0","","","","false","","","","","","","","","","null","","500.10000002384186","","0","0","null","null","arrowup","[0.15,0.85,0.675,0.325]","","",""
"sailing-trial","345","1367843","0.0-11.0-302.0","","","","false","","","","","","","","","","287","","413","","1","1","arrowleft","0","arrowright","[0.15,0.85,0.675,0.325]","","",""
"sailing-trial","346","1369748","0.0-11.0-303.0","","","","false","","","","","","","","","","null","","807.5","","0","0","null","null","arrowup","[0.15,0.85,0.675,0.325]","","",""
"sailing-trial","347","1372676","0.0-11.0-304.0","","","","false","","","","","","","","","","430.8000000715256","","170.70000004768372","","1","0","arrowleft","0","arrowright","[0.15,0.85,0.675,0.325]","","",""
"sailing-trial","348","1375276","0.0-11.0-305.0","","","","false","","","","","","","","","","null","","871.1000000238419","","2","1","null","null","arrowup","[0.15,0.85,0.675,0.325]","","",""
"sailing-trial","349","1378019","0.0-11.0-306.0","","","","false","","","","","","","","","","6.799999952316284","","190.60000002384186","","1","0","arrowleft","0","arrowright","[0.15,0.85,0.675,0.325]","","",""
"sailing-trial","350","1379539","0.0-11.0-307.0","","","","false","","","","","","","","","","null","","239.19999992847443","","3","0","null","null","arrowup","[0.15,0.85,0.675,0.325]","","",""
"sailing-trial","351","1383009","0.0-11.0-308.0","","","","false","","","","","","","","","","559.5","","95.69999992847443","","0","1","arrowleft","0","arrowleft","[0.15,0.85,0.675,0.325]","","",""
"sailing-trial","352","1384894","0.0-11.0-309.0","","","","false","","","","","","","","","","null","","145.40000009536743","","2","1","null","null","arrowup","[0.15,0.85,0.675,0.325]","","",""
"sailing-trial","353","1388643","0.0-11.0-310.0","","","","false","","","","","","","","","","300.90000009536743","","274.6999999284744","","1","1","arrowleft","0","arrowright","[0.325,0.675,0.85,0.15]","","",""
"sailing-trial","354","1392060","0.0-11.0-311.0","","","","false","","","","","","","","","","null","","1327.7000000476837","","3","1","null","null","arrowup","[0.325,0.675,0.85,0.15]","","",""
"sailing-trial","355","1395580","0.0-11.0-312.0","","","","false","","","","","","","","","","78.80000007152557","","629.5","","0","0","arrowleft","0","arrowleft","[0.325,0.675,0.85,0.15]","","",""
"sailing-trial","356","1399309","0.0-11.0-313.0","","","","false","","","","","","","","","","null","","2134.600000023842","","1","1","null","null","arrowup","[0.325,0.675,0.85,0.15]","","",""
"sailing-trial","357","1402442","0.0-11.0-314.0","","","","false","","","","","","","","","","46.10000002384186","","92.20000004768372","","0","1","arrowleft","0","arrowleft","[0.325,0.675,0.85,0.15]","","",""
"sailing-trial","358","1404875","0.0-11.0-315.0","","","","false","","","","","","","","","","null","","687.5","","2","1","null","null","arrowup","[0.325,0.675,0.85,0.15]","","",""
"sailing-trial","359","1409611","0.0-11.0-316.0","","","","false","","","","","","","","","","1135.3999999761581","","786.7000000476837","","0","1","arrowleft","0","arrowleft","[0.325,0.675,0.85,0.15]","","",""
"sailing-trial","360","1412458","0.0-11.0-317.0","","","","false","","","","","","","","","","null","","1287.1000000238419","","1","1","null","null","arrowup","[0.325,0.675,0.85,0.15]","","",""
"sailing-trial","361","1415019","0.0-11.0-318.0","","","","false","","","","","","","","","","111.89999997615814","","203.79999995231628","","1","0","arrowleft","0","arrowright","[0.325,0.675,0.85,0.15]","","",""
"sailing-trial","362","1418909","0.0-11.0-319.0","","","","false","","","","","","","","","","null","","2087.2000000476837","","2","1","null","null","arrowup","[0.325,0.675,0.85,0.15]","","",""
"sailing-trial","363","1422258","0.0-11.0-320.0","","","","false","","","","","","","","","","701.1000000238419","","146.5","","0","0","arrowleft","0","arrowleft","[0.325,0.675,0.85,0.15]","","",""
"sailing-trial","364","1424459","0.0-11.0-321.0","","","","false","","","","","","","","","","null","","1167.6999999284744","","1","0","null","null","arrowup","[0.325,0.675,0.85,0.15]","","",""
"sailing-trial","365","1427235","0.0-11.0-322.0","","","","false","","","","","","","","","","503.2999999523163","","76.5","","3","0","arrowright","1","arrowright","[0.325,0.675,0.85,0.15]","","",""
"sailing-trial","366","1429219","0.0-11.0-323.0","","","","false","","","","","","","","","","null","","798.8000000715256","","3","0","null","null","arrowup","[0.325,0.675,0.85,0.15]","","",""
"sailing-trial","367","1432176","0.0-11.0-324.0","","","","false","","","","","","","","","","135.89999997615814","","92.60000002384186","","1","1","arrowleft","0","arrowright","[0.325,0.675,0.85,0.15]","","",""
"sailing-trial","368","1434708","0.0-11.0-325.0","","","","false","","","","","","","","","","null","","618.2000000476837","","1","1","null","null","arrowup","[0.325,0.675,0.85,0.15]","","",""
"sailing-trial","369","1438043","0.0-11.0-326.0","","","","false","","","","","","","","","","470.2999999523163","","60.299999952316284","","2","1","arrowright","1","arrowleft","[0.325,0.675,0.85,0.15]","","",""
"sailing-trial","370","1439908","0.0-11.0-327.0","","","","false","","","","","","","","","","null","","143","","2","1","null","null","arrowup","[0.325,0.675,0.85,0.15]","","",""
"sailing-trial","371","1443075","0.0-11.0-328.0","","","","false","","","","","","","","","","238","","126.10000002384186","","1","1","arrowleft","0","arrowright","[0.15,0.85,0.675,0.325]","","",""
"sailing-trial","372","1445275","0.0-11.0-329.0","","","","false","","","","","","","","","","null","","79","","3","1","null","null","arrowup","[0.15,0.85,0.675,0.325]","","",""
"sailing-trial","373","1447651","0.0-11.0-330.0","","","","false","","","","","","","","","","46.800000071525574","","141.20000004768372","","2","0","arrowright","1","arrowleft","[0.15,0.85,0.675,0.325]","","",""
"sailing-trial","374","1449019","0.0-11.0-331.0","","","","false","","","","","","","","","","null","","318.7999999523163","","0","0","null","null","arrowup","[0.15,0.85,0.675,0.325]","","",""
"sailing-trial","375","1452091","0.0-11.0-332.0","","","","false","","","","","","","","","","95.09999990463257","","205.79999995231628","","1","1","arrowleft","0","arrowright","[0.15,0.85,0.675,0.325]","","",""
"sailing-trial","376","1454235","0.0-11.0-333.0","","","","false","","","","","","","","","","null","","1077.7999999523163","","3","0","null","null","arrowup","[0.15,0.85,0.675,0.325]","","",""
"sailing-trial","377","1457358","0.0-11.0-334.0","","","","false","","","","","","","","","","152","","82.89999997615814","","0","1","arrowleft","0","arrowleft","[0.15,0.85,0.675,0.325]","","",""
"sailing-trial","378","1459143","0.0-11.0-335.0","","","","false","","","","","","","","","","null","","59.5","","2","1","null","null","arrowup","[0.15,0.85,0.675,0.325]","","",""
"sailing-trial","379","1461835","0.0-11.0-336.0","","","","false","","","","","","","","","","82.29999995231628","","434.09999990463257","","1","0","arrowleft","0","arrowright","[0.15,0.85,0.675,0.325]","","",""
"sailing-trial","380","1465208","0.0-11.0-337.0","","","","false","","","","","","","","","","null","","1798.5999999046326","","3","1","null","null","arrowup","[0.15,0.85,0.675,0.325]","","",""
"sailing-trial","381","1470677","0.0-11.0-338.0","","","","false","","","","","","","","","","793.3999999761581","","1258.5999999046326","","1","1","arrowleft","0","arrowright","[0.15,0.85,0.675,0.325]","","",""
"sailing-trial","382","1472498","0.0-11.0-339.0","","","","false","","","","","","","","","","null","","780.7000000476837","","2","0","null","null","arrowup","[0.15,0.85,0.675,0.325]","","",""
"sailing-trial","383","1476483","0.0-11.0-340.0","","","","false","","","","","","","","","","663.1999999284744","","190.19999992847443","","0","0","arrowleft","0","arrowleft","[0.15,0.85,0.675,0.325]","","",""
"sailing-trial","384","1478075","0.0-11.0-341.0","","","","false","","","","","","","","","","null","","14.599999904632568","","0","1","null","null","arrowup","[0.15,0.85,0.675,0.325]","","",""
"sailing-trial","385","1481308","0.0-11.0-342.0","","","","false","","","","","","","","","","422.2999999523163","","182.69999992847443","","3","1","arrowright","1","arrowright","[0.15,0.85,0.675,0.325]","","",""
"sailing-trial","386","1482402","0.0-11.0-343.0","","","","false","","","","","","","","","","null","","21.399999976158142","","3","0","null","null","arrowup","[0.15,0.85,0.675,0.325]","","",""
"sailing-trial","387","1487691","0.0-11.0-344.0","","","","false","","","","","","","","","","2727","","197.90000009536743","","0","0","arrowleft","0","arrowleft","[0.15,0.85,0.675,0.325]","","",""
"sailing-trial","388","1489370","0.0-11.0-345.0","","","","false","","","","","","","","","","null","","535.5","","0","0","null","null","arrowup","[0.15,0.85,0.675,0.325]","","",""
"sailing-trial","389","1492108","0.0-11.0-346.0","","","","false","","","","","","","","","","55.89999997615814","","9.5","","3","1","arrowright","1","arrowright","[0.15,0.85,0.675,0.325]","","",""
"sailing-trial","390","1494691","0.0-11.0-347.0","","","","false","","","","","","","","","","null","","1045.8000000715256","","1","1","null","null","arrowup","[0.15,0.85,0.675,0.325]","","",""
"sailing-trial","391","1498458","0.0-11.0-348.0","","","","false","","","","","","","","","","830.7000000476837","","197.20000004768372","","0","1","arrowleft","0","arrowleft","[0.325,0.675,0.85,0.15]","","",""
"sailing-trial","392","1500090","0.0-11.0-349.0","","","","false","","","","","","","","","","null","","439.10000002384186","","1","0","null","null","arrowup","[0.325,0.675,0.85,0.15]","","",""
"sailing-trial","393","1503242","0.0-11.0-350.0","","","","false","","","","","","","","","","119.79999995231628","","266.10000002384186","","1","1","arrowleft","0","arrowright","[0.325,0.675,0.85,0.15]","","",""
"sailing-trial","394","1507491","0.0-11.0-351.0","","","","false","","","","","","","","","","null","","2470.600000023842","","1","1","null","null","arrowup","[0.325,0.675,0.85,0.15]","","",""
"sailing-trial","395","1510963","0.0-11.0-352.0","","","","false","","","","","","","","","","254.20000004768372","","860.9000000953674","","0","0","arrowleft","0","arrowleft","[0.325,0.675,0.85,0.15]","","",""
"sailing-trial","396","1514459","0.0-11.0-353.0","","","","false","","","","","","","","","","null","","1765.4000000953674","","2","1","null","null","arrowup","[0.325,0.675,0.85,0.15]","","",""
"sailing-trial","397","1517163","0.0-11.0-354.0","","","","false","","","","","","","","","","71.19999992847443","","365.89999997615814","","1","0","arrowleft","0","arrowright","[0.325,0.675,0.85,0.15]","","",""
"sailing-trial","398","1518673","0.0-11.0-355.0","","","","false","","","","","","","","","","null","","93.79999995231628","","3","0","null","null","arrowup","[0.325,0.675,0.85,0.15]","","",""
"sailing-trial","399","1522325","0.0-11.0-356.0","","","","false","","","","","","","","","","536.1999999284744","","411.5","","0","1","arrowleft","0","arrowleft","[0.325,0.675,0.85,0.15]","","",""
"sailing-trial","400","1523530","0.0-11.0-357.0","","","","false","","","","","","","","","","null","","99.70000004768372","","0","0","null","null","arrowup","[0.325,0.675,0.85,0.15]","","",""
"sailing-trial","401","1525890","0.0-11.0-358.0","","","","false","","","","","","","","","","6.899999976158142","","37.700000047683716","","0","0","arrowleft","0","arrowleft","[0.325,0.675,0.85,0.15]","","",""
"sailing-trial","402","1527754","0.0-11.0-359.0","","","","false","","","","","","","","","","null","","734.5999999046326","","3","0","null","null","arrowup","[0.325,0.675,0.85,0.15]","","",""
"sailing-trial","403","1531474","0.0-11.0-360.0","","","","false","","","","","","","","","","263.2999999523163","","593.8999999761581","","0","1","arrowleft","0","arrowleft","[0.325,0.675,0.85,0.15]","","",""
"sailing-trial","404","1532826","0.0-11.0-361.0","","","","false","","","","","","","","","","null","","254.70000004768372","","0","0","null","null","arrowup","[0.325,0.675,0.85,0.15]","","",""
"sailing-trial","405","1536858","0.0-11.0-362.0","","","","false","","","","","","","","","","1319.1999999284744","","14.5","","1","1","arrowleft","0","arrowright","[0.325,0.675,0.85,0.15]","","",""
"sailing-trial","406","1538641","0.0-11.0-363.0","","","","false","","","","","","","","","","null","","222.79999995231628","","1","1","null","null","arrowup","[0.325,0.675,0.85,0.15]","","",""
"sailing-trial","407","1541051","0.0-11.0-364.0","","","","false","","","","","","","","","","0.10000002384185791","","153.29999995231628","","1","0","arrowleft","0","arrowright","[0.675,0.325,0.15,0.85]","","",""
"sailing-trial","408","1542891","0.0-11.0-365.0","","","","false","","","","","","","","","","null","","134.19999992847443","","3","1","null","null","arrowup","[0.675,0.325,0.15,0.85]","","",""
"sailing-trial","409","1546258","0.0-11.0-366.0","","","","false","","","","","","","","","","261.89999997615814","","932","","1","0","arrowleft","0","arrowright","[0.675,0.325,0.15,0.85]","","",""
"sailing-trial","410","1548411","0.0-11.0-367.0","","","","false","","","","","","","","","","null","","990.5","","2","0","null","null","arrowup","[0.675,0.325,0.15,0.85]","","",""
"sailing-trial","411","1551408","0.0-11.0-368.0","","","","false","","","","","","","","","","222.10000002384186","","42.800000071525574","","0","1","arrowleft","0","arrowleft","[0.675,0.325,0.15,0.85]","","",""
"sailing-trial","412","1552690","0.0-11.0-369.0","","","","false","","","","","","","","","","null","","113","","0","0","null","null","arrowup","[0.675,0.325,0.15,0.85]","","",""
"sailing-trial","413","1555162","0.0-11.0-370.0","","","","false","","","","","","","","","","7.899999976158142","","101.70000004768372","","1","0","arrowleft","0","arrowright","[0.675,0.325,0.15,0.85]","","",""
"sailing-trial","414","1557074","0.0-11.0-371.0","","","","false","","","","","","","","","","null","","710.7000000476837","","1","0","null","null","arrowup","[0.675,0.325,0.15,0.85]","","",""
"sailing-trial","415","1560250","0.0-11.0-372.0","","","","false","","","","","","","","","","175","","561.3999999761581","","1","0","arrowleft","0","arrowright","[0.675,0.325,0.15,0.85]","","",""
"sailing-trial","416","1562409","0.0-11.0-373.0","","","","false","","","","","","","","","","null","","630.5","","0","1","null","null","arrowup","[0.675,0.325,0.15,0.85]","","",""
"sailing-trial","417","1565641","0.0-11.0-374.0","","","","false","","","","","","","","","","79.70000004768372","","438.39999997615814","","0","1","arrowleft","0","arrowleft","[0.675,0.325,0.15,0.85]","","",""
"sailing-trial","418","1567178","0.0-11.0-375.0","","","","false","","","","","","","","","","null","","263.89999997615814","","1","0","null","null","arrowup","[0.675,0.325,0.15,0.85]","","",""
"sailing-trial","419","1572125","0.0-11.0-376.0","","","","false","","","","","","","","","","294.8000000715256","","1464.2999999523163","","3","1","arrowright","1","arrowright","[0.675,0.325,0.15,0.85]","","",""
"sailing-trial","420","1574674","0.0-11.0-377.0","","","","false","","","","","","","","","","null","","635.5","","2","1","null","null","arrowup","[0.675,0.325,0.15,0.85]","","",""
"sailing-trial","421","1577826","0.0-11.0-378.0","","","","false","","","","","","","","","","55.39999997615814","","485.7999999523163","","0","0","arrowleft","0","arrowleft","[0.675,0.325,0.15,0.85]","","",""
"sailing-trial","422","1579557","0.0-11.0-379.0","","","","false","","","","","","","","","","null","","134.79999995231628","","2","1","null","null","arrowup","[0.675,0.325,0.15,0.85]","","",""
"sailing-trial","423","1582962","0.0-11.0-380.0","","","","false","","","","","","","","","","163.79999995231628","","1030.1000000238419","","2","0","arrowright","1","arrowleft","[0.675,0.325,0.15,0.85]","","",""
"sailing-trial","424","1584547","0.0-11.0-381.0","","","","false","","","","","","","","","","null","","166.5","","2","0","null","null","arrowup","[0.675,0.325,0.15,0.85]","","",""
"sailing-trial","425","1587273","0.0-11.0-382.0","","","","false","","","","","","","","","","0.19999992847442627","","101.60000002384186","","1","1","arrowleft","0","arrowright","[0.15,0.85,0.675,0.325]","","",""
"sailing-trial","426","1588875","0.0-11.0-383.0","","","","false","","","","","","","","","","null","","63.800000071525574","","2","1","null","null","arrowup","[0.15,0.85,0.675,0.325]","","",""
"sailing-trial","427","1591924","0.0-11.0-384.0","","","","false","","","","","","","","","","126.10000002384186","","219.39999997615814","","1","1","arrowleft","0","arrowright","[0.15,0.85,0.675,0.325]","","",""
"sailing-trial","428","1593786","0.0-11.0-385.0","","","","false","","","","","","","","","","null","","756.7999999523163","","2","0","null","null","arrowup","[0.15,0.85,0.675,0.325]","","",""
"sailing-trial","429","1596690","0.0-11.0-386.0","","","","false","","","","","","","","","","7.299999952316284","","228.79999995231628","","1","1","arrowleft","0","arrowright","[0.15,0.85,0.675,0.325]","","",""
"sailing-trial","430","1597913","0.0-11.0-387.0","","","","false","","","","","","","","","","null","","166.10000002384186","","3","0","null","null","arrowup","[0.15,0.85,0.675,0.325]","","",""
"sailing-trial","431","1600626","0.0-11.0-388.0","","","","false","","","","","","","","","","231.60000002384186","","165.09999990463257","","0","0","arrowleft","0","arrowleft","[0.15,0.85,0.675,0.325]","","",""
"sailing-trial","432","1601681","0.0-11.0-389.0","","","","false","","","","","","","","","","null","","0.10000002384185791","","3","0","null","null","arrowup","[0.15,0.85,0.675,0.325]","","",""
"sailing-trial","433","1604842","0.0-11.0-390.0","","","","false","","","","","","","","","","479.60000002384186","","77.39999997615814","","2","1","arrowright","1","arrowleft","[0.15,0.85,0.675,0.325]","","",""
"sailing-trial","434","1607001","0.0-11.0-391.0","","","","false","","","","","","","","","","null","","117.80000007152557","","0","0","null","null","arrowup","[0.15,0.85,0.675,0.325]","","",""
"sailing-trial","435","1610023","0.0-11.0-392.0","","","","false","","","","","","","","","","103.60000002384186","","189.80000007152557","","1","1","arrowleft","0","arrowright","[0.15,0.85,0.675,0.325]","","",""
"sailing-trial","436","1611882","0.0-11.0-393.0","","","","false","","","","","","","","","","null","","800.6000000238419","","3","0","null","null","arrowup","[0.15,0.85,0.675,0.325]","","",""
"sailing-trial","437","1614449","0.0-11.0-394.0","","","","false","","","","","","","","","","286.6999999284744","","44.90000009536743","","1","0","arrowleft","0","arrowright","[0.15,0.85,0.675,0.325]","","",""
"sailing-trial","438","1616026","0.0-11.0-395.0","","","","false","","","","","","","","","","null","","231.5","","1","0","null","null","arrowup","[0.15,0.85,0.675,0.325]","","",""
"sailing-trial","439","1618648","0.0-11.0-396.0","","","","false","","","","","","","","","","86.5","","238.5","","0","0","arrowleft","0","arrowleft","[0.15,0.85,0.675,0.325]","","",""
"sailing-trial","440","1620474","0.0-11.0-397.0","","","","false","","","","","","","","","","null","","295.39999997615814","","2","1","null","null","arrowup","[0.15,0.85,0.675,0.325]","","",""
"sailing-trial","441","1625273","0.0-11.0-398.0","","","","false","","","","","","","","","","1726.2999999523163","","203.89999997615814","","1","1","arrowleft","0","arrowright","[0.15,0.85,0.675,0.325]","","",""
"sailing-trial","442","1627472","0.0-11.0-399.0","","","","false","","","","","","","","","","null","","799","","0","0","null","null","arrowup","[0.15,0.85,0.675,0.325]","","",""
"instructions","443","1630982","0.0-12.0","","","","","","","","","","3509.0999999046326","","","","","","","","","","","","","","","","[{""page_index"":0,""viewing_time"":3508.399999976158}]"
"survey-debrief","444","1665094","0.0-13.0","","","","","","","","","","34110.200000047684","","","","","","","","","","","","","","{""difficulty"":""5"",""fun"":""1"",""clarity"":""5"",""strategy"":""Just visit the red house the most because it felt like it gave a lot of gold."",""feedback"":""""}","",""
