"trial_type","trial_index","time_elapsed","internal_node_id","value","metadata","success","timeout","failed_images","failed_audio","failed_video","browser_interaction","low_quality","rt","stimulus","response","button_pressed","island_rt","island_response","boat_rt","boat_response","boat","reward","island_key","island","boat_key","reward_probabilities","responses","num_errors","view_history"
"pavlovia","0","6","0.0-0.0","","","","","","","","","","","","","","","","","","","","","","","","","",""
"call-function","1","8","0.0-1.0","","{""task_version"":""sailing_part1_v1"",""task_condition"":""good"",""boats"":[""B"",""C"",""D"",""A""],""boats_demo"":[""F"",""E"",""H"",""G""],""islands"":[""A"",""B""],""subject_id"":""13878"",""age"":""13"",""gender"":""Female""}","","","","","","","","","","","","","","","","","","","","","","","",""
"preload","2","7965","0.0-2.0","","","true","false","[]","[]","[]","[{""event"":""fullscreenenter"",""trial"":3,""time"":17490}]","false","","","","","","","","","","","","","","","","",""
"fullscreen","3","18478","0.0-3.0","","","true","","","","","","","","","","","","","","","","","","","","","","",""
"audio-keyboard-response","4","22751","0.0-4.0-0.0","","","","","","","","","","4064","audio/beep_loop.wav"," ","","","","","","","","","","","","","",""
"audio-test","5","25414","0.0-4.0-1.0","","","","","","","","","","null","audio/turtle.mp3","","3","","","","","","","","","","","","",""
"audio-test","6","27938","0.0-4.0-2.0","","","","","","","","","","null","audio/shark.mp3","","2","","","","","","","","","","","","",""
"sailing-instructions","7","60871","0.0-5.0-0.0-0.0","","","","","","","","","","","","","","null","null","null","null","null","null","","","","","","",""
"sailing-trial","8","65019","0.0-5.0-0.0-1.0-0.0","","","","false","","","","","","","","","","3028.6999999999534","","null","","null","null","arrowleft","0","null","null","","",""
"sailing-trial","9","69158","0.0-5.0-0.0-1.0-1.0","","","","false","","","","","","","","","","3014.5999999999767","","null","","null","null","arrowright","1","null","null","","",""
"sailing-trial","10","72022","0.0-5.0-0.0-1.0-2.0","","","","false","","","","","","","","","","1732.6999999999534","","null","","null","null","arrowleft","0","null","null","","",""
"sailing-instructions","11","115785","0.0-5.0-0.0-2.0","","","","","","","","","","","","","","null","null","null","null","0","null","","","","","","",""
"sailing-trial","12","122803","0.0-5.0-0.0-3.0-0.0","","","","false","","","","","","","","","","null","","2305.1999999999534","","2","1","null","null","arrowleft","[1,1,1,1]","","",""
"sailing-trial","13","126717","0.0-5.0-0.0-3.0-1.0","","","","false","","","","","","","","","","null","","672.0999999999767","","3","1","null","null","arrowright","[1,1,1,1]","","",""
"sailing-trial","14","133075","0.0-5.0-0.0-3.0-2.0","","","","false","","","","","","","","","","null","","2597.0999999999767","","2","0","null","null","arrowleft","[0,0,0,0]","","",""
"sailing-instructions","15","140961","0.0-5.0-0.0-4.0","","","","","","","","","","","","","","null","null","null","null","null","null","","","","","","",""
"sailing-comprehension","16","169788","0.0-5.0-0.0-5.0","","","","","","","","","","23416.20000000007","","","","","","","","","","","","","","[""true"",""true"",""false"",""true""]","0",""
"sailing-instructions","17","234083","0.0-6.0-0.0-0.0","","","","","","","","","","","","","","null","null","null","null","null","null","","","","","","",""
"sailing-comprehension","18","257107","0.0-6.0-0.0-1.0","","","","","","","","","","20294","","","","","","","","","","","","","","[""true"",""false"",""true""]","0",""
"sailing-instructions","19","271941","0.0-7.0-0.0-0.0","","","","","","","","","","","","","","null","null","null","null","null","null","","","","","","",""
"sailing-trial","20","279267","0.0-7.0-0.0-1.0-0.0","","","","false","","","","","","","","","","null","","4299.800000000047","","0","0","null","null","arrowup","[0.2,0.8,0.2,0.8]","","",""
"sailing-trial","21","284790","0.0-7.0-0.0-1.0-1.0","","","","false","","","","","","","","","","null","","2996.8000000000466","","1","1","null","null","arrowup","[0.2,0.8,0.2,0.8]","","",""
"sailing-trial","22","289009","0.0-7.0-0.0-1.0-2.0","","","","false","","","","","","","","","","null","","1434.3000000000466","","2","0","null","null","arrowup","[0.2,0.8,0.2,0.8]","","",""
"sailing-trial","23","293445","0.0-7.0-0.0-1.0-3.0","","","","false","","","","","","","","","","null","","1459.3000000000466","","3","1","null","null","arrowup","[0.2,0.8,0.2,0.8]","","",""
"sailing-comprehension","24","308871","0.0-7.0-0.0-2.0","","","","","","","","","","12060.199999999953","","","","","","","","","","","","","","[""false""]","0",""
"sailing-instructions","25","319587","0.0-8.0-0.0-0.0","","","","","","","","","","","","","","null","null","null","null","null","null","","","","","","",""
"sailing-comprehension","26","326685","0.0-8.0-0.0-1.0","","","","","","","","","","4188.800000000047","","","","","","","","","","","","","","[""true""]","0",""
"sailing-instructions","27","365138","0.0-9.0-0.0-0.0","","","","","","","","","","","","","","null","null","null","null","null","null","","","","","","",""
"sailing-trial","28","373557","0.0-9.0-0.0-1.0-0.0","","","","false","","","","","","","","","","1385.4000000001397","","1883.3000000000466","","0","1","arrowleft","0","arrowleft","[0.2,0.8,0.2,0.8]","","",""
"sailing-trial","29","379951","0.0-9.0-0.0-1.0-1.0","","","","false","","","","","","","","","","1513.5","","877.3000000000466","","3","1","arrowright","1","arrowright","[0.2,0.8,0.2,0.8]","","",""
"sailing-trial","30","384430","0.0-9.0-0.0-1.0-2.0","","","","false","","","","","","","","","","null","","1626.6000000000931","","0","1","null","null","arrowup","[0.2,0.8,0.2,0.8]","","",""
"sailing-trial","31","389413","0.0-9.0-0.0-1.0-3.0","","","","false","","","","","","","","","","1071.5999999998603","","154","","3","1","arrowright","1","arrowright","[0.2,0.8,0.2,0.8]","","",""
"sailing-trial","32","393110","0.0-9.0-0.0-1.0-4.0","","","","false","","","","","","","","","","null","","1092.0999999998603","","3","1","null","null","arrowup","[0.2,0.8,0.2,0.8]","","",""
"sailing-trial","33","398934","0.0-9.0-0.0-1.0-5.0","","","","false","","","","","","","","","","723.6999999999534","","1686.1999999999534","","1","1","arrowleft","0","arrowright","[0.2,0.8,0.2,0.8]","","",""
"sailing-instructions","34","435123","0.0-10.0","","","","","","","","","","","","","","null","null","null","null","null","null","","","","","","",""
"sailing-trial","35","441157","0.0-11.0-0.0","","","","false","","","","","","","","","","1146.7000000001863","","894","","0","0","arrowleft","0","arrowleft","[0.325,0.675,0.15,0.85]","","",""
"sailing-trial","36","445092","0.0-11.0-1.0","","","","false","","","","","","","","","","null","","1137.3999999999069","","2","0","null","null","arrowup","[0.325,0.675,0.15,0.85]","","",""
"sailing-trial","37","450134","0.0-11.0-2.0","","","","false","","","","","","","","","","719.6000000000931","","821.2999999998137","","0","0","arrowleft","0","arrowleft","[0.325,0.675,0.15,0.85]","","",""
"sailing-trial","38","454326","0.0-11.0-3.0","","","","false","","","","","","","","","","null","","1162.5","","3","1","null","null","arrowup","[0.325,0.675,0.15,0.85]","","",""
"sailing-trial","39","459237","0.0-11.0-4.0","","","","false","","","","","","","","","","629.8000000000466","","436.5","","3","1","arrowright","1","arrowright","[0.325,0.675,0.15,0.85]","","",""
"sailing-trial","40","462854","0.0-11.0-5.0","","","","false","","","","","","","","","","null","","1083.9000000001397","","0","1","null","null","arrowup","[0.325,0.675,0.15,0.85]","","",""
"sailing-trial","41","467086","0.0-11.0-6.0","","","","false","","","","","","","","","","551.3999999999069","","296.10000000009313","","0","0","arrowleft","0","arrowleft","[0.325,0.675,0.15,0.85]","","",""
"sailing-trial","42","470830","0.0-11.0-7.0","","","","false","","","","","","","","","","null","","1388.5","","3","1","null","null","arrowup","[0.325,0.675,0.15,0.85]","","",""
"sailing-trial","43","476238","0.0-11.0-8.0","","","","false","","","","","","","","","","1059.4000000001397","","525.6999999999534","","1","1","arrowleft","0","arrowright","[0.325,0.675,0.15,0.85]","","",""
"sailing-trial","44","480314","0.0-11.0-9.0","","","","false","","","","","","","","","","null","","1050.1999999999534","","2","0","null","null","arrowup","[0.325,0.675,0.15,0.85]","","",""
"sailing-trial","45","484993","0.0-11.0-10.0","","","","false","","","","","","","","","","742.3000000000466","","379.69999999995343","","1","1","arrowleft","0","arrowright","[0.325,0.675,0.15,0.85]","","",""
"sailing-trial","46","488657","0.0-11.0-11.0","","","","false","","","","","","","","","","null","","1165.5","","1","1","null","null","arrowup","[0.325,0.675,0.15,0.85]","","",""
"sailing-trial","47","495053","0.0-11.0-12.0","","","","false","","","","","","","","","","1746.0999999998603","","460.4000000001397","","2","1","arrowright","1","arrowleft","[0.325,0.675,0.15,0.85]","","",""
"sailing-trial","48","497748","0.0-11.0-13.0","","","","false","","","","","","","","","","null","","848.6999999999534","","0","0","null","null","arrowup","[0.325,0.675,0.15,0.85]","","",""
"sailing-trial","49","501838","0.0-11.0-14.0","","","","false","","","","","","","","","","562","","12.700000000186265","","3","1","arrowright","1","arrowright","[0.325,0.675,0.15,0.85]","","",""
"sailing-trial","50","504902","0.0-11.0-15.0","","","","false","","","","","","","","","","null","","796","","3","1","null","null","arrowup","[0.325,0.675,0.15,0.85]","","",""
"sailing-trial","51","509141","0.0-11.0-16.0","","","","false","","","","","","","","","","510.30000000004657","","345.89999999990687","","0","1","arrowleft","0","arrowleft","[0.85,0.15,0.675,0.325]","","",""
"sailing-trial","52","512541","0.0-11.0-17.0","","","","false","","","","","","","","","","null","","1179.8000000000466","","2","1","null","null","arrowup","[0.85,0.15,0.675,0.325]","","",""
"sailing-trial","53","517454","0.0-11.0-18.0","","","","false","","","","","","","","","","1535.5","","253","","1","1","arrowleft","0","arrowright","[0.85,0.15,0.675,0.325]","","",""
"sailing-trial","54","522101","0.0-11.0-19.0","","","","false","","","","","","","","","","null","","2090.5","","3","1","null","null","arrowup","[0.85,0.15,0.675,0.325]","","",""
"sailing-trial","55","528355","0.0-11.0-20.0","","","","false","","","","","","","","","","1477.3000000000466","","534.3000000000466","","3","0","arrowright","1","arrowright","[0.85,0.15,0.675,0.325]","","",""
"sailing-trial","56","532342","0.0-11.0-21.0","","","","false","","","","","","","","","","null","","946.2000000001863","","1","0","null","null","arrowup","[0.85,0.15,0.675,0.325]","","",""
"sailing-trial","57","537142","0.0-11.0-22.0","","","","false","","","","","","","","","","600.0999999998603","","40","","1","0","arrowleft","0","arrowright","[0.85,0.15,0.675,0.325]","","",""
"sailing-trial","58","540595","0.0-11.0-23.0","","","","false","","","","","","","","","","null","","941.5","","2","0","null","null","arrowup","[0.85,0.15,0.675,0.325]","","",""
"sailing-trial","59","544885","0.0-11.0-24.0","","","","false","","","","","","","","","","480.0999999998603","","129.9000000001397","","0","1","arrowleft","0","arrowleft","[0.85,0.15,0.675,0.325]","","",""
"sailing-trial","60","549373","0.0-11.0-25.0","","","","false","","","","","","","","","","null","","1458.9000000001397","","3","0","null","null","arrowup","[0.85,0.15,0.675,0.325]","","",""
"sailing-trial","61","554569","0.0-11.0-26.0","","","","false","","","","","","","","","","1525","","40.89999999990687","","2","1","arrowright","1","arrowleft","[0.85,0.15,0.675,0.325]","","",""
"sailing-trial","62","558022","0.0-11.0-27.0","","","","false","","","","","","","","","","null","","1150.8000000000466","","2","1","null","null","arrowup","[0.85,0.15,0.675,0.325]","","",""
"sailing-trial","63","564924","0.0-11.0-28.0","","","","false","","","","","","","","","","1974.9000000001397","","538.3999999999069","","2","0","arrowright","1","arrowleft","[0.85,0.15,0.675,0.325]","","",""
"sailing-trial","64","568820","0.0-11.0-29.0","","","","false","","","","","","","","","","null","","854.7000000001863","","2","0","null","null","arrowup","[0.85,0.15,0.675,0.325]","","",""
"sailing-trial","65","574749","0.0-11.0-30.0","","","","false","","","","","","","","","","1541.6999999999534","","6","","2","0","arrowright","1","arrowleft","[0.85,0.15,0.675,0.325]","","",""
"sailing-trial","66","578469","0.0-11.0-31.0","","","","false","","","","","","","","","","null","","677.6000000000931","","3","0","null","null","arrowup","[0.85,0.15,0.675,0.325]","","",""
"sailing-trial","67","585709","0.0-11.0-32.0","","","","false","","","","","","","","","","2110.8000000000466","","852.5","","2","1","arrowright","1","arrowleft","[0.85,0.15,0.675,0.325]","","",""
"sailing-trial","68","590355","0.0-11.0-33.0","","","","false","","","","","","","","","","null","","1613.3999999999069","","1","0","null","null","arrowup","[0.85,0.15,0.675,0.325]","","",""
"sailing-trial","69","595482","0.0-11.0-34.0","","","","false","","","","","","","","","","545.5","","265.30000000004657","","1","0","arrowleft","0","arrowright","[0.85,0.15,0.675,0.325]","","",""
"sailing-trial","70","599244","0.0-11.0-35.0","","","","false","","","","","","","","","","null","","723.5999999998603","","1","0","null","null","arrowup","[0.85,0.15,0.675,0.325]","","",""
"sailing-trial","71","604077","0.0-11.0-36.0","","","","false","","","","","","","","","","567.6999999999534","","358.30000000004657","","0","1","arrowleft","0","arrowleft","[0.85,0.15,0.675,0.325]","","",""
"sailing-trial","72","607894","0.0-11.0-37.0","","","","false","","","","","","","","","","null","","789.3000000000466","","3","0","null","null","arrowup","[0.85,0.15,0.675,0.325]","","",""
"sailing-trial","73","612374","0.0-11.0-38.0","","","","false","","","","","","","","","","474.89999999990687","","345.60000000009313","","0","1","arrowleft","0","arrowleft","[0.85,0.15,0.675,0.325]","","",""
"sailing-trial","74","616454","0.0-11.0-39.0","","","","false","","","","","","","","","","null","","1041.4000000001397","","3","0","null","null","arrowup","[0.85,0.15,0.675,0.325]","","",""
"sailing-trial","75","622182","0.0-11.0-40.0","","","","false","","","","","","","","","","1500.3999999999069","","491.39999999990687","","3","1","arrowright","1","arrowright","[0.675,0.325,0.85,0.15]","","",""
"sailing-trial","76","626030","0.0-11.0-41.0","","","","false","","","","","","","","","","null","","1247.6999999999534","","0","1","null","null","arrowup","[0.675,0.325,0.85,0.15]","","",""
"sailing-trial","77","631206","0.0-11.0-42.0","","","","false","","","","","","","","","","1175.9000000001397","","128.19999999995343","","0","1","arrowleft","0","arrowleft","[0.675,0.325,0.85,0.15]","","",""
"sailing-trial","78","635632","0.0-11.0-43.0","","","","false","","","","","","","","","","null","","1384.6000000000931","","1","0","null","null","arrowup","[0.675,0.325,0.85,0.15]","","",""
"sailing-trial","79","640998","0.0-11.0-44.0","","","","false","","","","","","","","","","1225.8999999999069","","29.899999999906868","","3","0","arrowright","1","arrowright","[0.675,0.325,0.85,0.15]","","",""
"sailing-trial","80","644509","0.0-11.0-45.0","","","","false","","","","","","","","","","null","","1123.5","","0","1","null","null","arrowup","[0.675,0.325,0.85,0.15]","","",""
"sailing-trial","81","649502","0.0-11.0-46.0","","","","false","","","","","","","","","","654.5","","100.69999999995343","","1","0","arrowleft","0","arrowright","[0.675,0.325,0.85,0.15]","","",""
"sailing-trial","82","653437","0.0-11.0-47.0","","","","false","","","","","","","","","","null","","913.3000000000466","","3","0","null","null","arrowup","[0.675,0.325,0.85,0.15]","","",""
"sailing-trial","83","659045","0.0-11.0-48.0","","","","false","","","","","","","","","","607.0999999998603","","747.3000000000466","","0","0","arrowleft","0","arrowleft","[0.675,0.325,0.85,0.15]","","",""
"sailing-trial","84","662990","0.0-11.0-49.0","","","","false","","","","","","","","","","null","","911.7999999998137","","1","0","null","null","arrowup","[0.675,0.325,0.85,0.15]","","",""
"sailing-trial","85","667852","0.0-11.0-50.0","","","","false","","","","","","","","","","615.1999999999534","","2.5999999998603016","","0","0","arrowleft","0","arrowleft","[0.675,0.325,0.85,0.15]","","",""
"sailing-trial","86","671853","0.0-11.0-51.0","","","","false","","","","","","","","","","null","","963","","3","0","null","null","arrowup","[0.675,0.325,0.85,0.15]","","",""
"sailing-trial","87","676886","0.0-11.0-52.0","","","","false","","","","","","","","","","552.5","","527.1000000000931","","0","1","arrowleft","0","arrowleft","[0.675,0.325,0.85,0.15]","","",""
"sailing-trial","88","680911","0.0-11.0-53.0","","","","false","","","","","","","","","","null","","980.6999999999534","","3","0","null","null","arrowup","[0.675,0.325,0.85,0.15]","","",""
"sailing-trial","89","686477","0.0-11.0-54.0","","","","false","","","","","","","","","","987.8000000000466","","306.80000000004657","","3","0","arrowright","1","arrowright","[0.675,0.325,0.85,0.15]","","",""
"sailing-trial","90","689822","0.0-11.0-55.0","","","","false","","","","","","","","","","null","","957.3000000000466","","2","1","null","null","arrowup","[0.675,0.325,0.85,0.15]","","",""
"sailing-trial","91","695686","0.0-11.0-56.0","","","","false","","","","","","","","","","1459.6999999999534","","86.60000000009313","","2","1","arrowright","1","arrowleft","[0.675,0.325,0.85,0.15]","","",""
"sailing-trial","92","699594","0.0-11.0-57.0","","","","false","","","","","","","","","","null","","893.6999999999534","","0","0","null","null","arrowup","[0.675,0.325,0.85,0.15]","","",""
"sailing-trial","93","704342","0.0-11.0-58.0","","","","false","","","","","","","","","","513.8000000000466","","420.5","","0","1","arrowleft","0","arrowleft","[0.675,0.325,0.85,0.15]","","",""
"sailing-trial","94","708289","0.0-11.0-59.0","","","","false","","","","","","","","","","null","","977.3000000000466","","0","1","null","null","arrowup","[0.675,0.325,0.85,0.15]","","",""
"sailing-trial","95","713466","0.0-11.0-60.0","","","","false","","","","","","","","","","745.8000000000466","","364.0999999998603","","1","0","arrowleft","0","arrowright","[0.675,0.325,0.85,0.15]","","",""
"sailing-trial","96","717053","0.0-11.0-61.0","","","","false","","","","","","","","","","null","","995.1999999999534","","2","1","null","null","arrowup","[0.675,0.325,0.85,0.15]","","",""
"sailing-trial","97","722909","0.0-11.0-62.0","","","","false","","","","","","","","","","796.6999999999534","","1120.6999999999534","","3","1","arrowright","1","arrowright","[0.325,0.675,0.15,0.85]","","",""
"sailing-trial","98","726955","0.0-11.0-63.0","","","","false","","","","","","","","","","null","","1419.3000000000466","","0","1","null","null","arrowup","[0.325,0.675,0.15,0.85]","","",""
"sailing-trial","99","731558","0.0-11.0-64.0","","","","false","","","","","","","","","","680.9000000001397","","463.39999999990687","","0","1","arrowleft","0","arrowleft","[0.325,0.675,0.15,0.85]","","",""
"sailing-trial","100","736827","0.0-11.0-65.0","","","","false","","","","","","","","","","null","","2238.1999999999534","","1","0","null","null","arrowup","[0.325,0.675,0.15,0.85]","","",""
"sailing-trial","101","742414","0.0-11.0-66.0","","","","false","","","","","","","","","","824","","598.0999999998603","","0","1","arrowleft","0","arrowleft","[0.325,0.675,0.15,0.85]","","",""
"sailing-trial","102","747069","0.0-11.0-67.0","","","","false","","","","","","","","","","null","","1614.0999999998603","","1","0","null","null","arrowup","[0.325,0.675,0.15,0.85]","","",""
"sailing-trial","103","751917","0.0-11.0-68.0","","","","false","","","","","","","","","","934.2999999998137","","516.6999999999534","","1","1","arrowleft","0","arrowright","[0.325,0.675,0.15,0.85]","","",""
"sailing-trial","104","756563","0.0-11.0-69.0","","","","false","","","","","","","","","","null","","1611.9000000001397","","0","0","null","null","arrowup","[0.325,0.675,0.15,0.85]","","",""
"sailing-trial","105","761890","0.0-11.0-70.0","","","","false","","","","","","","","","","754.1999999999534","","432.80000000004657","","2","0","arrowright","1","arrowleft","[0.325,0.675,0.15,0.85]","","",""
"sailing-trial","106","765090","0.0-11.0-71.0","","","","false","","","","","","","","","","null","","755.9000000001397","","0","1","null","null","arrowup","[0.325,0.675,0.15,0.85]","","",""
"sailing-trial","107","769870","0.0-11.0-72.0","","","","false","","","","","","","","","","801.1999999999534","","630","","3","1","arrowright","1","arrowright","[0.325,0.675,0.15,0.85]","","",""
"sailing-trial","108","773931","0.0-11.0-73.0","","","","false","","","","","","","","","","null","","1033","","2","0","null","null","arrowup","[0.325,0.675,0.15,0.85]","","",""
"sailing-trial","109","778661","0.0-11.0-74.0","","","","false","","","","","","","","","","573.9000000001397","","821","","0","1","arrowleft","0","arrowleft","[0.325,0.675,0.15,0.85]","","",""
"sailing-trial","110","782739","0.0-11.0-75.0","","","","false","","","","","","","","","","null","","1048.8000000000466","","2","0","null","null","arrowup","[0.325,0.675,0.15,0.85]","","",""
"sailing-trial","111","788219","0.0-11.0-76.0","","","","false","","","","","","","","","","1216","","107.30000000004657","","1","1","arrowleft","0","arrowright","[0.325,0.675,0.15,0.85]","","",""
"sailing-trial","112","791158","0.0-11.0-77.0","","","","false","","","","","","","","","","null","","1007.8000000000466","","1","1","null","null","arrowup","[0.325,0.675,0.15,0.85]","","",""
"sailing-trial","113","797397","0.0-11.0-78.0","","","","false","","","","","","","","","","1198.2000000001863","","805.6000000000931","","2","0","arrowright","1","arrowleft","[0.85,0.15,0.675,0.325]","","",""
"sailing-trial","114","801374","0.0-11.0-79.0","","","","false","","","","","","","","","","null","","946.3000000000466","","1","0","null","null","arrowup","[0.85,0.15,0.675,0.325]","","",""
"sailing-trial","115","806837","0.0-11.0-80.0","","","","false","","","","","","","","","","794.8000000000466","","419","","3","0","arrowright","1","arrowright","[0.85,0.15,0.675,0.325]","","",""
"sailing-trial","116","810710","0.0-11.0-81.0","","","","false","","","","","","","","","","null","","951.7000000001863","","1","1","null","null","arrowup","[0.85,0.15,0.675,0.325]","","",""
"sailing-trial","117","815613","0.0-11.0-82.0","","","","false","","","","","","","","","","549.3999999999069","","17.600000000093132","","3","0","arrowright","1","arrowright","[0.85,0.15,0.675,0.325]","","",""
"sailing-trial","118","819934","0.0-11.0-83.0","","","","false","","","","","","","","","","null","","1804.1999999999534","","0","1","null","null","arrowup","[0.85,0.15,0.675,0.325]","","",""
"sailing-trial","119","825701","0.0-11.0-84.0","","","","false","","","","","","","","","","950.8999999999069","","493.10000000009313","","2","0","arrowright","1","arrowleft","[0.85,0.15,0.675,0.325]","","",""
"sailing-trial","120","828952","0.0-11.0-85.0","","","","false","","","","","","","","","","null","","1054.6000000000931","","3","1","null","null","arrowup","[0.85,0.15,0.675,0.325]","","",""
"sailing-trial","121","834070","0.0-11.0-86.0","","","","false","","","","","","","","","","638.6999999999534","","549.3000000000466","","0","1","arrowleft","0","arrowleft","[0.85,0.15,0.675,0.325]","","",""
"sailing-trial","122","838060","0.0-11.0-87.0","","","","false","","","","","","","","","","null","","955.4000000001397","","1","0","null","null","arrowup","[0.85,0.15,0.675,0.325]","","",""
"sailing-trial","123","843055","0.0-11.0-88.0","","","","false","","","","","","","","","","568.1999999999534","","360.60000000009313","","1","0","arrowleft","0","arrowright","[0.85,0.15,0.675,0.325]","","",""
"sailing-trial","124","847710","0.0-11.0-89.0","","","","false","","","","","","","","","","null","","2117","","0","1","null","null","arrowup","[0.85,0.15,0.675,0.325]","","",""
"sailing-trial","125","853280","0.0-11.0-90.0","","","","false","","","","","","","","","","866.8000000000466","","501.5","","2","1","arrowright","1","arrowleft","[0.85,0.15,0.675,0.325]","","",""
"sailing-trial","126","856279","0.0-11.0-91.0","","","","false","","","","","","","","","","null","","996.5","","3","1","null","null","arrowup","[0.85,0.15,0.675,0.325]","","",""
"sailing-trial","127","860525","0.0-11.0-92.0","","","","false","","","","","","","","","","691.5","","180.29999999981374","","3","1","arrowright","1","arrowright","[0.85,0.15,0.675,0.325]","","",""
"sailing-trial","128","864821","0.0-11.0-93.0","","","","false","","","","","","","","","","null","","1262.6000000000931","","3","0","null","null","arrowup","[0.85,0.15,0.675,0.325]","","",""
"sailing-trial","129","870383","0.0-11.0-94.0","","","","false","","","","","","","","","","1098.8000000000466","","213.30000000004657","","3","0","arrowright","1","arrowright","[0.85,0.15,0.675,0.325]","","",""
"sailing-trial","130","874545","0.0-11.0-95.0","","","","false","","","","","","","","","","null","","969.6000000000931","","0","1","null","null","arrowup","[0.85,0.15,0.675,0.325]","","",""
"sailing-trial","131","880154","0.0-11.0-96.0","","","","false","","","","","","","","","","918","","452.80000000004657","","1","0","arrowleft","0","arrowright","[0.85,0.15,0.675,0.325]","","",""
"sailing-trial","132","883958","0.0-11.0-97.0","","","","false","","","","","","","","","","null","","784.5","","0","1","null","null","arrowup","[0.85,0.15,0.675,0.325]","","",""
"sailing-trial","133","888601","0.0-11.0-98.0","","","","false","","","","","","","","","","663","","381.19999999995343","","2","1","arrowright","1","arrowleft","[0.85,0.15,0.675,0.325]","","",""
"sailing-trial","134","892964","0.0-11.0-99.0","","","","false","","","","","","","","","","null","","1323.8000000000466","","2","0","null","null","arrowup","[0.85,0.15,0.675,0.325]","","",""
"sailing-trial","135","896806","0.0-11.0-100.0","","","","false","","","","","","","","","","713.1999999999534","","441.39999999990687","","0","0","arrowleft","0","arrowleft","[0.675,0.325,0.85,0.15]","","",""
"sailing-trial","136","900957","0.0-11.0-101.0","","","","false","","","","","","","","","","null","","1119","","1","0","null","null","arrowup","[0.675,0.325,0.85,0.15]","","",""
"sailing-trial","137","908167","0.0-11.0-102.0","","","","false","","","","","","","","","","886.5","","1999.1999999999534","","3","0","arrowright","1","arrowright","[0.675,0.325,0.85,0.15]","","",""
"sailing-trial","138","912246","0.0-11.0-103.0","","","","false","","","","","","","","","","null","","1035.5","","0","0","null","null","arrowup","[0.675,0.325,0.85,0.15]","","",""
"sailing-trial","139","918956","0.0-11.0-104.0","","","","false","","","","","","","","","","1014.1000000000931","","1438.4000000001397","","0","0","arrowleft","0","arrowleft","[0.675,0.325,0.85,0.15]","","",""
"sailing-trial","140","924373","0.0-11.0-105.0","","","","false","","","","","","","","","","null","","2109.7000000001863","","0","1","null","null","arrowup","[0.675,0.325,0.85,0.15]","","",""
"sailing-trial","141","929454","0.0-11.0-106.0","","","","false","","","","","","","","","","885.3999999999069","","825.5","","2","1","arrowright","1","arrowleft","[0.675,0.325,0.85,0.15]","","",""
"sailing-trial","142","934013","0.0-11.0-107.0","","","","false","","","","","","","","","","null","","2148.3000000000466","","2","1","null","null","arrowup","[0.675,0.325,0.85,0.15]","","",""
"sailing-trial","143","939678","0.0-11.0-108.0","","","","false","","","","","","","","","","1119.5","","10.200000000186265","","2","1","arrowright","1","arrowleft","[0.675,0.325,0.85,0.15]","","",""
"sailing-trial","144","944470","0.0-11.0-109.0","","","","false","","","","","","","","","","null","","2530","","1","1","null","null","arrowup","[0.675,0.325,0.85,0.15]","","",""
"sailing-trial","145","950413","0.0-11.0-110.0","","","","false","","","","","","","","","","1075.9000000001397","","620.3000000000466","","3","0","arrowright","1","arrowright","[0.675,0.325,0.85,0.15]","","",""
"sailing-trial","146","954765","0.0-11.0-111.0","","","","false","","","","","","","","","","null","","1310.6999999999534","","3","0","null","null","arrowup","[0.675,0.325,0.85,0.15]","","",""
"sailing-trial","147","960446","0.0-11.0-112.0","","","","false","","","","","","","","","","841.6000000000931","","894.3999999999069","","0","1","arrowleft","0","arrowleft","[0.675,0.325,0.85,0.15]","","",""
"sailing-trial","148","964966","0.0-11.0-113.0","","","","false","","","","","","","","","","null","","1483.8999999999069","","0","0","null","null","arrowup","[0.675,0.325,0.85,0.15]","","",""
"sailing-trial","149","970097","0.0-11.0-114.0","","","","false","","","","","","","","","","877.6999999999534","","310.10000000009313","","2","1","arrowright","1","arrowleft","[0.675,0.325,0.85,0.15]","","",""
"sailing-trial","150","974741","0.0-11.0-115.0","","","","false","","","","","","","","","","null","","1613","","2","0","null","null","arrowup","[0.675,0.325,0.85,0.15]","","",""
"sailing-trial","151","980045","0.0-11.0-116.0","","","","false","","","","","","","","","","999.6000000000931","","249.5999999998603","","3","1","arrowright","1","arrowright","[0.675,0.325,0.85,0.15]","","",""
"sailing-trial","152","984283","0.0-11.0-117.0","","","","false","","","","","","","","","","null","","1203.6999999999534","","0","0","null","null","arrowup","[0.675,0.325,0.85,0.15]","","",""
"sailing-trial","153","989702","0.0-11.0-118.0","","","","false","","","","","","","","","","1016","","149","","0","0","arrowleft","0","arrowleft","[0.85,0.15,0.675,0.325]","","",""
"sailing-trial","154","994734","0.0-11.0-119.0","","","","false","","","","","","","","","","null","","1294.2999999998137","","2","1","null","null","arrowup","[0.85,0.15,0.675,0.325]","","",""
"sailing-trial","155","999356","0.0-11.0-120.0","","","","false","","","","","","","","","","1069.7999999998137","","83","","2","1","arrowright","1","arrowleft","[0.85,0.15,0.675,0.325]","","",""
"sailing-trial","156","1002387","0.0-11.0-121.0","","","","false","","","","","","","","","","null","","1036.5","","3","1","null","null","arrowup","[0.85,0.15,0.675,0.325]","","",""
"sailing-trial","157","1007086","0.0-11.0-122.0","","","","false","","","","","","","","","","682.5999999998603","","542.0999999998603","","2","1","arrowright","1","arrowleft","[0.85,0.15,0.675,0.325]","","",""
"sailing-trial","158","1011198","0.0-11.0-123.0","","","","false","","","","","","","","","","null","","1079.5999999998603","","3","0","null","null","arrowup","[0.85,0.15,0.675,0.325]","","",""
"sailing-trial","159","1016042","0.0-11.0-124.0","","","","false","","","","","","","","","","722.5999999998603","","428.0999999998603","","3","1","arrowright","1","arrowright","[0.85,0.15,0.675,0.325]","","",""
"sailing-trial","160","1020755","0.0-11.0-125.0","","","","false","","","","","","","","","","null","","1967.8000000000466","","0","1","null","null","arrowup","[0.85,0.15,0.675,0.325]","","",""
"sailing-trial","161","1025110","0.0-11.0-126.0","","","","false","","","","","","","","","","811.1000000000931","","48.9000000001397","","0","1","arrowleft","0","arrowleft","[0.85,0.15,0.675,0.325]","","",""
"sailing-trial","162","1028964","0.0-11.0-127.0","","","","false","","","","","","","","","","null","","844","","3","0","null","null","arrowup","[0.85,0.15,0.675,0.325]","","",""
"sailing-trial","163","1034159","0.0-11.0-128.0","","","","false","","","","","","","","","","478.5","","607.8999999999069","","0","0","arrowleft","0","arrowleft","[0.85,0.15,0.675,0.325]","","",""
"sailing-trial","164","1037566","0.0-11.0-129.0","","","","false","","","","","","","","","","null","","1272.6999999999534","","2","1","null","null","arrowup","[0.85,0.15,0.675,0.325]","","",""
"sailing-trial","165","1043389","0.0-11.0-130.0","","","","false","","","","","","","","","","1060.1000000000931","","516.5999999998603","","1","0","arrowleft","0","arrowright","[0.85,0.15,0.675,0.325]","","",""
"sailing-trial","166","1047533","0.0-11.0-131.0","","","","false","","","","","","","","","","null","","1383.5","","0","1","null","null","arrowup","[0.85,0.15,0.675,0.325]","","",""
"sailing-trial","167","1052909","0.0-11.0-132.0","","","","false","","","","","","","","","","722.1999999999534","","417.69999999995343","","1","0","arrowleft","0","arrowright","[0.85,0.15,0.675,0.325]","","",""
"sailing-trial","168","1056409","0.0-11.0-133.0","","","","false","","","","","","","","","","null","","1114.6999999999534","","0","1","null","null","arrowup","[0.85,0.15,0.675,0.325]","","",""
"sailing-trial","169","1060721","0.0-11.0-134.0","","","","false","","","","","","","","","","677","","244","","0","1","arrowleft","0","arrowleft","[0.675,0.325,0.85,0.15]","","",""
"sailing-trial","170","1064218","0.0-11.0-135.0","","","","false","","","","","","","","","","null","","975.6999999999534","","0","1","null","null","arrowup","[0.675,0.325,0.85,0.15]","","",""
"sailing-trial","171","1069660","0.0-11.0-136.0","","","","false","","","","","","","","","","1173.1999999999534","","33.5999999998603","","1","0","arrowleft","0","arrowright","[0.675,0.325,0.85,0.15]","","",""
"sailing-trial","172","1073875","0.0-11.0-137.0","","","","false","","","","","","","","","","null","","1173.6999999999534","","3","0","null","null","arrowup","[0.675,0.325,0.85,0.15]","","",""
"sailing-trial","173","1079005","0.0-11.0-138.0","","","","false","","","","","","","","","","734.3000000000466","","124.5","","1","0","arrowleft","0","arrowright","[0.675,0.325,0.85,0.15]","","",""
"sailing-trial","174","1083482","0.0-11.0-139.0","","","","false","","","","","","","","","","null","","1434","","1","0","null","null","arrowup","[0.675,0.325,0.85,0.15]","","",""
"sailing-trial","175","1088564","0.0-11.0-140.0","","","","false","","","","","","","","","","645.9000000001397","","165.20000000018626","","1","0","arrowleft","0","arrowright","[0.675,0.325,0.85,0.15]","","",""
"sailing-trial","176","1091998","0.0-11.0-141.0","","","","false","","","","","","","","","","null","","1062.3000000000466","","2","1","null","null","arrowup","[0.675,0.325,0.85,0.15]","","",""
"sailing-trial","177","1096646","0.0-11.0-142.0","","","","false","","","","","","","","","","701","","377.19999999995343","","1","1","arrowleft","0","arrowright","[0.675,0.325,0.85,0.15]","","",""
"sailing-trial","178","1100389","0.0-11.0-143.0","","","","false","","","","","","","","","","null","","1735.4000000001397","","2","1","null","null","arrowup","[0.675,0.325,0.85,0.15]","","",""
"sailing-trial","179","1106046","0.0-11.0-144.0","","","","false","","","","","","","","","","686.1000000000931","","664.8999999999069","","1","0","arrowleft","0","arrowright","[0.675,0.325,0.85,0.15]","","",""
"sailing-trial","180","1110043","0.0-11.0-145.0","","","","false","","","","","","","","","","null","","958.3999999999069","","0","0","null","null","arrowup","[0.675,0.325,0.85,0.15]","","",""
"sailing-trial","181","1114691","0.0-11.0-146.0","","","","false","","","","","","","","","","665.3000000000466","","491.5","","1","1","arrowleft","0","arrowright","[0.675,0.325,0.85,0.15]","","",""
"sailing-trial","182","1118742","0.0-11.0-147.0","","","","false","","","","","","","","","","null","","1007.8000000000466","","1","0","null","null","arrowup","[0.675,0.325,0.85,0.15]","","",""
"sailing-trial","183","1123301","0.0-11.0-148.0","","","","false","","","","","","","","","","582.1000000000931","","236.29999999981374","","0","1","arrowleft","0","arrowleft","[0.675,0.325,0.85,0.15]","","",""
"sailing-trial","184","1126702","0.0-11.0-149.0","","","","false","","","","","","","","","","null","","1081.6999999999534","","2","1","null","null","arrowup","[0.675,0.325,0.85,0.15]","","",""
"sailing-trial","185","1132118","0.0-11.0-150.0","","","","false","","","","","","","","","","837.8000000000466","","450.89999999990687","","2","1","arrowright","1","arrowleft","[0.85,0.15,0.675,0.325]","","",""
"sailing-trial","186","1135440","0.0-11.0-151.0","","","","false","","","","","","","","","","null","","1058","","2","1","null","null","arrowup","[0.85,0.15,0.675,0.325]","","",""
"sailing-trial","187","1141319","0.0-11.0-152.0","","","","false","","","","","","","","","","655.5","","970.5","","3","0","arrowright","1","arrowright","[0.85,0.15,0.675,0.325]","","",""
"sailing-trial","188","1144816","0.0-11.0-153.0","","","","false","","","","","","","","","","null","","1140","","0","1","null","null","arrowup","[0.85,0.15,0.675,0.325]","","",""
"sailing-trial","189","1150211","0.0-11.0-154.0","","","","false","","","","","","","","","","1013.8000000000466","","756.5","","0","1","arrowleft","0","arrowleft","[0.85,0.15,0.675,0.325]","","",""
"sailing-trial","190","1155307","0.0-11.0-155.0","","","","false","","","","","","","","","","null","","2066","","1","0","null","null","arrowup","[0.85,0.15,0.675,0.325]","","",""
"sailing-trial","191","1161358","0.0-11.0-156.0","","","","false","","","","","","","","","","959.6999999999534","","795.6999999999534","","3","0","arrowright","1","arrowright","[0.85,0.15,0.675,0.325]","","",""
"sailing-trial","192","1166854","0.0-11.0-157.0","","","","false","","","","","","","","","","null","","2137.7999999998137","","0","1","null","null","arrowup","[0.85,0.15,0.675,0.325]","","",""
"sailing-trial","193","1172377","0.0-11.0-158.0","","","","false","","","","","","","","","","1293.6000000000931","","132.19999999995343","","0","1","arrowleft","0","arrowleft","[0.85,0.15,0.675,0.325]","","",""
"sailing-trial","194","1176157","0.0-11.0-159.0","","","","false","","","","","","","","","","null","","1646.1000000000931","","0","1","null","null","arrowup","[0.85,0.15,0.675,0.325]","","",""
"sailing-trial","195","1183283","0.0-11.0-160.0","","","","false","","","","","","","","","","2076.600000000093","","761.7000000001863","","3","0","arrowright","1","arrowright","[0.85,0.15,0.675,0.325]","","",""
"sailing-trial","196","1187313","0.0-11.0-161.0","","","","false","","","","","","","","","","null","","1350.3000000000466","","2","1","null","null","arrowup","[0.85,0.15,0.675,0.325]","","",""
"sailing-trial","197","1192858","0.0-11.0-162.0","","","","false","","","","","","","","","","1839.2000000001863","","32.89999999990687","","2","1","arrowright","1","arrowleft","[0.85,0.15,0.675,0.325]","","",""
"sailing-trial","198","1197252","0.0-11.0-163.0","","","","false","","","","","","","","","","null","","1366.2999999998137","","1","0","null","null","arrowup","[0.85,0.15,0.675,0.325]","","",""
"sailing-trial","199","1202254","0.0-11.0-164.0","","","","false","","","","","","","","","","827.1000000000931","","58.10000000009313","","0","0","arrowleft","0","arrowleft","[0.85,0.15,0.675,0.325]","","",""
"sailing-trial","200","1206711","0.0-11.0-165.0","","","","false","","","","","","","","","","null","","1429.3999999999069","","1","0","null","null","arrowup","[0.85,0.15,0.675,0.325]","","",""
"sailing-trial","201","1211646","0.0-11.0-166.0","","","","false","","","","","","","","","","916.8000000000466","","209.4000000001397","","2","1","arrowright","1","arrowleft","[0.85,0.15,0.675,0.325]","","",""
"sailing-trial","202","1216322","0.0-11.0-167.0","","","","false","","","","","","","","","","null","","2006.8999999999069","","0","1","null","null","arrowup","[0.85,0.15,0.675,0.325]","","",""
"sailing-trial","203","1221853","0.0-11.0-168.0","","","","false","","","","","","","","","","2170","","106.9000000001397","","0","1","arrowleft","0","arrowleft","[0.675,0.325,0.85,0.15]","","",""
"sailing-trial","204","1227612","0.0-11.0-169.0","","","","false","","","","","","","","","","null","","2725.2000000001863","","3","0","null","null","arrowup","[0.675,0.325,0.85,0.15]","","",""
"sailing-trial","205","1234726","0.0-11.0-170.0","","","","false","","","","","","","","","","2489","","653.3000000000466","","0","1","arrowleft","0","arrowleft","[0.675,0.325,0.85,0.15]","","",""
"sailing-trial","206","1239052","0.0-11.0-171.0","","","","false","","","","","","","","","","null","","1298.8999999999069","","3","0","null","null","arrowup","[0.675,0.325,0.85,0.15]","","",""
"sailing-trial","207","1244158","0.0-11.0-172.0","","","","false","","","","","","","","","","630.4000000001397","","386.19999999995343","","3","0","arrowright","1","arrowright","[0.675,0.325,0.85,0.15]","","",""
"sailing-trial","208","1247934","0.0-11.0-173.0","","","","false","","","","","","","","","","null","","1267.3000000000466","","0","1","null","null","arrowup","[0.675,0.325,0.85,0.15]","","",""
"sailing-trial","209","1253230","0.0-11.0-174.0","","","","false","","","","","","","","","","714.3000000002794","","782.7999999998137","","0","1","arrowleft","0","arrowleft","[0.675,0.325,0.85,0.15]","","",""
"sailing-trial","210","1257820","0.0-11.0-175.0","","","","false","","","","","","","","","","null","","1553.5","","1","0","null","null","arrowup","[0.675,0.325,0.85,0.15]","","",""
"sailing-trial","211","1264038","0.0-11.0-176.0","","","","false","","","","","","","","","","2126","","540.2999999998137","","1","1","arrowleft","0","arrowright","[0.675,0.325,0.85,0.15]","","",""
"sailing-trial","212","1268144","0.0-11.0-177.0","","","","false","","","","","","","","","","null","","1773.1000000000931","","2","1","null","null","arrowup","[0.675,0.325,0.85,0.15]","","",""
"sailing-trial","213","1273772","0.0-11.0-178.0","","","","false","","","","","","","","","","1051.1999999997206","","484.29999999981374","","3","0","arrowright","1","arrowright","[0.675,0.325,0.85,0.15]","","",""
"sailing-trial","214","1278386","0.0-11.0-179.0","","","","false","","","","","","","","","","null","","1582.0999999996275","","0","0","null","null","arrowup","[0.675,0.325,0.85,0.15]","","",""
"sailing-trial","215","1283662","0.0-11.0-180.0","","","","false","","","","","","","","","","679.6000000000931","","494.29999999981374","","1","0","arrowleft","0","arrowright","[0.675,0.325,0.85,0.15]","","",""
"sailing-trial","216","1288027","0.0-11.0-181.0","","","","false","","","","","","","","","","null","","1338.3000000002794","","1","0","null","null","arrowup","[0.675,0.325,0.85,0.15]","","",""
"sailing-trial","217","1293420","0.0-11.0-182.0","","","","false","","","","","","","","","","749.5","","392","","1","0","arrowleft","0","arrowright","[0.675,0.325,0.85,0.15]","","",""
"sailing-trial","218","1297358","0.0-11.0-183.0","","","","false","","","","","","","","","","null","","1350.8999999999069","","2","1","null","null","arrowup","[0.675,0.325,0.85,0.15]","","",""
"sailing-trial","219","1302515","0.0-11.0-184.0","","","","false","","","","","","","","","","832.1000000000931","","60.1999999997206","","1","0","arrowleft","0","arrowright","[0.85,0.15,0.675,0.325]","","",""
"sailing-trial","220","1306502","0.0-11.0-185.0","","","","false","","","","","","","","","","null","","1553","","3","1","null","null","arrowup","[0.85,0.15,0.675,0.325]","","",""
"sailing-trial","221","1312262","0.0-11.0-186.0","","","","false","","","","","","","","","","1084.2000000001863","","937.6999999997206","","0","1","arrowleft","0","arrowleft","[0.85,0.15,0.675,0.325]","","",""
"sailing-trial","222","1316805","0.0-11.0-187.0","","","","false","","","","","","","","","","null","","1511.3999999999069","","3","0","null","null","arrowup","[0.85,0.15,0.675,0.325]","","",""
"sailing-trial","223","1321870","0.0-11.0-188.0","","","","false","","","","","","","","","","912.7000000001863","","27.700000000186265","","2","0","arrowright","1","arrowleft","[0.85,0.15,0.675,0.325]","","",""
"sailing-trial","224","1326357","0.0-11.0-189.0","","","","false","","","","","","","","","","null","","1457.6000000000931","","3","0","null","null","arrowup","[0.85,0.15,0.675,0.325]","","",""
"sailing-trial","225","1331141","0.0-11.0-190.0","","","","false","","","","","","","","","","852.6999999997206","","231.39999999990687","","3","1","arrowright","1","arrowright","[0.85,0.15,0.675,0.325]","","",""
"sailing-trial","226","1335137","0.0-11.0-191.0","","","","false","","","","","","","","","","null","","1371.1000000000931","","0","1","null","null","arrowup","[0.85,0.15,0.675,0.325]","","",""
"sailing-trial","227","1340882","0.0-11.0-192.0","","","","false","","","","","","","","","","1403.8999999999069","","54.10000000009313","","1","0","arrowleft","0","arrowright","[0.85,0.15,0.675,0.325]","","",""
"sailing-trial","228","1344670","0.0-11.0-193.0","","","","false","","","","","","","","","","null","","1053.3999999999069","","2","1","null","null","arrowup","[0.85,0.15,0.675,0.325]","","",""
"sailing-trial","229","1351341","0.0-11.0-194.0","","","","false","","","","","","","","","","1246.6000000000931","","890.4000000003725","","0","1","arrowleft","0","arrowleft","[0.85,0.15,0.675,0.325]","","",""
"sailing-trial","230","1356083","0.0-11.0-195.0","","","","false","","","","","","","","","","null","","1702.6000000000931","","2","0","null","null","arrowup","[0.85,0.15,0.675,0.325]","","",""
"sailing-trial","231","1361302","0.0-11.0-196.0","","","","false","","","","","","","","","","600.2000000001863","","358.60000000009313","","2","0","arrowright","1","arrowleft","[0.85,0.15,0.675,0.325]","","",""
"sailing-trial","232","1365013","0.0-11.0-197.0","","","","false","","","","","","","","","","null","","1064.2000000001863","","3","1","null","null","arrowup","[0.85,0.15,0.675,0.325]","","",""
"sailing-trial","233","1371157","0.0-11.0-198.0","","","","false","","","","","","","","","","1872.2999999998137","","784.1000000000931","","0","1","arrowleft","0","arrowleft","[0.85,0.15,0.675,0.325]","","",""
"sailing-trial","234","1375284","0.0-11.0-199.0","","","","false","","","","","","","","","","null","","1100.8999999999069","","3","0","null","null","arrowup","[0.85,0.15,0.675,0.325]","","",""
"sailing-trial","235","1381470","0.0-11.0-200.0","","","","false","","","","","","","","","","1196.1000000000931","","746.5","","1","0","arrowleft","0","arrowright","[0.85,0.15,0.675,0.325]","","",""
"sailing-trial","236","1385427","0.0-11.0-201.0","","","","false","","","","","","","","","","null","","931","","1","0","null","null","arrowup","[0.85,0.15,0.675,0.325]","","",""
"sailing-trial","237","1390293","0.0-11.0-202.0","","","","false","","","","","","","","","","645.8999999999069","","439.60000000009313","","2","1","arrowright","1","arrowleft","[0.85,0.15,0.675,0.325]","","",""
"sailing-trial","238","1394268","0.0-11.0-203.0","","","","false","","","","","","","","","","null","","940.5","","3","0","null","null","arrowup","[0.85,0.15,0.675,0.325]","","",""
"sailing-trial","239","1398774","0.0-11.0-204.0","","","","false","","","","","","","","","","533.6000000000931","","217.79999999981374","","0","1","arrowleft","0","arrowleft","[0.675,0.325,0.85,0.15]","","",""
"sailing-trial","240","1406486","0.0-11.0-205.0","","","","false","","","","","","","","","","null","","4860.899999999907","","2","1","null","null","arrowup","[0.675,0.325,0.85,0.15]","","",""
"sailing-trial","241","1412437","0.0-11.0-206.0","","","","false","","","","","","","","","","1573.2000000001863","","138.39999999990687","","3","0","arrowright","1","arrowright","[0.675,0.325,0.85,0.15]","","",""
"sailing-trial","242","1415853","0.0-11.0-207.0","","","","false","","","","","","","","","","null","","1116.8999999999069","","3","1","null","null","arrowup","[0.675,0.325,0.85,0.15]","","",""
"sailing-trial","243","1421245","0.0-11.0-208.0","","","","false","","","","","","","","","","871.7999999998137","","252.5","","1","0","arrowleft","0","arrowright","[0.675,0.325,0.85,0.15]","","",""
"sailing-trial","244","1425358","0.0-11.0-209.0","","","","false","","","","","","","","","","null","","1080.3999999999069","","1","0","null","null","arrowup","[0.675,0.325,0.85,0.15]","","",""
"sailing-trial","245","1430572","0.0-11.0-210.0","","","","false","","","","","","","","","","771.3000000002794","","476.60000000009313","","0","1","arrowleft","0","arrowleft","[0.675,0.325,0.85,0.15]","","",""
"sailing-trial","246","1434894","0.0-11.0-211.0","","","","false","","","","","","","","","","null","","2129.5","","2","1","null","null","arrowup","[0.675,0.325,0.85,0.15]","","",""
"sailing-trial","247","1440362","0.0-11.0-212.0","","","","false","","","","","","","","","","946.7000000001863","","283.90000000037253","","1","0","arrowleft","0","arrowright","[0.675,0.325,0.85,0.15]","","",""
"sailing-trial","248","1444343","0.0-11.0-213.0","","","","false","","","","","","","","","","null","","941.2999999998137","","1","0","null","null","arrowup","[0.675,0.325,0.85,0.15]","","",""
"sailing-trial","249","1449590","0.0-11.0-214.0","","","","false","","","","","","","","","","911.5999999996275","","623.2000000001863","","2","1","arrowright","1","arrowleft","[0.675,0.325,0.85,0.15]","","",""
"sailing-trial","250","1455018","0.0-11.0-215.0","","","","false","","","","","","","","","","null","","2456.399999999907","","3","1","null","null","arrowup","[0.675,0.325,0.85,0.15]","","",""
"sailing-trial","251","1459934","0.0-11.0-216.0","","","","false","","","","","","","","","","748.2999999998137","","428.60000000009313","","0","1","arrowleft","0","arrowleft","[0.675,0.325,0.85,0.15]","","",""
"sailing-trial","252","1464158","0.0-11.0-217.0","","","","false","","","","","","","","","","null","","1188.2000000001863","","1","0","null","null","arrowup","[0.675,0.325,0.85,0.15]","","",""
"sailing-trial","253","1469782","0.0-11.0-218.0","","","","false","","","","","","","","","","958.2000000001863","","1074.5","","2","1","arrowright","1","arrowleft","[0.675,0.325,0.85,0.15]","","",""
"sailing-trial","254","1472893","0.0-11.0-219.0","","","","false","","","","","","","","","","null","","1025.3999999999069","","0","1","null","null","arrowup","[0.675,0.325,0.85,0.15]","","",""
"sailing-trial","255","1477589","0.0-11.0-220.0","","","","false","","","","","","","","","","800.6000000000931","","152.6999999997206","","0","1","arrowleft","0","arrowleft","[0.675,0.325,0.85,0.15]","","",""
"sailing-trial","256","1481794","0.0-11.0-221.0","","","","false","","","","","","","","","","null","","1178.6000000000931","","3","0","null","null","arrowup","[0.675,0.325,0.85,0.15]","","",""
"sailing-trial","257","1486989","0.0-11.0-222.0","","","","false","","","","","","","","","","783.1000000000931","","110.8000000002794","","1","0","arrowleft","0","arrowright","[0.675,0.325,0.85,0.15]","","",""
"sailing-trial","258","1490661","0.0-11.0-223.0","","","","false","","","","","","","","","","null","","1022","","1","1","null","null","arrowup","[0.675,0.325,0.85,0.15]","","",""
"sailing-trial","259","1497715","0.0-11.0-224.0","","","","false","","","","","","","","","","1593","","1604.9000000003725","","2","1","arrowright","1","arrowleft","[0.85,0.15,0.675,0.325]","","",""
"sailing-trial","260","1501942","0.0-11.0-225.0","","","","false","","","","","","","","","","null","","1197.2000000001863","","1","0","null","null","arrowup","[0.85,0.15,0.675,0.325]","","",""
"sailing-trial","261","1507045","0.0-11.0-226.0","","","","false","","","","","","","","","","1037","","119.70000000018626","","0","1","arrowleft","0","arrowleft","[0.85,0.15,0.675,0.325]","","",""
"sailing-trial","262","1510822","0.0-11.0-227.0","","","","false","","","","","","","","","","null","","1229.6000000000931","","3","1","null","null","arrowup","[0.85,0.15,0.675,0.325]","","",""
"sailing-trial","263","1517669","0.0-11.0-228.0","","","","false","","","","","","","","","","1653.8999999999069","","825.2999999998137","","3","0","arrowright","1","arrowright","[0.85,0.15,0.675,0.325]","","",""
"sailing-trial","264","1522494","0.0-11.0-229.0","","","","false","","","","","","","","","","null","","1794.3000000002794","","1","0","null","null","arrowup","[0.85,0.15,0.675,0.325]","","",""
"sailing-trial","265","1528773","0.0-11.0-230.0","","","","false","","","","","","","","","","1955.8999999999069","","878.1000000000931","","0","1","arrowleft","0","arrowleft","[0.85,0.15,0.675,0.325]","","",""
"sailing-trial","266","1533749","0.0-11.0-231.0","","","","false","","","","","","","","","","null","","1935.6999999997206","","3","0","null","null","arrowup","[0.85,0.15,0.675,0.325]","","",""
"sailing-trial","267","1540596","0.0-11.0-232.0","","","","false","","","","","","","","","","1355.7000000001863","","1249.5999999996275","","3","0","arrowright","1","arrowright","[0.85,0.15,0.675,0.325]","","",""
"sailing-trial","268","1545398","0.0-11.0-233.0","","","","false","","","","","","","","","","null","","1713","","2","1","null","null","arrowup","[0.85,0.15,0.675,0.325]","","",""
"sailing-trial","269","1551142","0.0-11.0-234.0","","","","false","","","","","","","","","","1050.1000000000931","","398.6999999997206","","1","0","arrowleft","0","arrowright","[0.85,0.15,0.675,0.325]","","",""
"sailing-trial","270","1556246","0.0-11.0-235.0","","","","false","","","","","","","","","","null","","2071.2999999998137","","1","0","null","null","arrowup","[0.85,0.15,0.675,0.325]","","",""
"sailing-trial","271","1561961","0.0-11.0-236.0","","","","false","","","","","","","","","","2114.0999999996275","","75","","0","1","arrowleft","0","arrowleft","[0.85,0.15,0.675,0.325]","","",""
"sailing-trial","272","1565341","0.0-11.0-237.0","","","","false","","","","","","","","","","null","","1229.6000000000931","","0","1","null","null","arrowup","[0.85,0.15,0.675,0.325]","","",""
"sailing-trial","273","1570534","0.0-11.0-238.0","","","","false","","","","","","","","","","819.3999999999069","","145.60000000009313","","3","0","arrowright","1","arrowright","[0.85,0.15,0.675,0.325]","","",""
"sailing-trial","274","1574700","0.0-11.0-239.0","","","","false","","","","","","","","","","null","","1127","","3","0","null","null","arrowup","[0.85,0.15,0.675,0.325]","","",""
"sailing-trial","275","1580844","0.0-11.0-240.0","","","","false","","","","","","","","","","1056.5","","1313.8000000002794","","0","1","arrowleft","0","arrowleft","[0.85,0.15,0.675,0.325]","","",""
"sailing-trial","276","1584342","0.0-11.0-241.0","","","","false","","","","","","","","","","null","","1126.2000000001863","","2","1","null","null","arrowup","[0.85,0.15,0.675,0.325]","","",""
"sailing-trial","277","1589174","0.0-11.0-242.0","","","","false","","","","","","","","","","914.6999999997206","","25.200000000186265","","3","1","arrowright","1","arrowright","[0.675,0.325,0.85,0.15]","","",""
"sailing-trial","278","1592218","0.0-11.0-243.0","","","","false","","","","","","","","","","null","","967.3000000002794","","2","1","null","null","arrowup","[0.675,0.325,0.85,0.15]","","",""
"sailing-trial","279","1598334","0.0-11.0-244.0","","","","false","","","","","","","","","","652.8999999999069","","1142.7999999998137","","1","0","arrowleft","0","arrowright","[0.675,0.325,0.85,0.15]","","",""
"sailing-trial","280","1601701","0.0-11.0-245.0","","","","false","","","","","","","","","","null","","1013.1000000000931","","2","1","null","null","arrowup","[0.675,0.325,0.85,0.15]","","",""
"sailing-trial","281","1607310","0.0-11.0-246.0","","","","false","","","","","","","","","","706.1999999997206","","592.2999999998137","","0","0","arrowleft","0","arrowleft","[0.675,0.325,0.85,0.15]","","",""
"sailing-trial","282","1610603","0.0-11.0-247.0","","","","false","","","","","","","","","","null","","892.2999999998137","","1","1","null","null","arrowup","[0.675,0.325,0.85,0.15]","","",""
"sailing-trial","283","1615885","0.0-11.0-248.0","","","","false","","","","","","","","","","653.5","","353.89999999990687","","3","0","arrowright","1","arrowright","[0.675,0.325,0.85,0.15]","","",""
"sailing-trial","284","1619328","0.0-11.0-249.0","","","","false","","","","","","","","","","null","","1076.3000000002794","","0","1","null","null","arrowup","[0.675,0.325,0.85,0.15]","","",""
"sailing-trial","285","1625187","0.0-11.0-250.0","","","","false","","","","","","","","","","1605.6999999997206","","12.600000000093132","","0","0","arrowleft","0","arrowleft","[0.675,0.325,0.85,0.15]","","",""
"sailing-trial","286","1628741","0.0-11.0-251.0","","","","false","","","","","","","","","","null","","937.1000000000931","","0","1","null","null","arrowup","[0.675,0.325,0.85,0.15]","","",""
"sailing-trial","287","1634286","0.0-11.0-252.0","","","","false","","","","","","","","","","1115.1999999997206","","432.5","","2","1","arrowright","1","arrowleft","[0.675,0.325,0.85,0.15]","","",""
"sailing-trial","288","1638749","0.0-11.0-253.0","","","","false","","","","","","","","","","null","","1420","","3","0","null","null","arrowup","[0.675,0.325,0.85,0.15]","","",""
"sailing-trial","289","1644723","0.0-11.0-254.0","","","","false","","","","","","","","","","1441.4000000003725","","431.10000000009313","","0","0","arrowleft","0","arrowleft","[0.675,0.325,0.85,0.15]","","",""
"sailing-trial","290","1648374","0.0-11.0-255.0","","","","false","","","","","","","","","","null","","1011.1000000000931","","0","1","null","null","arrowup","[0.675,0.325,0.85,0.15]","","",""
"sailing-trial","291","1654070","0.0-11.0-256.0","","","","false","","","","","","","","","","969","","473.39999999990687","","3","0","arrowright","1","arrowright","[0.675,0.325,0.85,0.15]","","",""
"sailing-trial","292","1658349","0.0-11.0-257.0","","","","false","","","","","","","","","","null","","1233.6999999997206","","3","0","null","null","arrowup","[0.675,0.325,0.85,0.15]","","",""
"sailing-trial","293","1663277","0.0-11.0-258.0","","","","false","","","","","","","","","","1191.6000000000931","","184.90000000037253","","1","1","arrowleft","0","arrowright","[0.675,0.325,0.85,0.15]","","",""
"sailing-trial","294","1667029","0.0-11.0-259.0","","","","false","","","","","","","","","","null","","1315.8999999999069","","2","1","null","null","arrowup","[0.675,0.325,0.85,0.15]","","",""
"sailing-trial","295","1671817","0.0-11.0-260.0","","","","false","","","","","","","","","","845.6000000000931","","561.8000000002794","","0","1","arrowleft","0","arrowleft","[0.85,0.15,0.675,0.325]","","",""
"sailing-trial","296","1675763","0.0-11.0-261.0","","","","false","","","","","","","","","","null","","1090.6000000000931","","2","1","null","null","arrowup","[0.85,0.15,0.675,0.325]","","",""
"sailing-trial","297","1681189","0.0-11.0-262.0","","","","false","","","","","","","","","","1059.7000000001863","","118","","3","0","arrowright","1","arrowright","[0.85,0.15,0.675,0.325]","","",""
"sailing-trial","298","1685323","0.0-11.0-263.0","","","","false","","","","","","","","","","null","","1094.8999999999069","","1","0","null","null","arrowup","[0.85,0.15,0.675,0.325]","","",""
"sailing-trial","299","1690765","0.0-11.0-264.0","","","","false","","","","","","","","","","756.0999999996275","","455.39999999990687","","0","0","arrowleft","0","arrowleft","[0.85,0.15,0.675,0.325]","","",""
"sailing-trial","300","1694797","0.0-11.0-265.0","","","","false","","","","","","","","","","null","","997.5","","3","0","null","null","arrowup","[0.85,0.15,0.675,0.325]","","",""
"sailing-trial","301","1700398","0.0-11.0-266.0","","","","false","","","","","","","","","","1157.7999999998137","","657","","2","1","arrowright","1","arrowleft","[0.85,0.15,0.675,0.325]","","",""
"sailing-trial","302","1704836","0.0-11.0-267.0","","","","false","","","","","","","","","","null","","1405.2000000001863","","1","0","null","null","arrowup","[0.85,0.15,0.675,0.325]","","",""
"sailing-trial","303","1709942","0.0-11.0-268.0","","","","false","","","","","","","","","","1133.3000000002794","","471.70000000018626","","1","1","arrowleft","0","arrowright","[0.85,0.15,0.675,0.325]","","",""
"sailing-trial","304","1712965","0.0-11.0-269.0","","","","false","","","","","","","","","","null","","1133.7000000001863","","0","1","null","null","arrowup","[0.85,0.15,0.675,0.325]","","",""
"sailing-trial","305","1718092","0.0-11.0-270.0","","","","false","","","","","","","","","","599.5","","259.79999999981374","","2","0","arrowright","1","arrowleft","[0.85,0.15,0.675,0.325]","","",""
"sailing-trial","306","1723390","0.0-11.0-271.0","","","","false","","","","","","","","","","null","","2267.899999999907","","3","0","null","null","arrowup","[0.85,0.15,0.675,0.325]","","",""
"sailing-trial","307","1729301","0.0-11.0-272.0","","","","false","","","","","","","","","","1287","","394.29999999981374","","1","0","arrowleft","0","arrowright","[0.85,0.15,0.675,0.325]","","",""
"sailing-trial","308","1734245","0.0-11.0-273.0","","","","false","","","","","","","","","","null","","1910.0999999996275","","1","0","null","null","arrowup","[0.85,0.15,0.675,0.325]","","",""
"sailing-trial","309","1739492","0.0-11.0-274.0","","","","false","","","","","","","","","","1294.7000000001863","","225.20000000018626","","0","1","arrowleft","0","arrowleft","[0.85,0.15,0.675,0.325]","","",""
"sailing-trial","310","1744125","0.0-11.0-275.0","","","","false","","","","","","","","","","null","","2171.5","","2","1","null","null","arrowup","[0.85,0.15,0.675,0.325]","","",""
"sailing-trial","311","1749467","0.0-11.0-276.0","","","","false","","","","","","","","","","1450.5","","464.5","","3","1","arrowright","1","arrowright","[0.85,0.15,0.675,0.325]","","",""
"sailing-trial","312","1753895","0.0-11.0-277.0","","","","false","","","","","","","","","","null","","1401.2999999998137","","3","0","null","null","arrowup","[0.85,0.15,0.675,0.325]","","",""
"sailing-trial","313","1758782","0.0-11.0-278.0","","","","false","","","","","","","","","","1177.2000000001863","","220.29999999981374","","0","1","arrowleft","0","arrowleft","[0.85,0.15,0.675,0.325]","","",""
"sailing-trial","314","1762872","0.0-11.0-279.0","","","","false","","","","","","","","","","null","","890","","0","1","null","null","arrowup","[0.85,0.15,0.675,0.325]","","",""
"sailing-trial","315","1767310","0.0-11.0-280.0","","","","false","","","","","","","","","","677.6000000000931","","149.90000000037253","","3","1","arrowright","1","arrowright","[0.325,0.675,0.15,0.85]","","",""
"sailing-trial","316","1771349","0.0-11.0-281.0","","","","false","","","","","","","","","","null","","1329.2000000001863","","0","1","null","null","arrowup","[0.325,0.675,0.15,0.85]","","",""
"sailing-trial","317","1776086","0.0-11.0-282.0","","","","false","","","","","","","","","","791.5","","131.60000000009313","","1","1","arrowleft","0","arrowright","[0.325,0.675,0.15,0.85]","","",""
"sailing-trial","318","1780406","0.0-11.0-283.0","","","","false","","","","","","","","","","null","","1280.8000000002794","","2","0","null","null","arrowup","[0.325,0.675,0.15,0.85]","","",""
"sailing-trial","319","1785771","0.0-11.0-284.0","","","","false","","","","","","","","","","1000.8000000002794","","536.3999999999069","","1","1","arrowleft","0","arrowright","[0.325,0.675,0.15,0.85]","","",""
"sailing-trial","320","1789221","0.0-11.0-285.0","","","","false","","","","","","","","","","null","","1236.3999999999069","","3","1","null","null","arrowup","[0.325,0.675,0.15,0.85]","","",""
"sailing-trial","321","1793230","0.0-11.0-286.0","","","","false","","","","","","","","","","786.2999999998137","","130.5","","0","1","arrowleft","0","arrowleft","[0.325,0.675,0.15,0.85]","","",""
"sailing-trial","322","1797134","0.0-11.0-287.0","","","","false","","","","","","","","","","null","","1504.1999999997206","","1","1","null","null","arrowup","[0.325,0.675,0.15,0.85]","","",""
"sailing-trial","323","1802922","0.0-11.0-288.0","","","","false","","","","","","","","","","1554","","176.6999999997206","","0","0","arrowleft","0","arrowleft","[0.325,0.675,0.15,0.85]","","",""
"sailing-trial","324","1807132","0.0-11.0-289.0","","","","false","","","","","","","","","","null","","1192.5999999996275","","2","0","null","null","arrowup","[0.325,0.675,0.15,0.85]","","",""
"sailing-trial","325","1814550","0.0-11.0-290.0","","","","false","","","","","","","","","","809.5","","346","","1","1","arrowleft","0","arrowright","[0.325,0.675,0.15,0.85]","","",""
"sailing-trial","326","1819446","0.0-11.0-291.0","","","","false","","","","","","","","","","null","","1851.2999999998137","","2","0","null","null","arrowup","[0.325,0.675,0.15,0.85]","","",""
"sailing-trial","327","1824468","0.0-11.0-292.0","","","","false","","","","","","","","","","823.7999999998137","","84.39999999990687","","2","0","arrowright","1","arrowleft","[0.325,0.675,0.15,0.85]","","",""
"sailing-trial","328","1828700","0.0-11.0-293.0","","","","false","","","","","","","","","","null","","1198.7000000001863","","2","0","null","null","arrowup","[0.325,0.675,0.15,0.85]","","",""
"sailing-trial","329","1834782","0.0-11.0-294.0","","","","false","","","","","","","","","","1268.3999999999069","","554.5","","0","0","arrowleft","0","arrowleft","[0.325,0.675,0.15,0.85]","","",""
"sailing-trial","330","1838558","0.0-11.0-295.0","","","","false","","","","","","","","","","null","","1321.8999999999069","","0","1","null","null","arrowup","[0.325,0.675,0.15,0.85]","","",""
"sailing-trial","331","1844790","0.0-11.0-296.0","","","","false","","","","","","","","","","1202.1999999997206","","762.3999999999069","","2","0","arrowright","1","arrowleft","[0.325,0.675,0.15,0.85]","","",""
"sailing-trial","332","1848558","0.0-11.0-297.0","","","","false","","","","","","","","","","null","","1404","","3","1","null","null","arrowup","[0.325,0.675,0.15,0.85]","","",""
"sailing-trial","333","1853693","0.0-11.0-298.0","","","","false","","","","","","","","","","782.8000000002794","","123.5","","2","0","arrowright","1","arrowleft","[0.15,0.85,0.325,0.675]","","",""
"sailing-trial","334","1858806","0.0-11.0-299.0","","","","false","","","","","","","","","","null","","2068.7999999998137","","2","0","null","null","arrowup","[0.15,0.85,0.325,0.675]","","",""
"sailing-trial","335","1864236","0.0-11.0-300.0","","","","false","","","","","","","","","","816.9000000003725","","352.89999999990687","","3","0","arrowright","1","arrowright","[0.15,0.85,0.325,0.675]","","",""
"sailing-trial","336","1869446","0.0-11.0-301.0","","","","false","","","","","","","","","","null","","2174.100000000093","","0","0","null","null","arrowup","[0.15,0.85,0.325,0.675]","","",""
"sailing-trial","337","1873885","0.0-11.0-302.0","","","","false","","","","","","","","","","938.6999999997206","","67","","0","1","arrowleft","0","arrowleft","[0.15,0.85,0.325,0.675]","","",""
"sailing-trial","338","1877494","0.0-11.0-303.0","","","","false","","","","","","","","","","null","","1389.0999999996275","","1","1","null","null","arrowup","[0.15,0.85,0.325,0.675]","","",""
"sailing-trial","339","1882587","0.0-11.0-304.0","","","","false","","","","","","","","","","868.3000000002794","","92.79999999981374","","2","0","arrowright","1","arrowleft","[0.15,0.85,0.325,0.675]","","",""
"sailing-trial","340","1887533","0.0-11.0-305.0","","","","false","","","","","","","","","","null","","1902.7999999998137","","0","0","null","null","arrowup","[0.15,0.85,0.325,0.675]","","",""
"sailing-trial","341","1892150","0.0-11.0-306.0","","","","false","","","","","","","","","","766.1999999997206","","260.89999999990687","","1","1","arrowleft","0","arrowright","[0.15,0.85,0.325,0.675]","","",""
"sailing-trial","342","1896566","0.0-11.0-307.0","","","","false","","","","","","","","","","null","","1839.7999999998137","","3","1","null","null","arrowup","[0.15,0.85,0.325,0.675]","","",""
"sailing-trial","343","1902836","0.0-11.0-308.0","","","","false","","","","","","","","","","1889.7000000001863","","113","","0","0","arrowleft","0","arrowleft","[0.15,0.85,0.325,0.675]","","",""
"sailing-trial","344","1908446","0.0-11.0-309.0","","","","false","","","","","","","","","","null","","2576.600000000093","","0","0","null","null","arrowup","[0.15,0.85,0.325,0.675]","","",""
"sailing-trial","345","1914342","0.0-11.0-310.0","","","","false","","","","","","","","","","1118.8999999999069","","529.5","","0","0","arrowleft","0","arrowleft","[0.15,0.85,0.325,0.675]","","",""
"sailing-trial","346","1918907","0.0-11.0-311.0","","","","false","","","","","","","","","","null","","1524.6000000000931","","3","0","null","null","arrowup","[0.15,0.85,0.325,0.675]","","",""
"sailing-trial","347","1924533","0.0-11.0-312.0","","","","false","","","","","","","","","","1224.8999999999069","","254.10000000009313","","2","0","arrowright","1","arrowleft","[0.15,0.85,0.325,0.675]","","",""
"sailing-trial","348","1928701","0.0-11.0-313.0","","","","false","","","","","","","","","","null","","1399.6000000000931","","1","1","null","null","arrowup","[0.15,0.85,0.325,0.675]","","",""
"sailing-trial","349","1934693","0.0-11.0-314.0","","","","false","","","","","","","","","","1095.5","","633.1000000000931","","3","0","arrowright","1","arrowright","[0.15,0.85,0.325,0.675]","","",""
"sailing-trial","350","1939723","0.0-11.0-315.0","","","","false","","","","","","","","","","null","","1935.1999999997206","","1","1","null","null","arrowup","[0.15,0.85,0.325,0.675]","","",""
"sailing-trial","351","1946381","0.0-11.0-316.0","","","","false","","","","","","","","","","1874.2999999998137","","512.8999999999069","","0","0","arrowleft","0","arrowleft","[0.15,0.85,0.325,0.675]","","",""
"sailing-trial","352","1950378","0.0-11.0-317.0","","","","false","","","","","","","","","","null","","968.3999999999069","","3","0","null","null","arrowup","[0.15,0.85,0.325,0.675]","","",""
"sailing-trial","353","1957310","0.0-11.0-318.0","","","","false","","","","","","","","","","2108.600000000093","","502.79999999981374","","1","0","arrowleft","0","arrowright","[0.325,0.675,0.15,0.85]","","",""
"sailing-trial","354","1962036","0.0-11.0-319.0","","","","false","","","","","","","","","","null","","1697.2999999998137","","1","0","null","null","arrowup","[0.325,0.675,0.15,0.85]","","",""
"sailing-trial","355","1967331","0.0-11.0-320.0","","","","false","","","","","","","","","","900","","82.40000000037253","","2","0","arrowright","1","arrowleft","[0.325,0.675,0.15,0.85]","","",""
"sailing-trial","356","1971578","0.0-11.0-321.0","","","","false","","","","","","","","","","null","","1217.1000000000931","","1","0","null","null","arrowup","[0.325,0.675,0.15,0.85]","","",""
"sailing-trial","357","1976478","0.0-11.0-322.0","","","","false","","","","","","","","","","708.2999999998137","","479.09999999962747","","0","1","arrowleft","0","arrowleft","[0.325,0.675,0.15,0.85]","","",""
"sailing-trial","358","1983366","0.0-11.0-323.0","","","","false","","","","","","","","","","null","","3855.7999999998137","","1","0","null","null","arrowup","[0.325,0.675,0.15,0.85]","","",""
"sailing-trial","359","1988853","0.0-11.0-324.0","","","","false","","","","","","","","","","911.2000000001863","","1032.1000000000931","","3","1","arrowright","1","arrowright","[0.325,0.675,0.15,0.85]","","",""
"sailing-trial","360","1994027","0.0-11.0-325.0","","","","false","","","","","","","","","","null","","2857.2000000001863","","2","1","null","null","arrowup","[0.325,0.675,0.15,0.85]","","",""
"sailing-trial","361","1999525","0.0-11.0-326.0","","","","false","","","","","","","","","","1112.3999999999069","","994.8999999999069","","1","1","arrowleft","0","arrowright","[0.325,0.675,0.15,0.85]","","",""
"sailing-trial","362","2002510","0.0-11.0-327.0","","","","false","","","","","","","","","","null","","1053.3999999999069","","3","1","null","null","arrowup","[0.325,0.675,0.15,0.85]","","",""
"sailing-trial","363","2007748","0.0-11.0-328.0","","","","false","","","","","","","","","","1319.2999999998137","","539.3999999999069","","0","1","arrowleft","0","arrowleft","[0.325,0.675,0.15,0.85]","","",""
"sailing-trial","364","2012644","0.0-11.0-329.0","","","","false","","","","","","","","","","null","","1865.6000000000931","","2","0","null","null","arrowup","[0.325,0.675,0.15,0.85]","","",""
"sailing-trial","365","2018188","0.0-11.0-330.0","","","","false","","","","","","","","","","802.7000000001863","","829.8000000002794","","3","1","arrowright","1","arrowright","[0.325,0.675,0.15,0.85]","","",""
"sailing-trial","366","2022333","0.0-11.0-331.0","","","","false","","","","","","","","","","null","","1119.3999999999069","","0","0","null","null","arrowup","[0.325,0.675,0.15,0.85]","","",""
"sailing-trial","367","2028381","0.0-11.0-332.0","","","","false","","","","","","","","","","726.8999999999069","","1020.3999999999069","","0","0","arrowleft","0","arrowleft","[0.325,0.675,0.15,0.85]","","",""
"sailing-trial","368","2034006","0.0-11.0-333.0","","","","false","","","","","","","","","","null","","2584.1999999997206","","0","0","null","null","arrowup","[0.325,0.675,0.15,0.85]","","",""
"sailing-trial","369","2039387","0.0-11.0-334.0","","","","false","","","","","","","","","","1282.6000000000931","","425.60000000009313","","2","1","arrowright","1","arrowleft","[0.15,0.85,0.325,0.675]","","",""
"sailing-trial","370","2043070","0.0-11.0-335.0","","","","false","","","","","","","","","","null","","1256.3999999999069","","1","1","null","null","arrowup","[0.15,0.85,0.325,0.675]","","",""
"sailing-trial","371","2049711","0.0-11.0-336.0","","","","false","","","","","","","","","","1670","","626.1000000000931","","0","0","arrowleft","0","arrowleft","[0.15,0.85,0.325,0.675]","","",""
"sailing-trial","372","2054724","0.0-11.0-337.0","","","","false","","","","","","","","","","null","","2731.5","","2","1","null","null","arrowup","[0.15,0.85,0.325,0.675]","","",""
"sailing-trial","373","2060870","0.0-11.0-338.0","","","","false","","","","","","","","","","1019.7000000001863","","52.39999999990687","","2","1","arrowright","1","arrowleft","[0.15,0.85,0.325,0.675]","","",""
"sailing-trial","374","2065731","0.0-11.0-339.0","","","","false","","","","","","","","","","null","","1824.3999999999069","","2","0","null","null","arrowup","[0.15,0.85,0.325,0.675]","","",""
"sailing-trial","375","2070918","0.0-11.0-340.0","","","","false","","","","","","","","","","1076.8999999999069","","340.90000000037253","","0","1","arrowleft","0","arrowleft","[0.15,0.85,0.325,0.675]","","",""
"sailing-trial","376","2075254","0.0-11.0-341.0","","","","false","","","","","","","","","","null","","1309.5","","0","0","null","null","arrowup","[0.15,0.85,0.325,0.675]","","",""
"sailing-trial","377","2082837","0.0-11.0-342.0","","","","false","","","","","","","","","","2939.3000000002794","","358.20000000018626","","0","0","arrowleft","0","arrowleft","[0.15,0.85,0.325,0.675]","","",""
"sailing-trial","378","2087628","0.0-11.0-343.0","","","","false","","","","","","","","","","null","","1763.6999999997206","","0","0","null","null","arrowup","[0.15,0.85,0.325,0.675]","","",""
"sailing-trial","379","2095078","0.0-11.0-344.0","","","","false","","","","","","","","","","3142.399999999907","","430.39999999990687","","3","1","arrowright","1","arrowright","[0.15,0.85,0.325,0.675]","","",""
"sailing-trial","380","2098420","0.0-11.0-345.0","","","","false","","","","","","","","","","null","","971.1000000005588","","1","1","null","null","arrowup","[0.15,0.85,0.325,0.675]","","",""
"sailing-trial","381","2104380","0.0-11.0-346.0","","","","false","","","","","","","","","","1426.9000000003725","","289.69999999925494","","0","0","arrowleft","0","arrowleft","[0.15,0.85,0.325,0.675]","","",""
"sailing-trial","382","2110350","0.0-11.0-347.0","","","","false","","","","","","","","","","null","","1926.4000000003725","","0","1","null","null","arrowup","[0.15,0.85,0.325,0.675]","","",""
"sailing-trial","383","2114873","0.0-11.0-348.0","","","","false","","","","","","","","","","885","","50.59999999962747","","2","1","arrowright","1","arrowleft","[0.15,0.85,0.325,0.675]","","",""
"sailing-trial","384","2120135","0.0-11.0-349.0","","","","false","","","","","","","","","","null","","2232.5999999996275","","3","0","null","null","arrowup","[0.15,0.85,0.325,0.675]","","",""
"sailing-trial","385","2126077","0.0-11.0-350.0","","","","false","","","","","","","","","","858.7999999998137","","950.2999999998137","","0","0","arrowleft","0","arrowleft","[0.15,0.85,0.325,0.675]","","",""
"sailing-trial","386","2131230","0.0-11.0-351.0","","","","false","","","","","","","","","","null","","1075.5","","2","1","null","null","arrowup","[0.15,0.85,0.325,0.675]","","",""
"sailing-trial","387","2137437","0.0-11.0-352.0","","","","false","","","","","","","","","","1140.7000000001863","","913.9000000003725","","3","1","arrowright","1","arrowright","[0.325,0.675,0.15,0.85]","","",""
"sailing-trial","388","2143885","0.0-11.0-353.0","","","","false","","","","","","","","","","null","","3404.5999999996275","","2","0","null","null","arrowup","[0.325,0.675,0.15,0.85]","","",""
"sailing-trial","389","2151030","0.0-11.0-354.0","","","","false","","","","","","","","","","1603.300000000745","","1272.7000000001863","","0","0","arrowleft","0","arrowleft","[0.325,0.675,0.15,0.85]","","",""
"sailing-trial","390","2155253","0.0-11.0-355.0","","","","false","","","","","","","","","","null","","1190.8999999994412","","1","0","null","null","arrowup","[0.325,0.675,0.15,0.85]","","",""
"sailing-trial","391","2162014","0.0-11.0-356.0","","","","false","","","","","","","","","","2144.7000000001863","","362.90000000037253","","1","0","arrowleft","0","arrowright","[0.325,0.675,0.15,0.85]","","",""
"sailing-trial","392","2165766","0.0-11.0-357.0","","","","false","","","","","","","","","","null","","1391.2999999998137","","3","1","null","null","arrowup","[0.325,0.675,0.15,0.85]","","",""
"sailing-trial","393","2171991","0.0-11.0-358.0","","","","false","","","","","","","","","","1111.9000000003725","","844.6000000005588","","2","0","arrowright","1","arrowleft","[0.325,0.675,0.15,0.85]","","",""
"sailing-trial","394","2179070","0.0-11.0-359.0","","","","false","","","","","","","","","","null","","2709.7999999998137","","0","1","null","null","arrowup","[0.325,0.675,0.15,0.85]","","",""
"sailing-trial","395","2184229","0.0-11.0-360.0","","","","false","","","","","","","","","","719","","199.5","","0","0","arrowleft","0","arrowleft","[0.325,0.675,0.15,0.85]","","",""
"sailing-trial","396","2189243","0.0-11.0-361.0","","","","false","","","","","","","","","","null","","2014.7999999998137","","1","1","null","null","arrowup","[0.325,0.675,0.15,0.85]","","",""
"sailing-trial","397","2197603","0.0-11.0-362.0","","","","false","","","","","","","","","","3146.5","","946.6999999992549","","0","0","arrowleft","0","arrowleft","[0.325,0.675,0.15,0.85]","","",""
"sailing-trial","398","2204246","0.0-11.0-363.0","","","","false","","","","","","","","","","null","","3609.399999999441","","2","0","null","null","arrowup","[0.325,0.675,0.15,0.85]","","",""
"sailing-trial","399","2209182","0.0-11.0-364.0","","","","false","","","","","","","","","","750.6000000005588","","264.40000000037253","","3","1","arrowright","1","arrowright","[0.325,0.675,0.15,0.85]","","",""
"sailing-trial","400","2213456","0.0-11.0-365.0","","","","false","","","","","","","","","","null","","2183","","1","1","null","null","arrowup","[0.325,0.675,0.15,0.85]","","",""
"sailing-trial","401","2218916","0.0-11.0-366.0","","","","false","","","","","","","","","","682.2000000001863","","509.09999999962747","","0","0","arrowleft","0","arrowleft","[0.325,0.675,0.15,0.85]","","",""
"sailing-trial","402","2223347","0.0-11.0-367.0","","","","false","","","","","","","","","","null","","1396.7000000001863","","2","0","null","null","arrowup","[0.325,0.675,0.15,0.85]","","",""
"sailing-trial","403","2228902","0.0-11.0-368.0","","","","false","","","","","","","","","","826.2000000001863","","1203.4000000003725","","2","1","arrowright","1","arrowleft","[0.675,0.325,0.85,0.15]","","",""
"sailing-trial","404","2232094","0.0-11.0-369.0","","","","false","","","","","","","","","","null","","1169.7000000001863","","2","1","null","null","arrowup","[0.675,0.325,0.85,0.15]","","",""
"sailing-trial","405","2236870","0.0-11.0-370.0","","","","false","","","","","","","","","","787.8999999994412","","490.70000000018626","","1","1","arrowleft","0","arrowright","[0.675,0.325,0.85,0.15]","","",""
"sailing-trial","406","2240301","0.0-11.0-371.0","","","","false","","","","","","","","","","null","","1163.5","","2","1","null","null","arrowup","[0.675,0.325,0.85,0.15]","","",""
"sailing-trial","407","2244928","0.0-11.0-372.0","","","","false","","","","","","","","","","1036.9000000003725","","25.700000000186265","","2","1","arrowright","1","arrowleft","[0.675,0.325,0.85,0.15]","","",""
"sailing-trial","408","2248430","0.0-11.0-373.0","","","","false","","","","","","","","","","null","","1335.1000000005588","","3","1","null","null","arrowup","[0.675,0.325,0.85,0.15]","","",""
"sailing-trial","409","2254572","0.0-11.0-374.0","","","","false","","","","","","","","","","2090.4000000003725","","702.4000000003725","","0","1","arrowleft","0","arrowleft","[0.675,0.325,0.85,0.15]","","",""
"sailing-trial","410","2258798","0.0-11.0-375.0","","","","false","","","","","","","","","","null","","1184.699999999255","","0","0","null","null","arrowup","[0.675,0.325,0.85,0.15]","","",""
"sailing-trial","411","2265012","0.0-11.0-376.0","","","","false","","","","","","","","","","1831.2999999998137","","652.7999999998137","","0","1","arrowleft","0","arrowleft","[0.675,0.325,0.85,0.15]","","",""
"sailing-trial","412","2270805","0.0-11.0-377.0","","","","false","","","","","","","","","","null","","2766.9000000003725","","3","0","null","null","arrowup","[0.675,0.325,0.85,0.15]","","",""
"sailing-trial","413","2278114","0.0-11.0-378.0","","","","false","","","","","","","","","","2169.5","","1022.3999999994412","","0","0","arrowleft","0","arrowleft","[0.675,0.325,0.85,0.15]","","",""
"sailing-trial","414","2283463","0.0-11.0-379.0","","","","false","","","","","","","","","","null","","1357.5999999996275","","1","1","null","null","arrowup","[0.675,0.325,0.85,0.15]","","",""
"sailing-trial","415","2289908","0.0-11.0-380.0","","","","false","","","","","","","","","","1149.1000000005588","","950.2000000001863","","2","0","arrowright","1","arrowleft","[0.675,0.325,0.85,0.15]","","",""
"sailing-trial","416","2295037","0.0-11.0-381.0","","","","false","","","","","","","","","","null","","1253.1000000005588","","3","1","null","null","arrowup","[0.675,0.325,0.85,0.15]","","",""
"sailing-trial","417","2302134","0.0-11.0-382.0","","","","false","","","","","","","","","","1656.5","","1146.3999999994412","","0","0","arrowleft","0","arrowleft","[0.675,0.325,0.85,0.15]","","",""
"sailing-trial","418","2307774","0.0-11.0-383.0","","","","false","","","","","","","","","","null","","2604.9000000003725","","1","0","null","null","arrowup","[0.675,0.325,0.85,0.15]","","",""
"sailing-trial","419","2315035","0.0-11.0-384.0","","","","false","","","","","","","","","","2374.2000000001863","","605.2999999998137","","2","0","arrowright","1","arrowleft","[0.325,0.675,0.15,0.85]","","",""
"sailing-trial","420","2318702","0.0-11.0-385.0","","","","false","","","","","","","","","","null","","1186.9000000003725","","0","1","null","null","arrowup","[0.325,0.675,0.15,0.85]","","",""
"sailing-trial","421","2323997","0.0-11.0-386.0","","","","false","","","","","","","","","","925.0999999996275","","134.79999999981374","","0","0","arrowleft","0","arrowleft","[0.325,0.675,0.15,0.85]","","",""
"sailing-trial","422","2328275","0.0-11.0-387.0","","","","false","","","","","","","","","","null","","1239.6000000005588","","2","0","null","null","arrowup","[0.325,0.675,0.15,0.85]","","",""
"sailing-trial","423","2333957","0.0-11.0-388.0","","","","false","","","","","","","","","","764.7000000001863","","652.3999999994412","","2","0","arrowright","1","arrowleft","[0.325,0.675,0.15,0.85]","","",""
"sailing-trial","424","2338486","0.0-11.0-389.0","","","","false","","","","","","","","","","null","","1842.0999999996275","","1","1","null","null","arrowup","[0.325,0.675,0.15,0.85]","","",""
"sailing-trial","425","2344413","0.0-11.0-390.0","","","","false","","","","","","","","","","1374.3999999994412","","295.29999999981374","","0","1","arrowleft","0","arrowleft","[0.325,0.675,0.15,0.85]","","",""
"sailing-trial","426","2348030","0.0-11.0-391.0","","","","false","","","","","","","","","","null","","1222.0999999996275","","3","1","null","null","arrowup","[0.325,0.675,0.15,0.85]","","",""
"sailing-trial","427","2353802","0.0-11.0-392.0","","","","false","","","","","","","","","","1111.9000000003725","","542.2999999998137","","2","0","arrowright","1","arrowleft","[0.325,0.675,0.15,0.85]","","",""
"sailing-trial","428","2357502","0.0-11.0-393.0","","","","false","","","","","","","","","","null","","1119.5","","0","1","null","null","arrowup","[0.325,0.675,0.15,0.85]","","",""
"sailing-trial","429","2363341","0.0-11.0-394.0","","","","false","","","","","","","","","","1394","","219.29999999981374","","2","0","arrowright","1","arrowleft","[0.325,0.675,0.15,0.85]","","",""
"sailing-trial","430","2367556","0.0-11.0-395.0","","","","false","","","","","","","","","","null","","1179.5999999996275","","1","0","null","null","arrowup","[0.325,0.675,0.15,0.85]","","",""
"sailing-trial","431","2373219","0.0-11.0-396.0","","","","false","","","","","","","","","","666.3000000007451","","727.2999999998137","","0","0","arrowleft","0","arrowleft","[0.325,0.675,0.15,0.85]","","",""
"sailing-trial","432","2377286","0.0-11.0-397.0","","","","false","","","","","","","","","","null","","1020.2000000001863","","1","0","null","null","arrowup","[0.325,0.675,0.15,0.85]","","",""
"sailing-trial","433","2382611","0.0-11.0-398.0","","","","false","","","","","","","","","","717.0999999996275","","329.70000000018626","","0","0","arrowleft","0","arrowleft","[0.325,0.675,0.15,0.85]","","",""
"sailing-trial","434","2388620","0.0-11.0-399.0","","","","false","","","","","","","","","","null","","2984.7000000001863","","2","0","null","null","arrowup","[0.325,0.675,0.15,0.85]","","",""
"instructions","435","2397970","0.0-12.0","","","","","","","","","","9348.5","","","","","","","","","","","","","","","","[{""page_index"":0,""viewing_time"":9346.199999999255}]"
"survey-debrief","436","2423716","0.0-13.0","","","","","","","","","","25740.900000000373","","","","","","","","","","","","","","{""difficulty"":""5"",""fun"":""4"",""clarity"":""5"",""strategy"":"""",""feedback"":""""}","",""
