"trial_type","trial_index","time_elapsed","internal_node_id","value","metadata","success","timeout","failed_images","failed_audio","failed_video","browser_interaction","low_quality","rt","stimulus","response","button_pressed","island_rt","island_response","boat_rt","boat_response","boat","reward","island_key","island","boat_key","reward_probabilities","responses","num_errors","view_history"
"pavlovia","0","6","0.0-0.0","","","","","","","","","","","","","","","","","","","","","","","","","",""
"call-function","1","8","0.0-1.0","","{""task_version"":""sailing_part1_v1"",""task_condition"":""good"",""boats"":[""A"",""D"",""C"",""B""],""boats_demo"":[""G"",""F"",""H"",""E""],""islands"":[""B"",""A""],""subject_id"":""14948"",""age"":""19"",""gender"":""Female""}","","","","","","","","","","","","","","","","","","","","","","","",""
"preload","2","2381","0.0-2.0","","","true","false","[]","[]","[]","[{""event"":""fullscreenenter"",""trial"":3,""time"":7364}]","false","","","","","","","","","","","","","","","","",""
"fullscreen","3","8359","0.0-3.0","","","true","","","","","","","","","","","","","","","","","","","","","","",""
"audio-keyboard-response","4","11879","0.0-4.0-0.0","","","","","","","","","","2210.6666666666665","audio/beep_loop.wav"," ","","","","","","","","","","","","","",""
"audio-test","5","13617","0.0-4.0-1.0","","","","","","","","","","null","audio/turtle.mp3","","3","","","","","","","","","","","","",""
"audio-test","6","16416","0.0-4.0-2.0","","","","","","","","","","null","audio/shark.mp3","","2","","","","","","","","","","","","",""
"sailing-instructions","7","49356","0.0-5.0-0.0-0.0","","","","","","","","","","","","","","null","null","null","null","null","null","","","","","","",""
"sailing-trial","8","54543","0.0-5.0-0.0-1.0-0.0","","","","false","","","","","","","","","","4061.2999999523163","","null","","null","null","arrowleft","0","null","null","","",""
"sailing-trial","9","58026","0.0-5.0-0.0-1.0-1.0","","","","false","","","","","","","","","","2165.100000023842","","null","","null","null","arrowright","1","null","null","","",""
"sailing-trial","10","62655","0.0-5.0-0.0-1.0-2.0","","","","false","","","","","","","","","","3519.399999976158","","null","","null","null","arrowleft","0","null","null","","",""
"sailing-instructions","11","109070","0.0-5.0-0.0-2.0","","","","","","","","","","","","","","null","null","null","null","0","null","","","","","","",""
"sailing-trial","12","115793","0.0-5.0-0.0-3.0-0.0","","","","false","","","","","","","","","","null","","3110","","2","1","null","null","arrowleft","[1,1,1,1]","","",""
"sailing-trial","13","120439","0.0-5.0-0.0-3.0-1.0","","","","false","","","","","","","","","","null","","1383.699999988079","","3","1","null","null","arrowright","[1,1,1,1]","","",""
"sailing-trial","14","125384","0.0-5.0-0.0-3.0-2.0","","","","false","","","","","","","","","","null","","1795.699999988079","","3","0","null","null","arrowright","[0,0,0,0]","","",""
"sailing-instructions","15","132866","0.0-5.0-0.0-4.0","","","","","","","","","","","","","","null","null","null","null","null","null","","","","","","",""
"sailing-comprehension","16","161273","0.0-5.0-0.0-5.0","","","","","","","","","","24471.799999952316","","","","","","","","","","","","","","[""true"",""false"",""false"",""true""]","1",""
"sailing-instructions","17","190729","0.0-5.0-0.1-0.1","","","","","","","","","","","","","","null","null","null","null","null","null","","","","","","",""
"sailing-trial","18","193151","0.0-5.0-0.1-1.1-0.1","","","","false","","","","","","","","","","1302.6000000238419","","null","","null","null","arrowleft","0","null","null","","",""
"sailing-trial","19","195180","0.0-5.0-0.1-1.1-1.1","","","","false","","","","","","","","","","915.1999999880791","","null","","null","null","arrowright","1","null","null","","",""
"sailing-trial","20","197349","0.0-5.0-0.1-1.1-2.1","","","","false","","","","","","","","","","1031.6000000238419","","null","","null","null","arrowright","1","null","null","","",""
"sailing-instructions","21","238990","0.0-5.0-0.1-2.1","","","","","","","","","","","","","","null","null","null","null","0","null","","","","","","",""
"sailing-trial","22","243001","0.0-5.0-0.1-3.1-0.1","","","","false","","","","","","","","","","null","","1325.5","","2","1","null","null","arrowleft","[1,1,1,1]","","",""
"sailing-trial","23","245895","0.0-5.0-0.1-3.1-1.1","","","","false","","","","","","","","","","null","","508.30000001192093","","3","1","null","null","arrowright","[1,1,1,1]","","",""
"sailing-trial","24","248723","0.0-5.0-0.1-3.1-2.1","","","","false","","","","","","","","","","null","","549.2000000476837","","2","0","null","null","arrowleft","[0,0,0,0]","","",""
"sailing-instructions","25","256179","0.0-5.0-0.1-4.1","","","","","","","","","","","","","","null","null","null","null","null","null","","","","","","",""
"sailing-comprehension","26","264794","0.0-5.0-0.1-5.1","","","","","","","","","","7185","","","","","","","","","","","","","","[""true"",""true"",""false"",""true""]","0",""
"sailing-instructions","27","331911","0.0-6.0-0.0-0.0","","","","","","","","","","","","","","null","null","null","null","null","null","","","","","","",""
"sailing-comprehension","28","345598","0.0-6.0-0.0-1.0","","","","","","","","","","12614.5","","","","","","","","","","","","","","[""true"",""false"",""true""]","0",""
"sailing-instructions","29","361868","0.0-7.0-0.0-0.0","","","","","","","","","","","","","","null","null","null","null","null","null","","","","","","",""
"sailing-trial","30","370849","0.0-7.0-0.0-1.0-0.0","","","","false","","","","","","","","","","null","","6423.900000035763","","0","0","null","null","arrowup","[0.2,0.8,0.2,0.8]","","",""
"sailing-trial","31","375158","0.0-7.0-0.0-1.0-1.0","","","","false","","","","","","","","","","null","","2100.2999999523163","","1","1","null","null","arrowup","[0.2,0.8,0.2,0.8]","","",""
"sailing-trial","32","377983","0.0-7.0-0.0-1.0-2.0","","","","false","","","","","","","","","","null","","1463.199999988079","","2","0","null","null","arrowup","[0.2,0.8,0.2,0.8]","","",""
"sailing-trial","33","381075","0.0-7.0-0.0-1.0-3.0","","","","false","","","","","","","","","","null","","1040.699999988079","","3","1","null","null","arrowup","[0.2,0.8,0.2,0.8]","","",""
"sailing-comprehension","34","401795","0.0-7.0-0.0-2.0","","","","","","","","","","19701","","","","","","","","","","","","","","[""false""]","0",""
"sailing-instructions","35","413756","0.0-8.0-0.0-0.0","","","","","","","","","","","","","","null","null","null","null","null","null","","","","","","",""
"sailing-comprehension","36","425798","0.0-8.0-0.0-1.0","","","","","","","","","","11050.5","","","","","","","","","","","","","","[""true""]","0",""
"sailing-instructions","37","448602","0.0-9.0-0.0-0.0","","","","","","","","","","","","","","null","null","null","null","null","null","","","","","","",""
"sailing-trial","38","455163","0.0-9.0-0.0-1.0-0.0","","","","false","","","","","","","","","","1199","","1423.4000000357628","","2","0","arrowright","1","arrowleft","[0.2,0.8,0.2,0.8]","","",""
"sailing-trial","39","459915","0.0-9.0-0.0-1.0-1.0","","","","false","","","","","","","","","","1165.6000000238419","","140.70000004768372","","1","1","arrowleft","0","arrowright","[0.2,0.8,0.2,0.8]","","",""
"sailing-trial","40","462968","0.0-9.0-0.0-1.0-2.0","","","","false","","","","","","","","","","null","","1131.7000000476837","","0","0","null","null","arrowup","[0.2,0.8,0.2,0.8]","","",""
"sailing-trial","41","466671","0.0-9.0-0.0-1.0-3.0","","","","false","","","","","","","","","","881.3000000119209","","166.69999998807907","","2","0","arrowright","1","arrowleft","[0.2,0.8,0.2,0.8]","","",""
"sailing-trial","42","470559","0.0-9.0-0.0-1.0-4.0","","","","false","","","","","","","","","","null","","1913.199999988079","","3","1","null","null","arrowup","[0.2,0.8,0.2,0.8]","","",""
"sailing-trial","43","475266","0.0-9.0-0.0-1.0-5.0","","","","false","","","","","","","","","","1862","","149.30000001192093","","0","0","arrowleft","0","arrowleft","[0.2,0.8,0.2,0.8]","","",""
"sailing-instructions","44","502311","0.0-10.0","","","","","","","","","","","","","","null","null","null","null","null","null","","","","","","",""
"sailing-trial","45","507852","0.0-11.0-0.0","","","","false","","","","","","","","","","1332.6000000238419","","387.9000000357628","","3","1","arrowright","1","arrowright","[0.85,0.15,0.325,0.675]","","",""
"sailing-trial","46","511281","0.0-11.0-1.0","","","","false","","","","","","","","","","null","","1254.199999988079","","0","1","null","null","arrowup","[0.85,0.15,0.325,0.675]","","",""
"sailing-trial","47","516262","0.0-11.0-2.0","","","","false","","","","","","","","","","1652.8999999761581","","445.80000001192093","","1","0","arrowleft","0","arrowright","[0.85,0.15,0.325,0.675]","","",""
"sailing-trial","48","518624","0.0-11.0-3.0","","","","false","","","","","","","","","","null","","989.2999999523163","","1","0","null","null","arrowup","[0.85,0.15,0.325,0.675]","","",""
"sailing-trial","49","522523","0.0-11.0-4.0","","","","false","","","","","","","","","","724.0999999642372","","622.3999999761581","","2","0","arrowright","1","arrowleft","[0.85,0.15,0.325,0.675]","","",""
"sailing-trial","50","525814","0.0-11.0-5.0","","","","false","","","","","","","","","","null","","1564.1000000238419","","1","0","null","null","arrowup","[0.85,0.15,0.325,0.675]","","",""
"sailing-trial","51","529683","0.0-11.0-6.0","","","","false","","","","","","","","","","795.5","","194.4000000357628","","0","1","arrowleft","0","arrowleft","[0.85,0.15,0.325,0.675]","","",""
"sailing-trial","52","532166","0.0-11.0-7.0","","","","false","","","","","","","","","","null","","986.6999999880791","","3","0","null","null","arrowup","[0.85,0.15,0.325,0.675]","","",""
"sailing-trial","53","535961","0.0-11.0-8.0","","","","false","","","","","","","","","","728.3999999761581","","220.5999999642372","","0","1","arrowleft","0","arrowleft","[0.85,0.15,0.325,0.675]","","",""
"sailing-trial","54","538642","0.0-11.0-9.0","","","","false","","","","","","","","","","null","","1155.3999999761581","","0","0","null","null","arrowup","[0.85,0.15,0.325,0.675]","","",""
"sailing-trial","55","542553","0.0-11.0-10.0","","","","false","","","","","","","","","","868.0999999642372","","363.10000002384186","","2","0","arrowright","1","arrowleft","[0.85,0.15,0.325,0.675]","","",""
"sailing-trial","56","545452","0.0-11.0-11.0","","","","false","","","","","","","","","","null","","977.5","","0","1","null","null","arrowup","[0.85,0.15,0.325,0.675]","","",""
"sailing-trial","57","549163","0.0-11.0-12.0","","","","false","","","","","","","","","","727.5","","5.399999976158142","","3","1","arrowright","1","arrowright","[0.85,0.15,0.325,0.675]","","",""
"sailing-trial","58","552298","0.0-11.0-13.0","","","","false","","","","","","","","","","null","","1016.9000000357628","","0","1","null","null","arrowup","[0.85,0.15,0.325,0.675]","","",""
"sailing-trial","59","556310","0.0-11.0-14.0","","","","false","","","","","","","","","","514.5999999642372","","425.0999999642372","","1","1","arrowleft","0","arrowright","[0.85,0.15,0.325,0.675]","","",""
"sailing-trial","60","559799","0.0-11.0-15.0","","","","false","","","","","","","","","","null","","1317.3999999761581","","3","1","null","null","arrowup","[0.85,0.15,0.325,0.675]","","",""
"sailing-trial","61","564582","0.0-11.0-16.0","","","","false","","","","","","","","","","1227.300000011921","","28.5","","3","1","arrowright","1","arrowright","[0.675,0.325,0.15,0.85]","","",""
"sailing-trial","62","567637","0.0-11.0-17.0","","","","false","","","","","","","","","","null","","893.3000000119209","","1","0","null","null","arrowup","[0.675,0.325,0.15,0.85]","","",""
"sailing-trial","63","573045","0.0-11.0-18.0","","","","false","","","","","","","","","","982.6999999880791","","1392","","1","1","arrowleft","0","arrowright","[0.675,0.325,0.15,0.85]","","",""
"sailing-trial","64","575752","0.0-11.0-19.0","","","","false","","","","","","","","","","null","","917.4000000357628","","2","0","null","null","arrowup","[0.675,0.325,0.15,0.85]","","",""
"sailing-trial","65","580488","0.0-11.0-20.0","","","","false","","","","","","","","","","1251.300000011921","","988.6000000238419","","2","0","arrowright","1","arrowleft","[0.675,0.325,0.15,0.85]","","",""
"sailing-trial","66","583975","0.0-11.0-21.0","","","","false","","","","","","","","","","null","","1389.199999988079","","0","1","null","null","arrowup","[0.675,0.325,0.15,0.85]","","",""
"sailing-trial","67","587619","0.0-11.0-22.0","","","","false","","","","","","","","","","515.6999999880791","","132.69999998807907","","0","1","arrowleft","0","arrowleft","[0.675,0.325,0.15,0.85]","","",""
"sailing-trial","68","590301","0.0-11.0-23.0","","","","false","","","","","","","","","","null","","883.0999999642372","","2","0","null","null","arrowup","[0.675,0.325,0.15,0.85]","","",""
"sailing-trial","69","594149","0.0-11.0-24.0","","","","false","","","","","","","","","","826.6999999880791","","475.19999998807907","","0","0","arrowleft","0","arrowleft","[0.675,0.325,0.15,0.85]","","",""
"sailing-trial","70","598340","0.0-11.0-25.0","","","","false","","","","","","","","","","null","","1139.1000000238419","","1","1","null","null","arrowup","[0.675,0.325,0.15,0.85]","","",""
"sailing-trial","71","602543","0.0-11.0-26.0","","","","false","","","","","","","","","","731.1000000238419","","615.3999999761581","","3","1","arrowright","1","arrowright","[0.675,0.325,0.15,0.85]","","",""
"sailing-trial","72","605601","0.0-11.0-27.0","","","","false","","","","","","","","","","null","","1009.0999999642372","","1","1","null","null","arrowup","[0.675,0.325,0.15,0.85]","","",""
"sailing-trial","73","609542","0.0-11.0-28.0","","","","false","","","","","","","","","","712.3999999761581","","186.69999998807907","","3","1","arrowright","1","arrowright","[0.675,0.325,0.15,0.85]","","",""
"sailing-trial","74","612025","0.0-11.0-29.0","","","","false","","","","","","","","","","null","","955.8000000119209","","1","0","null","null","arrowup","[0.675,0.325,0.15,0.85]","","",""
"sailing-trial","75","617042","0.0-11.0-30.0","","","","false","","","","","","","","","","2024.5","","45.30000001192093","","0","1","arrowleft","0","arrowleft","[0.675,0.325,0.15,0.85]","","",""
"sailing-trial","76","620104","0.0-11.0-31.0","","","","false","","","","","","","","","","null","","933.8999999761581","","0","1","null","null","arrowup","[0.675,0.325,0.15,0.85]","","",""
"sailing-trial","77","624401","0.0-11.0-32.0","","","","false","","","","","","","","","","742.1000000238419","","472.60000002384186","","3","1","arrowright","1","arrowright","[0.675,0.325,0.15,0.85]","","",""
"sailing-trial","78","626926","0.0-11.0-33.0","","","","false","","","","","","","","","","null","","966.1999999880791","","2","0","null","null","arrowup","[0.675,0.325,0.15,0.85]","","",""
"sailing-trial","79","630484","0.0-11.0-34.0","","","","false","","","","","","","","","","531.1999999880791","","482.30000001192093","","1","0","arrowleft","0","arrowright","[0.85,0.15,0.325,0.675]","","",""
"sailing-trial","80","633972","0.0-11.0-35.0","","","","false","","","","","","","","","","null","","1128.5","","3","1","null","null","arrowup","[0.85,0.15,0.325,0.675]","","",""
"sailing-trial","81","638176","0.0-11.0-36.0","","","","false","","","","","","","","","","779.8000000119209","","697.7000000476837","","3","0","arrowright","1","arrowright","[0.85,0.15,0.325,0.675]","","",""
"sailing-trial","82","641002","0.0-11.0-37.0","","","","false","","","","","","","","","","null","","1126.0999999642372","","1","0","null","null","arrowup","[0.85,0.15,0.325,0.675]","","",""
"sailing-trial","83","645118","0.0-11.0-38.0","","","","false","","","","","","","","","","707.0999999642372","","459.89999997615814","","0","1","arrowleft","0","arrowleft","[0.85,0.15,0.325,0.675]","","",""
"sailing-trial","84","648057","0.0-11.0-39.0","","","","false","","","","","","","","","","null","","1029.699999988079","","0","1","null","null","arrowup","[0.85,0.15,0.325,0.675]","","",""
"sailing-trial","85","652122","0.0-11.0-40.0","","","","false","","","","","","","","","","1006.8999999761581","","43.59999996423721","","1","1","arrowleft","0","arrowright","[0.85,0.15,0.325,0.675]","","",""
"sailing-trial","86","655249","0.0-11.0-41.0","","","","false","","","","","","","","","","null","","1152.699999988079","","0","1","null","null","arrowup","[0.85,0.15,0.325,0.675]","","",""
"sailing-trial","87","659460","0.0-11.0-42.0","","","","false","","","","","","","","","","865.6999999880791","","316.9000000357628","","3","1","arrowright","1","arrowright","[0.85,0.15,0.325,0.675]","","",""
"sailing-trial","88","662752","0.0-11.0-43.0","","","","false","","","","","","","","","","null","","929.6999999880791","","3","1","null","null","arrowup","[0.85,0.15,0.325,0.675]","","",""
"sailing-trial","89","667776","0.0-11.0-44.0","","","","false","","","","","","","","","","1141","","570.5","","2","1","arrowright","1","arrowleft","[0.85,0.15,0.325,0.675]","","",""
"sailing-trial","90","670637","0.0-11.0-45.0","","","","false","","","","","","","","","","null","","1241.9000000357628","","2","0","null","null","arrowup","[0.85,0.15,0.325,0.675]","","",""
"sailing-trial","91","674043","0.0-11.0-46.0","","","","false","","","","","","","","","","683.0999999642372","","193.5","","3","0","arrowright","1","arrowright","[0.85,0.15,0.325,0.675]","","",""
"sailing-trial","92","678181","0.0-11.0-47.0","","","","false","","","","","","","","","","null","","1533.800000011921","","2","0","null","null","arrowup","[0.85,0.15,0.325,0.675]","","",""
"sailing-trial","93","682460","0.0-11.0-48.0","","","","false","","","","","","","","","","660.5","","435.19999998807907","","1","0","arrowleft","0","arrowright","[0.85,0.15,0.325,0.675]","","",""
"sailing-trial","94","686047","0.0-11.0-49.0","","","","false","","","","","","","","","","null","","1870.2999999523163","","3","0","null","null","arrowup","[0.85,0.15,0.325,0.675]","","",""
"sailing-trial","95","691222","0.0-11.0-50.0","","","","false","","","","","","","","","","1479.800000011921","","282.30000001192093","","0","1","arrowleft","0","arrowleft","[0.675,0.325,0.15,0.85]","","",""
"sailing-trial","96","695171","0.0-11.0-51.0","","","","false","","","","","","","","","","null","","1024.300000011921","","0","1","null","null","arrowup","[0.675,0.325,0.15,0.85]","","",""
"sailing-trial","97","699384","0.0-11.0-52.0","","","","false","","","","","","","","","","609.0999999642372","","467.5999999642372","","0","1","arrowleft","0","arrowleft","[0.675,0.325,0.15,0.85]","","",""
"sailing-trial","98","702323","0.0-11.0-53.0","","","","false","","","","","","","","","","null","","953.9000000357628","","3","1","null","null","arrowup","[0.675,0.325,0.15,0.85]","","",""
"sailing-trial","99","705741","0.0-11.0-54.0","","","","false","","","","","","","","","","895.5999999642372","","78.80000001192093","","2","0","arrowright","1","arrowleft","[0.675,0.325,0.15,0.85]","","",""
"sailing-trial","100","708274","0.0-11.0-55.0","","","","false","","","","","","","","","","null","","962.2000000476837","","3","0","null","null","arrowup","[0.675,0.325,0.15,0.85]","","",""
"sailing-trial","101","712442","0.0-11.0-56.0","","","","false","","","","","","","","","","1073.199999988079","","80.60000002384186","","3","1","arrowright","1","arrowright","[0.675,0.325,0.15,0.85]","","",""
"sailing-trial","102","714878","0.0-11.0-57.0","","","","false","","","","","","","","","","null","","962.1000000238419","","3","0","null","null","arrowup","[0.675,0.325,0.15,0.85]","","",""
"sailing-trial","103","718873","0.0-11.0-58.0","","","","false","","","","","","","","","","541.1000000238419","","570.1999999880791","","1","1","arrowleft","0","arrowright","[0.675,0.325,0.15,0.85]","","",""
"sailing-trial","104","721375","0.0-11.0-59.0","","","","false","","","","","","","","","","null","","939.1999999880791","","1","0","null","null","arrowup","[0.675,0.325,0.15,0.85]","","",""
"sailing-trial","105","725586","0.0-11.0-60.0","","","","false","","","","","","","","","","661.0999999642372","","485.69999998807907","","0","1","arrowleft","0","arrowleft","[0.675,0.325,0.15,0.85]","","",""
"sailing-trial","106","728842","0.0-11.0-61.0","","","","false","","","","","","","","","","null","","838.3000000119209","","3","1","null","null","arrowup","[0.675,0.325,0.15,0.85]","","",""
"sailing-trial","107","732908","0.0-11.0-62.0","","","","false","","","","","","","","","","891.8000000119209","","246.5","","3","1","arrowright","1","arrowright","[0.675,0.325,0.15,0.85]","","",""
"sailing-trial","108","735549","0.0-11.0-63.0","","","","false","","","","","","","","","","null","","954.5","","0","0","null","null","arrowup","[0.675,0.325,0.15,0.85]","","",""
"sailing-trial","109","740215","0.0-11.0-64.0","","","","false","","","","","","","","","","1295.800000011921","","166.19999998807907","","2","1","arrowright","1","arrowleft","[0.675,0.325,0.15,0.85]","","",""
"sailing-trial","110","743085","0.0-11.0-65.0","","","","false","","","","","","","","","","null","","804","","0","1","null","null","arrowup","[0.675,0.325,0.15,0.85]","","",""
"sailing-trial","111","748037","0.0-11.0-66.0","","","","false","","","","","","","","","","1238","","1163.5","","1","0","arrowleft","0","arrowright","[0.675,0.325,0.15,0.85]","","",""
"sailing-trial","112","751328","0.0-11.0-67.0","","","","false","","","","","","","","","","null","","1033.7999999523163","","1","1","null","null","arrowup","[0.675,0.325,0.15,0.85]","","",""
"sailing-trial","113","754895","0.0-11.0-68.0","","","","false","","","","","","","","","","673.6999999880791","","304","","2","0","arrowright","1","arrowleft","[0.85,0.15,0.325,0.675]","","",""
"sailing-trial","114","758531","0.0-11.0-69.0","","","","false","","","","","","","","","","null","","1739.8999999761581","","3","1","null","null","arrowup","[0.85,0.15,0.325,0.675]","","",""
"sailing-trial","115","763682","0.0-11.0-70.0","","","","false","","","","","","","","","","1270.5","","899.3000000119209","","0","1","arrowleft","0","arrowleft","[0.85,0.15,0.325,0.675]","","",""
"sailing-trial","116","766009","0.0-11.0-71.0","","","","false","","","","","","","","","","null","","863.1999999880791","","2","0","null","null","arrowup","[0.85,0.15,0.325,0.675]","","",""
"sailing-trial","117","769608","0.0-11.0-72.0","","","","false","","","","","","","","","","581.5","","160.4000000357628","","3","1","arrowright","1","arrowright","[0.85,0.15,0.325,0.675]","","",""
"sailing-trial","118","772158","0.0-11.0-73.0","","","","false","","","","","","","","","","null","","992.9000000357628","","3","0","null","null","arrowup","[0.85,0.15,0.325,0.675]","","",""
"sailing-trial","119","776062","0.0-11.0-74.0","","","","false","","","","","","","","","","693.8999999761581","","277.39999997615814","","1","1","arrowleft","0","arrowright","[0.85,0.15,0.325,0.675]","","",""
"sailing-trial","120","779459","0.0-11.0-75.0","","","","false","","","","","","","","","","null","","858.5","","3","1","null","null","arrowup","[0.85,0.15,0.325,0.675]","","",""
"sailing-trial","121","783555","0.0-11.0-76.0","","","","false","","","","","","","","","","1002.1999999880791","","672.6999999880791","","0","0","arrowleft","0","arrowleft","[0.85,0.15,0.325,0.675]","","",""
"sailing-trial","122","786144","0.0-11.0-77.0","","","","false","","","","","","","","","","null","","1153.9000000357628","","2","0","null","null","arrowup","[0.85,0.15,0.325,0.675]","","",""
"sailing-trial","123","789769","0.0-11.0-78.0","","","","false","","","","","","","","","","1007.5","","3.800000011920929","","1","0","arrowleft","0","arrowright","[0.85,0.15,0.325,0.675]","","",""
"sailing-trial","124","792925","0.0-11.0-79.0","","","","false","","","","","","","","","","null","","1073.0999999642372","","1","1","null","null","arrowup","[0.85,0.15,0.325,0.675]","","",""
"sailing-trial","125","797530","0.0-11.0-80.0","","","","false","","","","","","","","","","1048","","493.5999999642372","","3","1","arrowright","1","arrowright","[0.85,0.15,0.325,0.675]","","",""
"sailing-trial","126","801113","0.0-11.0-81.0","","","","false","","","","","","","","","","null","","1451.5999999642372","","0","1","null","null","arrowup","[0.85,0.15,0.325,0.675]","","",""
"sailing-trial","127","804634","0.0-11.0-82.0","","","","false","","","","","","","","","","725.6000000238419","","179.89999997615814","","3","0","arrowright","1","arrowright","[0.85,0.15,0.325,0.675]","","",""
"sailing-trial","128","807253","0.0-11.0-83.0","","","","false","","","","","","","","","","null","","949.8000000119209","","1","0","null","null","arrowup","[0.85,0.15,0.325,0.675]","","",""
"sailing-trial","129","811107","0.0-11.0-84.0","","","","false","","","","","","","","","","891.6999999880791","","37.40000003576279","","0","1","arrowleft","0","arrowleft","[0.85,0.15,0.325,0.675]","","",""
"sailing-trial","130","813336","0.0-11.0-85.0","","","","false","","","","","","","","","","null","","792.6999999880791","","1","0","null","null","arrowup","[0.85,0.15,0.325,0.675]","","",""
"sailing-trial","131","817054","0.0-11.0-86.0","","","","false","","","","","","","","","","643.5","","125.60000002384186","","0","1","arrowleft","0","arrowleft","[0.85,0.15,0.325,0.675]","","",""
"sailing-trial","132","819944","0.0-11.0-87.0","","","","false","","","","","","","","","","null","","834.1999999880791","","0","1","null","null","arrowup","[0.85,0.15,0.325,0.675]","","",""
"sailing-trial","133","823423","0.0-11.0-88.0","","","","false","","","","","","","","","","474.7999999523163","","89.39999997615814","","0","0","arrowleft","0","arrowleft","[0.675,0.325,0.15,0.85]","","",""
"sailing-trial","134","826272","0.0-11.0-89.0","","","","false","","","","","","","","","","null","","879.1999999880791","","3","1","null","null","arrowup","[0.675,0.325,0.15,0.85]","","",""
"sailing-trial","135","830419","0.0-11.0-90.0","","","","false","","","","","","","","","","669.7999999523163","","395.69999998807907","","3","1","arrowright","1","arrowright","[0.675,0.325,0.15,0.85]","","",""
"sailing-trial","136","832808","0.0-11.0-91.0","","","","false","","","","","","","","","","null","","961.6000000238419","","2","0","null","null","arrowup","[0.675,0.325,0.15,0.85]","","",""
"sailing-trial","137","836808","0.0-11.0-92.0","","","","false","","","","","","","","","","901.1999999880791","","57.60000002384186","","0","1","arrowleft","0","arrowleft","[0.675,0.325,0.15,0.85]","","",""
"sailing-trial","138","839753","0.0-11.0-93.0","","","","false","","","","","","","","","","null","","958.6000000238419","","3","1","null","null","arrowup","[0.675,0.325,0.15,0.85]","","",""
"sailing-trial","139","843548","0.0-11.0-94.0","","","","false","","","","","","","","","","789.5","","18.5","","3","1","arrowright","1","arrowright","[0.675,0.325,0.15,0.85]","","",""
"sailing-trial","140","846429","0.0-11.0-95.0","","","","false","","","","","","","","","","null","","933.8000000119209","","0","1","null","null","arrowup","[0.675,0.325,0.15,0.85]","","",""
"sailing-trial","141","850405","0.0-11.0-96.0","","","","false","","","","","","","","","","623.7000000476837","","240.80000001192093","","0","1","arrowleft","0","arrowleft","[0.675,0.325,0.15,0.85]","","",""
"sailing-trial","142","852700","0.0-11.0-97.0","","","","false","","","","","","","","","","null","","862.1999999880791","","0","0","null","null","arrowup","[0.675,0.325,0.15,0.85]","","",""
"sailing-trial","143","856296","0.0-11.0-98.0","","","","false","","","","","","","","","","546.0999999642372","","83","","3","1","arrowright","1","arrowright","[0.675,0.325,0.15,0.85]","","",""
"sailing-trial","144","859310","0.0-11.0-99.0","","","","false","","","","","","","","","","null","","1008.1999999880791","","1","1","null","null","arrowup","[0.675,0.325,0.15,0.85]","","",""
"sailing-trial","145","863141","0.0-11.0-100.0","","","","false","","","","","","","","","","734.1999999880791","","160.39999997615814","","0","1","arrowleft","0","arrowleft","[0.675,0.325,0.15,0.85]","","",""
"sailing-trial","146","866135","0.0-11.0-101.0","","","","false","","","","","","","","","","null","","1170.300000011921","","0","0","null","null","arrowup","[0.675,0.325,0.15,0.85]","","",""
"sailing-trial","147","869851","0.0-11.0-102.0","","","","false","","","","","","","","","","544","","12","","3","0","arrowright","1","arrowright","[0.675,0.325,0.15,0.85]","","",""
"sailing-trial","148","873000","0.0-11.0-103.0","","","","false","","","","","","","","","","null","","990.2999999523163","","2","1","null","null","arrowup","[0.675,0.325,0.15,0.85]","","",""
"sailing-trial","149","877159","0.0-11.0-104.0","","","","false","","","","","","","","","","678.7999999523163","","458.0999999642372","","1","1","arrowleft","0","arrowright","[0.675,0.325,0.15,0.85]","","",""
"sailing-trial","150","879796","0.0-11.0-105.0","","","","false","","","","","","","","","","null","","860.5","","2","0","null","null","arrowup","[0.675,0.325,0.15,0.85]","","",""
"sailing-trial","151","883348","0.0-11.0-106.0","","","","false","","","","","","","","","","630.5","","14.899999976158142","","3","1","arrowright","1","arrowright","[0.675,0.325,0.15,0.85]","","",""
"sailing-trial","152","886251","0.0-11.0-107.0","","","","false","","","","","","","","","","null","","918.6000000238419","","0","1","null","null","arrowup","[0.675,0.325,0.15,0.85]","","",""
"sailing-trial","153","889897","0.0-11.0-108.0","","","","false","","","","","","","","","","640.6000000238419","","72.20000004768372","","0","1","arrowleft","0","arrowleft","[0.675,0.325,0.15,0.85]","","",""
"sailing-trial","154","892294","0.0-11.0-109.0","","","","false","","","","","","","","","","null","","816.8000000119209","","2","0","null","null","arrowup","[0.675,0.325,0.15,0.85]","","",""
"sailing-trial","155","895993","0.0-11.0-110.0","","","","false","","","","","","","","","","720.7999999523163","","46.30000001192093","","3","0","arrowright","1","arrowright","[0.325,0.675,0.85,0.15]","","",""
"sailing-trial","156","898590","0.0-11.0-111.0","","","","false","","","","","","","","","","null","","887.6999999880791","","0","0","null","null","arrowup","[0.325,0.675,0.85,0.15]","","",""
"sailing-trial","157","902379","0.0-11.0-112.0","","","","false","","","","","","","","","","695.1000000238419","","49.5","","0","1","arrowleft","0","arrowleft","[0.325,0.675,0.85,0.15]","","",""
"sailing-trial","158","905456","0.0-11.0-113.0","","","","false","","","","","","","","","","null","","842.0999999642372","","3","1","null","null","arrowup","[0.325,0.675,0.85,0.15]","","",""
"sailing-trial","159","909790","0.0-11.0-114.0","","","","false","","","","","","","","","","1105.800000011921","","615.1999999880791","","3","0","arrowright","1","arrowright","[0.325,0.675,0.85,0.15]","","",""
"sailing-trial","160","912369","0.0-11.0-115.0","","","","false","","","","","","","","","","null","","831.1000000238419","","2","0","null","null","arrowup","[0.325,0.675,0.85,0.15]","","",""
"sailing-trial","161","915927","0.0-11.0-116.0","","","","false","","","","","","","","","","658.6999999880791","","359.9000000357628","","1","0","arrowleft","0","arrowright","[0.325,0.675,0.85,0.15]","","",""
"sailing-trial","162","919011","0.0-11.0-117.0","","","","false","","","","","","","","","","null","","957.6999999880791","","1","1","null","null","arrowup","[0.325,0.675,0.85,0.15]","","",""
"sailing-trial","163","922801","0.0-11.0-118.0","","","","false","","","","","","","","","","960.6999999880791","","230.30000001192093","","0","0","arrowleft","0","arrowleft","[0.325,0.675,0.85,0.15]","","",""
"sailing-trial","164","925476","0.0-11.0-119.0","","","","false","","","","","","","","","","null","","1188.9000000357628","","0","0","null","null","arrowup","[0.325,0.675,0.85,0.15]","","",""
"sailing-trial","165","928877","0.0-11.0-120.0","","","","false","","","","","","","","","","700.0999999642372","","308.19999998807907","","3","0","arrowright","1","arrowright","[0.325,0.675,0.85,0.15]","","",""
"sailing-trial","166","931781","0.0-11.0-121.0","","","","false","","","","","","","","","","null","","1095.1000000238419","","0","0","null","null","arrowup","[0.325,0.675,0.85,0.15]","","",""
"sailing-trial","167","936280","0.0-11.0-122.0","","","","false","","","","","","","","","","1487.9000000357628","","71.40000003576279","","2","1","arrowright","1","arrowleft","[0.325,0.675,0.85,0.15]","","",""
"sailing-trial","168","938530","0.0-11.0-123.0","","","","false","","","","","","","","","","null","","791.4000000357628","","3","0","null","null","arrowup","[0.325,0.675,0.85,0.15]","","",""
"sailing-trial","169","942865","0.0-11.0-124.0","","","","false","","","","","","","","","","1151","","261.89999997615814","","1","1","arrowleft","0","arrowright","[0.325,0.675,0.85,0.15]","","",""
"sailing-trial","170","946244","0.0-11.0-125.0","","","","false","","","","","","","","","","null","","1005.6999999880791","","1","1","null","null","arrowup","[0.325,0.675,0.85,0.15]","","",""
"sailing-trial","171","949655","0.0-11.0-126.0","","","","false","","","","","","","","","","718","","41.30000001192093","","2","0","arrowright","1","arrowleft","[0.675,0.325,0.15,0.85]","","",""
"sailing-trial","172","952419","0.0-11.0-127.0","","","","false","","","","","","","","","","null","","966.9000000357628","","2","0","null","null","arrowup","[0.675,0.325,0.15,0.85]","","",""
"sailing-trial","173","956275","0.0-11.0-128.0","","","","false","","","","","","","","","","530.6999999880791","","50.40000003576279","","1","1","arrowleft","0","arrowright","[0.675,0.325,0.15,0.85]","","",""
"sailing-trial","174","958894","0.0-11.0-129.0","","","","false","","","","","","","","","","null","","978.3000000119209","","1","0","null","null","arrowup","[0.675,0.325,0.15,0.85]","","",""
"sailing-trial","175","962123","0.0-11.0-130.0","","","","false","","","","","","","","","","541","","156.0999999642372","","2","0","arrowright","1","arrowleft","[0.675,0.325,0.15,0.85]","","",""
"sailing-trial","176","965323","0.0-11.0-131.0","","","","false","","","","","","","","","","null","","1089.7999999523163","","3","1","null","null","arrowup","[0.675,0.325,0.15,0.85]","","",""
"sailing-trial","177","968568","0.0-11.0-132.0","","","","false","","","","","","","","","","576.3999999761581","","196.39999997615814","","1","0","arrowleft","0","arrowright","[0.675,0.325,0.15,0.85]","","",""
"sailing-trial","178","972234","0.0-11.0-133.0","","","","false","","","","","","","","","","null","","957","","2","0","null","null","arrowup","[0.675,0.325,0.15,0.85]","","",""
"sailing-trial","179","976608","0.0-11.0-134.0","","","","false","","","","","","","","","","716.6000000238419","","720.6999999880791","","3","1","arrowright","1","arrowright","[0.675,0.325,0.15,0.85]","","",""
"sailing-trial","180","979233","0.0-11.0-135.0","","","","false","","","","","","","","","","null","","973.5","","2","0","null","null","arrowup","[0.675,0.325,0.15,0.85]","","",""
"sailing-trial","181","982882","0.0-11.0-136.0","","","","false","","","","","","","","","","682","","31.799999952316284","","0","1","arrowleft","0","arrowleft","[0.675,0.325,0.15,0.85]","","",""
"sailing-trial","182","985808","0.0-11.0-137.0","","","","false","","","","","","","","","","null","","852.9000000357628","","3","1","null","null","arrowup","[0.675,0.325,0.15,0.85]","","",""
"sailing-trial","183","989380","0.0-11.0-138.0","","","","false","","","","","","","","","","558.4000000357628","","73.90000003576279","","0","1","arrowleft","0","arrowleft","[0.675,0.325,0.15,0.85]","","",""
"sailing-trial","184","992469","0.0-11.0-139.0","","","","false","","","","","","","","","","null","","908.0999999642372","","1","1","null","null","arrowup","[0.675,0.325,0.15,0.85]","","",""
"sailing-trial","185","996600","0.0-11.0-140.0","","","","false","","","","","","","","","","582.9000000357628","","319.5","","3","1","arrowright","1","arrowright","[0.675,0.325,0.15,0.85]","","",""
"sailing-trial","186","999259","0.0-11.0-141.0","","","","false","","","","","","","","","","null","","1008.1999999880791","","2","0","null","null","arrowup","[0.675,0.325,0.15,0.85]","","",""
"sailing-trial","187","1002760","0.0-11.0-142.0","","","","false","","","","","","","","","","535","","141.4000000357628","","0","0","arrowleft","0","arrowleft","[0.15,0.85,0.675,0.325]","","",""
"sailing-trial","188","1005192","0.0-11.0-143.0","","","","false","","","","","","","","","","null","","922.5","","3","0","null","null","arrowup","[0.15,0.85,0.675,0.325]","","",""
"sailing-trial","189","1008449","0.0-11.0-144.0","","","","false","","","","","","","","","","458.7000000476837","","409.5","","0","0","arrowleft","0","arrowleft","[0.15,0.85,0.675,0.325]","","",""
"sailing-trial","190","1010409","0.0-11.0-145.0","","","","false","","","","","","","","","","null","","933.6999999880791","","3","0","null","null","arrowup","[0.15,0.85,0.675,0.325]","","",""
"sailing-trial","191","1014190","0.0-11.0-146.0","","","","false","","","","","","","","","","660.2000000476837","","140.4000000357628","","3","1","arrowright","1","arrowright","[0.15,0.85,0.675,0.325]","","",""
"sailing-trial","192","1016747","0.0-11.0-147.0","","","","false","","","","","","","","","","null","","841.5","","3","0","null","null","arrowup","[0.15,0.85,0.675,0.325]","","",""
"sailing-trial","193","1019861","0.0-11.0-148.0","","","","false","","","","","","","","","","608.7000000476837","","66.60000002384186","","1","0","arrowleft","0","arrowright","[0.15,0.85,0.675,0.325]","","",""
"sailing-trial","194","1024405","0.0-11.0-149.0","","","","false","","","","","","","","","","null","","2534.5","","2","1","null","null","arrowup","[0.15,0.85,0.675,0.325]","","",""
"sailing-trial","195","1028144","0.0-11.0-150.0","","","","false","","","","","","","","","","529.1000000238419","","521","","3","0","arrowright","1","arrowright","[0.15,0.85,0.675,0.325]","","",""
"sailing-trial","196","1031262","0.0-11.0-151.0","","","","false","","","","","","","","","","null","","1138.1000000238419","","3","1","null","null","arrowup","[0.15,0.85,0.675,0.325]","","",""
"sailing-trial","197","1034785","0.0-11.0-152.0","","","","false","","","","","","","","","","845.5","","183","","0","0","arrowleft","0","arrowleft","[0.15,0.85,0.675,0.325]","","",""
"sailing-trial","198","1039163","0.0-11.0-153.0","","","","false","","","","","","","","","","null","","2125.699999988079","","1","1","null","null","arrowup","[0.15,0.85,0.675,0.325]","","",""
"sailing-trial","199","1043522","0.0-11.0-154.0","","","","false","","","","","","","","","","1176.8999999761581","","87.09999996423721","","1","1","arrowleft","0","arrowright","[0.15,0.85,0.675,0.325]","","",""
"sailing-trial","200","1046451","0.0-11.0-155.0","","","","false","","","","","","","","","","null","","982.8000000119209","","2","1","null","null","arrowup","[0.15,0.85,0.675,0.325]","","",""
"sailing-trial","201","1050332","0.0-11.0-156.0","","","","false","","","","","","","","","","600.1999999880791","","257.60000002384186","","1","1","arrowleft","0","arrowright","[0.15,0.85,0.675,0.325]","","",""
"sailing-trial","202","1053368","0.0-11.0-157.0","","","","false","","","","","","","","","","null","","1102.300000011921","","2","1","null","null","arrowup","[0.15,0.85,0.675,0.325]","","",""
"sailing-trial","203","1057473","0.0-11.0-158.0","","","","false","","","","","","","","","","583.2999999523163","","583.3999999761581","","1","1","arrowleft","0","arrowright","[0.15,0.85,0.675,0.325]","","",""
"sailing-trial","204","1060062","0.0-11.0-159.0","","","","false","","","","","","","","","","null","","888.3999999761581","","3","0","null","null","arrowup","[0.15,0.85,0.675,0.325]","","",""
"sailing-trial","205","1063942","0.0-11.0-160.0","","","","false","","","","","","","","","","735.8000000119209","","50.30000001192093","","2","1","arrowright","1","arrowleft","[0.15,0.85,0.675,0.325]","","",""
"sailing-trial","206","1066433","0.0-11.0-161.0","","","","false","","","","","","","","","","null","","983.8999999761581","","0","0","null","null","arrowup","[0.15,0.85,0.675,0.325]","","",""
"sailing-trial","207","1069976","0.0-11.0-162.0","","","","false","","","","","","","","","","842.7000000476837","","141.39999997615814","","0","0","arrowleft","0","arrowleft","[0.15,0.85,0.675,0.325]","","",""
"sailing-trial","208","1072551","0.0-11.0-163.0","","","","false","","","","","","","","","","null","","934.5","","3","0","null","null","arrowup","[0.15,0.85,0.675,0.325]","","",""
"sailing-trial","209","1075923","0.0-11.0-164.0","","","","false","","","","","","","","","","780.3000000119209","","127.19999998807907","","2","0","arrowright","1","arrowleft","[0.15,0.85,0.675,0.325]","","",""
"sailing-trial","210","1078728","0.0-11.0-165.0","","","","false","","","","","","","","","","null","","965.1000000238419","","3","1","null","null","arrowup","[0.15,0.85,0.675,0.325]","","",""
"sailing-trial","211","1082444","0.0-11.0-166.0","","","","false","","","","","","","","","","625","","37.39999997615814","","1","1","arrowleft","0","arrowright","[0.325,0.675,0.85,0.15]","","",""
"sailing-trial","212","1084748","0.0-11.0-167.0","","","","false","","","","","","","","","","null","","700.8999999761581","","3","0","null","null","arrowup","[0.325,0.675,0.85,0.15]","","",""
"sailing-trial","213","1088846","0.0-11.0-168.0","","","","false","","","","","","","","","","769.8999999761581","","380.60000002384186","","2","1","arrowright","1","arrowleft","[0.325,0.675,0.85,0.15]","","",""
"sailing-trial","214","1092460","0.0-11.0-169.0","","","","false","","","","","","","","","","null","","1109","","1","1","null","null","arrowup","[0.325,0.675,0.85,0.15]","","",""
"sailing-trial","215","1095456","0.0-11.0-170.0","","","","false","","","","","","","","","","516.0999999642372","","60.5","","0","0","arrowleft","0","arrowleft","[0.325,0.675,0.85,0.15]","","",""
"sailing-trial","216","1098057","0.0-11.0-171.0","","","","false","","","","","","","","","","null","","881.5","","2","0","null","null","arrowup","[0.325,0.675,0.85,0.15]","","",""
"sailing-trial","217","1102396","0.0-11.0-172.0","","","","false","","","","","","","","","","933.5","","158.30000001192093","","1","1","arrowleft","0","arrowright","[0.325,0.675,0.85,0.15]","","",""
"sailing-trial","218","1105237","0.0-11.0-173.0","","","","false","","","","","","","","","","null","","813.5999999642372","","3","0","null","null","arrowup","[0.325,0.675,0.85,0.15]","","",""
"sailing-trial","219","1109517","0.0-11.0-174.0","","","","false","","","","","","","","","","771.3000000119209","","463.19999998807907","","1","1","arrowleft","0","arrowright","[0.325,0.675,0.85,0.15]","","",""
"sailing-trial","220","1112416","0.0-11.0-175.0","","","","false","","","","","","","","","","null","","800.6000000238419","","2","1","null","null","arrowup","[0.325,0.675,0.85,0.15]","","",""
"sailing-trial","221","1116497","0.0-11.0-176.0","","","","false","","","","","","","","","","600.5","","458.39999997615814","","1","1","arrowleft","0","arrowright","[0.325,0.675,0.85,0.15]","","",""
"sailing-trial","222","1119414","0.0-11.0-177.0","","","","false","","","","","","","","","","null","","1040.7999999523163","","3","0","null","null","arrowup","[0.325,0.675,0.85,0.15]","","",""
"sailing-trial","223","1123074","0.0-11.0-178.0","","","","false","","","","","","","","","","554.1000000238419","","96.19999998807907","","1","1","arrowleft","0","arrowright","[0.325,0.675,0.85,0.15]","","",""
"sailing-trial","224","1125532","0.0-11.0-179.0","","","","false","","","","","","","","","","null","","845.8000000119209","","3","0","null","null","arrowup","[0.325,0.675,0.85,0.15]","","",""
"sailing-trial","225","1129260","0.0-11.0-180.0","","","","false","","","","","","","","","","709.4000000357628","","77.30000001192093","","1","1","arrowleft","0","arrowright","[0.325,0.675,0.85,0.15]","","",""
"sailing-trial","226","1132257","0.0-11.0-181.0","","","","false","","","","","","","","","","null","","802.2999999523163","","2","1","null","null","arrowup","[0.325,0.675,0.85,0.15]","","",""
"sailing-trial","227","1135607","0.0-11.0-182.0","","","","false","","","","","","","","","","710.3000000119209","","23.100000023841858","","1","0","arrowleft","0","arrowright","[0.85,0.15,0.325,0.675]","","",""
"sailing-trial","228","1138321","0.0-11.0-183.0","","","","false","","","","","","","","","","null","","857.8999999761581","","0","1","null","null","arrowup","[0.85,0.15,0.325,0.675]","","",""
"sailing-trial","229","1141172","0.0-11.0-184.0","","","","false","","","","","","","","","","413","","26.899999976158142","","1","0","arrowleft","0","arrowright","[0.85,0.15,0.325,0.675]","","",""
"sailing-trial","230","1144178","0.0-11.0-185.0","","","","false","","","","","","","","","","null","","935.5","","0","0","null","null","arrowup","[0.85,0.15,0.325,0.675]","","",""
"sailing-trial","231","1148137","0.0-11.0-186.0","","","","false","","","","","","","","","","573.1000000238419","","431","","2","1","arrowright","1","arrowleft","[0.85,0.15,0.325,0.675]","","",""
"sailing-trial","232","1150688","0.0-11.0-187.0","","","","false","","","","","","","","","","null","","812.1999999880791","","2","0","null","null","arrowup","[0.85,0.15,0.325,0.675]","","",""
"sailing-trial","233","1154338","0.0-11.0-188.0","","","","false","","","","","","","","","","615.1999999880791","","156.10000002384186","","3","1","arrowright","1","arrowright","[0.85,0.15,0.325,0.675]","","",""
"sailing-trial","234","1156736","0.0-11.0-189.0","","","","false","","","","","","","","","","null","","911","","2","0","null","null","arrowup","[0.85,0.15,0.325,0.675]","","",""
"sailing-trial","235","1160389","0.0-11.0-190.0","","","","false","","","","","","","","","","678.6999999880791","","99.5","","0","1","arrowleft","0","arrowleft","[0.85,0.15,0.325,0.675]","","",""
"sailing-trial","236","1164854","0.0-11.0-191.0","","","","false","","","","","","","","","","null","","2528.100000023842","","3","1","null","null","arrowup","[0.85,0.15,0.325,0.675]","","",""
"sailing-trial","237","1167980","0.0-11.0-192.0","","","","false","","","","","","","","","","729.8000000119209","","10.399999976158142","","1","0","arrowleft","0","arrowright","[0.85,0.15,0.325,0.675]","","",""
"sailing-trial","238","1171858","0.0-11.0-193.0","","","","false","","","","","","","","","","null","","879.5999999642372","","0","1","null","null","arrowup","[0.85,0.15,0.325,0.675]","","",""
"sailing-trial","239","1175891","0.0-11.0-194.0","","","","false","","","","","","","","","","591.8000000119209","","480.5999999642372","","3","1","arrowright","1","arrowright","[0.85,0.15,0.325,0.675]","","",""
"sailing-trial","240","1178946","0.0-11.0-195.0","","","","false","","","","","","","","","","null","","1167","","1","1","null","null","arrowup","[0.85,0.15,0.325,0.675]","","",""
"sailing-trial","241","1182572","0.0-11.0-196.0","","","","false","","","","","","","","","","1023.8999999761581","","60.19999998807907","","2","0","arrowright","1","arrowleft","[0.85,0.15,0.325,0.675]","","",""
"sailing-trial","242","1187799","0.0-11.0-197.0","","","","false","","","","","","","","","","null","","1860.5999999642372","","0","1","null","null","arrowup","[0.85,0.15,0.325,0.675]","","",""
"sailing-trial","243","1191204","0.0-11.0-198.0","","","","false","","","","","","","","","","536.6999999880791","","46.69999998807907","","1","1","arrowleft","0","arrowright","[0.675,0.325,0.15,0.85]","","",""
"sailing-trial","244","1193511","0.0-11.0-199.0","","","","false","","","","","","","","","","null","","924.8999999761581","","1","0","null","null","arrowup","[0.675,0.325,0.15,0.85]","","",""
"sailing-trial","245","1197510","0.0-11.0-200.0","","","","false","","","","","","","","","","570.7999999523163","","322.69999998807907","","0","1","arrowleft","0","arrowleft","[0.675,0.325,0.15,0.85]","","",""
"sailing-trial","246","1200566","0.0-11.0-201.0","","","","false","","","","","","","","","","null","","994","","2","1","null","null","arrowup","[0.675,0.325,0.15,0.85]","","",""
"sailing-trial","247","1204514","0.0-11.0-202.0","","","","false","","","","","","","","","","622.7000000476837","","374.19999998807907","","2","1","arrowright","1","arrowleft","[0.675,0.325,0.15,0.85]","","",""
"sailing-trial","248","1206912","0.0-11.0-203.0","","","","false","","","","","","","","","","null","","859.5","","1","0","null","null","arrowup","[0.675,0.325,0.15,0.85]","","",""
"sailing-trial","249","1210687","0.0-11.0-204.0","","","","false","","","","","","","","","","591.4000000357628","","327.69999998807907","","3","1","arrowright","1","arrowright","[0.675,0.325,0.15,0.85]","","",""
"sailing-trial","250","1213960","0.0-11.0-205.0","","","","false","","","","","","","","","","null","","1464.6000000238419","","0","0","null","null","arrowup","[0.675,0.325,0.15,0.85]","","",""
"sailing-trial","251","1217410","0.0-11.0-206.0","","","","false","","","","","","","","","","533.3000000119209","","63.40000003576279","","3","1","arrowright","1","arrowright","[0.675,0.325,0.15,0.85]","","",""
"sailing-trial","252","1220508","0.0-11.0-207.0","","","","false","","","","","","","","","","null","","1207.1000000238419","","3","1","null","null","arrowup","[0.675,0.325,0.15,0.85]","","",""
"sailing-trial","253","1224470","0.0-11.0-208.0","","","","false","","","","","","","","","","558.5","","445.80000001192093","","3","1","arrowright","1","arrowright","[0.675,0.325,0.15,0.85]","","",""
"sailing-trial","254","1227009","0.0-11.0-209.0","","","","false","","","","","","","","","","null","","1010.5999999642372","","1","0","null","null","arrowup","[0.675,0.325,0.15,0.85]","","",""
"sailing-trial","255","1231113","0.0-11.0-210.0","","","","false","","","","","","","","","","738.6000000238419","","335.5","","3","1","arrowright","1","arrowright","[0.675,0.325,0.15,0.85]","","",""
"sailing-trial","256","1233547","0.0-11.0-211.0","","","","false","","","","","","","","","","null","","946.1000000238419","","3","0","null","null","arrowup","[0.675,0.325,0.15,0.85]","","",""
"sailing-trial","257","1236907","0.0-11.0-212.0","","","","false","","","","","","","","","","699.8999999761581","","89","","2","0","arrowright","1","arrowleft","[0.675,0.325,0.15,0.85]","","",""
"sailing-trial","258","1239652","0.0-11.0-213.0","","","","false","","","","","","","","","","null","","918.5","","1","1","null","null","arrowup","[0.675,0.325,0.15,0.85]","","",""
"sailing-trial","259","1244320","0.0-11.0-214.0","","","","false","","","","","","","","","","482.0999999642372","","172","","3","1","arrowright","1","arrowright","[0.675,0.325,0.15,0.85]","","",""
"sailing-trial","260","1246974","0.0-11.0-215.0","","","","false","","","","","","","","","","null","","1025.1000000238419","","3","0","null","null","arrowup","[0.675,0.325,0.15,0.85]","","",""
"sailing-trial","261","1250943","0.0-11.0-216.0","","","","false","","","","","","","","","","1446.3999999761581","","36.5","","3","0","arrowright","1","arrowright","[0.15,0.85,0.675,0.325]","","",""
"sailing-trial","262","1255047","0.0-11.0-217.0","","","","false","","","","","","","","","","null","","2110.800000011921","","1","1","null","null","arrowup","[0.15,0.85,0.675,0.325]","","",""
"sailing-trial","263","1258825","0.0-11.0-218.0","","","","false","","","","","","","","","","791.8999999761581","","5.400000035762787","","2","1","arrowright","1","arrowleft","[0.15,0.85,0.675,0.325]","","",""
"sailing-trial","264","1262747","0.0-11.0-219.0","","","","false","","","","","","","","","","null","","2029.5999999642372","","1","1","null","null","arrowup","[0.15,0.85,0.675,0.325]","","",""
"sailing-trial","265","1267003","0.0-11.0-220.0","","","","false","","","","","","","","","","1540.800000011921","","1.5","","3","0","arrowright","1","arrowright","[0.15,0.85,0.675,0.325]","","",""
"sailing-trial","266","1269129","0.0-11.0-221.0","","","","false","","","","","","","","","","null","","859.3999999761581","","3","0","null","null","arrowup","[0.15,0.85,0.675,0.325]","","",""
"sailing-trial","267","1273455","0.0-11.0-222.0","","","","false","","","","","","","","","","878.7999999523163","","324","","2","1","arrowright","1","arrowleft","[0.15,0.85,0.675,0.325]","","",""
"sailing-trial","268","1276112","0.0-11.0-223.0","","","","false","","","","","","","","","","null","","979.8000000119209","","0","0","null","null","arrowup","[0.15,0.85,0.675,0.325]","","",""
"sailing-trial","269","1280081","0.0-11.0-224.0","","","","false","","","","","","","","","","833.6999999880791","","77.19999998807907","","1","1","arrowleft","0","arrowright","[0.15,0.85,0.675,0.325]","","",""
"sailing-trial","270","1283249","0.0-11.0-225.0","","","","false","","","","","","","","","","null","","1056.5","","0","0","null","null","arrowup","[0.15,0.85,0.675,0.325]","","",""
"sailing-trial","271","1286636","0.0-11.0-226.0","","","","false","","","","","","","","","","722.1000000238419","","294.69999998807907","","1","0","arrowleft","0","arrowright","[0.15,0.85,0.675,0.325]","","",""
"sailing-trial","272","1289034","0.0-11.0-227.0","","","","false","","","","","","","","","","null","","817","","0","0","null","null","arrowup","[0.15,0.85,0.675,0.325]","","",""
"sailing-trial","273","1292555","0.0-11.0-228.0","","","","false","","","","","","","","","","884.8000000119209","","319.30000001192093","","1","0","arrowleft","0","arrowright","[0.15,0.85,0.675,0.325]","","",""
"sailing-trial","274","1295760","0.0-11.0-229.0","","","","false","","","","","","","","","","null","","1180.699999988079","","1","1","null","null","arrowup","[0.15,0.85,0.675,0.325]","","",""
"sailing-trial","275","1299489","0.0-11.0-230.0","","","","false","","","","","","","","","","499","","422.10000002384186","","2","1","arrowright","1","arrowleft","[0.15,0.85,0.675,0.325]","","",""
"sailing-trial","276","1301629","0.0-11.0-231.0","","","","false","","","","","","","","","","null","","832.3999999761581","","2","0","null","null","arrowup","[0.15,0.85,0.675,0.325]","","",""
"sailing-trial","277","1305629","0.0-11.0-232.0","","","","false","","","","","","","","","","535.2000000476837","","584.1999999880791","","3","1","arrowright","1","arrowright","[0.15,0.85,0.675,0.325]","","",""
"sailing-trial","278","1308006","0.0-11.0-233.0","","","","false","","","","","","","","","","null","","927.5","","3","0","null","null","arrowup","[0.15,0.85,0.675,0.325]","","",""
"sailing-trial","279","1312752","0.0-11.0-234.0","","","","false","","","","","","","","","","825.8000000119209","","884.0999999642372","","2","1","arrowright","1","arrowleft","[0.15,0.85,0.675,0.325]","","",""
"sailing-trial","280","1317203","0.0-11.0-235.0","","","","false","","","","","","","","","","null","","1952.4000000357628","","1","1","null","null","arrowup","[0.15,0.85,0.675,0.325]","","",""
"sailing-trial","281","1321857","0.0-11.0-236.0","","","","false","","","","","","","","","","966","","595.3000000119209","","3","1","arrowright","1","arrowright","[0.15,0.85,0.675,0.325]","","",""
"sailing-trial","282","1325317","0.0-11.0-237.0","","","","false","","","","","","","","","","null","","1310.5999999642372","","2","1","null","null","arrowup","[0.15,0.85,0.675,0.325]","","",""
"sailing-trial","283","1328517","0.0-11.0-238.0","","","","false","","","","","","","","","","764.7000000476837","","20.899999976158142","","3","0","arrowright","1","arrowright","[0.325,0.675,0.85,0.15]","","",""
"sailing-trial","284","1331034","0.0-11.0-239.0","","","","false","","","","","","","","","","null","","798.5","","0","0","null","null","arrowup","[0.325,0.675,0.85,0.15]","","",""
"sailing-trial","285","1335199","0.0-11.0-240.0","","","","false","","","","","","","","","","883.7000000476837","","432.7999999523163","","1","1","arrowleft","0","arrowright","[0.325,0.675,0.85,0.15]","","",""
"sailing-trial","286","1338286","0.0-11.0-241.0","","","","false","","","","","","","","","","null","","1262","","2","1","null","null","arrowup","[0.325,0.675,0.85,0.15]","","",""
"sailing-trial","287","1341632","0.0-11.0-242.0","","","","false","","","","","","","","","","523.7999999523163","","391.5","","3","0","arrowright","1","arrowright","[0.325,0.675,0.85,0.15]","","",""
"sailing-trial","288","1344099","0.0-11.0-243.0","","","","false","","","","","","","","","","null","","1053.8999999761581","","0","0","null","null","arrowup","[0.325,0.675,0.85,0.15]","","",""
"sailing-trial","289","1347668","0.0-11.0-244.0","","","","false","","","","","","","","","","651.1000000238419","","127.30000001192093","","1","1","arrowleft","0","arrowright","[0.325,0.675,0.85,0.15]","","",""
"sailing-trial","290","1350432","0.0-11.0-245.0","","","","false","","","","","","","","","","null","","857.6999999880791","","2","1","null","null","arrowup","[0.325,0.675,0.85,0.15]","","",""
"sailing-trial","291","1354273","0.0-11.0-246.0","","","","false","","","","","","","","","","769.1999999880791","","93.89999997615814","","1","1","arrowleft","0","arrowright","[0.325,0.675,0.85,0.15]","","",""
"sailing-trial","292","1356531","0.0-11.0-247.0","","","","false","","","","","","","","","","null","","836.5","","2","0","null","null","arrowup","[0.325,0.675,0.85,0.15]","","",""
"sailing-trial","293","1361264","0.0-11.0-248.0","","","","false","","","","","","","","","","1714.800000011921","","90.10000002384186","","1","1","arrowleft","0","arrowright","[0.325,0.675,0.85,0.15]","","",""
"sailing-trial","294","1363858","0.0-11.0-249.0","","","","false","","","","","","","","","","null","","973.9000000357628","","2","0","null","null","arrowup","[0.325,0.675,0.85,0.15]","","",""
"sailing-trial","295","1367839","0.0-11.0-250.0","","","","false","","","","","","","","","","772.3000000119209","","261.89999997615814","","2","1","arrowright","1","arrowleft","[0.325,0.675,0.85,0.15]","","",""
"sailing-trial","296","1370331","0.0-11.0-251.0","","","","false","","","","","","","","","","null","","905.6000000238419","","1","0","null","null","arrowup","[0.325,0.675,0.85,0.15]","","",""
"sailing-trial","297","1374275","0.0-11.0-252.0","","","","false","","","","","","","","","","1001.6000000238419","","126","","3","0","arrowright","1","arrowright","[0.325,0.675,0.85,0.15]","","",""
"sailing-trial","298","1376899","0.0-11.0-253.0","","","","false","","","","","","","","","","null","","869.1000000238419","","0","0","null","null","arrowup","[0.325,0.675,0.85,0.15]","","",""
"sailing-trial","299","1381768","0.0-11.0-254.0","","","","false","","","","","","","","","","1205.2000000476837","","454.30000001192093","","0","0","arrowleft","0","arrowleft","[0.325,0.675,0.85,0.15]","","",""
"sailing-trial","300","1384859","0.0-11.0-255.0","","","","false","","","","","","","","","","null","","945.1000000238419","","2","1","null","null","arrowup","[0.325,0.675,0.85,0.15]","","",""
"sailing-trial","301","1390478","0.0-11.0-256.0","","","","false","","","","","","","","","","1523.800000011921","","8","","1","1","arrowleft","0","arrowright","[0.15,0.85,0.675,0.325]","","",""
"sailing-trial","302","1393770","0.0-11.0-257.0","","","","false","","","","","","","","","","null","","946.2999999523163","","2","1","null","null","arrowup","[0.15,0.85,0.675,0.325]","","",""
"sailing-trial","303","1396836","0.0-11.0-258.0","","","","false","","","","","","","","","","545.5999999642372","","130.4000000357628","","2","0","arrowright","1","arrowleft","[0.15,0.85,0.675,0.325]","","",""
"sailing-trial","304","1399365","0.0-11.0-259.0","","","","false","","","","","","","","","","null","","1156.1000000238419","","3","0","null","null","arrowup","[0.15,0.85,0.675,0.325]","","",""
"sailing-trial","305","1403160","0.0-11.0-260.0","","","","false","","","","","","","","","","824.3999999761581","","451.80000001192093","","0","0","arrowleft","0","arrowleft","[0.15,0.85,0.675,0.325]","","",""
"sailing-trial","306","1406532","0.0-11.0-261.0","","","","false","","","","","","","","","","null","","955.3999999761581","","1","1","null","null","arrowup","[0.15,0.85,0.675,0.325]","","",""
"sailing-trial","307","1409799","0.0-11.0-262.0","","","","false","","","","","","","","","","763.8999999761581","","34.200000047683716","","3","0","arrowright","1","arrowright","[0.15,0.85,0.675,0.325]","","",""
"sailing-trial","308","1413246","0.0-11.0-263.0","","","","false","","","","","","","","","","null","","916","","2","1","null","null","arrowup","[0.15,0.85,0.675,0.325]","","",""
"sailing-trial","309","1416909","0.0-11.0-264.0","","","","false","","","","","","","","","","546","","221.5","","2","1","arrowright","1","arrowleft","[0.15,0.85,0.675,0.325]","","",""
"sailing-trial","310","1419893","0.0-11.0-265.0","","","","false","","","","","","","","","","null","","906.3999999761581","","1","1","null","null","arrowup","[0.15,0.85,0.675,0.325]","","",""
"sailing-trial","311","1423771","0.0-11.0-266.0","","","","false","","","","","","","","","","495.19999998807907","","442.10000002384186","","2","1","arrowright","1","arrowleft","[0.15,0.85,0.675,0.325]","","",""
"sailing-trial","312","1426504","0.0-11.0-267.0","","","","false","","","","","","","","","","null","","1375.300000011921","","0","0","null","null","arrowup","[0.15,0.85,0.675,0.325]","","",""
"sailing-trial","313","1430055","0.0-11.0-268.0","","","","false","","","","","","","","","","669.7999999523163","","15.300000011920929","","1","1","arrowleft","0","arrowright","[0.15,0.85,0.675,0.325]","","",""
"sailing-trial","314","1433089","0.0-11.0-269.0","","","","false","","","","","","","","","","null","","1041.9000000357628","","2","1","null","null","arrowup","[0.15,0.85,0.675,0.325]","","",""
"sailing-trial","315","1436872","0.0-11.0-270.0","","","","false","","","","","","","","","","603.5","","319.10000002384186","","2","1","arrowright","1","arrowleft","[0.15,0.85,0.675,0.325]","","",""
"sailing-trial","316","1439305","0.0-11.0-271.0","","","","false","","","","","","","","","","null","","989.8999999761581","","0","0","null","null","arrowup","[0.15,0.85,0.675,0.325]","","",""
"sailing-trial","317","1442910","0.0-11.0-272.0","","","","false","","","","","","","","","","576.3000000119209","","414.9000000357628","","1","0","arrowleft","0","arrowright","[0.85,0.15,0.325,0.675]","","",""
"sailing-trial","318","1445340","0.0-11.0-273.0","","","","false","","","","","","","","","","null","","1079.7000000476837","","1","0","null","null","arrowup","[0.85,0.15,0.325,0.675]","","",""
"sailing-trial","319","1449470","0.0-11.0-274.0","","","","false","","","","","","","","","","636.1000000238419","","352.9000000357628","","2","0","arrowright","1","arrowleft","[0.85,0.15,0.325,0.675]","","",""
"sailing-trial","320","1452684","0.0-11.0-275.0","","","","false","","","","","","","","","","null","","1231.800000011921","","3","1","null","null","arrowup","[0.85,0.15,0.325,0.675]","","",""
"sailing-trial","321","1458280","0.0-11.0-276.0","","","","false","","","","","","","","","","973.5","","1710.199999988079","","0","1","arrowleft","0","arrowleft","[0.85,0.15,0.325,0.675]","","",""
"sailing-trial","322","1460628","0.0-11.0-277.0","","","","false","","","","","","","","","","null","","964.5","","1","0","null","null","arrowup","[0.85,0.15,0.325,0.675]","","",""
"sailing-trial","323","1464679","0.0-11.0-278.0","","","","false","","","","","","","","","","631.6000000238419","","477.5","","3","1","arrowright","1","arrowright","[0.85,0.15,0.325,0.675]","","",""
"sailing-trial","324","1467378","0.0-11.0-279.0","","","","false","","","","","","","","","","null","","888.3999999761581","","1","0","null","null","arrowup","[0.85,0.15,0.325,0.675]","","",""
"sailing-trial","325","1470751","0.0-11.0-280.0","","","","false","","","","","","","","","","660.3999999761581","","89.60000002384186","","2","0","arrowright","1","arrowleft","[0.85,0.15,0.325,0.675]","","",""
"sailing-trial","326","1473554","0.0-11.0-281.0","","","","false","","","","","","","","","","null","","1148.2999999523163","","2","0","null","null","arrowup","[0.85,0.15,0.325,0.675]","","",""
"sailing-trial","327","1477217","0.0-11.0-282.0","","","","false","","","","","","","","","","718.3000000119209","","456.9000000357628","","3","0","arrowright","1","arrowright","[0.85,0.15,0.325,0.675]","","",""
"sailing-trial","328","1479565","0.0-11.0-283.0","","","","false","","","","","","","","","","null","","1058.5","","2","0","null","null","arrowup","[0.85,0.15,0.325,0.675]","","",""
"sailing-trial","329","1483558","0.0-11.0-284.0","","","","false","","","","","","","","","","459","","494.0999999642372","","0","1","arrowleft","0","arrowleft","[0.85,0.15,0.325,0.675]","","",""
"sailing-trial","330","1485845","0.0-11.0-285.0","","","","false","","","","","","","","","","null","","776.1999999880791","","1","0","null","null","arrowup","[0.85,0.15,0.325,0.675]","","",""
"sailing-trial","331","1489711","0.0-11.0-286.0","","","","false","","","","","","","","","","1078.0999999642372","","278.89999997615814","","1","0","arrowleft","0","arrowright","[0.85,0.15,0.325,0.675]","","",""
"sailing-trial","332","1492323","0.0-11.0-287.0","","","","false","","","","","","","","","","null","","1017.6999999880791","","0","0","null","null","arrowup","[0.85,0.15,0.325,0.675]","","",""
"sailing-trial","333","1496125","0.0-11.0-288.0","","","","false","","","","","","","","","","700","","605.3999999761581","","3","0","arrowright","1","arrowright","[0.85,0.15,0.325,0.675]","","",""
"sailing-trial","334","1499040","0.0-11.0-289.0","","","","false","","","","","","","","","","null","","915.6999999880791","","2","0","null","null","arrowup","[0.85,0.15,0.325,0.675]","","",""
"sailing-trial","335","1502985","0.0-11.0-290.0","","","","false","","","","","","","","","","1070.2000000476837","","380","","2","0","arrowright","1","arrowleft","[0.85,0.15,0.325,0.675]","","",""
"sailing-trial","336","1505899","0.0-11.0-291.0","","","","false","","","","","","","","","","null","","1534.2000000476837","","2","0","null","null","arrowup","[0.85,0.15,0.325,0.675]","","",""
"sailing-trial","337","1509393","0.0-11.0-292.0","","","","false","","","","","","","","","","1078.199999988079","","46.40000003576279","","1","0","arrowleft","0","arrowright","[0.675,0.325,0.15,0.85]","","",""
"sailing-trial","338","1512197","0.0-11.0-293.0","","","","false","","","","","","","","","","null","","968.6999999880791","","3","1","null","null","arrowup","[0.675,0.325,0.15,0.85]","","",""
"sailing-trial","339","1515636","0.0-11.0-294.0","","","","false","","","","","","","","","","655.8999999761581","","360.80000001192093","","0","0","arrowleft","0","arrowleft","[0.675,0.325,0.15,0.85]","","",""
"sailing-trial","340","1520838","0.0-11.0-295.0","","","","false","","","","","","","","","","null","","3316.099999964237","","0","1","null","null","arrowup","[0.675,0.325,0.15,0.85]","","",""
"sailing-trial","341","1524595","0.0-11.0-296.0","","","","false","","","","","","","","","","546.1000000238419","","214.19999998807907","","3","1","arrowright","1","arrowright","[0.675,0.325,0.15,0.85]","","",""
"sailing-trial","342","1527170","0.0-11.0-297.0","","","","false","","","","","","","","","","null","","1172.699999988079","","3","0","null","null","arrowup","[0.675,0.325,0.15,0.85]","","",""
"sailing-trial","343","1531511","0.0-11.0-298.0","","","","false","","","","","","","","","","1630.9000000357628","","303.89999997615814","","2","0","arrowright","1","arrowleft","[0.675,0.325,0.15,0.85]","","",""
"sailing-trial","344","1533844","0.0-11.0-299.0","","","","false","","","","","","","","","","null","","865.5999999642372","","2","0","null","null","arrowup","[0.675,0.325,0.15,0.85]","","",""
"sailing-trial","345","1537946","0.0-11.0-300.0","","","","false","","","","","","","","","","787","","4.699999988079071","","1","1","arrowleft","0","arrowright","[0.675,0.325,0.15,0.85]","","",""
"sailing-trial","346","1540959","0.0-11.0-301.0","","","","false","","","","","","","","","","null","","919.5","","3","1","null","null","arrowup","[0.675,0.325,0.15,0.85]","","",""
"sailing-trial","347","1547052","0.0-11.0-302.0","","","","false","","","","","","","","","","1064.9000000357628","","1015.5999999642372","","3","0","arrowright","1","arrowright","[0.675,0.325,0.15,0.85]","","",""
"sailing-trial","348","1549937","0.0-11.0-303.0","","","","false","","","","","","","","","","null","","918.8999999761581","","0","1","null","null","arrowup","[0.675,0.325,0.15,0.85]","","",""
"sailing-trial","349","1553776","0.0-11.0-304.0","","","","false","","","","","","","","","","1004","","194.19999998807907","","2","0","arrowright","1","arrowleft","[0.675,0.325,0.15,0.85]","","",""
"sailing-trial","350","1556946","0.0-11.0-305.0","","","","false","","","","","","","","","","null","","848.6000000238419","","3","1","null","null","arrowup","[0.675,0.325,0.15,0.85]","","",""
"sailing-trial","351","1561688","0.0-11.0-306.0","","","","false","","","","","","","","","","1252.300000011921","","509.19999998807907","","3","1","arrowright","1","arrowright","[0.675,0.325,0.15,0.85]","","",""
"sailing-trial","352","1566275","0.0-11.0-307.0","","","","false","","","","","","","","","","null","","1578.800000011921","","0","1","null","null","arrowup","[0.675,0.325,0.15,0.85]","","",""
"sailing-trial","353","1571022","0.0-11.0-308.0","","","","false","","","","","","","","","","1056.9000000357628","","465.39999997615814","","0","1","arrowleft","0","arrowleft","[0.675,0.325,0.15,0.85]","","",""
"sailing-trial","354","1575374","0.0-11.0-309.0","","","","false","","","","","","","","","","null","","1119.199999988079","","1","1","null","null","arrowup","[0.675,0.325,0.15,0.85]","","",""
"sailing-trial","355","1578914","0.0-11.0-310.0","","","","false","","","","","","","","","","647.8999999761581","","13.600000023841858","","0","0","arrowleft","0","arrowleft","[0.85,0.15,0.325,0.675]","","",""
"sailing-trial","356","1582849","0.0-11.0-311.0","","","","false","","","","","","","","","","null","","2438.899999976158","","3","0","null","null","arrowup","[0.85,0.15,0.325,0.675]","","",""
"sailing-trial","357","1587597","0.0-11.0-312.0","","","","false","","","","","","","","","","989.5","","519.3000000119209","","3","1","arrowright","1","arrowright","[0.85,0.15,0.325,0.675]","","",""
"sailing-trial","358","1592560","0.0-11.0-313.0","","","","false","","","","","","","","","","null","","2672","","2","1","null","null","arrowup","[0.85,0.15,0.325,0.675]","","",""
"sailing-trial","359","1600281","0.0-11.0-314.0","","","","false","","","","","","","","","","2248.5","","1652.6000000238419","","1","0","arrowleft","0","arrowright","[0.85,0.15,0.325,0.675]","","",""
"sailing-trial","360","1604121","0.0-11.0-315.0","","","","false","","","","","","","","","","null","","1701.800000011921","","2","1","null","null","arrowup","[0.85,0.15,0.325,0.675]","","",""
"sailing-trial","361","1608472","0.0-11.0-316.0","","","","false","","","","","","","","","","702.4000000357628","","667.8000000119209","","3","1","arrowright","1","arrowright","[0.85,0.15,0.325,0.675]","","",""
"sailing-trial","362","1611453","0.0-11.0-317.0","","","","false","","","","","","","","","","null","","1480.6000000238419","","1","0","null","null","arrowup","[0.85,0.15,0.325,0.675]","","",""
"sailing-trial","363","1615903","0.0-11.0-318.0","","","","false","","","","","","","","","","1192.1000000238419","","807.1000000238419","","3","0","arrowright","1","arrowright","[0.85,0.15,0.325,0.675]","","",""
"sailing-trial","364","1618426","0.0-11.0-319.0","","","","false","","","","","","","","","","null","","979.5","","1","0","null","null","arrowup","[0.85,0.15,0.325,0.675]","","",""
"sailing-trial","365","1622697","0.0-11.0-320.0","","","","false","","","","","","","","","","912","","932.3999999761581","","0","0","arrowleft","0","arrowleft","[0.85,0.15,0.325,0.675]","","",""
"sailing-trial","366","1626386","0.0-11.0-321.0","","","","false","","","","","","","","","","null","","1762.699999988079","","2","0","null","null","arrowup","[0.85,0.15,0.325,0.675]","","",""
"sailing-trial","367","1630753","0.0-11.0-322.0","","","","false","","","","","","","","","","780.8999999761581","","468.60000002384186","","3","1","arrowright","1","arrowright","[0.85,0.15,0.325,0.675]","","",""
"sailing-trial","368","1633756","0.0-11.0-323.0","","","","false","","","","","","","","","","null","","989.9000000357628","","3","1","null","null","arrowup","[0.85,0.15,0.325,0.675]","","",""
"sailing-trial","369","1637147","0.0-11.0-324.0","","","","false","","","","","","","","","","716.3000000119209","","285.2999999523163","","1","0","arrowleft","0","arrowright","[0.85,0.15,0.325,0.675]","","",""
"sailing-trial","370","1640569","0.0-11.0-325.0","","","","false","","","","","","","","","","null","","1286.8999999761581","","3","1","null","null","arrowup","[0.85,0.15,0.325,0.675]","","",""
"sailing-trial","371","1644516","0.0-11.0-326.0","","","","false","","","","","","","","","","897.3000000119209","","477.19999998807907","","2","0","arrowright","1","arrowleft","[0.675,0.325,0.15,0.85]","","",""
"sailing-trial","372","1647383","0.0-11.0-327.0","","","","false","","","","","","","","","","null","","1256.5","","1","0","null","null","arrowup","[0.675,0.325,0.15,0.85]","","",""
"sailing-trial","373","1651577","0.0-11.0-328.0","","","","false","","","","","","","","","","701.5","","390.80000001192093","","3","1","arrowright","1","arrowright","[0.675,0.325,0.15,0.85]","","",""
"sailing-trial","374","1655181","0.0-11.0-329.0","","","","false","","","","","","","","","","null","","1441.0999999642372","","0","1","null","null","arrowup","[0.675,0.325,0.15,0.85]","","",""
"sailing-trial","375","1659994","0.0-11.0-330.0","","","","false","","","","","","","","","","757.1999999880791","","868.5","","3","1","arrowright","1","arrowright","[0.675,0.325,0.15,0.85]","","",""
"sailing-trial","376","1662515","0.0-11.0-331.0","","","","false","","","","","","","","","","null","","854.5","","2","0","null","null","arrowup","[0.675,0.325,0.15,0.85]","","",""
"sailing-trial","377","1666329","0.0-11.0-332.0","","","","false","","","","","","","","","","776.1999999880791","","183.89999997615814","","0","1","arrowleft","0","arrowleft","[0.675,0.325,0.15,0.85]","","",""
"sailing-trial","378","1668995","0.0-11.0-333.0","","","","false","","","","","","","","","","null","","808","","3","1","null","null","arrowup","[0.675,0.325,0.15,0.85]","","",""
"sailing-trial","379","1672036","0.0-11.0-334.0","","","","false","","","","","","","","","","495.80000001192093","","98.30000001192093","","0","0","arrowleft","0","arrowleft","[0.675,0.325,0.15,0.85]","","",""
"sailing-trial","380","1675163","0.0-11.0-335.0","","","","false","","","","","","","","","","null","","1407.2999999523163","","1","0","null","null","arrowup","[0.675,0.325,0.15,0.85]","","",""
"sailing-trial","381","1679124","0.0-11.0-336.0","","","","false","","","","","","","","","","560.6000000238419","","476.4000000357628","","3","1","arrowright","1","arrowright","[0.675,0.325,0.15,0.85]","","",""
"sailing-trial","382","1683358","0.0-11.0-337.0","","","","false","","","","","","","","","","null","","1433.0999999642372","","0","1","null","null","arrowup","[0.675,0.325,0.15,0.85]","","",""
"sailing-trial","383","1687161","0.0-11.0-338.0","","","","false","","","","","","","","","","667.8000000119209","","225.89999997615814","","3","1","arrowright","1","arrowright","[0.675,0.325,0.15,0.85]","","",""
"sailing-trial","384","1690918","0.0-11.0-339.0","","","","false","","","","","","","","","","null","","1816.5","","0","1","null","null","arrowup","[0.675,0.325,0.15,0.85]","","",""
"sailing-trial","385","1694865","0.0-11.0-340.0","","","","false","","","","","","","","","","970.3999999761581","","3.699999988079071","","3","1","arrowright","1","arrowright","[0.675,0.325,0.15,0.85]","","",""
"sailing-trial","386","1697429","0.0-11.0-341.0","","","","false","","","","","","","","","","null","","938.1000000238419","","1","0","null","null","arrowup","[0.675,0.325,0.15,0.85]","","",""
"sailing-trial","387","1702527","0.0-11.0-342.0","","","","false","","","","","","","","","","754.5","","1866.6000000238419","","1","0","arrowleft","0","arrowright","[0.85,0.15,0.325,0.675]","","",""
"sailing-trial","388","1705493","0.0-11.0-343.0","","","","false","","","","","","","","","","null","","1382.5","","0","0","null","null","arrowup","[0.85,0.15,0.325,0.675]","","",""
"sailing-trial","389","1710336","0.0-11.0-344.0","","","","false","","","","","","","","","","614","","177.30000001192093","","3","0","arrowright","1","arrowright","[0.85,0.15,0.325,0.675]","","",""
"sailing-trial","390","1718079","0.0-11.0-345.0","","","","false","","","","","","","","","","null","","5454.699999988079","","3","1","null","null","arrowup","[0.85,0.15,0.325,0.675]","","",""
"sailing-trial","391","1722413","0.0-11.0-346.0","","","","false","","","","","","","","","","733.3000000119209","","134.69999998807907","","3","1","arrowright","1","arrowright","[0.85,0.15,0.325,0.675]","","",""
"sailing-trial","392","1725674","0.0-11.0-347.0","","","","false","","","","","","","","","","null","","1702","","1","0","null","null","arrowup","[0.85,0.15,0.325,0.675]","","",""
"sailing-trial","393","1729789","0.0-11.0-348.0","","","","false","","","","","","","","","","778.3000000119209","","434.7999999523163","","0","1","arrowleft","0","arrowleft","[0.85,0.15,0.325,0.675]","","",""
"sailing-trial","394","1732312","0.0-11.0-349.0","","","","false","","","","","","","","","","null","","1087.3999999761581","","2","0","null","null","arrowup","[0.85,0.15,0.325,0.675]","","",""
"sailing-trial","395","1736494","0.0-11.0-350.0","","","","false","","","","","","","","","","564","","584.8999999761581","","3","1","arrowright","1","arrowright","[0.85,0.15,0.325,0.675]","","",""
"sailing-trial","396","1740025","0.0-11.0-351.0","","","","false","","","","","","","","","","null","","1078.3999999761581","","0","1","null","null","arrowup","[0.85,0.15,0.325,0.675]","","",""
"sailing-trial","397","1744629","0.0-11.0-352.0","","","","false","","","","","","","","","","767.7000000476837","","65.89999997615814","","3","1","arrowright","1","arrowright","[0.85,0.15,0.325,0.675]","","",""
"sailing-trial","398","1748256","0.0-11.0-353.0","","","","false","","","","","","","","","","null","","1266.199999988079","","0","1","null","null","arrowup","[0.85,0.15,0.325,0.675]","","",""
"sailing-trial","399","1752667","0.0-11.0-354.0","","","","false","","","","","","","","","","922.6000000238419","","650.0999999642372","","0","1","arrowleft","0","arrowleft","[0.85,0.15,0.325,0.675]","","",""
"sailing-trial","400","1756237","0.0-11.0-355.0","","","","false","","","","","","","","","","null","","1368","","0","1","null","null","arrowup","[0.85,0.15,0.325,0.675]","","",""
"sailing-trial","401","1760704","0.0-11.0-356.0","","","","false","","","","","","","","","","1013.1000000238419","","543.8000000119209","","3","1","arrowright","1","arrowright","[0.85,0.15,0.325,0.675]","","",""
"sailing-trial","402","1763465","0.0-11.0-357.0","","","","false","","","","","","","","","","null","","1181.8999999761581","","1","0","null","null","arrowup","[0.85,0.15,0.325,0.675]","","",""
"sailing-trial","403","1770205","0.0-11.0-358.0","","","","false","","","","","","","","","","778.3999999761581","","682.1999999880791","","0","1","arrowleft","0","arrowleft","[0.85,0.15,0.325,0.675]","","",""
"sailing-trial","404","1774481","0.0-11.0-359.0","","","","false","","","","","","","","","","null","","2412.7999999523163","","1","0","null","null","arrowup","[0.85,0.15,0.325,0.675]","","",""
"sailing-trial","405","1780085","0.0-11.0-360.0","","","","false","","","","","","","","","","1923.7999999523163","","452.9000000357628","","1","0","arrowleft","0","arrowright","[0.675,0.325,0.15,0.85]","","",""
"sailing-trial","406","1783725","0.0-11.0-361.0","","","","false","","","","","","","","","","null","","1229.3999999761581","","3","1","null","null","arrowup","[0.675,0.325,0.15,0.85]","","",""
"sailing-trial","407","1791345","0.0-11.0-362.0","","","","false","","","","","","","","","","3540.699999988079","","375.39999997615814","","2","0","arrowright","1","arrowleft","[0.675,0.325,0.15,0.85]","","",""
"sailing-trial","408","1795950","0.0-11.0-363.0","","","","false","","","","","","","","","","null","","2034.6000000238419","","0","1","null","null","arrowup","[0.675,0.325,0.15,0.85]","","",""
"sailing-trial","409","1800751","0.0-11.0-364.0","","","","false","","","","","","","","","","1095.5","","592.0999999642372","","1","0","arrowleft","0","arrowright","[0.675,0.325,0.15,0.85]","","",""
"sailing-trial","410","1804305","0.0-11.0-365.0","","","","false","","","","","","","","","","null","","2181","","1","0","null","null","arrowup","[0.675,0.325,0.15,0.85]","","",""
"sailing-trial","411","1810190","0.0-11.0-366.0","","","","false","","","","","","","","","","1069.7000000476837","","762.2999999523163","","1","0","arrowleft","0","arrowright","[0.675,0.325,0.15,0.85]","","",""
"sailing-trial","412","1814328","0.0-11.0-367.0","","","","false","","","","","","","","","","null","","1121.6000000238419","","1","0","null","null","arrowup","[0.675,0.325,0.15,0.85]","","",""
"sailing-trial","413","1820099","0.0-11.0-368.0","","","","false","","","","","","","","","","1260.5999999642372","","469.89999997615814","","2","0","arrowright","1","arrowleft","[0.675,0.325,0.15,0.85]","","",""
"sailing-trial","414","1824361","0.0-11.0-369.0","","","","false","","","","","","","","","","null","","1596.800000011921","","0","1","null","null","arrowup","[0.675,0.325,0.15,0.85]","","",""
"sailing-trial","415","1836353","0.0-11.0-370.0","","","","false","","","","","","","","","","4856.899999976158","","2508.399999976158","","0","1","arrowleft","0","arrowleft","[0.675,0.325,0.15,0.85]","","",""
"sailing-trial","416","1840528","0.0-11.0-371.0","","","","false","","","","","","","","","","null","","1035.1000000238419","","0","1","null","null","arrowup","[0.675,0.325,0.15,0.85]","","",""
"sailing-trial","417","1848412","0.0-11.0-372.0","","","","false","","","","","","","","","","965.1999999880791","","1985.3999999761581","","3","1","arrowright","1","arrowright","[0.675,0.325,0.15,0.85]","","",""
"sailing-trial","418","1853132","0.0-11.0-373.0","","","","false","","","","","","","","","","null","","2329.400000035763","","1","1","null","null","arrowup","[0.675,0.325,0.15,0.85]","","",""
"sailing-trial","419","1859811","0.0-11.0-374.0","","","","false","","","","","","","","","","1741.1000000238419","","2445","","1","0","arrowleft","0","arrowright","[0.675,0.325,0.15,0.85]","","",""
"sailing-trial","420","1863056","0.0-11.0-375.0","","","","false","","","","","","","","","","null","","1357.800000011921","","2","0","null","null","arrowup","[0.675,0.325,0.15,0.85]","","",""
"sailing-trial","421","1869079","0.0-11.0-376.0","","","","false","","","","","","","","","","2584","","296.60000002384186","","3","1","arrowright","1","arrowright","[0.675,0.325,0.15,0.85]","","",""
"sailing-trial","422","1877926","0.0-11.0-377.0","","","","false","","","","","","","","","","null","","6735.300000011921","","1","1","null","null","arrowup","[0.675,0.325,0.15,0.85]","","",""
"sailing-trial","423","1884750","0.0-11.0-378.0","","","","false","","","","","","","","","","2819.300000011921","","1128.300000011921","","0","1","arrowleft","0","arrowleft","[0.675,0.325,0.15,0.85]","","",""
"sailing-trial","424","1888918","0.0-11.0-379.0","","","","false","","","","","","","","","","null","","2280.800000011921","","2","0","null","null","arrowup","[0.675,0.325,0.15,0.85]","","",""
"sailing-trial","425","1894135","0.0-11.0-380.0","","","","false","","","","","","","","","","1142.800000011921","","227.5","","3","0","arrowright","1","arrowright","[0.85,0.15,0.325,0.675]","","",""
"sailing-trial","426","1897212","0.0-11.0-381.0","","","","false","","","","","","","","","","null","","1006.5999999642372","","2","1","null","null","arrowup","[0.85,0.15,0.325,0.675]","","",""
"sailing-trial","427","1912845","0.0-11.0-382.0","","","","false","","","","","","","","","","4512.100000023842","","4767.600000023842","","3","1","arrowright","1","arrowright","[0.85,0.15,0.325,0.675]","","",""
"sailing-trial","428","1916952","0.0-11.0-383.0","","","","false","","","","","","","","","","null","","1314.300000011921","","3","1","null","null","arrowup","[0.85,0.15,0.325,0.675]","","",""
"sailing-trial","429","1921468","0.0-11.0-384.0","","","","false","","","","","","","","","","1356.699999988079","","44.09999996423721","","0","1","arrowleft","0","arrowleft","[0.85,0.15,0.325,0.675]","","",""
"sailing-trial","430","1929161","0.0-11.0-385.0","","","","false","","","","","","","","","","null","","4656","","0","0","null","null","arrowup","[0.85,0.15,0.325,0.675]","","",""
"sailing-trial","431","1933546","0.0-11.0-386.0","","","","false","","","","","","","","","","1041.3999999761581","","890.5","","3","0","arrowright","1","arrowright","[0.85,0.15,0.325,0.675]","","",""
"sailing-trial","432","1937031","0.0-11.0-387.0","","","","false","","","","","","","","","","null","","1204.2000000476837","","0","1","null","null","arrowup","[0.85,0.15,0.325,0.675]","","",""
"sailing-trial","433","1941393","0.0-11.0-388.0","","","","false","","","","","","","","","","1077.1000000238419","","110.19999998807907","","0","1","arrowleft","0","arrowleft","[0.85,0.15,0.325,0.675]","","",""
"sailing-trial","434","1945483","0.0-11.0-389.0","","","","false","","","","","","","","","","null","","2115.100000023842","","3","0","null","null","arrowup","[0.85,0.15,0.325,0.675]","","",""
"sailing-trial","435","1951408","0.0-11.0-390.0","","","","false","","","","","","","","","","1070.199999988079","","839.5999999642372","","0","0","arrowleft","0","arrowleft","[0.85,0.15,0.325,0.675]","","",""
"sailing-trial","436","1958355","0.0-11.0-391.0","","","","false","","","","","","","","","","null","","1673.6000000238419","","2","1","null","null","arrowup","[0.85,0.15,0.325,0.675]","","",""
"sailing-trial","437","1963993","0.0-11.0-392.0","","","","false","","","","","","","","","","1465.800000011921","","921.9000000357628","","3","1","arrowright","1","arrowright","[0.85,0.15,0.325,0.675]","","",""
"sailing-trial","438","1966734","0.0-11.0-393.0","","","","false","","","","","","","","","","null","","1162.2000000476837","","3","0","null","null","arrowup","[0.85,0.15,0.325,0.675]","","",""
"sailing-trial","439","1973032","0.0-11.0-394.0","","","","false","","","","","","","","","","2158.5","","958.5","","1","0","arrowleft","0","arrowright","[0.85,0.15,0.325,0.675]","","",""
"sailing-trial","440","1977506","0.0-11.0-395.0","","","","false","","","","","","","","","","null","","1453.5","","1","0","null","null","arrowup","[0.85,0.15,0.325,0.675]","","",""
"sailing-trial","441","1983502","0.0-11.0-396.0","","","","false","","","","","","","","","","1743.9000000357628","","469.69999998807907","","3","1","arrowright","1","arrowright","[0.85,0.15,0.325,0.675]","","",""
"sailing-trial","442","1989207","0.0-11.0-397.0","","","","false","","","","","","","","","","null","","3839.899999976158","","1","0","null","null","arrowup","[0.85,0.15,0.325,0.675]","","",""
"sailing-trial","443","1993601","0.0-11.0-398.0","","","","false","","","","","","","","","","542.2999999523163","","959","","0","1","arrowleft","0","arrowleft","[0.85,0.15,0.325,0.675]","","",""
"sailing-trial","444","1996727","0.0-11.0-399.0","","","","false","","","","","","","","","","null","","1487.5","","2","0","null","null","arrowup","[0.85,0.15,0.325,0.675]","","",""
"instructions","445","2006326","0.0-12.0","","","","","","","","","","9597.100000023842","","","","","","","","","","","","","","","","[{""page_index"":0,""viewing_time"":9595.400000035763}]"
"survey-debrief","446","2064709","0.0-13.0","","","","","","","","","","58377.5","","","","","","","","","","","","","","{""difficulty"":""5"",""fun"":""2"",""clarity"":""5"",""strategy"":""I tried to memorize which shops had gold more frequently."",""feedback"":""""}","",""
