"trial_type","trial_index","time_elapsed","internal_node_id","value","metadata","success","timeout","failed_images","failed_audio","failed_video","browser_interaction","low_quality","rt","stimulus","response","button_pressed","island_rt","island_response","boat_rt","boat_response","boat","reward","island_key","island","boat_key","reward_probabilities","responses","num_errors","view_history"
"pavlovia","0","2","0.0-0.0","","","","","","","","","","","","","","","","","","","","","","","","","",""
"call-function","1","2","0.0-1.0","","{""task_version"":""sailing_part1_v1"",""task_condition"":""good"",""boats"":[""A"",""B"",""D"",""C""],""boats_demo"":[""E"",""H"",""G"",""F""],""islands"":[""A"",""B""],""subject_id"":""14021"",""age"":""22"",""gender"":""Male""}","","","","","","","","","","","","","","","","","","","","","","","",""
"preload","2","2250","0.0-2.0","","","true","false","[]","[]","[]","[{""event"":""fullscreenenter"",""trial"":3,""time"":3667}]","false","","","","","","","","","","","","","","","","",""
"fullscreen","3","4651","0.0-3.0","","","true","","","","","","","","","","","","","","","","","","","","","","",""
"audio-keyboard-response","4","6625","0.0-4.0-0.0","","","","","","","","","","1970.6666666666672","audio/beep_loop.wav"," ","","","","","","","","","","","","","",""
"audio-test","5","8822","0.0-4.0-1.0","","","","","","","","","","null","audio/turtle.mp3","","3","","","","","","","","","","","","",""
"audio-test","6","11190","0.0-4.0-2.0","","","","","","","","","","null","audio/shark.mp3","","2","","","","","","","","","","","","",""
"sailing-instructions","7","41231","0.0-5.0-0.0-0.0","","","","","","","","","","","","","","null","null","null","null","null","null","","","","","","",""
"sailing-trial","8","43714","0.0-5.0-0.0-1.0-0.0","","","","false","","","","","","","","","","1374.199999999255","","null","","null","null","arrowleft","0","null","null","","",""
"sailing-trial","9","45401","0.0-5.0-0.0-1.0-1.0","","","","false","","","","","","","","","","567.5","","null","","null","null","arrowright","1","null","null","","",""
"sailing-trial","10","47665","0.0-5.0-0.0-1.0-2.0","","","","false","","","","","","","","","","1130","","null","","null","null","arrowleft","0","null","null","","",""
"sailing-instructions","11","90104","0.0-5.0-0.0-2.0","","","","","","","","","","","","","","null","null","null","null","0","null","","","","","","",""
"sailing-trial","12","94007","0.0-5.0-0.0-3.0-0.0","","","","false","","","","","","","","","","null","","949.8000000007451","","2","1","null","null","arrowleft","[1,1,1,1]","","",""
"sailing-trial","13","97157","0.0-5.0-0.0-3.0-1.0","","","","false","","","","","","","","","","null","","666.3999999985099","","3","1","null","null","arrowright","[1,1,1,1]","","",""
"sailing-trial","14","100219","0.0-5.0-0.0-3.0-2.0","","","","false","","","","","","","","","","null","","627.0999999977648","","2","0","null","null","arrowleft","[0,0,0,0]","","",""
"sailing-instructions","15","108522","0.0-5.0-0.0-4.0","","","","","","","","","","","","","","null","null","null","null","null","null","","","","","","",""
"sailing-comprehension","16","126533","0.0-5.0-0.0-5.0","","","","","","","","","","13234.5","","","","","","","","","","","","","","[""true"",""true"",""false"",""true""]","0",""
"sailing-instructions","17","188630","0.0-6.0-0.0-0.0","","","","","","","","","","","","","","null","null","null","null","null","null","","","","","","",""
"sailing-comprehension","18","201229","0.0-6.0-0.0-1.0","","","","","","","","","","11687.400000002235","","","","","","","","","","","","","","[""true"",""false"",""true""]","0",""
"sailing-instructions","19","214911","0.0-7.0-0.0-0.0","","","","","","","","","","","","","","null","null","null","null","null","null","","","","","","",""
"sailing-trial","20","218268","0.0-7.0-0.0-1.0-0.0","","","","false","","","","","","","","","","null","","1412.5","","0","0","null","null","arrowup","[0.2,0.8,0.2,0.8]","","",""
"sailing-trial","21","220359","0.0-7.0-0.0-1.0-1.0","","","","false","","","","","","","","","","null","","709.3000000007451","","1","0","null","null","arrowup","[0.2,0.8,0.2,0.8]","","",""
"sailing-trial","22","223706","0.0-7.0-0.0-1.0-2.0","","","","false","","","","","","","","","","null","","1463.8999999985099","","2","1","null","null","arrowup","[0.2,0.8,0.2,0.8]","","",""
"sailing-trial","23","226263","0.0-7.0-0.0-1.0-3.0","","","","false","","","","","","","","","","null","","648.3000000007451","","3","1","null","null","arrowup","[0.2,0.8,0.2,0.8]","","",""
"sailing-comprehension","24","233725","0.0-7.0-0.0-2.0","","","","","","","","","","5179.800000000745","","","","","","","","","","","","","","[""true""]","1",""
"sailing-instructions","25","293709","0.0-7.0-0.1-0.1","","","","","","","","","","","","","","null","null","null","null","null","null","","","","","","",""
"sailing-trial","26","298799","0.0-7.0-0.1-1.1-0.1","","","","false","","","","","","","","","","null","","2077.300000000745","","0","0","null","null","arrowup","[0.2,0.8,0.2,0.8]","","",""
"sailing-trial","27","304119","0.0-7.0-0.1-1.1-1.1","","","","false","","","","","","","","","","null","","3508.5","","1","1","null","null","arrowup","[0.2,0.8,0.2,0.8]","","",""
"sailing-trial","28","306537","0.0-7.0-0.1-1.1-2.1","","","","false","","","","","","","","","","null","","656","","2","1","null","null","arrowup","[0.2,0.8,0.2,0.8]","","",""
"sailing-trial","29","308928","0.0-7.0-0.1-1.1-3.1","","","","false","","","","","","","","","","null","","469.30000000074506","","3","1","null","null","arrowup","[0.2,0.8,0.2,0.8]","","",""
"sailing-comprehension","30","311687","0.0-7.0-0.1-2.1","","","","","","","","","","2095.89999999851","","","","","","","","","","","","","","[""false""]","0",""
"sailing-instructions","31","321668","0.0-8.0-0.0-0.0","","","","","","","","","","","","","","null","null","null","null","null","null","","","","","","",""
"sailing-comprehension","32","324275","0.0-8.0-0.0-1.0","","","","","","","","","","2187.400000002235","","","","","","","","","","","","","","[""true""]","0",""
"sailing-instructions","33","348963","0.0-9.0-0.0-0.0","","","","","","","","","","","","","","null","null","null","null","null","null","","","","","","",""
"sailing-trial","34","352750","0.0-9.0-0.0-1.0-0.0","","","","false","","","","","","","","","","802.5","","91.80000000074506","","0","0","arrowleft","0","arrowleft","[0.2,0.8,0.2,0.8]","","",""
"sailing-trial","35","357350","0.0-9.0-0.0-1.0-1.0","","","","false","","","","","","","","","","704.3000000007451","","944.8000000007451","","1","1","arrowleft","0","arrowright","[0.2,0.8,0.2,0.8]","","",""
"sailing-trial","36","359966","0.0-9.0-0.0-1.0-2.0","","","","false","","","","","","","","","","null","","996.6999999992549","","0","0","null","null","arrowup","[0.2,0.8,0.2,0.8]","","",""
"sailing-trial","37","364223","0.0-9.0-0.0-1.0-3.0","","","","false","","","","","","","","","","677","","696","","1","0","arrowleft","0","arrowright","[0.2,0.8,0.2,0.8]","","",""
"sailing-trial","38","367284","0.0-9.0-0.0-1.0-4.0","","","","false","","","","","","","","","","null","","1085.6000000014901","","3","1","null","null","arrowup","[0.2,0.8,0.2,0.8]","","",""
"sailing-trial","39","371571","0.0-9.0-0.0-1.0-5.0","","","","false","","","","","","","","","","490","","473.0999999977648","","1","1","arrowleft","0","arrowright","[0.2,0.8,0.2,0.8]","","",""
"sailing-instructions","40","395031","0.0-10.0","","","","","","","","","","","","","","null","null","null","null","null","null","","","","","","",""
"sailing-trial","41","400443","0.0-11.0-0.0","","","","false","","","","","","","","","","1531.7999999970198","","29.900000002235174","","1","0","arrowleft","0","arrowright","[0.85,0.15,0.325,0.675]","","",""
"sailing-trial","42","403541","0.0-11.0-1.0","","","","false","","","","","","","","","","null","","1061.5999999977648","","0","1","null","null","arrowup","[0.85,0.15,0.325,0.675]","","",""
"sailing-trial","43","408312","0.0-11.0-2.0","","","","false","","","","","","","","","","901.3999999985099","","795.5","","0","1","arrowleft","0","arrowleft","[0.85,0.15,0.325,0.675]","","",""
"sailing-trial","44","410611","0.0-11.0-3.0","","","","false","","","","","","","","","","null","","854.6999999992549","","1","0","null","null","arrowup","[0.85,0.15,0.325,0.675]","","",""
"sailing-trial","45","415973","0.0-11.0-4.0","","","","false","","","","","","","","","","1754.5999999977648","","559.1999999992549","","0","1","arrowleft","0","arrowleft","[0.85,0.15,0.325,0.675]","","",""
"sailing-trial","46","418549","0.0-11.0-5.0","","","","false","","","","","","","","","","null","","927.7999999970198","","2","0","null","null","arrowup","[0.85,0.15,0.325,0.675]","","",""
"sailing-trial","47","422435","0.0-11.0-6.0","","","","false","","","","","","","","","","449","","407.19999999925494","","0","1","arrowleft","0","arrowleft","[0.85,0.15,0.325,0.675]","","",""
"sailing-trial","48","424800","0.0-11.0-7.0","","","","false","","","","","","","","","","null","","846.5","","1","0","null","null","arrowup","[0.85,0.15,0.325,0.675]","","",""
"sailing-trial","49","428622","0.0-11.0-8.0","","","","false","","","","","","","","","","644","","341.1000000014901","","0","1","arrowleft","0","arrowleft","[0.85,0.15,0.325,0.675]","","",""
"sailing-trial","50","430780","0.0-11.0-9.0","","","","false","","","","","","","","","","null","","624.9000000022352","","1","0","null","null","arrowup","[0.85,0.15,0.325,0.675]","","",""
"sailing-trial","51","434783","0.0-11.0-10.0","","","","false","","","","","","","","","","903.8999999985099","","291.8999999985099","","0","1","arrowleft","0","arrowleft","[0.85,0.15,0.325,0.675]","","",""
"sailing-trial","52","438125","0.0-11.0-11.0","","","","false","","","","","","","","","","null","","714.8999999985099","","1","0","null","null","arrowup","[0.85,0.15,0.325,0.675]","","",""
"sailing-trial","53","442410","0.0-11.0-12.0","","","","false","","","","","","","","","","1082.6000000014901","","367.8999999985099","","0","1","arrowleft","0","arrowleft","[0.85,0.15,0.325,0.675]","","",""
"sailing-trial","54","445495","0.0-11.0-13.0","","","","false","","","","","","","","","","null","","628","","2","0","null","null","arrowup","[0.85,0.15,0.325,0.675]","","",""
"sailing-trial","55","449299","0.0-11.0-14.0","","","","false","","","","","","","","","","592.3999999985099","","233.89999999850988","","0","1","arrowleft","0","arrowleft","[0.85,0.15,0.325,0.675]","","",""
"sailing-trial","56","451689","0.0-11.0-15.0","","","","false","","","","","","","","","","null","","789.5","","3","0","null","null","arrowup","[0.85,0.15,0.325,0.675]","","",""
"sailing-trial","57","455556","0.0-11.0-16.0","","","","false","","","","","","","","","","516.3000000007451","","139.10000000149012","","0","1","arrowleft","0","arrowleft","[0.85,0.15,0.325,0.675]","","",""
"sailing-trial","58","458515","0.0-11.0-17.0","","","","false","","","","","","","","","","null","","519.3000000007451","","1","0","null","null","arrowup","[0.85,0.15,0.325,0.675]","","",""
"sailing-trial","59","462092","0.0-11.0-18.0","","","","false","","","","","","","","","","422.5","","347.80000000074506","","0","1","arrowleft","0","arrowleft","[0.85,0.15,0.325,0.675]","","",""
"sailing-trial","60","465716","0.0-11.0-19.0","","","","false","","","","","","","","","","null","","649.3000000007451","","1","0","null","null","arrowup","[0.85,0.15,0.325,0.675]","","",""
"sailing-trial","61","468908","0.0-11.0-20.0","","","","false","","","","","","","","","","461.19999999925494","","292.5999999977648","","0","0","arrowleft","0","arrowleft","[0.15,0.85,0.675,0.325]","","",""
"sailing-trial","62","472168","0.0-11.0-21.0","","","","false","","","","","","","","","","null","","1211.5999999977648","","1","1","null","null","arrowup","[0.15,0.85,0.675,0.325]","","",""
"sailing-trial","63","475534","0.0-11.0-22.0","","","","false","","","","","","","","","","522.3999999985099","","11.100000001490116","","0","0","arrowleft","0","arrowleft","[0.15,0.85,0.675,0.325]","","",""
"sailing-trial","64","478284","0.0-11.0-23.0","","","","false","","","","","","","","","","null","","650.5","","3","0","null","null","arrowup","[0.15,0.85,0.675,0.325]","","",""
"sailing-trial","65","482831","0.0-11.0-24.0","","","","false","","","","","","","","","","1646.5","","185.69999999925494","","1","0","arrowleft","0","arrowright","[0.15,0.85,0.675,0.325]","","",""
"sailing-trial","66","485512","0.0-11.0-25.0","","","","false","","","","","","","","","","null","","688.8000000007451","","2","1","null","null","arrowup","[0.15,0.85,0.675,0.325]","","",""
"sailing-trial","67","488497","0.0-11.0-26.0","","","","false","","","","","","","","","","489.1000000014901","","186.5","","1","0","arrowleft","0","arrowright","[0.15,0.85,0.675,0.325]","","",""
"sailing-trial","68","491122","0.0-11.0-27.0","","","","false","","","","","","","","","","null","","724.1000000014901","","1","1","null","null","arrowup","[0.15,0.85,0.675,0.325]","","",""
"sailing-trial","69","494650","0.0-11.0-28.0","","","","false","","","","","","","","","","527.5999999977648","","1","","2","1","arrowright","1","arrowleft","[0.15,0.85,0.675,0.325]","","",""
"sailing-trial","70","497630","0.0-11.0-29.0","","","","false","","","","","","","","","","null","","1000.5999999977648","","2","1","null","null","arrowup","[0.15,0.85,0.675,0.325]","","",""
"sailing-trial","71","500980","0.0-11.0-30.0","","","","false","","","","","","","","","","412.80000000074506","","236.19999999925494","","2","0","arrowright","1","arrowleft","[0.15,0.85,0.675,0.325]","","",""
"sailing-trial","72","503305","0.0-11.0-31.0","","","","false","","","","","","","","","","null","","855.8000000007451","","0","0","null","null","arrowup","[0.15,0.85,0.675,0.325]","","",""
"sailing-trial","73","506553","0.0-11.0-32.0","","","","false","","","","","","","","","","591.1999999992549","","152.79999999701977","","2","0","arrowright","1","arrowleft","[0.15,0.85,0.675,0.325]","","",""
"sailing-trial","74","508755","0.0-11.0-33.0","","","","false","","","","","","","","","","null","","817.3999999985099","","0","0","null","null","arrowup","[0.15,0.85,0.675,0.325]","","",""
"sailing-trial","75","512012","0.0-11.0-34.0","","","","false","","","","","","","","","","545.5","","211.29999999701977","","3","0","arrowright","1","arrowright","[0.15,0.85,0.675,0.325]","","",""
"sailing-trial","76","514094","0.0-11.0-35.0","","","","false","","","","","","","","","","null","","790.6999999992549","","0","0","null","null","arrowup","[0.15,0.85,0.675,0.325]","","",""
"sailing-trial","77","518271","0.0-11.0-36.0","","","","false","","","","","","","","","","628.9000000022352","","567.0999999977648","","1","1","arrowleft","0","arrowright","[0.15,0.85,0.675,0.325]","","",""
"sailing-trial","78","520778","0.0-11.0-37.0","","","","false","","","","","","","","","","null","","566","","2","1","null","null","arrowup","[0.15,0.85,0.675,0.325]","","",""
"sailing-trial","79","523668","0.0-11.0-38.0","","","","false","","","","","","","","","","365.80000000074506","","92.19999999925494","","1","0","arrowleft","0","arrowright","[0.325,0.675,0.85,0.15]","","",""
"sailing-trial","80","526404","0.0-11.0-39.0","","","","false","","","","","","","","","","null","","874.8000000007451","","0","1","null","null","arrowup","[0.325,0.675,0.85,0.15]","","",""
"sailing-trial","81","529459","0.0-11.0-40.0","","","","false","","","","","","","","","","426.19999999925494","","79.89999999850988","","0","0","arrowleft","0","arrowleft","[0.325,0.675,0.85,0.15]","","",""
"sailing-trial","82","531378","0.0-11.0-41.0","","","","false","","","","","","","","","","null","","638.8000000007451","","3","0","null","null","arrowup","[0.325,0.675,0.85,0.15]","","",""
"sailing-trial","83","535038","0.0-11.0-42.0","","","","false","","","","","","","","","","725.8000000007451","","378.5999999977648","","2","1","arrowright","1","arrowleft","[0.325,0.675,0.85,0.15]","","",""
"sailing-trial","84","536802","0.0-11.0-43.0","","","","false","","","","","","","","","","null","","543.5","","0","0","null","null","arrowup","[0.325,0.675,0.85,0.15]","","",""
"sailing-trial","85","540141","0.0-11.0-44.0","","","","false","","","","","","","","","","509.0999999977648","","20.300000000745058","","2","1","arrowright","1","arrowleft","[0.325,0.675,0.85,0.15]","","",""
"sailing-trial","86","544255","0.0-11.0-45.0","","","","false","","","","","","","","","","null","","529.5","","1","1","null","null","arrowup","[0.325,0.675,0.85,0.15]","","",""
"sailing-trial","87","547671","0.0-11.0-46.0","","","","false","","","","","","","","","","510.80000000074506","","128.69999999925494","","2","1","arrowright","1","arrowleft","[0.325,0.675,0.85,0.15]","","",""
"sailing-trial","88","550339","0.0-11.0-47.0","","","","false","","","","","","","","","","null","","842.2000000029802","","2","1","null","null","arrowup","[0.325,0.675,0.85,0.15]","","",""
"sailing-trial","89","554020","0.0-11.0-48.0","","","","false","","","","","","","","","","630","","189.59999999776483","","2","1","arrowright","1","arrowleft","[0.325,0.675,0.85,0.15]","","",""
"sailing-trial","90","556450","0.0-11.0-49.0","","","","false","","","","","","","","","","null","","847.5","","0","0","null","null","arrowup","[0.325,0.675,0.85,0.15]","","",""
"sailing-trial","91","560062","0.0-11.0-50.0","","","","false","","","","","","","","","","574.0999999977648","","131","","2","1","arrowright","1","arrowleft","[0.325,0.675,0.85,0.15]","","",""
"sailing-trial","92","562137","0.0-11.0-51.0","","","","false","","","","","","","","","","null","","721.1000000014901","","3","0","null","null","arrowup","[0.325,0.675,0.85,0.15]","","",""
"sailing-trial","93","565771","0.0-11.0-52.0","","","","false","","","","","","","","","","583.6999999992549","","253.89999999850988","","2","1","arrowright","1","arrowleft","[0.325,0.675,0.85,0.15]","","",""
"sailing-trial","94","568368","0.0-11.0-53.0","","","","false","","","","","","","","","","null","","632.1999999992549","","0","1","null","null","arrowup","[0.325,0.675,0.85,0.15]","","",""
"sailing-trial","95","571235","0.0-11.0-54.0","","","","false","","","","","","","","","","596.5","","10.199999999254942","","2","0","arrowright","1","arrowleft","[0.85,0.15,0.325,0.675]","","",""
"sailing-trial","96","573195","0.0-11.0-55.0","","","","false","","","","","","","","","","null","","668.5","","1","0","null","null","arrowup","[0.85,0.15,0.325,0.675]","","",""
"sailing-trial","97","576312","0.0-11.0-56.0","","","","false","","","","","","","","","","489.5","","236","","1","0","arrowleft","0","arrowright","[0.85,0.15,0.325,0.675]","","",""
"sailing-trial","98","578758","0.0-11.0-57.0","","","","false","","","","","","","","","","null","","611","","3","1","null","null","arrowup","[0.85,0.15,0.325,0.675]","","",""
"sailing-trial","99","582071","0.0-11.0-58.0","","","","false","","","","","","","","","","471","","66.80000000074506","","0","1","arrowleft","0","arrowleft","[0.85,0.15,0.325,0.675]","","",""
"sailing-trial","100","583948","0.0-11.0-59.0","","","","false","","","","","","","","","","null","","585.8999999985099","","2","0","null","null","arrowup","[0.85,0.15,0.325,0.675]","","",""
"sailing-trial","101","587523","0.0-11.0-60.0","","","","false","","","","","","","","","","536.0999999977648","","232.5","","2","1","arrowright","1","arrowleft","[0.85,0.15,0.325,0.675]","","",""
"sailing-trial","102","589333","0.0-11.0-61.0","","","","false","","","","","","","","","","null","","575.8999999985099","","1","0","null","null","arrowup","[0.85,0.15,0.325,0.675]","","",""
"sailing-trial","103","592478","0.0-11.0-62.0","","","","false","","","","","","","","","","743.8000000007451","","101.5","","2","0","arrowright","1","arrowleft","[0.85,0.15,0.325,0.675]","","",""
"sailing-trial","104","595184","0.0-11.0-63.0","","","","false","","","","","","","","","","null","","836.1000000014901","","0","1","null","null","arrowup","[0.85,0.15,0.325,0.675]","","",""
"sailing-trial","105","599080","0.0-11.0-64.0","","","","false","","","","","","","","","","642.6000000014901","","395.79999999701977","","0","1","arrowleft","0","arrowleft","[0.85,0.15,0.325,0.675]","","",""
"sailing-trial","106","601775","0.0-11.0-65.0","","","","false","","","","","","","","","","null","","862.3000000007451","","1","1","null","null","arrowup","[0.85,0.15,0.325,0.675]","","",""
"sailing-trial","107","605393","0.0-11.0-66.0","","","","false","","","","","","","","","","568.3000000007451","","216.69999999925494","","0","1","arrowleft","0","arrowleft","[0.85,0.15,0.325,0.675]","","",""
"sailing-trial","108","607984","0.0-11.0-67.0","","","","false","","","","","","","","","","null","","811.2000000029802","","2","1","null","null","arrowup","[0.85,0.15,0.325,0.675]","","",""
"sailing-trial","109","611637","0.0-11.0-68.0","","","","false","","","","","","","","","","498.1000000014901","","310","","0","1","arrowleft","0","arrowleft","[0.85,0.15,0.325,0.675]","","",""
"sailing-trial","110","614291","0.0-11.0-69.0","","","","false","","","","","","","","","","null","","798.6999999992549","","3","1","null","null","arrowup","[0.85,0.15,0.325,0.675]","","",""
"sailing-trial","111","617770","0.0-11.0-70.0","","","","false","","","","","","","","","","506.5","","106.69999999925494","","0","1","arrowleft","0","arrowleft","[0.675,0.325,0.15,0.85]","","",""
"sailing-trial","112","619869","0.0-11.0-71.0","","","","false","","","","","","","","","","null","","745.3999999985099","","0","0","null","null","arrowup","[0.675,0.325,0.15,0.85]","","",""
"sailing-trial","113","623423","0.0-11.0-72.0","","","","false","","","","","","","","","","480.5999999977648","","176.30000000074506","","0","1","arrowleft","0","arrowleft","[0.675,0.325,0.15,0.85]","","",""
"sailing-trial","114","625630","0.0-11.0-73.0","","","","false","","","","","","","","","","null","","605.5","","3","0","null","null","arrowup","[0.675,0.325,0.15,0.85]","","",""
"sailing-trial","115","629306","0.0-11.0-74.0","","","","false","","","","","","","","","","498","","342.5","","0","1","arrowleft","0","arrowleft","[0.675,0.325,0.15,0.85]","","",""
"sailing-trial","116","631952","0.0-11.0-75.0","","","","false","","","","","","","","","","null","","605.3999999985099","","2","1","null","null","arrowup","[0.675,0.325,0.15,0.85]","","",""
"sailing-trial","117","635473","0.0-11.0-76.0","","","","false","","","","","","","","","","425.6000000014901","","275.6000000014901","","0","1","arrowleft","0","arrowleft","[0.675,0.325,0.15,0.85]","","",""
"sailing-trial","118","637668","0.0-11.0-77.0","","","","false","","","","","","","","","","null","","613.4000000022352","","2","0","null","null","arrowup","[0.675,0.325,0.15,0.85]","","",""
"sailing-trial","119","640792","0.0-11.0-78.0","","","","false","","","","","","","","","","602","","149","","0","0","arrowleft","0","arrowleft","[0.675,0.325,0.15,0.85]","","",""
"sailing-trial","120","643061","0.0-11.0-79.0","","","","false","","","","","","","","","","null","","866.9000000022352","","2","0","null","null","arrowup","[0.675,0.325,0.15,0.85]","","",""
"sailing-trial","121","646635","0.0-11.0-80.0","","","","false","","","","","","","","","","424","","180","","3","1","arrowright","1","arrowright","[0.675,0.325,0.15,0.85]","","",""
"sailing-trial","122","648934","0.0-11.0-81.0","","","","false","","","","","","","","","","null","","868.8999999985099","","2","0","null","null","arrowup","[0.675,0.325,0.15,0.85]","","",""
"sailing-trial","123","652351","0.0-11.0-82.0","","","","false","","","","","","","","","","574.6999999992549","","83.19999999925494","","3","1","arrowright","1","arrowright","[0.675,0.325,0.15,0.85]","","",""
"sailing-trial","124","655025","0.0-11.0-83.0","","","","false","","","","","","","","","","null","","705.7000000029802","","1","1","null","null","arrowup","[0.675,0.325,0.15,0.85]","","",""
"sailing-trial","125","658442","0.0-11.0-84.0","","","","false","","","","","","","","","","555.3000000007451","","143","","3","1","arrowright","1","arrowright","[0.675,0.325,0.15,0.85]","","",""
"sailing-trial","126","661727","0.0-11.0-85.0","","","","false","","","","","","","","","","null","","1527.699999999255","","1","0","null","null","arrowup","[0.675,0.325,0.15,0.85]","","",""
"sailing-trial","127","665380","0.0-11.0-86.0","","","","false","","","","","","","","","","573.8000000007451","","186.60000000149012","","3","1","arrowright","1","arrowright","[0.85,0.15,0.325,0.675]","","",""
"sailing-trial","128","668144","0.0-11.0-87.0","","","","false","","","","","","","","","","null","","932.8999999985099","","3","1","null","null","arrowup","[0.85,0.15,0.325,0.675]","","",""
"sailing-trial","129","671679","0.0-11.0-88.0","","","","false","","","","","","","","","","426.79999999701977","","293","","3","1","arrowright","1","arrowright","[0.85,0.15,0.325,0.675]","","",""
"sailing-trial","130","673986","0.0-11.0-89.0","","","","false","","","","","","","","","","null","","854.4000000022352","","2","0","null","null","arrowup","[0.85,0.15,0.325,0.675]","","",""
"sailing-trial","131","677438","0.0-11.0-90.0","","","","false","","","","","","","","","","469.80000000074506","","130.09999999776483","","3","1","arrowright","1","arrowright","[0.85,0.15,0.325,0.675]","","",""
"sailing-trial","132","679847","0.0-11.0-91.0","","","","false","","","","","","","","","","null","","606","","1","1","null","null","arrowup","[0.85,0.15,0.325,0.675]","","",""
"sailing-trial","133","682958","0.0-11.0-92.0","","","","false","","","","","","","","","","465","","349","","3","0","arrowright","1","arrowright","[0.85,0.15,0.325,0.675]","","",""
"sailing-trial","134","685834","0.0-11.0-93.0","","","","false","","","","","","","","","","null","","988.2000000029802","","3","1","null","null","arrowup","[0.85,0.15,0.325,0.675]","","",""
"sailing-trial","135","689418","0.0-11.0-94.0","","","","false","","","","","","","","","","458.3999999985099","","252.90000000223517","","3","1","arrowright","1","arrowright","[0.85,0.15,0.325,0.675]","","",""
"sailing-trial","136","691959","0.0-11.0-95.0","","","","false","","","","","","","","","","null","","639.6999999992549","","3","1","null","null","arrowup","[0.85,0.15,0.325,0.675]","","",""
"sailing-trial","137","695516","0.0-11.0-96.0","","","","false","","","","","","","","","","592.1999999992549","","182.09999999776483","","3","1","arrowright","1","arrowright","[0.85,0.15,0.325,0.675]","","",""
"sailing-trial","138","697599","0.0-11.0-97.0","","","","false","","","","","","","","","","null","","397.30000000074506","","0","0","null","null","arrowup","[0.85,0.15,0.325,0.675]","","",""
"sailing-trial","139","700603","0.0-11.0-98.0","","","","false","","","","","","","","","","405","","134.80000000074506","","3","0","arrowright","1","arrowright","[0.85,0.15,0.325,0.675]","","",""
"sailing-trial","140","702767","0.0-11.0-99.0","","","","false","","","","","","","","","","null","","489.8999999985099","","0","1","null","null","arrowup","[0.85,0.15,0.325,0.675]","","",""
"sailing-trial","141","706496","0.0-11.0-100.0","","","","false","","","","","","","","","","425","","483.80000000074506","","3","1","arrowright","1","arrowright","[0.85,0.15,0.325,0.675]","","",""
"sailing-trial","142","708380","0.0-11.0-101.0","","","","false","","","","","","","","","","null","","463.30000000074506","","0","0","null","null","arrowup","[0.85,0.15,0.325,0.675]","","",""
"sailing-trial","143","711760","0.0-11.0-102.0","","","","false","","","","","","","","","","443.0999999977648","","38.80000000074506","","3","1","arrowright","1","arrowright","[0.675,0.325,0.15,0.85]","","",""
"sailing-trial","144","713971","0.0-11.0-103.0","","","","false","","","","","","","","","","null","","536.3999999985099","","1","0","null","null","arrowup","[0.675,0.325,0.15,0.85]","","",""
"sailing-trial","145","717942","0.0-11.0-104.0","","","","false","","","","","","","","","","1100.4000000022352","","94.69999999925494","","3","1","arrowright","1","arrowright","[0.675,0.325,0.15,0.85]","","",""
"sailing-trial","146","719781","0.0-11.0-105.0","","","","false","","","","","","","","","","null","","481.69999999925494","","1","0","null","null","arrowup","[0.675,0.325,0.15,0.85]","","",""
"sailing-trial","147","723205","0.0-11.0-106.0","","","","false","","","","","","","","","","441.3999999985099","","110.39999999850988","","3","1","arrowright","1","arrowright","[0.675,0.325,0.15,0.85]","","",""
"sailing-trial","148","725859","0.0-11.0-107.0","","","","false","","","","","","","","","","null","","774.3000000007451","","3","1","null","null","arrowup","[0.675,0.325,0.15,0.85]","","",""
"sailing-trial","149","729270","0.0-11.0-108.0","","","","false","","","","","","","","","","323.19999999925494","","241.59999999776483","","3","1","arrowright","1","arrowright","[0.675,0.325,0.15,0.85]","","",""
"sailing-trial","150","731287","0.0-11.0-109.0","","","","false","","","","","","","","","","null","","585.1999999992549","","1","0","null","null","arrowup","[0.675,0.325,0.15,0.85]","","",""
"sailing-trial","151","734832","0.0-11.0-110.0","","","","false","","","","","","","","","","356.8999999985099","","245.29999999701977","","3","1","arrowright","1","arrowright","[0.675,0.325,0.15,0.85]","","",""
"sailing-trial","152","737214","0.0-11.0-111.0","","","","false","","","","","","","","","","null","","549.7000000029802","","3","1","null","null","arrowup","[0.675,0.325,0.15,0.85]","","",""
"sailing-trial","153","739930","0.0-11.0-112.0","","","","false","","","","","","","","","","420.80000000074506","","136.19999999925494","","3","0","arrowright","1","arrowright","[0.675,0.325,0.15,0.85]","","",""
"sailing-trial","154","742319","0.0-11.0-113.0","","","","false","","","","","","","","","","null","","828.7999999970198","","0","1","null","null","arrowup","[0.675,0.325,0.15,0.85]","","",""
"sailing-trial","155","745549","0.0-11.0-114.0","","","","false","","","","","","","","","","201.19999999925494","","275.3999999985099","","0","1","arrowleft","0","arrowleft","[0.675,0.325,0.15,0.85]","","",""
"sailing-trial","156","747868","0.0-11.0-115.0","","","","false","","","","","","","","","","null","","464.5","","3","1","null","null","arrowup","[0.675,0.325,0.15,0.85]","","",""
"sailing-trial","157","751286","0.0-11.0-116.0","","","","false","","","","","","","","","","404.80000000074506","","68.89999999850988","","0","1","arrowleft","0","arrowleft","[0.675,0.325,0.15,0.85]","","",""
"sailing-trial","158","755077","0.0-11.0-117.0","","","","false","","","","","","","","","","null","","27.399999998509884","","2","1","null","null","arrowup","[0.675,0.325,0.15,0.85]","","",""
"sailing-trial","159","758221","0.0-11.0-118.0","","","","false","","","","","","","","","","424.3999999985099","","253.39999999850988","","0","0","arrowleft","0","arrowleft","[0.675,0.325,0.15,0.85]","","",""
"sailing-trial","160","760283","0.0-11.0-119.0","","","","false","","","","","","","","","","null","","741.6000000014901","","2","0","null","null","arrowup","[0.675,0.325,0.15,0.85]","","",""
"sailing-trial","161","763856","0.0-11.0-120.0","","","","false","","","","","","","","","","609","","246.79999999701977","","3","1","arrowright","1","arrowright","[0.675,0.325,0.15,0.85]","","",""
"sailing-trial","162","766683","0.0-11.0-121.0","","","","false","","","","","","","","","","null","","1025.5999999977648","","3","1","null","null","arrowup","[0.675,0.325,0.15,0.85]","","",""
"sailing-trial","163","770691","0.0-11.0-122.0","","","","false","","","","","","","","","","778.5","","313.3999999985099","","3","1","arrowright","1","arrowright","[0.675,0.325,0.15,0.85]","","",""
"sailing-trial","164","773399","0.0-11.0-123.0","","","","false","","","","","","","","","","null","","950.4000000022352","","3","1","null","null","arrowup","[0.675,0.325,0.15,0.85]","","",""
"sailing-trial","165","776763","0.0-11.0-124.0","","","","false","","","","","","","","","","437.19999999925494","","264.5","","3","1","arrowright","1","arrowright","[0.85,0.15,0.325,0.675]","","",""
"sailing-trial","166","779303","0.0-11.0-125.0","","","","false","","","","","","","","","","null","","527.8000000007451","","1","1","null","null","arrowup","[0.85,0.15,0.325,0.675]","","",""
"sailing-trial","167","781989","0.0-11.0-126.0","","","","false","","","","","","","","","","359.6000000014901","","207.10000000149012","","3","0","arrowright","1","arrowright","[0.85,0.15,0.325,0.675]","","",""
"sailing-trial","168","784443","0.0-11.0-127.0","","","","false","","","","","","","","","","null","","620.5999999977648","","0","1","null","null","arrowup","[0.85,0.15,0.325,0.675]","","",""
"sailing-trial","169","787741","0.0-11.0-128.0","","","","false","","","","","","","","","","323.29999999701977","","38.400000002235174","","0","1","arrowleft","0","arrowleft","[0.85,0.15,0.325,0.675]","","",""
"sailing-trial","170","790172","0.0-11.0-129.0","","","","false","","","","","","","","","","null","","620.5","","0","1","null","null","arrowup","[0.85,0.15,0.325,0.675]","","",""
"sailing-trial","171","793416","0.0-11.0-130.0","","","","false","","","","","","","","","","362.19999999925494","","96.5","","0","1","arrowleft","0","arrowleft","[0.85,0.15,0.325,0.675]","","",""
"sailing-trial","172","796361","0.0-11.0-131.0","","","","false","","","","","","","","","","null","","1252.1000000014901","","2","1","null","null","arrowup","[0.85,0.15,0.325,0.675]","","",""
"sailing-trial","173","800139","0.0-11.0-132.0","","","","false","","","","","","","","","","765.3000000007451","","152.19999999925494","","0","1","arrowleft","0","arrowleft","[0.85,0.15,0.325,0.675]","","",""
"sailing-trial","174","802108","0.0-11.0-133.0","","","","false","","","","","","","","","","null","","724.3000000007451","","2","0","null","null","arrowup","[0.85,0.15,0.325,0.675]","","",""
"sailing-trial","175","805417","0.0-11.0-134.0","","","","false","","","","","","","","","","497.1000000014901","","19.200000002980232","","0","1","arrowleft","0","arrowleft","[0.85,0.15,0.325,0.675]","","",""
"sailing-trial","176","808598","0.0-11.0-135.0","","","","false","","","","","","","","","","null","","651.6000000014901","","2","1","null","null","arrowup","[0.85,0.15,0.325,0.675]","","",""
"sailing-trial","177","812238","0.0-11.0-136.0","","","","false","","","","","","","","","","427.80000000074506","","185.59999999776483","","0","1","arrowleft","0","arrowleft","[0.85,0.15,0.325,0.675]","","",""
"sailing-trial","178","813979","0.0-11.0-137.0","","","","false","","","","","","","","","","null","","629.5","","3","0","null","null","arrowup","[0.85,0.15,0.325,0.675]","","",""
"sailing-trial","179","817384","0.0-11.0-138.0","","","","false","","","","","","","","","","414.79999999701977","","132.90000000223517","","0","1","arrowleft","0","arrowleft","[0.85,0.15,0.325,0.675]","","",""
"sailing-trial","180","818829","0.0-11.0-139.0","","","","false","","","","","","","","","","null","","398.19999999925494","","1","0","null","null","arrowup","[0.85,0.15,0.325,0.675]","","",""
"sailing-trial","181","821899","0.0-11.0-140.0","","","","false","","","","","","","","","","338.69999999925494","","103.19999999925494","","0","1","arrowleft","0","arrowleft","[0.85,0.15,0.325,0.675]","","",""
"sailing-trial","182","824093","0.0-11.0-141.0","","","","false","","","","","","","","","","null","","518.5","","0","1","null","null","arrowup","[0.85,0.15,0.325,0.675]","","",""
"sailing-trial","183","827248","0.0-11.0-142.0","","","","false","","","","","","","","","","340.5","","48.600000001490116","","0","1","arrowleft","0","arrowleft","[0.85,0.15,0.325,0.675]","","",""
"sailing-trial","184","828869","0.0-11.0-143.0","","","","false","","","","","","","","","","null","","349.79999999701977","","3","0","null","null","arrowup","[0.85,0.15,0.325,0.675]","","",""
"sailing-trial","185","832164","0.0-11.0-144.0","","","","false","","","","","","","","","","423.8999999985099","","196.79999999701977","","0","1","arrowleft","0","arrowleft","[0.85,0.15,0.325,0.675]","","",""
"sailing-trial","186","834032","0.0-11.0-145.0","","","","false","","","","","","","","","","null","","700.6999999992549","","1","0","null","null","arrowup","[0.85,0.15,0.325,0.675]","","",""
"sailing-trial","187","836904","0.0-11.0-146.0","","","","false","","","","","","","","","","376.19999999925494","","209.10000000149012","","0","0","arrowleft","0","arrowleft","[0.675,0.325,0.15,0.85]","","",""
"sailing-trial","188","839098","0.0-11.0-147.0","","","","false","","","","","","","","","","null","","1092.0999999977648","","3","0","null","null","arrowup","[0.675,0.325,0.15,0.85]","","",""
"sailing-trial","189","842505","0.0-11.0-148.0","","","","false","","","","","","","","","","348.19999999925494","","176.60000000149012","","2","1","arrowright","1","arrowleft","[0.675,0.325,0.15,0.85]","","",""
"sailing-trial","190","844895","0.0-11.0-149.0","","","","false","","","","","","","","","","null","","540","","0","1","null","null","arrowup","[0.675,0.325,0.15,0.85]","","",""
"sailing-trial","191","847440","0.0-11.0-150.0","","","","false","","","","","","","","","","21.899999998509884","","250.69999999925494","","2","0","arrowright","1","arrowleft","[0.675,0.325,0.15,0.85]","","",""
"sailing-trial","192","849971","0.0-11.0-151.0","","","","false","","","","","","","","","","null","","969","","0","1","null","null","arrowup","[0.675,0.325,0.15,0.85]","","",""
"sailing-trial","193","853646","0.0-11.0-152.0","","","","false","","","","","","","","","","444.6000000014901","","282.5999999977648","","1","1","arrowleft","0","arrowright","[0.675,0.325,0.15,0.85]","","",""
"sailing-trial","194","855453","0.0-11.0-153.0","","","","false","","","","","","","","","","null","","677.8000000007451","","2","0","null","null","arrowup","[0.675,0.325,0.15,0.85]","","",""
"sailing-trial","195","858738","0.0-11.0-154.0","","","","false","","","","","","","","","","856.3999999985099","","44.80000000074506","","1","0","arrowleft","0","arrowright","[0.675,0.325,0.15,0.85]","","",""
"sailing-trial","196","860883","0.0-11.0-155.0","","","","false","","","","","","","","","","null","","603.5","","0","1","null","null","arrowup","[0.675,0.325,0.15,0.85]","","",""
"sailing-trial","197","864154","0.0-11.0-156.0","","","","false","","","","","","","","","","406.4000000022352","","73","","0","1","arrowleft","0","arrowleft","[0.675,0.325,0.15,0.85]","","",""
"sailing-trial","198","866182","0.0-11.0-157.0","","","","false","","","","","","","","","","null","","250.10000000149012","","0","1","null","null","arrowup","[0.675,0.325,0.15,0.85]","","",""
"sailing-trial","199","871801","0.0-11.0-158.0","","","","false","","","","","","","","","","2760.89999999851","","253.29999999701977","","0","1","arrowleft","0","arrowleft","[0.675,0.325,0.15,0.85]","","",""
"sailing-trial","200","874072","0.0-11.0-159.0","","","","false","","","","","","","","","","null","","690.8000000007451","","2","1","null","null","arrowup","[0.675,0.325,0.15,0.85]","","",""
"sailing-trial","201","877455","0.0-11.0-160.0","","","","false","","","","","","","","","","378.4000000022352","","87.40000000223517","","0","1","arrowleft","0","arrowleft","[0.675,0.325,0.15,0.85]","","",""
"sailing-trial","202","879056","0.0-11.0-161.0","","","","false","","","","","","","","","","null","","356.30000000074506","","0","0","null","null","arrowup","[0.675,0.325,0.15,0.85]","","",""
"sailing-trial","203","882038","0.0-11.0-162.0","","","","false","","","","","","","","","","619.8999999985099","","11.399999998509884","","0","0","arrowleft","0","arrowleft","[0.15,0.85,0.675,0.325]","","",""
"sailing-trial","204","884767","0.0-11.0-163.0","","","","false","","","","","","","","","","null","","1064.800000000745","","2","1","null","null","arrowup","[0.15,0.85,0.675,0.325]","","",""
"sailing-trial","205","887753","0.0-11.0-164.0","","","","false","","","","","","","","","","341.80000000074506","","167.40000000223517","","3","0","arrowright","1","arrowright","[0.15,0.85,0.675,0.325]","","",""
"sailing-trial","206","889703","0.0-11.0-165.0","","","","false","","","","","","","","","","null","","649.6999999992549","","1","0","null","null","arrowup","[0.15,0.85,0.675,0.325]","","",""
"sailing-trial","207","893351","0.0-11.0-166.0","","","","false","","","","","","","","","","488.19999999925494","","132.89999999850988","","2","1","arrowright","1","arrowleft","[0.15,0.85,0.675,0.325]","","",""
"sailing-trial","208","895199","0.0-11.0-167.0","","","","false","","","","","","","","","","null","","587.0999999977648","","0","0","null","null","arrowup","[0.15,0.85,0.675,0.325]","","",""
"sailing-trial","209","898859","0.0-11.0-168.0","","","","false","","","","","","","","","","564.5","","237.69999999925494","","1","1","arrowleft","0","arrowright","[0.15,0.85,0.675,0.325]","","",""
"sailing-trial","210","901129","0.0-11.0-169.0","","","","false","","","","","","","","","","null","","729","","2","1","null","null","arrowup","[0.15,0.85,0.675,0.325]","","",""
"sailing-trial","211","904797","0.0-11.0-170.0","","","","false","","","","","","","","","","378.80000000074506","","521.7999999970198","","2","1","arrowright","1","arrowleft","[0.15,0.85,0.675,0.325]","","",""
"sailing-trial","212","906688","0.0-11.0-171.0","","","","false","","","","","","","","","","null","","637.6999999992549","","0","0","null","null","arrowup","[0.15,0.85,0.675,0.325]","","",""
"sailing-trial","213","910097","0.0-11.0-172.0","","","","false","","","","","","","","","","404.30000000074506","","91.59999999776483","","2","1","arrowright","1","arrowleft","[0.15,0.85,0.675,0.325]","","",""
"sailing-trial","214","912700","0.0-11.0-173.0","","","","false","","","","","","","","","","null","","742.6999999992549","","3","1","null","null","arrowup","[0.15,0.85,0.675,0.325]","","",""
"sailing-trial","215","916409","0.0-11.0-174.0","","","","false","","","","","","","","","","446.19999999925494","","190.19999999925494","","2","1","arrowright","1","arrowleft","[0.15,0.85,0.675,0.325]","","",""
"sailing-trial","216","918069","0.0-11.0-175.0","","","","false","","","","","","","","","","null","","378.8999999985099","","0","0","null","null","arrowup","[0.15,0.85,0.675,0.325]","","",""
"sailing-trial","217","921632","0.0-11.0-176.0","","","","false","","","","","","","","","","424.0999999977648","","613.0999999977648","","2","1","arrowright","1","arrowleft","[0.15,0.85,0.675,0.325]","","",""
"sailing-trial","218","923489","0.0-11.0-177.0","","","","false","","","","","","","","","","null","","350.30000000074506","","0","0","null","null","arrowup","[0.15,0.85,0.675,0.325]","","",""
"sailing-trial","219","927254","0.0-11.0-178.0","","","","false","","","","","","","","","","431.29999999701977","","183.60000000149012","","2","0","arrowright","1","arrowleft","[0.85,0.15,0.325,0.675]","","",""
"sailing-trial","220","929619","0.0-11.0-179.0","","","","false","","","","","","","","","","null","","771.8999999985099","","1","1","null","null","arrowup","[0.85,0.15,0.325,0.675]","","",""
"sailing-trial","221","932828","0.0-11.0-180.0","","","","false","","","","","","","","","","327.3999999985099","","70.29999999701977","","0","1","arrowleft","0","arrowleft","[0.85,0.15,0.325,0.675]","","",""
"sailing-trial","222","934871","0.0-11.0-181.0","","","","false","","","","","","","","","","null","","742.6999999992549","","1","0","null","null","arrowup","[0.85,0.15,0.325,0.675]","","",""
"sailing-trial","223","938301","0.0-11.0-182.0","","","","false","","","","","","","","","","355.5","","16.399999998509884","","0","1","arrowleft","0","arrowleft","[0.85,0.15,0.325,0.675]","","",""
"sailing-trial","224","940448","0.0-11.0-183.0","","","","false","","","","","","","","","","null","","426.69999999925494","","0","1","null","null","arrowup","[0.85,0.15,0.325,0.675]","","",""
"sailing-trial","225","944008","0.0-11.0-184.0","","","","false","","","","","","","","","","520.9000000022352","","688","","0","0","arrowleft","0","arrowleft","[0.85,0.15,0.325,0.675]","","",""
"sailing-trial","226","946385","0.0-11.0-185.0","","","","false","","","","","","","","","","null","","536.3000000007451","","3","1","null","null","arrowup","[0.85,0.15,0.325,0.675]","","",""
"sailing-trial","227","950303","0.0-11.0-186.0","","","","false","","","","","","","","","","435.29999999701977","","478.6000000014901","","3","1","arrowright","1","arrowright","[0.85,0.15,0.325,0.675]","","",""
"sailing-trial","228","953053","0.0-11.0-187.0","","","","false","","","","","","","","","","null","","914","","0","1","null","null","arrowup","[0.85,0.15,0.325,0.675]","","",""
"sailing-trial","229","956686","0.0-11.0-188.0","","","","false","","","","","","","","","","433.19999999925494","","199.69999999925494","","3","1","arrowright","1","arrowright","[0.85,0.15,0.325,0.675]","","",""
"sailing-trial","230","959020","0.0-11.0-189.0","","","","false","","","","","","","","","","null","","574.8000000007451","","2","1","null","null","arrowup","[0.85,0.15,0.325,0.675]","","",""
"sailing-trial","231","962735","0.0-11.0-190.0","","","","false","","","","","","","","","","395.69999999925494","","519.4000000022352","","3","1","arrowright","1","arrowright","[0.85,0.15,0.325,0.675]","","",""
"sailing-trial","232","964621","0.0-11.0-191.0","","","","false","","","","","","","","","","null","","529.8000000007451","","1","0","null","null","arrowup","[0.85,0.15,0.325,0.675]","","",""
"sailing-trial","233","968104","0.0-11.0-192.0","","","","false","","","","","","","","","","490","","368.19999999925494","","3","1","arrowright","1","arrowright","[0.85,0.15,0.325,0.675]","","",""
"sailing-trial","234","970535","0.0-11.0-193.0","","","","false","","","","","","","","","","null","","650.5","","3","1","null","null","arrowup","[0.85,0.15,0.325,0.675]","","",""
"sailing-trial","235","973848","0.0-11.0-194.0","","","","false","","","","","","","","","","384.3999999985099","","114.90000000223517","","3","1","arrowright","1","arrowright","[0.85,0.15,0.325,0.675]","","",""
"sailing-trial","236","976744","0.0-11.0-195.0","","","","false","","","","","","","","","","null","","1083.0999999977648","","0","1","null","null","arrowup","[0.85,0.15,0.325,0.675]","","",""
"sailing-trial","237","980446","0.0-11.0-196.0","","","","false","","","","","","","","","","916.8000000007451","","39.600000001490116","","3","1","arrowright","1","arrowright","[0.675,0.325,0.15,0.85]","","",""
"sailing-trial","238","982952","0.0-11.0-197.0","","","","false","","","","","","","","","","null","","1046.3999999985099","","2","0","null","null","arrowup","[0.675,0.325,0.15,0.85]","","",""
"sailing-trial","239","986954","0.0-11.0-198.0","","","","false","","","","","","","","","","819.0999999977648","","848.1999999992549","","3","0","arrowright","1","arrowright","[0.675,0.325,0.15,0.85]","","",""
"sailing-trial","240","989370","0.0-11.0-199.0","","","","false","","","","","","","","","","null","","902.8000000007451","","1","1","null","null","arrowup","[0.675,0.325,0.15,0.85]","","",""
"sailing-trial","241","992969","0.0-11.0-200.0","","","","false","","","","","","","","","","707.6000000014901","","471.1000000014901","","0","0","arrowleft","0","arrowleft","[0.675,0.325,0.15,0.85]","","",""
"sailing-trial","242","995981","0.0-11.0-201.0","","","","false","","","","","","","","","","null","","1485.2999999970198","","2","0","null","null","arrowup","[0.675,0.325,0.15,0.85]","","",""
"sailing-trial","243","1000406","0.0-11.0-202.0","","","","false","","","","","","","","","","1515.0999999977648","","66.30000000074506","","1","1","arrowleft","0","arrowright","[0.675,0.325,0.15,0.85]","","",""
"sailing-trial","244","1003024","0.0-11.0-203.0","","","","false","","","","","","","","","","null","","1346.2000000029802","","1","0","null","null","arrowup","[0.675,0.325,0.15,0.85]","","",""
"sailing-trial","245","1005926","0.0-11.0-204.0","","","","false","","","","","","","","","","424.70000000298023","","180.10000000149012","","1","0","arrowleft","0","arrowright","[0.675,0.325,0.15,0.85]","","",""
"sailing-trial","246","1008080","0.0-11.0-205.0","","","","false","","","","","","","","","","null","","790.4000000022352","","0","0","null","null","arrowup","[0.675,0.325,0.15,0.85]","","",""
"sailing-trial","247","1010895","0.0-11.0-206.0","","","","false","","","","","","","","","","365.69999999925494","","171.70000000298023","","3","0","arrowright","1","arrowright","[0.675,0.325,0.15,0.85]","","",""
"sailing-trial","248","1013422","0.0-11.0-207.0","","","","false","","","","","","","","","","null","","779.6999999992549","","0","1","null","null","arrowup","[0.675,0.325,0.15,0.85]","","",""
"sailing-trial","249","1016362","0.0-11.0-208.0","","","","false","","","","","","","","","","371.4000000022352","","132.40000000223517","","2","0","arrowright","1","arrowleft","[0.675,0.325,0.15,0.85]","","",""
"sailing-trial","250","1018846","0.0-11.0-209.0","","","","false","","","","","","","","","","null","","678.6999999992549","","3","1","null","null","arrowup","[0.675,0.325,0.15,0.85]","","",""
"sailing-trial","251","1022499","0.0-11.0-210.0","","","","false","","","","","","","","","","689.8000000007451","","61.80000000074506","","0","1","arrowleft","0","arrowleft","[0.675,0.325,0.15,0.85]","","",""
"sailing-trial","252","1024694","0.0-11.0-211.0","","","","false","","","","","","","","","","null","","481.8999999985099","","1","1","null","null","arrowup","[0.675,0.325,0.15,0.85]","","",""
"sailing-trial","253","1027378","0.0-11.0-212.0","","","","false","","","","","","","","","","328.80000000074506","","80.5","","0","0","arrowleft","0","arrowleft","[0.675,0.325,0.15,0.85]","","",""
"sailing-trial","254","1029619","0.0-11.0-213.0","","","","false","","","","","","","","","","null","","875.1999999992549","","1","0","null","null","arrowup","[0.675,0.325,0.15,0.85]","","",""
"sailing-trial","255","1033233","0.0-11.0-214.0","","","","false","","","","","","","","","","376.8999999985099","","161.39999999850988","","2","1","arrowright","1","arrowleft","[0.85,0.15,0.325,0.675]","","",""
"sailing-trial","256","1036188","0.0-11.0-215.0","","","","false","","","","","","","","","","null","","1251.800000000745","","0","1","null","null","arrowup","[0.85,0.15,0.325,0.675]","","",""
"sailing-trial","257","1039648","0.0-11.0-216.0","","","","false","","","","","","","","","","368.19999999925494","","162","","3","1","arrowright","1","arrowright","[0.85,0.15,0.325,0.675]","","",""
"sailing-trial","258","1041668","0.0-11.0-217.0","","","","false","","","","","","","","","","null","","311.8999999985099","","2","1","null","null","arrowup","[0.85,0.15,0.325,0.675]","","",""
"sailing-trial","259","1044460","0.0-11.0-218.0","","","","false","","","","","","","","","","126.80000000074506","","6.300000000745058","","3","1","arrowright","1","arrowright","[0.85,0.15,0.325,0.675]","","",""
"sailing-trial","260","1045712","0.0-11.0-219.0","","","","false","","","","","","","","","","null","","9.299999997019768","","2","0","null","null","arrowup","[0.85,0.15,0.325,0.675]","","",""
"sailing-trial","261","1048657","0.0-11.0-220.0","","","","false","","","","","","","","","","507.1000000014901","","144.29999999701977","","3","0","arrowright","1","arrowright","[0.85,0.15,0.325,0.675]","","",""
"sailing-trial","262","1050621","0.0-11.0-221.0","","","","false","","","","","","","","","","null","","403.5","","3","1","null","null","arrowup","[0.85,0.15,0.325,0.675]","","",""
"sailing-trial","263","1053670","0.0-11.0-222.0","","","","false","","","","","","","","","","246.5","","35.600000001490116","","3","1","arrowright","1","arrowright","[0.85,0.15,0.325,0.675]","","",""
"sailing-trial","264","1055331","0.0-11.0-223.0","","","","false","","","","","","","","","","null","","61.30000000074506","","0","1","null","null","arrowup","[0.85,0.15,0.325,0.675]","","",""
"sailing-trial","265","1058494","0.0-11.0-224.0","","","","false","","","","","","","","","","581.0999999977648","","310.9000000022352","","3","0","arrowright","1","arrowright","[0.85,0.15,0.325,0.675]","","",""
"sailing-trial","266","1060140","0.0-11.0-225.0","","","","false","","","","","","","","","","null","","524.8999999985099","","1","0","null","null","arrowup","[0.85,0.15,0.325,0.675]","","",""
"sailing-trial","267","1063699","0.0-11.0-226.0","","","","false","","","","","","","","","","205.60000000149012","","174.90000000223517","","2","1","arrowright","1","arrowleft","[0.85,0.15,0.325,0.675]","","",""
"sailing-trial","268","1064979","0.0-11.0-227.0","","","","false","","","","","","","","","","null","","187","","1","0","null","null","arrowup","[0.85,0.15,0.325,0.675]","","",""
"sailing-trial","269","1068422","0.0-11.0-228.0","","","","false","","","","","","","","","","497.79999999701977","","2","","0","1","arrowleft","0","arrowleft","[0.85,0.15,0.325,0.675]","","",""
"sailing-trial","270","1070241","0.0-11.0-229.0","","","","false","","","","","","","","","","null","","283.5999999977648","","1","0","null","null","arrowup","[0.85,0.15,0.325,0.675]","","",""
"sailing-trial","271","1072865","0.0-11.0-230.0","","","","false","","","","","","","","","","395.1000000014901","","36.5","","0","0","arrowleft","0","arrowleft","[0.675,0.325,0.15,0.85]","","",""
"sailing-trial","272","1079248","0.0-11.0-231.0","","","","false","","","","","","","","","","null","","2730.800000000745","","1","1","null","null","arrowup","[0.675,0.325,0.15,0.85]","","",""
"sailing-trial","273","1082561","0.0-11.0-232.0","","","","false","","","","","","","","","","331.19999999925494","","186.69999999925494","","0","1","arrowleft","0","arrowleft","[0.675,0.325,0.15,0.85]","","",""
"sailing-trial","274","1084527","0.0-11.0-233.0","","","","false","","","","","","","","","","null","","435.29999999701977","","3","1","null","null","arrowup","[0.675,0.325,0.15,0.85]","","",""
"sailing-trial","275","1087777","0.0-11.0-234.0","","","","false","","","","","","","","","","230.69999999925494","","164.30000000074506","","0","1","arrowleft","0","arrowleft","[0.675,0.325,0.15,0.85]","","",""
"sailing-trial","276","1089861","0.0-11.0-235.0","","","","false","","","","","","","","","","null","","332.5","","3","1","null","null","arrowup","[0.675,0.325,0.15,0.85]","","",""
"sailing-trial","277","1092875","0.0-11.0-236.0","","","","false","","","","","","","","","","111.90000000223517","","154.40000000223517","","0","1","arrowleft","0","arrowleft","[0.675,0.325,0.15,0.85]","","",""
"sailing-trial","278","1094633","0.0-11.0-237.0","","","","false","","","","","","","","","","null","","165.89999999850988","","0","1","null","null","arrowup","[0.675,0.325,0.15,0.85]","","",""
"sailing-trial","279","1097177","0.0-11.0-238.0","","","","false","","","","","","","","","","150.30000000074506","","115.20000000298023","","0","0","arrowleft","0","arrowleft","[0.675,0.325,0.15,0.85]","","",""
"sailing-trial","280","1100730","0.0-11.0-239.0","","","","false","","","","","","","","","","null","","1995","","2","1","null","null","arrowup","[0.675,0.325,0.15,0.85]","","",""
"sailing-trial","281","1104321","0.0-11.0-240.0","","","","false","","","","","","","","","","495","","219.69999999925494","","3","1","arrowright","1","arrowright","[0.675,0.325,0.15,0.85]","","",""
"sailing-trial","282","1106068","0.0-11.0-241.0","","","","false","","","","","","","","","","null","","500.69999999925494","","1","0","null","null","arrowup","[0.675,0.325,0.15,0.85]","","",""
"sailing-trial","283","1109189","0.0-11.0-242.0","","","","false","","","","","","","","","","343.5","","60.599999997764826","","3","1","arrowright","1","arrowright","[0.675,0.325,0.15,0.85]","","",""
"sailing-trial","284","1110667","0.0-11.0-243.0","","","","false","","","","","","","","","","null","","253.69999999925494","","2","0","null","null","arrowup","[0.675,0.325,0.15,0.85]","","",""
"sailing-trial","285","1113732","0.0-11.0-244.0","","","","false","","","","","","","","","","394.6000000014901","","28.099999997764826","","3","1","arrowright","1","arrowright","[0.675,0.325,0.15,0.85]","","",""
"sailing-trial","286","1115617","0.0-11.0-245.0","","","","false","","","","","","","","","","null","","340.9000000022352","","2","0","null","null","arrowup","[0.675,0.325,0.15,0.85]","","",""
"sailing-trial","287","1118732","0.0-11.0-246.0","","","","false","","","","","","","","","","460.80000000074506","","17.199999999254942","","3","1","arrowright","1","arrowright","[0.675,0.325,0.15,0.85]","","",""
"sailing-trial","288","1121385","0.0-11.0-247.0","","","","false","","","","","","","","","","null","","1083.699999999255","","3","1","null","null","arrowup","[0.675,0.325,0.15,0.85]","","",""
"sailing-trial","289","1125254","0.0-11.0-248.0","","","","false","","","","","","","","","","1187.2999999970198","","638.5","","3","0","arrowright","1","arrowright","[0.85,0.15,0.325,0.675]","","",""
"sailing-trial","290","1127089","0.0-11.0-249.0","","","","false","","","","","","","","","","null","","791.2999999970198","","1","0","null","null","arrowup","[0.85,0.15,0.325,0.675]","","",""
"sailing-trial","291","1130373","0.0-11.0-250.0","","","","false","","","","","","","","","","385.0999999977648","","17.800000000745058","","0","1","arrowleft","0","arrowleft","[0.85,0.15,0.325,0.675]","","",""
"sailing-trial","292","1132746","0.0-11.0-251.0","","","","false","","","","","","","","","","null","","659.8999999985099","","2","0","null","null","arrowup","[0.85,0.15,0.325,0.675]","","",""
"sailing-trial","293","1136832","0.0-11.0-252.0","","","","false","","","","","","","","","","1157.2000000029802","","154.30000000074506","","3","1","arrowright","1","arrowright","[0.85,0.15,0.325,0.675]","","",""
"sailing-trial","294","1139045","0.0-11.0-253.0","","","","false","","","","","","","","","","null","","489.5999999977648","","3","0","null","null","arrowup","[0.85,0.15,0.325,0.675]","","",""
"sailing-trial","295","1143598","0.0-11.0-254.0","","","","false","","","","","","","","","","431.69999999925494","","1260","","0","1","arrowleft","0","arrowleft","[0.85,0.15,0.325,0.675]","","",""
"sailing-trial","296","1145933","0.0-11.0-255.0","","","","false","","","","","","","","","","null","","1214.5999999977648","","1","0","null","null","arrowup","[0.85,0.15,0.325,0.675]","","",""
"sailing-trial","297","1149376","0.0-11.0-256.0","","","","false","","","","","","","","","","462","","177.39999999850988","","1","1","arrowleft","0","arrowright","[0.85,0.15,0.325,0.675]","","",""
"sailing-trial","298","1151438","0.0-11.0-257.0","","","","false","","","","","","","","","","null","","265.4000000022352","","0","1","null","null","arrowup","[0.85,0.15,0.325,0.675]","","",""
"sailing-trial","299","1154855","0.0-11.0-258.0","","","","false","","","","","","","","","","594.5","","37.69999999925494","","2","1","arrowright","1","arrowleft","[0.85,0.15,0.325,0.675]","","",""
"sailing-trial","300","1156904","0.0-11.0-259.0","","","","false","","","","","","","","","","null","","461.69999999925494","","1","1","null","null","arrowup","[0.85,0.15,0.325,0.675]","","",""
"sailing-trial","301","1160766","0.0-11.0-260.0","","","","false","","","","","","","","","","992.6999999992549","","149.69999999925494","","3","1","arrowright","1","arrowright","[0.85,0.15,0.325,0.675]","","",""
"sailing-trial","302","1162583","0.0-11.0-261.0","","","","false","","","","","","","","","","null","","557.2999999970198","","1","0","null","null","arrowup","[0.85,0.15,0.325,0.675]","","",""
"sailing-trial","303","1165398","0.0-11.0-262.0","","","","false","","","","","","","","","","481.19999999925494","","131.19999999925494","","0","0","arrowleft","0","arrowleft","[0.85,0.15,0.325,0.675]","","",""
"sailing-trial","304","1167864","0.0-11.0-263.0","","","","false","","","","","","","","","","null","","808.3000000007451","","0","1","null","null","arrowup","[0.85,0.15,0.325,0.675]","","",""
"sailing-trial","305","1170620","0.0-11.0-264.0","","","","false","","","","","","","","","","535.0999999977648","","10.100000001490116","","1","0","arrowleft","0","arrowright","[0.85,0.15,0.325,0.675]","","",""
"sailing-trial","306","1172154","0.0-11.0-265.0","","","","false","","","","","","","","","","null","","471.3999999985099","","1","0","null","null","arrowup","[0.85,0.15,0.325,0.675]","","",""
"sailing-trial","307","1175372","0.0-11.0-266.0","","","","false","","","","","","","","","","300.69999999925494","","171.89999999850988","","0","1","arrowleft","0","arrowleft","[0.85,0.15,0.325,0.675]","","",""
"sailing-trial","308","1177408","0.0-11.0-267.0","","","","false","","","","","","","","","","null","","254.90000000223517","","3","1","null","null","arrowup","[0.85,0.15,0.325,0.675]","","",""
"sailing-trial","309","1180796","0.0-11.0-268.0","","","","false","","","","","","","","","","195.80000000074506","","260.5","","0","1","arrowleft","0","arrowleft","[0.85,0.15,0.325,0.675]","","",""
"sailing-trial","310","1182264","0.0-11.0-269.0","","","","false","","","","","","","","","","null","","308.3999999985099","","3","0","null","null","arrowup","[0.85,0.15,0.325,0.675]","","",""
"sailing-trial","311","1185754","0.0-11.0-270.0","","","","false","","","","","","","","","","516.6000000014901","","290.19999999925494","","3","1","arrowright","1","arrowright","[0.85,0.15,0.325,0.675]","","",""
"sailing-trial","312","1187638","0.0-11.0-271.0","","","","false","","","","","","","","","","null","","273.80000000074506","","3","1","null","null","arrowup","[0.85,0.15,0.325,0.675]","","",""
"sailing-trial","313","1190227","0.0-11.0-272.0","","","","false","","","","","","","","","","347.3999999985099","","49","","3","0","arrowright","1","arrowright","[0.675,0.325,0.15,0.85]","","",""
"sailing-trial","314","1192506","0.0-11.0-273.0","","","","false","","","","","","","","","","null","","705.8999999985099","","3","1","null","null","arrowup","[0.675,0.325,0.15,0.85]","","",""
"sailing-trial","315","1196388","0.0-11.0-274.0","","","","false","","","","","","","","","","919.6000000014901","","113.79999999701977","","3","1","arrowright","1","arrowright","[0.675,0.325,0.15,0.85]","","",""
"sailing-trial","316","1198486","0.0-11.0-275.0","","","","false","","","","","","","","","","null","","491.3999999985099","","0","1","null","null","arrowup","[0.675,0.325,0.15,0.85]","","",""
"sailing-trial","317","1201597","0.0-11.0-276.0","","","","false","","","","","","","","","","303","","2.800000000745058","","0","1","arrowleft","0","arrowleft","[0.675,0.325,0.15,0.85]","","",""
"sailing-trial","318","1203526","0.0-11.0-277.0","","","","false","","","","","","","","","","null","","798.7000000029802","","3","0","null","null","arrowup","[0.675,0.325,0.15,0.85]","","",""
"sailing-trial","319","1206820","0.0-11.0-278.0","","","","false","","","","","","","","","","526.8000000007451","","101","","0","1","arrowleft","0","arrowleft","[0.675,0.325,0.15,0.85]","","",""
"sailing-trial","320","1208307","0.0-11.0-279.0","","","","false","","","","","","","","","","null","","432","","0","0","null","null","arrowup","[0.675,0.325,0.15,0.85]","","",""
"sailing-trial","321","1211640","0.0-11.0-280.0","","","","false","","","","","","","","","","243.80000000074506","","296.30000000074506","","0","1","arrowleft","0","arrowleft","[0.675,0.325,0.15,0.85]","","",""
"sailing-trial","322","1213800","0.0-11.0-281.0","","","","false","","","","","","","","","","null","","402.69999999925494","","3","1","null","null","arrowup","[0.675,0.325,0.15,0.85]","","",""
"sailing-trial","323","1216297","0.0-11.0-282.0","","","","false","","","","","","","","","","380.19999999925494","","91.5","","0","0","arrowleft","0","arrowleft","[0.675,0.325,0.15,0.85]","","",""
"sailing-trial","324","1218348","0.0-11.0-283.0","","","","false","","","","","","","","","","null","","874.6999999992549","","3","0","null","null","arrowup","[0.675,0.325,0.15,0.85]","","",""
"sailing-trial","325","1221097","0.0-11.0-284.0","","","","false","","","","","","","","","","385.5","","115.30000000074506","","2","0","arrowright","1","arrowleft","[0.675,0.325,0.15,0.85]","","",""
"sailing-trial","326","1224745","0.0-11.0-285.0","","","","false","","","","","","","","","","null","","2040.800000000745","","0","1","null","null","arrowup","[0.675,0.325,0.15,0.85]","","",""
"sailing-trial","327","1228059","0.0-11.0-286.0","","","","false","","","","","","","","","","339","","178.20000000298023","","3","1","arrowright","1","arrowright","[0.675,0.325,0.15,0.85]","","",""
"sailing-trial","328","1230336","0.0-11.0-287.0","","","","false","","","","","","","","","","null","","723.8999999985099","","2","0","null","null","arrowup","[0.675,0.325,0.15,0.85]","","",""
"sailing-trial","329","1235191","0.0-11.0-288.0","","","","false","","","","","","","","","","865.6999999992549","","1281.199999999255","","0","1","arrowleft","0","arrowleft","[0.675,0.325,0.15,0.85]","","",""
"sailing-trial","330","1237234","0.0-11.0-289.0","","","","false","","","","","","","","","","null","","348.4000000022352","","0","1","null","null","arrowup","[0.675,0.325,0.15,0.85]","","",""
"sailing-trial","331","1240817","0.0-11.0-290.0","","","","false","","","","","","","","","","696.9000000022352","","161.19999999925494","","0","1","arrowleft","0","arrowleft","[0.675,0.325,0.15,0.85]","","",""
"sailing-trial","332","1242828","0.0-11.0-291.0","","","","false","","","","","","","","","","null","","956.2999999970198","","1","0","null","null","arrowup","[0.675,0.325,0.15,0.85]","","",""
"sailing-trial","333","1245780","0.0-11.0-292.0","","","","false","","","","","","","","","","544","","139.80000000074506","","0","0","arrowleft","0","arrowleft","[0.85,0.15,0.325,0.675]","","",""
"sailing-trial","334","1247795","0.0-11.0-293.0","","","","false","","","","","","","","","","null","","800.1999999992549","","1","0","null","null","arrowup","[0.85,0.15,0.325,0.675]","","",""
"sailing-trial","335","1250787","0.0-11.0-294.0","","","","false","","","","","","","","","","309.5999999977648","","346.1000000014901","","3","0","arrowright","1","arrowright","[0.85,0.15,0.325,0.675]","","",""
"sailing-trial","336","1252746","0.0-11.0-295.0","","","","false","","","","","","","","","","null","","895.1000000014901","","1","0","null","null","arrowup","[0.85,0.15,0.325,0.675]","","",""
"sailing-trial","337","1255562","0.0-11.0-296.0","","","","false","","","","","","","","","","490.79999999701977","","134.09999999776483","","3","0","arrowright","1","arrowright","[0.85,0.15,0.325,0.675]","","",""
"sailing-trial","338","1257813","0.0-11.0-297.0","","","","false","","","","","","","","","","null","","611.8000000007451","","3","1","null","null","arrowup","[0.85,0.15,0.325,0.675]","","",""
"sailing-trial","339","1261162","0.0-11.0-298.0","","","","false","","","","","","","","","","393.8999999985099","","685.5","","3","0","arrowright","1","arrowright","[0.85,0.15,0.325,0.675]","","",""
"sailing-trial","340","1263438","0.0-11.0-299.0","","","","false","","","","","","","","","","null","","508.3999999985099","","2","1","null","null","arrowup","[0.85,0.15,0.325,0.675]","","",""
"sailing-trial","341","1267070","0.0-11.0-300.0","","","","false","","","","","","","","","","434.80000000074506","","7.599999997764826","","2","1","arrowright","1","arrowleft","[0.85,0.15,0.325,0.675]","","",""
"sailing-trial","342","1268981","0.0-11.0-301.0","","","","false","","","","","","","","","","null","","341.29999999701977","","3","1","null","null","arrowup","[0.85,0.15,0.325,0.675]","","",""
"sailing-trial","343","1276516","0.0-11.0-302.0","","","","false","","","","","","","","","","4457.199999999255","","320.1000000014901","","1","1","arrowleft","0","arrowright","[0.85,0.15,0.325,0.675]","","",""
"sailing-trial","344","1278628","0.0-11.0-303.0","","","","false","","","","","","","","","","null","","348.8999999985099","","2","1","null","null","arrowup","[0.85,0.15,0.325,0.675]","","",""
"sailing-trial","345","1282315","0.0-11.0-304.0","","","","false","","","","","","","","","","656.8999999985099","","80.10000000149012","","0","1","arrowleft","0","arrowleft","[0.85,0.15,0.325,0.675]","","",""
"sailing-trial","346","1284545","0.0-11.0-305.0","","","","false","","","","","","","","","","null","","423.80000000074506","","2","1","null","null","arrowup","[0.85,0.15,0.325,0.675]","","",""
"sailing-trial","347","1288573","0.0-11.0-306.0","","","","false","","","","","","","","","","1318.8999999985099","","57.29999999701977","","3","1","arrowright","1","arrowright","[0.85,0.15,0.325,0.675]","","",""
"sailing-trial","348","1290496","0.0-11.0-307.0","","","","false","","","","","","","","","","null","","689.6999999992549","","2","0","null","null","arrowup","[0.85,0.15,0.325,0.675]","","",""
"sailing-trial","349","1293554","0.0-11.0-308.0","","","","false","","","","","","","","","","384.69999999925494","","31.599999997764826","","1","1","arrowleft","0","arrowright","[0.675,0.325,0.15,0.85]","","",""
"sailing-trial","350","1295713","0.0-11.0-309.0","","","","false","","","","","","","","","","null","","472.5","","3","1","null","null","arrowup","[0.675,0.325,0.15,0.85]","","",""
"sailing-trial","351","1298123","0.0-11.0-310.0","","","","false","","","","","","","","","","36.600000001490116","","101.09999999776483","","1","0","arrowleft","0","arrowright","[0.675,0.325,0.15,0.85]","","",""
"sailing-trial","352","1300824","0.0-11.0-311.0","","","","false","","","","","","","","","","null","","951.7000000029802","","1","1","null","null","arrowup","[0.675,0.325,0.15,0.85]","","",""
"sailing-trial","353","1303442","0.0-11.0-312.0","","","","false","","","","","","","","","","368.3999999985099","","23","","0","0","arrowleft","0","arrowleft","[0.675,0.325,0.15,0.85]","","",""
"sailing-trial","354","1305205","0.0-11.0-313.0","","","","false","","","","","","","","","","null","","659.6999999992549","","1","0","null","null","arrowup","[0.675,0.325,0.15,0.85]","","",""
"sailing-trial","355","1308114","0.0-11.0-314.0","","","","false","","","","","","","","","","366.80000000074506","","2.100000001490116","","0","0","arrowleft","0","arrowleft","[0.675,0.325,0.15,0.85]","","",""
"sailing-trial","356","1310305","0.0-11.0-315.0","","","","false","","","","","","","","","","null","","592.5","","0","1","null","null","arrowup","[0.675,0.325,0.15,0.85]","","",""
"sailing-trial","357","1314514","0.0-11.0-316.0","","","","false","","","","","","","","","","538.3999999985099","","864.5999999977648","","0","1","arrowleft","0","arrowleft","[0.675,0.325,0.15,0.85]","","",""
"sailing-trial","358","1316604","0.0-11.0-317.0","","","","false","","","","","","","","","","null","","558.6000000014901","","0","1","null","null","arrowup","[0.675,0.325,0.15,0.85]","","",""
"sailing-trial","359","1319813","0.0-11.0-318.0","","","","false","","","","","","","","","","265.80000000074506","","176.69999999925494","","0","1","arrowleft","0","arrowleft","[0.675,0.325,0.15,0.85]","","",""
"sailing-trial","360","1321439","0.0-11.0-319.0","","","","false","","","","","","","","","","null","","578.1000000014901","","1","0","null","null","arrowup","[0.675,0.325,0.15,0.85]","","",""
"sailing-trial","361","1325129","0.0-11.0-320.0","","","","false","","","","","","","","","","1540.5","","58.80000000074506","","0","0","arrowleft","0","arrowleft","[0.675,0.325,0.15,0.85]","","",""
"sailing-trial","362","1326775","0.0-11.0-321.0","","","","false","","","","","","","","","","null","","554.3000000007451","","1","0","null","null","arrowup","[0.675,0.325,0.15,0.85]","","",""
"sailing-trial","363","1329317","0.0-11.0-322.0","","","","false","","","","","","","","","","330","","19.099999997764826","","2","0","arrowright","1","arrowleft","[0.675,0.325,0.15,0.85]","","",""
"sailing-trial","364","1331599","0.0-11.0-323.0","","","","false","","","","","","","","","","null","","591.6000000014901","","3","1","null","null","arrowup","[0.675,0.325,0.15,0.85]","","",""
"sailing-trial","365","1335592","0.0-11.0-324.0","","","","false","","","","","","","","","","258.4000000022352","","13.400000002235174","","3","1","arrowright","1","arrowright","[0.675,0.325,0.15,0.85]","","",""
"sailing-trial","366","1337759","0.0-11.0-325.0","","","","false","","","","","","","","","","null","","436.1000000014901","","3","1","null","null","arrowup","[0.675,0.325,0.15,0.85]","","",""
"sailing-trial","367","1341337","0.0-11.0-326.0","","","","false","","","","","","","","","","1177.4000000022352","","142","","3","0","arrowright","1","arrowright","[0.675,0.325,0.15,0.85]","","",""
"sailing-trial","368","1343333","0.0-11.0-327.0","","","","false","","","","","","","","","","null","","772.2999999970198","","2","0","null","null","arrowup","[0.675,0.325,0.15,0.85]","","",""
"sailing-trial","369","1347032","0.0-11.0-328.0","","","","false","","","","","","","","","","216.60000000149012","","170.30000000074506","","0","1","arrowleft","0","arrowleft","[0.85,0.15,0.325,0.675]","","",""
"sailing-trial","370","1348700","0.0-11.0-329.0","","","","false","","","","","","","","","","null","","415.5","","1","0","null","null","arrowup","[0.85,0.15,0.325,0.675]","","",""
"sailing-trial","371","1351852","0.0-11.0-330.0","","","","false","","","","","","","","","","460.5999999977648","","143.39999999850988","","0","1","arrowleft","0","arrowleft","[0.85,0.15,0.325,0.675]","","",""
"sailing-trial","372","1353865","0.0-11.0-331.0","","","","false","","","","","","","","","","null","","311.1000000014901","","3","1","null","null","arrowup","[0.85,0.15,0.325,0.675]","","",""
"sailing-trial","373","1357068","0.0-11.0-332.0","","","","false","","","","","","","","","","359.8999999985099","","84","","0","1","arrowleft","0","arrowleft","[0.85,0.15,0.325,0.675]","","",""
"sailing-trial","374","1358998","0.0-11.0-333.0","","","","false","","","","","","","","","","null","","406.30000000074506","","2","1","null","null","arrowup","[0.85,0.15,0.325,0.675]","","",""
"sailing-trial","375","1363957","0.0-11.0-334.0","","","","false","","","","","","","","","","2119.10000000149","","67.10000000149012","","3","1","arrowright","1","arrowright","[0.85,0.15,0.325,0.675]","","",""
"sailing-trial","376","1366284","0.0-11.0-335.0","","","","false","","","","","","","","","","null","","510.9000000022352","","3","1","null","null","arrowup","[0.85,0.15,0.325,0.675]","","",""
"sailing-trial","377","1369611","0.0-11.0-336.0","","","","false","","","","","","","","","","461.69999999925494","","42.5","","3","1","arrowright","1","arrowright","[0.85,0.15,0.325,0.675]","","",""
"sailing-trial","378","1372097","0.0-11.0-337.0","","","","false","","","","","","","","","","null","","777.8000000007451","","3","1","null","null","arrowup","[0.85,0.15,0.325,0.675]","","",""
"sailing-trial","379","1377364","0.0-11.0-338.0","","","","false","","","","","","","","","","2255.199999999255","","91.10000000149012","","0","1","arrowleft","0","arrowleft","[0.85,0.15,0.325,0.675]","","",""
"sailing-trial","380","1380744","0.0-11.0-339.0","","","","false","","","","","","","","","","null","","1601.5","","3","1","null","null","arrowup","[0.85,0.15,0.325,0.675]","","",""
"sailing-trial","381","1385410","0.0-11.0-340.0","","","","false","","","","","","","","","","1237.3999999985099","","116","","0","0","arrowleft","0","arrowleft","[0.85,0.15,0.325,0.675]","","",""
"sailing-trial","382","1387933","0.0-11.0-341.0","","","","false","","","","","","","","","","null","","931.5","","0","1","null","null","arrowup","[0.85,0.15,0.325,0.675]","","",""
"sailing-trial","383","1390981","0.0-11.0-342.0","","","","false","","","","","","","","","","434.19999999925494","","25.300000000745058","","3","1","arrowright","1","arrowright","[0.85,0.15,0.325,0.675]","","",""
"sailing-trial","384","1392971","0.0-11.0-343.0","","","","false","","","","","","","","","","null","","754.8999999985099","","1","0","null","null","arrowup","[0.85,0.15,0.325,0.675]","","",""
"sailing-trial","385","1395756","0.0-11.0-344.0","","","","false","","","","","","","","","","489.19999999925494","","141","","0","0","arrowleft","0","arrowleft","[0.15,0.85,0.675,0.325]","","",""
"sailing-trial","386","1398128","0.0-11.0-345.0","","","","false","","","","","","","","","","null","","761.6999999992549","","1","1","null","null","arrowup","[0.15,0.85,0.675,0.325]","","",""
"sailing-trial","387","1400830","0.0-11.0-346.0","","","","false","","","","","","","","","","321.19999999925494","","70.30000000074506","","1","0","arrowleft","0","arrowright","[0.15,0.85,0.675,0.325]","","",""
"sailing-trial","388","1402743","0.0-11.0-347.0","","","","false","","","","","","","","","","null","","763.1999999992549","","2","0","null","null","arrowup","[0.15,0.85,0.675,0.325]","","",""
"sailing-trial","389","1405997","0.0-11.0-348.0","","","","false","","","","","","","","","","394.5","","190.09999999776483","","3","1","arrowright","1","arrowright","[0.15,0.85,0.675,0.325]","","",""
"sailing-trial","390","1407865","0.0-11.0-349.0","","","","false","","","","","","","","","","null","","323.29999999701977","","2","1","null","null","arrowup","[0.15,0.85,0.675,0.325]","","",""
"sailing-trial","391","1410519","0.0-11.0-350.0","","","","false","","","","","","","","","","290.5","","114.60000000149012","","3","0","arrowright","1","arrowright","[0.15,0.85,0.675,0.325]","","",""
"sailing-trial","392","1412080","0.0-11.0-351.0","","","","false","","","","","","","","","","null","","346.19999999925494","","3","0","null","null","arrowup","[0.15,0.85,0.675,0.325]","","",""
"sailing-trial","393","1415609","0.0-11.0-352.0","","","","false","","","","","","","","","","329.6000000014901","","438.19999999925494","","3","1","arrowright","1","arrowright","[0.15,0.85,0.675,0.325]","","",""
"sailing-trial","394","1417304","0.0-11.0-353.0","","","","false","","","","","","","","","","null","","462.8999999985099","","0","0","null","null","arrowup","[0.15,0.85,0.675,0.325]","","",""
"sailing-trial","395","1420195","0.0-11.0-354.0","","","","false","","","","","","","","","","274.1000000014901","","14.5","","3","0","arrowright","1","arrowright","[0.15,0.85,0.675,0.325]","","",""
"sailing-trial","396","1422284","0.0-11.0-355.0","","","","false","","","","","","","","","","null","","480.30000000074506","","3","1","null","null","arrowup","[0.15,0.85,0.675,0.325]","","",""
"sailing-trial","397","1426220","0.0-11.0-356.0","","","","false","","","","","","","","","","405.5999999977648","","171.60000000149012","","0","0","arrowleft","0","arrowleft","[0.15,0.85,0.675,0.325]","","",""
"sailing-trial","398","1428228","0.0-11.0-357.0","","","","false","","","","","","","","","","null","","479.69999999925494","","2","1","null","null","arrowup","[0.15,0.85,0.675,0.325]","","",""
"sailing-trial","399","1431265","0.0-11.0-358.0","","","","false","","","","","","","","","","363.5","","143.89999999850988","","0","1","arrowleft","0","arrowleft","[0.15,0.85,0.675,0.325]","","",""
"sailing-trial","400","1433507","0.0-11.0-359.0","","","","false","","","","","","","","","","null","","575.6000000014901","","2","1","null","null","arrowup","[0.15,0.85,0.675,0.325]","","",""
"sailing-trial","401","1436493","0.0-11.0-360.0","","","","false","","","","","","","","","","235.40000000223517","","175.40000000223517","","0","0","arrowleft","0","arrowleft","[0.15,0.85,0.675,0.325]","","",""
"sailing-trial","402","1438141","0.0-11.0-361.0","","","","false","","","","","","","","","","null","","602.3000000007451","","0","0","null","null","arrowup","[0.15,0.85,0.675,0.325]","","",""
"sailing-trial","403","1441448","0.0-11.0-362.0","","","","false","","","","","","","","","","772","","294.0999999977648","","0","0","arrowleft","0","arrowleft","[0.675,0.325,0.15,0.85]","","",""
"sailing-trial","404","1443953","0.0-11.0-363.0","","","","false","","","","","","","","","","null","","939.6000000014901","","3","1","null","null","arrowup","[0.675,0.325,0.15,0.85]","","",""
"sailing-trial","405","1447001","0.0-11.0-364.0","","","","false","","","","","","","","","","243.39999999850988","","43.600000001490116","","3","1","arrowright","1","arrowright","[0.675,0.325,0.15,0.85]","","",""
"sailing-trial","406","1449009","0.0-11.0-365.0","","","","false","","","","","","","","","","null","","263.69999999925494","","0","1","null","null","arrowup","[0.675,0.325,0.15,0.85]","","",""
"sailing-trial","407","1452273","0.0-11.0-366.0","","","","false","","","","","","","","","","375.5","","66.30000000074506","","3","1","arrowright","1","arrowright","[0.675,0.325,0.15,0.85]","","",""
"sailing-trial","408","1453895","0.0-11.0-367.0","","","","false","","","","","","","","","","null","","483.19999999925494","","0","0","null","null","arrowup","[0.675,0.325,0.15,0.85]","","",""
"sailing-trial","409","1457253","0.0-11.0-368.0","","","","false","","","","","","","","","","574.2999999970198","","265.19999999925494","","0","1","arrowleft","0","arrowleft","[0.675,0.325,0.15,0.85]","","",""
"sailing-trial","410","1458735","0.0-11.0-369.0","","","","false","","","","","","","","","","null","","220.39999999850988","","2","0","null","null","arrowup","[0.675,0.325,0.15,0.85]","","",""
"sailing-trial","411","1461229","0.0-11.0-370.0","","","","false","","","","","","","","","","422.80000000074506","","12.800000000745058","","0","0","arrowleft","0","arrowleft","[0.675,0.325,0.15,0.85]","","",""
"sailing-trial","412","1463302","0.0-11.0-371.0","","","","false","","","","","","","","","","null","","554.5999999977648","","0","1","null","null","arrowup","[0.675,0.325,0.15,0.85]","","",""
"sailing-trial","413","1466907","0.0-11.0-372.0","","","","false","","","","","","","","","","469.1000000014901","","427.19999999925494","","0","1","arrowleft","0","arrowleft","[0.675,0.325,0.15,0.85]","","",""
"sailing-trial","414","1469044","0.0-11.0-373.0","","","","false","","","","","","","","","","null","","836.8999999985099","","2","0","null","null","arrowup","[0.675,0.325,0.15,0.85]","","",""
"sailing-trial","415","1472039","0.0-11.0-374.0","","","","false","","","","","","","","","","375.69999999925494","","10.599999997764826","","0","1","arrowleft","0","arrowleft","[0.675,0.325,0.15,0.85]","","",""
"sailing-trial","416","1474004","0.0-11.0-375.0","","","","false","","","","","","","","","","null","","740.2999999970198","","2","0","null","null","arrowup","[0.675,0.325,0.15,0.85]","","",""
"sailing-trial","417","1477290","0.0-11.0-376.0","","","","false","","","","","","","","","","356.80000000074506","","237.10000000149012","","0","1","arrowleft","0","arrowleft","[0.675,0.325,0.15,0.85]","","",""
"sailing-trial","418","1478786","0.0-11.0-377.0","","","","false","","","","","","","","","","null","","318.3999999985099","","1","0","null","null","arrowup","[0.675,0.325,0.15,0.85]","","",""
"sailing-trial","419","1482409","0.0-11.0-378.0","","","","false","","","","","","","","","","913.2000000029802","","143.40000000223517","","0","1","arrowleft","0","arrowleft","[0.675,0.325,0.15,0.85]","","",""
"sailing-trial","420","1483935","0.0-11.0-379.0","","","","false","","","","","","","","","","null","","236.30000000074506","","2","0","null","null","arrowup","[0.675,0.325,0.15,0.85]","","",""
"sailing-trial","421","1486941","0.0-11.0-380.0","","","","false","","","","","","","","","","602.3999999985099","","124.19999999925494","","0","0","arrowleft","0","arrowleft","[0.675,0.325,0.15,0.85]","","",""
"sailing-trial","422","1488473","0.0-11.0-381.0","","","","false","","","","","","","","","","null","","515.1000000014901","","2","0","null","null","arrowup","[0.675,0.325,0.15,0.85]","","",""
"sailing-trial","423","1491973","0.0-11.0-382.0","","","","false","","","","","","","","","","320.5","","564.6999999992549","","3","1","arrowright","1","arrowright","[0.85,0.15,0.325,0.675]","","",""
"sailing-trial","424","1493882","0.0-11.0-383.0","","","","false","","","","","","","","","","null","","283.8999999985099","","3","1","null","null","arrowup","[0.85,0.15,0.325,0.675]","","",""
"sailing-trial","425","1497607","0.0-11.0-384.0","","","","false","","","","","","","","","","457.4000000022352","","525.1999999992549","","3","1","arrowright","1","arrowright","[0.85,0.15,0.325,0.675]","","",""
"sailing-trial","426","1499730","0.0-11.0-385.0","","","","false","","","","","","","","","","null","","499.1000000014901","","0","1","null","null","arrowup","[0.85,0.15,0.325,0.675]","","",""
"sailing-trial","427","1503231","0.0-11.0-386.0","","","","false","","","","","","","","","","898.2999999970198","","30.399999998509884","","3","1","arrowright","1","arrowright","[0.85,0.15,0.325,0.675]","","",""
"sailing-trial","428","1504603","0.0-11.0-387.0","","","","false","","","","","","","","","","null","","231.29999999701977","","2","0","null","null","arrowup","[0.85,0.15,0.325,0.675]","","",""
"sailing-trial","429","1507669","0.0-11.0-388.0","","","","false","","","","","","","","","","345.69999999925494","","144.5","","3","1","arrowright","1","arrowright","[0.85,0.15,0.325,0.675]","","",""
"sailing-trial","430","1509372","0.0-11.0-389.0","","","","false","","","","","","","","","","null","","404.79999999701977","","2","0","null","null","arrowup","[0.85,0.15,0.325,0.675]","","",""
"sailing-trial","431","1512489","0.0-11.0-390.0","","","","false","","","","","","","","","","237.40000000223517","","213.10000000149012","","3","1","arrowright","1","arrowright","[0.85,0.15,0.325,0.675]","","",""
"sailing-trial","432","1514586","0.0-11.0-391.0","","","","false","","","","","","","","","","null","","413.69999999925494","","3","1","null","null","arrowup","[0.85,0.15,0.325,0.675]","","",""
"sailing-trial","433","1518705","0.0-11.0-392.0","","","","false","","","","","","","","","","1480.2000000029802","","125","","3","1","arrowright","1","arrowright","[0.85,0.15,0.325,0.675]","","",""
"sailing-trial","434","1520830","0.0-11.0-393.0","","","","false","","","","","","","","","","null","","383.1000000014901","","0","1","null","null","arrowup","[0.85,0.15,0.325,0.675]","","",""
"sailing-trial","435","1523542","0.0-11.0-394.0","","","","false","","","","","","","","","","272.5","","129.19999999925494","","3","0","arrowright","1","arrowright","[0.85,0.15,0.325,0.675]","","",""
"sailing-trial","436","1526102","0.0-11.0-395.0","","","","false","","","","","","","","","","null","","752.3999999985099","","3","1","null","null","arrowup","[0.85,0.15,0.325,0.675]","","",""
"sailing-trial","437","1529567","0.0-11.0-396.0","","","","false","","","","","","","","","","642.1999999992549","","20.699999999254942","","0","1","arrowleft","0","arrowleft","[0.85,0.15,0.325,0.675]","","",""
"sailing-trial","438","1531790","0.0-11.0-397.0","","","","false","","","","","","","","","","null","","593.2000000029802","","2","1","null","null","arrowup","[0.85,0.15,0.325,0.675]","","",""
"sailing-trial","439","1535138","0.0-11.0-398.0","","","","false","","","","","","","","","","403.69999999925494","","105.30000000074506","","0","1","arrowleft","0","arrowleft","[0.85,0.15,0.325,0.675]","","",""
"sailing-trial","440","1537117","0.0-11.0-399.0","","","","false","","","","","","","","","","null","","379.5","","3","1","null","null","arrowup","[0.85,0.15,0.325,0.675]","","",""
"instructions","441","1541450","0.0-12.0","","","","","","","","","","4333.10000000149","","","","","","","","","","","","","","","","[{""page_index"":0,""viewing_time"":4332.900000002235}]"
"survey-debrief","442","1571723","0.0-13.0","","","","","","","","","","30271.800000000745","","","","","","","","","","","","","","{""difficulty"":""4"",""fun"":""2"",""clarity"":""4"",""strategy"":""If I had three or more \""treasures\"" with a certain vendor I stuck with them."",""feedback"":""no""}","",""
