"trial_type","trial_index","time_elapsed","internal_node_id","value","metadata","success","timeout","failed_images","failed_audio","failed_video","browser_interaction","low_quality","rt","stimulus","response","button_pressed","island_rt","island_response","boat_rt","boat_response","boat","reward","island_key","island","boat_key","reward_probabilities","responses","num_errors","view_history"
"pavlovia","0","9","0.0-0.0","","","","","","","","","","","","","","","","","","","","","","","","","",""
"call-function","1","9","0.0-1.0","","{""task_version"":""sailing_part1_v1"",""task_condition"":""good"",""boats"":[""D"",""B"",""A"",""C""],""boats_demo"":[""F"",""E"",""H"",""G""],""islands"":[""B"",""A""],""subject_id"":""14729"",""age"":""15"",""gender"":""Female""}","","","","","","","","","","","","","","","","","","","","","","","",""
"preload","2","1137","0.0-2.0","","","true","false","[]","[]","[]","[{""event"":""focus"",""trial"":0,""time"":1},{""event"":""fullscreenenter"",""trial"":3,""time"":4684}]","false","","","","","","","","","","","","","","","","",""
"fullscreen","3","5443","0.0-3.0","","","true","","","","","","","","","","","","","","","","","","","","","","",""
"audio-keyboard-response","4","7395","0.0-4.0-0.0","","","","","","","","","","1810.6666666666667","audio/beep_loop.wav"," ","","","","","","","","","","","","","",""
"audio-test","5","11046","0.0-4.0-1.0","","","","","","","","","","null","audio/turtle.mp3","","3","","","","","","","","","","","","",""
"audio-test","6","13742","0.0-4.0-2.0","","","","","","","","","","null","audio/shark.mp3","","2","","","","","","","","","","","","",""
"sailing-instructions","7","48710","0.0-5.0-0.0-0.0","","","","","","","","","","","","","","null","null","null","null","null","null","","","","","","",""
"sailing-trial","8","53242","0.0-5.0-0.0-1.0-0.0","","","","false","","","","","","","","","","3399","","null","","null","null","arrowleft","0","null","null","","",""
"sailing-trial","9","56107","0.0-5.0-0.0-1.0-1.0","","","","false","","","","","","","","","","1729","","null","","null","null","arrowright","1","null","null","","",""
"sailing-trial","10","59302","0.0-5.0-0.0-1.0-2.0","","","","false","","","","","","","","","","2051","","null","","null","null","arrowleft","0","null","null","","",""
"sailing-instructions","11","104230","0.0-5.0-0.0-2.0","","","","","","","","","","","","","","null","null","null","null","0","null","","","","","","",""
"sailing-trial","12","111384","0.0-5.0-0.0-3.0-0.0","","","","false","","","","","","","","","","null","","2573","","2","1","null","null","arrowleft","[1,1,1,1]","","",""
"sailing-trial","13","117061","0.0-5.0-0.0-3.0-1.0","","","","false","","","","","","","","","","null","","1855","","3","1","null","null","arrowright","[1,1,1,1]","","",""
"sailing-trial","14","122602","0.0-5.0-0.0-3.0-2.0","","","","false","","","","","","","","","","null","","2277","","3","0","null","null","arrowright","[0,0,0,0]","","",""
"sailing-instructions","15","130207","0.0-5.0-0.0-4.0","","","","","","","","","","","","","","null","null","null","null","null","null","","","","","","",""
"sailing-comprehension","16","151601","0.0-5.0-0.0-5.0","","","","","","","","","","13957","","","","","","","","","","","","","","[""true"",""true"",""false"",""true""]","0",""
"sailing-instructions","17","219310","0.0-6.0-0.0-0.0","","","","","","","","","","","","","","null","null","null","null","null","null","","","","","","",""
"sailing-comprehension","18","235824","0.0-6.0-0.0-1.0","","","","","","","","","","13632","","","","","","","","","","","","","","[""true"",""false"",""true""]","0",""
"sailing-instructions","19","250238","0.0-7.0-0.0-0.0","","","","","","","","","","","","","","null","null","null","null","null","null","","","","","","",""
"sailing-trial","20","257771","0.0-7.0-0.0-1.0-0.0","","","","false","","","","","","","","","","null","","3712","","0","1","null","null","arrowup","[0.2,0.8,0.2,0.8]","","",""
"sailing-trial","21","263598","0.0-7.0-0.0-1.0-1.0","","","","false","","","","","","","","","","null","","2771","","1","1","null","null","arrowup","[0.2,0.8,0.2,0.8]","","",""
"sailing-trial","22","268189","0.0-7.0-0.0-1.0-2.0","","","","false","","","","","","","","","","null","","2316","","2","0","null","null","arrowup","[0.2,0.8,0.2,0.8]","","",""
"sailing-trial","23","271510","0.0-7.0-0.0-1.0-3.0","","","","false","","","","","","","","","","null","","1037","","3","1","null","null","arrowup","[0.2,0.8,0.2,0.8]","","",""
"sailing-comprehension","24","285045","0.0-7.0-0.0-2.0","","","","","","","","","","6695","","","","","","","","","","","","","","[""true""]","1",""
"sailing-instructions","25","298990","0.0-7.0-0.1-0.1","","","","","","","","","","","","","","null","null","null","null","null","null","","","","","","",""
"sailing-trial","26","302765","0.0-7.0-0.1-1.1-0.1","","","","false","","","","","","","","","","null","","2295","","0","0","null","null","arrowup","[0.2,0.8,0.2,0.8]","","",""
"sailing-trial","27","305368","0.0-7.0-0.1-1.1-1.1","","","","false","","","","","","","","","","null","","609","","1","0","null","null","arrowup","[0.2,0.8,0.2,0.8]","","",""
"sailing-trial","28","307756","0.0-7.0-0.1-1.1-2.1","","","","false","","","","","","","","","","null","","986","","2","0","null","null","arrowup","[0.2,0.8,0.2,0.8]","","",""
"sailing-trial","29","310881","0.0-7.0-0.1-1.1-3.1","","","","false","","","","","","","","","","null","","1032","","3","1","null","null","arrowup","[0.2,0.8,0.2,0.8]","","",""
"sailing-comprehension","30","322272","0.0-7.0-0.1-2.1","","","","","","","","","","5229","","","","","","","","","","","","","","[""true""]","1",""
"sailing-instructions","31","332839","0.0-8.0-0.0-0.0","","","","","","","","","","","","","","null","null","null","null","null","null","","","","","","",""
"sailing-comprehension","32","339240","0.0-8.0-0.0-1.0","","","","","","","","","","3863","","","","","","","","","","","","","","[""true""]","0",""
"sailing-instructions","33","361830","0.0-9.0-0.0-0.0","","","","","","","","","","","","","","null","null","null","null","null","null","","","","","","",""
"sailing-trial","34","369132","0.0-9.0-0.0-1.0-0.0","","","","false","","","","","","","","","","1789","","1739","","3","1","arrowright","1","arrowright","[0.2,0.8,0.2,0.8]","","",""
"sailing-trial","35","375221","0.0-9.0-0.0-1.0-1.0","","","","false","","","","","","","","","","1497","","771","","3","1","arrowright","1","arrowright","[0.2,0.8,0.2,0.8]","","",""
"sailing-trial","36","379129","0.0-9.0-0.0-1.0-2.0","","","","false","","","","","","","","","","null","","2008","","0","0","null","null","arrowup","[0.2,0.8,0.2,0.8]","","",""
"sailing-trial","37","384431","0.0-9.0-0.0-1.0-3.0","","","","false","","","","","","","","","","1644","","615","","3","0","arrowright","1","arrowright","[0.2,0.8,0.2,0.8]","","",""
"sailing-trial","38","387527","0.0-9.0-0.0-1.0-4.0","","","","false","","","","","","","","","","null","","1597","","3","0","null","null","arrowup","[0.2,0.8,0.2,0.8]","","",""
"sailing-trial","39","393179","0.0-9.0-0.0-1.0-5.0","","","","false","","","","","","","","","","1881","","645","","0","0","arrowleft","0","arrowleft","[0.2,0.8,0.2,0.8]","","",""
"sailing-instructions","40","424142","0.0-10.0","","","","","","","","","","","","","","null","null","null","null","null","null","","","","","","",""
"sailing-trial","41","430126","0.0-11.0-0.0","","","","false","","","","","","","","","","2463","","293","","3","1","arrowright","1","arrowright","[0.325,0.675,0.15,0.85]","","",""
"sailing-trial","42","433621","0.0-11.0-1.0","","","","false","","","","","","","","","","null","","1870","","2","0","null","null","arrowup","[0.325,0.675,0.15,0.85]","","",""
"sailing-trial","43","437688","0.0-11.0-2.0","","","","false","","","","","","","","","","1241","","186","","3","0","arrowright","1","arrowright","[0.325,0.675,0.15,0.85]","","",""
"sailing-trial","44","441133","0.0-11.0-3.0","","","","false","","","","","","","","","","null","","1806","","1","0","null","null","arrowup","[0.325,0.675,0.15,0.85]","","",""
"sailing-trial","45","445809","0.0-11.0-4.0","","","","false","","","","","","","","","","1224","","664","","0","0","arrowleft","0","arrowleft","[0.325,0.675,0.15,0.85]","","",""
"sailing-trial","46","449992","0.0-11.0-5.0","","","","false","","","","","","","","","","null","","1906","","3","1","null","null","arrowup","[0.325,0.675,0.15,0.85]","","",""
"sailing-trial","47","453748","0.0-11.0-6.0","","","","false","","","","","","","","","","1077","","123","","3","0","arrowright","1","arrowright","[0.325,0.675,0.15,0.85]","","",""
"sailing-trial","48","457291","0.0-11.0-7.0","","","","false","","","","","","","","","","null","","1440","","3","1","null","null","arrowup","[0.325,0.675,0.15,0.85]","","",""
"sailing-trial","49","462845","0.0-11.0-8.0","","","","false","","","","","","","","","","1568","","1268","","1","0","arrowleft","0","arrowright","[0.325,0.675,0.15,0.85]","","",""
"sailing-trial","50","466344","0.0-11.0-9.0","","","","false","","","","","","","","","","null","","1390","","3","1","null","null","arrowup","[0.325,0.675,0.15,0.85]","","",""
"sailing-trial","51","471602","0.0-11.0-10.0","","","","false","","","","","","","","","","1342","","1284","","2","0","arrowright","1","arrowleft","[0.325,0.675,0.15,0.85]","","",""
"sailing-trial","52","474633","0.0-11.0-11.0","","","","false","","","","","","","","","","null","","1321","","1","0","null","null","arrowup","[0.325,0.675,0.15,0.85]","","",""
"sailing-trial","53","479452","0.0-11.0-12.0","","","","false","","","","","","","","","","1186","","350","","3","1","arrowright","1","arrowright","[0.325,0.675,0.15,0.85]","","",""
"sailing-trial","54","482378","0.0-11.0-13.0","","","","false","","","","","","","","","","null","","1259","","3","0","null","null","arrowup","[0.325,0.675,0.15,0.85]","","",""
"sailing-trial","55","486764","0.0-11.0-14.0","","","","false","","","","","","","","","","769","","570","","3","1","arrowright","1","arrowright","[0.325,0.675,0.15,0.85]","","",""
"sailing-trial","56","490327","0.0-11.0-15.0","","","","false","","","","","","","","","","null","","1634","","1","1","null","null","arrowup","[0.325,0.675,0.15,0.85]","","",""
"sailing-trial","57","494866","0.0-11.0-16.0","","","","false","","","","","","","","","","817","","630","","3","1","arrowright","1","arrowright","[0.325,0.675,0.15,0.85]","","",""
"sailing-trial","58","497865","0.0-11.0-17.0","","","","false","","","","","","","","","","null","","1482","","1","0","null","null","arrowup","[0.325,0.675,0.15,0.85]","","",""
"sailing-trial","59","502107","0.0-11.0-18.0","","","","false","","","","","","","","","","844","","271","","3","1","arrowright","1","arrowright","[0.325,0.675,0.15,0.85]","","",""
"sailing-trial","60","505378","0.0-11.0-19.0","","","","false","","","","","","","","","","null","","1570","","2","0","null","null","arrowup","[0.325,0.675,0.15,0.85]","","",""
"sailing-trial","61","509586","0.0-11.0-20.0","","","","false","","","","","","","","","","902","","239","","3","1","arrowright","1","arrowright","[0.15,0.85,0.325,0.675]","","",""
"sailing-trial","62","512580","0.0-11.0-21.0","","","","false","","","","","","","","","","null","","1074","","3","1","null","null","arrowup","[0.15,0.85,0.325,0.675]","","",""
"sailing-trial","63","517162","0.0-11.0-22.0","","","","false","","","","","","","","","","913","","234","","3","1","arrowright","1","arrowright","[0.15,0.85,0.325,0.675]","","",""
"sailing-trial","64","519719","0.0-11.0-23.0","","","","false","","","","","","","","","","null","","906","","3","0","null","null","arrowup","[0.15,0.85,0.325,0.675]","","",""
"sailing-trial","65","523674","0.0-11.0-24.0","","","","false","","","","","","","","","","1045","","142","","3","0","arrowright","1","arrowright","[0.15,0.85,0.325,0.675]","","",""
"sailing-trial","66","526180","0.0-11.0-25.0","","","","false","","","","","","","","","","null","","1100","","0","0","null","null","arrowup","[0.15,0.85,0.325,0.675]","","",""
"sailing-trial","67","530137","0.0-11.0-26.0","","","","false","","","","","","","","","","723","","2","","3","1","arrowright","1","arrowright","[0.15,0.85,0.325,0.675]","","",""
"sailing-trial","68","533018","0.0-11.0-27.0","","","","false","","","","","","","","","","null","","1267","","3","0","null","null","arrowup","[0.15,0.85,0.325,0.675]","","",""
"sailing-trial","69","537440","0.0-11.0-28.0","","","","false","","","","","","","","","","1028","","140","","3","1","arrowright","1","arrowright","[0.15,0.85,0.325,0.675]","","",""
"sailing-trial","70","540867","0.0-11.0-29.0","","","","false","","","","","","","","","","null","","1261","","2","1","null","null","arrowup","[0.15,0.85,0.325,0.675]","","",""
"sailing-trial","71","545179","0.0-11.0-30.0","","","","false","","","","","","","","","","929","","376","","3","1","arrowright","1","arrowright","[0.15,0.85,0.325,0.675]","","",""
"sailing-trial","72","548396","0.0-11.0-31.0","","","","false","","","","","","","","","","null","","1211","","3","1","null","null","arrowup","[0.15,0.85,0.325,0.675]","","",""
"sailing-trial","73","552825","0.0-11.0-32.0","","","","false","","","","","","","","","","1451","","311","","3","0","arrowright","1","arrowright","[0.15,0.85,0.325,0.675]","","",""
"sailing-trial","74","556149","0.0-11.0-33.0","","","","false","","","","","","","","","","null","","1210","","3","1","null","null","arrowup","[0.15,0.85,0.325,0.675]","","",""
"sailing-trial","75","560503","0.0-11.0-34.0","","","","false","","","","","","","","","","833","","242","","3","1","arrowright","1","arrowright","[0.15,0.85,0.325,0.675]","","",""
"sailing-trial","76","564299","0.0-11.0-35.0","","","","false","","","","","","","","","","null","","2013","","2","0","null","null","arrowup","[0.15,0.85,0.325,0.675]","","",""
"sailing-trial","77","569257","0.0-11.0-36.0","","","","false","","","","","","","","","","1066","","205","","3","0","arrowright","1","arrowright","[0.85,0.15,0.675,0.325]","","",""
"sailing-trial","78","572846","0.0-11.0-37.0","","","","false","","","","","","","","","","null","","1421","","2","1","null","null","arrowup","[0.85,0.15,0.675,0.325]","","",""
"sailing-trial","79","577985","0.0-11.0-38.0","","","","false","","","","","","","","","","1736","","732","","3","0","arrowright","1","arrowright","[0.85,0.15,0.675,0.325]","","",""
"sailing-trial","80","580448","0.0-11.0-39.0","","","","false","","","","","","","","","","null","","868","","3","0","null","null","arrowup","[0.85,0.15,0.675,0.325]","","",""
"sailing-trial","81","585032","0.0-11.0-40.0","","","","false","","","","","","","","","","1087","","233","","3","1","arrowright","1","arrowright","[0.85,0.15,0.675,0.325]","","",""
"sailing-trial","82","587329","0.0-11.0-41.0","","","","false","","","","","","","","","","null","","815","","3","0","null","null","arrowup","[0.85,0.15,0.675,0.325]","","",""
"sailing-trial","83","591694","0.0-11.0-42.0","","","","false","","","","","","","","","","1052","","231","","3","0","arrowright","1","arrowright","[0.85,0.15,0.675,0.325]","","",""
"sailing-trial","84","595019","0.0-11.0-43.0","","","","false","","","","","","","","","","null","","1216","","0","1","null","null","arrowup","[0.85,0.15,0.675,0.325]","","",""
"sailing-trial","85","601213","0.0-11.0-44.0","","","","false","","","","","","","","","","2601","","469","","0","1","arrowleft","0","arrowleft","[0.85,0.15,0.675,0.325]","","",""
"sailing-trial","86","604363","0.0-11.0-45.0","","","","false","","","","","","","","","","null","","1536","","1","0","null","null","arrowup","[0.85,0.15,0.675,0.325]","","",""
"sailing-trial","87","610187","0.0-11.0-46.0","","","","false","","","","","","","","","","955","","1554","","0","1","arrowleft","0","arrowleft","[0.85,0.15,0.675,0.325]","","",""
"sailing-trial","88","612762","0.0-11.0-47.0","","","","false","","","","","","","","","","null","","1017","","3","0","null","null","arrowup","[0.85,0.15,0.675,0.325]","","",""
"sailing-trial","89","618098","0.0-11.0-48.0","","","","false","","","","","","","","","","1430","","489","","0","1","arrowleft","0","arrowleft","[0.85,0.15,0.675,0.325]","","",""
"sailing-trial","90","620974","0.0-11.0-49.0","","","","false","","","","","","","","","","null","","868","","2","1","null","null","arrowup","[0.85,0.15,0.675,0.325]","","",""
"sailing-trial","91","626252","0.0-11.0-50.0","","","","false","","","","","","","","","","1511","","612","","0","1","arrowleft","0","arrowleft","[0.85,0.15,0.675,0.325]","","",""
"sailing-trial","92","630130","0.0-11.0-51.0","","","","false","","","","","","","","","","null","","1837","","0","1","null","null","arrowup","[0.85,0.15,0.675,0.325]","","",""
"sailing-trial","93","634351","0.0-11.0-52.0","","","","false","","","","","","","","","","1154","","431","","0","0","arrowleft","0","arrowleft","[0.15,0.85,0.325,0.675]","","",""
"sailing-trial","94","636891","0.0-11.0-53.0","","","","false","","","","","","","","","","null","","1118","","2","0","null","null","arrowup","[0.15,0.85,0.325,0.675]","","",""
"sailing-trial","95","642353","0.0-11.0-54.0","","","","false","","","","","","","","","","1712","","1324","","0","0","arrowleft","0","arrowleft","[0.15,0.85,0.325,0.675]","","",""
"sailing-trial","96","645862","0.0-11.0-55.0","","","","false","","","","","","","","","","null","","1412","","2","1","null","null","arrowup","[0.15,0.85,0.325,0.675]","","",""
"sailing-trial","97","649839","0.0-11.0-56.0","","","","false","","","","","","","","","","1342","","149","","0","0","arrowleft","0","arrowleft","[0.15,0.85,0.325,0.675]","","",""
"sailing-trial","98","656854","0.0-11.0-57.0","","","","false","","","","","","","","","","null","","5215","","0","0","null","null","arrowup","[0.15,0.85,0.325,0.675]","","",""
"sailing-trial","99","660910","0.0-11.0-58.0","","","","false","","","","","","","","","","1223","","273","","0","0","arrowleft","0","arrowleft","[0.15,0.85,0.325,0.675]","","",""
"sailing-trial","100","663230","0.0-11.0-59.0","","","","false","","","","","","","","","","null","","890","","2","0","null","null","arrowup","[0.15,0.85,0.325,0.675]","","",""
"sailing-trial","101","667507","0.0-11.0-60.0","","","","false","","","","","","","","","","959","","118","","3","1","arrowright","1","arrowright","[0.15,0.85,0.325,0.675]","","",""
"sailing-trial","102","670153","0.0-11.0-61.0","","","","false","","","","","","","","","","null","","1186","","0","0","null","null","arrowup","[0.15,0.85,0.325,0.675]","","",""
"sailing-trial","103","674447","0.0-11.0-62.0","","","","false","","","","","","","","","","955","","224","","3","1","arrowright","1","arrowright","[0.15,0.85,0.325,0.675]","","",""
"sailing-trial","104","678188","0.0-11.0-63.0","","","","false","","","","","","","","","","null","","1550","","1","1","null","null","arrowup","[0.15,0.85,0.325,0.675]","","",""
"sailing-trial","105","682858","0.0-11.0-64.0","","","","false","","","","","","","","","","1316","","198","","3","1","arrowright","1","arrowright","[0.15,0.85,0.325,0.675]","","",""
"sailing-trial","106","685666","0.0-11.0-65.0","","","","false","","","","","","","","","","null","","850","","1","1","null","null","arrowup","[0.15,0.85,0.325,0.675]","","",""
"sailing-trial","107","693070","0.0-11.0-66.0","","","","false","","","","","","","","","","866","","3955","","3","0","arrowright","1","arrowright","[0.15,0.85,0.325,0.675]","","",""
"sailing-trial","108","695774","0.0-11.0-67.0","","","","false","","","","","","","","","","null","","1152","","0","0","null","null","arrowup","[0.15,0.85,0.325,0.675]","","",""
"sailing-trial","109","699892","0.0-11.0-68.0","","","","false","","","","","","","","","","814","","201","","3","1","arrowright","1","arrowright","[0.15,0.85,0.325,0.675]","","",""
"sailing-trial","110","703393","0.0-11.0-69.0","","","","false","","","","","","","","","","null","","1450","","1","1","null","null","arrowup","[0.15,0.85,0.325,0.675]","","",""
"sailing-trial","111","707917","0.0-11.0-70.0","","","","false","","","","","","","","","","1215","","176","","3","1","arrowright","1","arrowright","[0.15,0.85,0.325,0.675]","","",""
"sailing-trial","112","711363","0.0-11.0-71.0","","","","false","","","","","","","","","","null","","1906","","0","0","null","null","arrowup","[0.15,0.85,0.325,0.675]","","",""
"sailing-trial","113","717184","0.0-11.0-72.0","","","","false","","","","","","","","","","915","","806","","3","0","arrowright","1","arrowright","[0.675,0.325,0.85,0.15]","","",""
"sailing-trial","114","720552","0.0-11.0-73.0","","","","false","","","","","","","","","","null","","1647","","0","0","null","null","arrowup","[0.675,0.325,0.85,0.15]","","",""
"sailing-trial","115","728364","0.0-11.0-74.0","","","","false","","","","","","","","","","4725","","583","","3","0","arrowright","1","arrowright","[0.675,0.325,0.85,0.15]","","",""
"sailing-trial","116","731042","0.0-11.0-75.0","","","","false","","","","","","","","","","null","","784","","2","1","null","null","arrowup","[0.675,0.325,0.85,0.15]","","",""
"sailing-trial","117","734955","0.0-11.0-76.0","","","","false","","","","","","","","","","691","","247","","0","1","arrowleft","0","arrowleft","[0.675,0.325,0.85,0.15]","","",""
"sailing-trial","118","738263","0.0-11.0-77.0","","","","false","","","","","","","","","","null","","1420","","0","1","null","null","arrowup","[0.675,0.325,0.85,0.15]","","",""
"sailing-trial","119","742537","0.0-11.0-78.0","","","","false","","","","","","","","","","942","","407","","0","1","arrowleft","0","arrowleft","[0.675,0.325,0.85,0.15]","","",""
"sailing-trial","120","745437","0.0-11.0-79.0","","","","false","","","","","","","","","","null","","964","","0","1","null","null","arrowup","[0.675,0.325,0.85,0.15]","","",""
"sailing-trial","121","750692","0.0-11.0-80.0","","","","false","","","","","","","","","","1136","","1360","","0","0","arrowleft","0","arrowleft","[0.675,0.325,0.85,0.15]","","",""
"sailing-trial","122","753719","0.0-11.0-81.0","","","","false","","","","","","","","","","null","","1146","","2","1","null","null","arrowup","[0.675,0.325,0.85,0.15]","","",""
"sailing-trial","123","757938","0.0-11.0-82.0","","","","false","","","","","","","","","","752","","221","","0","1","arrowleft","0","arrowleft","[0.675,0.325,0.85,0.15]","","",""
"sailing-trial","124","760890","0.0-11.0-83.0","","","","false","","","","","","","","","","null","","985","","2","1","null","null","arrowup","[0.675,0.325,0.85,0.15]","","",""
"sailing-trial","125","765518","0.0-11.0-84.0","","","","false","","","","","","","","","","1043","","459","","0","1","arrowleft","0","arrowleft","[0.675,0.325,0.85,0.15]","","",""
"sailing-trial","126","768677","0.0-11.0-85.0","","","","false","","","","","","","","","","null","","959","","1","1","null","null","arrowup","[0.675,0.325,0.85,0.15]","","",""
"sailing-trial","127","772984","0.0-11.0-86.0","","","","false","","","","","","","","","","904","","313","","0","1","arrowleft","0","arrowleft","[0.675,0.325,0.85,0.15]","","",""
"sailing-trial","128","776183","0.0-11.0-87.0","","","","false","","","","","","","","","","null","","1270","","2","1","null","null","arrowup","[0.675,0.325,0.85,0.15]","","",""
"sailing-trial","129","781086","0.0-11.0-88.0","","","","false","","","","","","","","","","1069","","496","","0","1","arrowleft","0","arrowleft","[0.85,0.15,0.675,0.325]","","",""
"sailing-trial","130","787243","0.0-11.0-89.0","","","","false","","","","","","","","","","null","","4103","","0","1","null","null","arrowup","[0.85,0.15,0.675,0.325]","","",""
"sailing-trial","131","792425","0.0-11.0-90.0","","","","false","","","","","","","","","","1803","","40","","0","1","arrowleft","0","arrowleft","[0.85,0.15,0.675,0.325]","","",""
"sailing-trial","132","795347","0.0-11.0-91.0","","","","false","","","","","","","","","","null","","1458","","1","0","null","null","arrowup","[0.85,0.15,0.675,0.325]","","",""
"sailing-trial","133","799618","0.0-11.0-92.0","","","","false","","","","","","","","","","1015","","308","","0","1","arrowleft","0","arrowleft","[0.85,0.15,0.675,0.325]","","",""
"sailing-trial","134","802401","0.0-11.0-93.0","","","","false","","","","","","","","","","null","","1453","","0","0","null","null","arrowup","[0.85,0.15,0.675,0.325]","","",""
"sailing-trial","135","807711","0.0-11.0-94.0","","","","false","","","","","","","","","","1156","","1175","","0","1","arrowleft","0","arrowleft","[0.85,0.15,0.675,0.325]","","",""
"sailing-trial","136","810606","0.0-11.0-95.0","","","","false","","","","","","","","","","null","","934","","2","1","null","null","arrowup","[0.85,0.15,0.675,0.325]","","",""
"sailing-trial","137","815193","0.0-11.0-96.0","","","","false","","","","","","","","","","1305","","338","","0","1","arrowleft","0","arrowleft","[0.85,0.15,0.675,0.325]","","",""
"sailing-trial","138","818284","0.0-11.0-97.0","","","","false","","","","","","","","","","null","","1666","","3","0","null","null","arrowup","[0.85,0.15,0.675,0.325]","","",""
"sailing-trial","139","823427","0.0-11.0-98.0","","","","false","","","","","","","","","","1327","","301","","0","1","arrowleft","0","arrowleft","[0.85,0.15,0.675,0.325]","","",""
"sailing-trial","140","826813","0.0-11.0-99.0","","","","false","","","","","","","","","","null","","1980","","1","0","null","null","arrowup","[0.85,0.15,0.675,0.325]","","",""
"sailing-trial","141","831511","0.0-11.0-100.0","","","","false","","","","","","","","","","1095","","385","","0","1","arrowleft","0","arrowleft","[0.85,0.15,0.675,0.325]","","",""
"sailing-trial","142","835268","0.0-11.0-101.0","","","","false","","","","","","","","","","null","","2365","","2","0","null","null","arrowup","[0.85,0.15,0.675,0.325]","","",""
"sailing-trial","143","842213","0.0-11.0-102.0","","","","false","","","","","","","","","","1147","","2808","","0","1","arrowleft","0","arrowleft","[0.85,0.15,0.675,0.325]","","",""
"sailing-trial","144","844679","0.0-11.0-103.0","","","","false","","","","","","","","","","null","","1135","","1","0","null","null","arrowup","[0.85,0.15,0.675,0.325]","","",""
"sailing-trial","145","849665","0.0-11.0-104.0","","","","false","","","","","","","","","","1542","","361","","0","1","arrowleft","0","arrowleft","[0.85,0.15,0.675,0.325]","","",""
"sailing-trial","146","853267","0.0-11.0-105.0","","","","false","","","","","","","","","","null","","1709","","0","0","null","null","arrowup","[0.85,0.15,0.675,0.325]","","",""
"sailing-trial","147","858977","0.0-11.0-106.0","","","","false","","","","","","","","","","1090","","509","","0","0","arrowleft","0","arrowleft","[0.675,0.325,0.85,0.15]","","",""
"sailing-trial","148","870860","0.0-11.0-107.0","","","","false","","","","","","","","","","null","","9412","","0","1","null","null","arrowup","[0.675,0.325,0.85,0.15]","","",""
"sailing-trial","149","874774","0.0-11.0-108.0","","","","false","","","","","","","","","","1152","","275","","3","0","arrowright","1","arrowright","[0.675,0.325,0.85,0.15]","","",""
"sailing-trial","150","877054","0.0-11.0-109.0","","","","false","","","","","","","","","","null","","927","","3","0","null","null","arrowup","[0.675,0.325,0.85,0.15]","","",""
"sailing-trial","151","880364","0.0-11.0-110.0","","","","false","","","","","","","","","","839","","73","","3","0","arrowright","1","arrowright","[0.675,0.325,0.85,0.15]","","",""
"sailing-trial","152","883269","0.0-11.0-111.0","","","","false","","","","","","","","","","null","","930","","0","1","null","null","arrowup","[0.675,0.325,0.85,0.15]","","",""
"sailing-trial","153","887089","0.0-11.0-112.0","","","","false","","","","","","","","","","630","","186","","0","1","arrowleft","0","arrowleft","[0.675,0.325,0.85,0.15]","","",""
"sailing-trial","154","890183","0.0-11.0-113.0","","","","false","","","","","","","","","","null","","1211","","3","0","null","null","arrowup","[0.675,0.325,0.85,0.15]","","",""
"sailing-trial","155","894993","0.0-11.0-114.0","","","","false","","","","","","","","","","781","","1119","","0","1","arrowleft","0","arrowleft","[0.675,0.325,0.85,0.15]","","",""
"sailing-trial","156","897465","0.0-11.0-115.0","","","","false","","","","","","","","","","null","","1118","","3","0","null","null","arrowup","[0.675,0.325,0.85,0.15]","","",""
"sailing-trial","157","901337","0.0-11.0-116.0","","","","false","","","","","","","","","","890","","26","","0","1","arrowleft","0","arrowleft","[0.675,0.325,0.85,0.15]","","",""
"sailing-trial","158","904831","0.0-11.0-117.0","","","","false","","","","","","","","","","null","","1166","","2","1","null","null","arrowup","[0.675,0.325,0.85,0.15]","","",""
"sailing-trial","159","910003","0.0-11.0-118.0","","","","false","","","","","","","","","","1007","","207","","0","1","arrowleft","0","arrowleft","[0.675,0.325,0.85,0.15]","","",""
"sailing-trial","160","913058","0.0-11.0-119.0","","","","false","","","","","","","","","","null","","1105","","1","1","null","null","arrowup","[0.675,0.325,0.85,0.15]","","",""
"sailing-trial","161","922238","0.0-11.0-120.0","","","","false","","","","","","","","","","1468","","4445","","0","1","arrowleft","0","arrowleft","[0.675,0.325,0.85,0.15]","","",""
"sailing-trial","162","925645","0.0-11.0-121.0","","","","false","","","","","","","","","","null","","2032","","3","0","null","null","arrowup","[0.675,0.325,0.85,0.15]","","",""
"sailing-trial","163","930414","0.0-11.0-122.0","","","","false","","","","","","","","","","1161","","307","","0","1","arrowleft","0","arrowleft","[0.675,0.325,0.85,0.15]","","",""
"sailing-trial","164","933077","0.0-11.0-123.0","","","","false","","","","","","","","","","null","","1302","","3","0","null","null","arrowup","[0.675,0.325,0.85,0.15]","","",""
"sailing-trial","165","937954","0.0-11.0-124.0","","","","false","","","","","","","","","","1018","","648","","0","1","arrowleft","0","arrowleft","[0.675,0.325,0.85,0.15]","","",""
"sailing-trial","166","941157","0.0-11.0-125.0","","","","false","","","","","","","","","","null","","1235","","3","0","null","null","arrowup","[0.675,0.325,0.85,0.15]","","",""
"sailing-trial","167","945769","0.0-11.0-126.0","","","","false","","","","","","","","","","1104","","386","","0","1","arrowleft","0","arrowleft","[0.85,0.15,0.675,0.325]","","",""
"sailing-trial","168","948950","0.0-11.0-127.0","","","","false","","","","","","","","","","null","","1356","","2","0","null","null","arrowup","[0.85,0.15,0.675,0.325]","","",""
"sailing-trial","169","953604","0.0-11.0-128.0","","","","false","","","","","","","","","","1360","","449","","0","0","arrowleft","0","arrowleft","[0.85,0.15,0.675,0.325]","","",""
"sailing-trial","170","956705","0.0-11.0-129.0","","","","false","","","","","","","","","","null","","1074","","2","0","null","null","arrowup","[0.85,0.15,0.675,0.325]","","",""
"sailing-trial","171","960632","0.0-11.0-130.0","","","","false","","","","","","","","","","718","","293","","3","0","arrowright","1","arrowright","[0.85,0.15,0.675,0.325]","","",""
"sailing-trial","172","964461","0.0-11.0-131.0","","","","false","","","","","","","","","","null","","1389","","2","1","null","null","arrowup","[0.85,0.15,0.675,0.325]","","",""
"sailing-trial","173","968794","0.0-11.0-132.0","","","","false","","","","","","","","","","618","","245","","0","1","arrowleft","0","arrowleft","[0.85,0.15,0.675,0.325]","","",""
"sailing-trial","174","971692","0.0-11.0-133.0","","","","false","","","","","","","","","","null","","1197","","2","0","null","null","arrowup","[0.85,0.15,0.675,0.325]","","",""
"sailing-trial","175","976977","0.0-11.0-134.0","","","","false","","","","","","","","","","1043","","99","","0","1","arrowleft","0","arrowleft","[0.85,0.15,0.675,0.325]","","",""
"sailing-trial","176","981221","0.0-11.0-135.0","","","","false","","","","","","","","","","null","","1374","","0","1","null","null","arrowup","[0.85,0.15,0.675,0.325]","","",""
"sailing-trial","177","987402","0.0-11.0-136.0","","","","false","","","","","","","","","","1521","","1356","","0","0","arrowleft","0","arrowleft","[0.85,0.15,0.675,0.325]","","",""
"sailing-trial","178","990537","0.0-11.0-137.0","","","","false","","","","","","","","","","null","","1252","","0","1","null","null","arrowup","[0.85,0.15,0.675,0.325]","","",""
"sailing-trial","179","995553","0.0-11.0-138.0","","","","false","","","","","","","","","","2150","","78","","3","0","arrowright","1","arrowright","[0.85,0.15,0.675,0.325]","","",""
"sailing-trial","180","998818","0.0-11.0-139.0","","","","false","","","","","","","","","","null","","1148","","0","1","null","null","arrowup","[0.85,0.15,0.675,0.325]","","",""
"sailing-trial","181","1002865","0.0-11.0-140.0","","","","false","","","","","","","","","","748","","252","","0","1","arrowleft","0","arrowleft","[0.85,0.15,0.675,0.325]","","",""
"sailing-trial","182","1005707","0.0-11.0-141.0","","","","false","","","","","","","","","","null","","1494","","1","0","null","null","arrowup","[0.85,0.15,0.675,0.325]","","",""
"sailing-trial","183","1010566","0.0-11.0-142.0","","","","false","","","","","","","","","","877","","747","","0","1","arrowleft","0","arrowleft","[0.675,0.325,0.85,0.15]","","",""
"sailing-trial","184","1013973","0.0-11.0-143.0","","","","false","","","","","","","","","","null","","1362","","1","1","null","null","arrowup","[0.675,0.325,0.85,0.15]","","",""
"sailing-trial","185","1019053","0.0-11.0-144.0","","","","false","","","","","","","","","","907","","1186","","0","1","arrowleft","0","arrowleft","[0.675,0.325,0.85,0.15]","","",""
"sailing-trial","186","1024401","0.0-11.0-145.0","","","","false","","","","","","","","","","null","","2999","","1","1","null","null","arrowup","[0.675,0.325,0.85,0.15]","","",""
"sailing-trial","187","1028914","0.0-11.0-146.0","","","","false","","","","","","","","","","909","","345","","0","1","arrowleft","0","arrowleft","[0.675,0.325,0.85,0.15]","","",""
"sailing-trial","188","1031925","0.0-11.0-147.0","","","","false","","","","","","","","","","null","","1620","","3","0","null","null","arrowup","[0.675,0.325,0.85,0.15]","","",""
"sailing-trial","189","1036244","0.0-11.0-148.0","","","","false","","","","","","","","","","1089","","61","","0","1","arrowleft","0","arrowleft","[0.675,0.325,0.85,0.15]","","",""
"sailing-trial","190","1039800","0.0-11.0-149.0","","","","false","","","","","","","","","","null","","1100","","0","1","null","null","arrowup","[0.675,0.325,0.85,0.15]","","",""
"sailing-trial","191","1046569","0.0-11.0-150.0","","","","false","","","","","","","","","","1165","","2265","","0","1","arrowleft","0","arrowleft","[0.675,0.325,0.85,0.15]","","",""
"sailing-trial","192","1050438","0.0-11.0-151.0","","","","false","","","","","","","","","","null","","1148","","1","1","null","null","arrowup","[0.675,0.325,0.85,0.15]","","",""
"sailing-trial","193","1054683","0.0-11.0-152.0","","","","false","","","","","","","","","","864","","433","","0","1","arrowleft","0","arrowleft","[0.675,0.325,0.85,0.15]","","",""
"sailing-trial","194","1058094","0.0-11.0-153.0","","","","false","","","","","","","","","","null","","1020","","0","0","null","null","arrowup","[0.675,0.325,0.85,0.15]","","",""
"sailing-trial","195","1062238","0.0-11.0-154.0","","","","false","","","","","","","","","","750","","249","","0","1","arrowleft","0","arrowleft","[0.675,0.325,0.85,0.15]","","",""
"sailing-trial","196","1065594","0.0-11.0-155.0","","","","false","","","","","","","","","","null","","1265","","1","1","null","null","arrowup","[0.675,0.325,0.85,0.15]","","",""
"sailing-trial","197","1068937","0.0-11.0-156.0","","","","false","","","","","","","","","","494","","70","","0","0","arrowleft","0","arrowleft","[0.675,0.325,0.85,0.15]","","",""
"sailing-trial","198","1071477","0.0-11.0-157.0","","","","false","","","","","","","","","","null","","1142","","3","0","null","null","arrowup","[0.675,0.325,0.85,0.15]","","",""
"sailing-trial","199","1075319","0.0-11.0-158.0","","","","false","","","","","","","","","","513","","132","","3","1","arrowright","1","arrowright","[0.675,0.325,0.85,0.15]","","",""
"sailing-trial","200","1078653","0.0-11.0-159.0","","","","false","","","","","","","","","","null","","1425","","1","1","null","null","arrowup","[0.675,0.325,0.85,0.15]","","",""
"sailing-trial","201","1083712","0.0-11.0-160.0","","","","false","","","","","","","","","","600","","1730","","3","0","arrowright","1","arrowright","[0.85,0.15,0.675,0.325]","","",""
"sailing-trial","202","1086441","0.0-11.0-161.0","","","","false","","","","","","","","","","null","","1176","","2","0","null","null","arrowup","[0.85,0.15,0.675,0.325]","","",""
"sailing-trial","203","1090789","0.0-11.0-162.0","","","","false","","","","","","","","","","691","","447","","3","1","arrowright","1","arrowright","[0.85,0.15,0.675,0.325]","","",""
"sailing-trial","204","1093319","0.0-11.0-163.0","","","","false","","","","","","","","","","null","","1120","","1","0","null","null","arrowup","[0.85,0.15,0.675,0.325]","","",""
"sailing-trial","205","1098344","0.0-11.0-164.0","","","","false","","","","","","","","","","1808","","264","","0","1","arrowleft","0","arrowleft","[0.85,0.15,0.675,0.325]","","",""
"sailing-trial","206","1101201","0.0-11.0-165.0","","","","false","","","","","","","","","","null","","1192","","1","0","null","null","arrowup","[0.85,0.15,0.675,0.325]","","",""
"sailing-trial","207","1105557","0.0-11.0-166.0","","","","false","","","","","","","","","","902","","128","","0","1","arrowleft","0","arrowleft","[0.85,0.15,0.675,0.325]","","",""
"sailing-trial","208","1111131","0.0-11.0-167.0","","","","false","","","","","","","","","","null","","3617","","1","0","null","null","arrowup","[0.85,0.15,0.675,0.325]","","",""
"sailing-trial","209","1116599","0.0-11.0-168.0","","","","false","","","","","","","","","","1604","","904","","0","1","arrowleft","0","arrowleft","[0.85,0.15,0.675,0.325]","","",""
"sailing-trial","210","1119641","0.0-11.0-169.0","","","","false","","","","","","","","","","null","","1648","","3","0","null","null","arrowup","[0.85,0.15,0.675,0.325]","","",""
"sailing-trial","211","1124091","0.0-11.0-170.0","","","","false","","","","","","","","","","1180","","191","","0","1","arrowleft","0","arrowleft","[0.85,0.15,0.675,0.325]","","",""
"sailing-trial","212","1128357","0.0-11.0-171.0","","","","false","","","","","","","","","","null","","2259","","0","1","null","null","arrowup","[0.85,0.15,0.675,0.325]","","",""
"sailing-trial","213","1133048","0.0-11.0-172.0","","","","false","","","","","","","","","","1030","","280","","0","1","arrowleft","0","arrowleft","[0.85,0.15,0.675,0.325]","","",""
"sailing-trial","214","1135965","0.0-11.0-173.0","","","","false","","","","","","","","","","null","","957","","2","1","null","null","arrowup","[0.85,0.15,0.675,0.325]","","",""
"sailing-trial","215","1140175","0.0-11.0-174.0","","","","false","","","","","","","","","","866","","433","","0","1","arrowleft","0","arrowleft","[0.85,0.15,0.675,0.325]","","",""
"sailing-trial","216","1143242","0.0-11.0-175.0","","","","false","","","","","","","","","","null","","1165","","0","1","null","null","arrowup","[0.85,0.15,0.675,0.325]","","",""
"sailing-trial","217","1147674","0.0-11.0-176.0","","","","false","","","","","","","","","","956","","548","","0","1","arrowleft","0","arrowleft","[0.85,0.15,0.675,0.325]","","",""
"sailing-trial","218","1150506","0.0-11.0-177.0","","","","false","","","","","","","","","","null","","1427","","1","0","null","null","arrowup","[0.85,0.15,0.675,0.325]","","",""
"sailing-trial","219","1156111","0.0-11.0-178.0","","","","false","","","","","","","","","","1355","","368","","0","1","arrowleft","0","arrowleft","[0.85,0.15,0.675,0.325]","","",""
"sailing-trial","220","1159151","0.0-11.0-179.0","","","","false","","","","","","","","","","null","","1099","","0","1","null","null","arrowup","[0.85,0.15,0.675,0.325]","","",""
"sailing-trial","221","1163795","0.0-11.0-180.0","","","","false","","","","","","","","","","1039","","909","","0","1","arrowleft","0","arrowleft","[0.85,0.15,0.675,0.325]","","",""
"sailing-trial","222","1166433","0.0-11.0-181.0","","","","false","","","","","","","","","","null","","1169","","1","0","null","null","arrowup","[0.85,0.15,0.675,0.325]","","",""
"sailing-trial","223","1170960","0.0-11.0-182.0","","","","false","","","","","","","","","","1040","","210","","0","0","arrowleft","0","arrowleft","[0.15,0.85,0.325,0.675]","","",""
"sailing-trial","224","1173500","0.0-11.0-183.0","","","","false","","","","","","","","","","null","","1174","","0","0","null","null","arrowup","[0.15,0.85,0.325,0.675]","","",""
"sailing-trial","225","1177675","0.0-11.0-184.0","","","","false","","","","","","","","","","1138","","197","","0","0","arrowleft","0","arrowleft","[0.15,0.85,0.325,0.675]","","",""
"sailing-trial","226","1180623","0.0-11.0-185.0","","","","false","","","","","","","","","","null","","1354","","2","0","null","null","arrowup","[0.15,0.85,0.325,0.675]","","",""
"sailing-trial","227","1187947","0.0-11.0-186.0","","","","false","","","","","","","","","","4718","","154","","0","0","arrowleft","0","arrowleft","[0.15,0.85,0.325,0.675]","","",""
"sailing-trial","228","1190427","0.0-11.0-187.0","","","","false","","","","","","","","","","null","","1099","","2","0","null","null","arrowup","[0.15,0.85,0.325,0.675]","","",""
"sailing-trial","229","1194147","0.0-11.0-188.0","","","","false","","","","","","","","","","1105","","24","","3","0","arrowright","1","arrowright","[0.15,0.85,0.325,0.675]","","",""
"sailing-trial","230","1197163","0.0-11.0-189.0","","","","false","","","","","","","","","","null","","1154","","1","1","null","null","arrowup","[0.15,0.85,0.325,0.675]","","",""
"sailing-trial","231","1200965","0.0-11.0-190.0","","","","false","","","","","","","","","","605","","314","","0","0","arrowleft","0","arrowleft","[0.15,0.85,0.325,0.675]","","",""
"sailing-trial","232","1203367","0.0-11.0-191.0","","","","false","","","","","","","","","","null","","1039","","0","0","null","null","arrowup","[0.15,0.85,0.325,0.675]","","",""
"sailing-trial","233","1206784","0.0-11.0-192.0","","","","false","","","","","","","","","","871","","112","","0","0","arrowleft","0","arrowleft","[0.15,0.85,0.325,0.675]","","",""
"sailing-trial","234","1209829","0.0-11.0-193.0","","","","false","","","","","","","","","","null","","895","","2","1","null","null","arrowup","[0.15,0.85,0.325,0.675]","","",""
"sailing-trial","235","1213631","0.0-11.0-194.0","","","","false","","","","","","","","","","562","","754","","2","0","arrowright","1","arrowleft","[0.15,0.85,0.325,0.675]","","",""
"sailing-trial","236","1216570","0.0-11.0-195.0","","","","false","","","","","","","","","","null","","1055","","1","1","null","null","arrowup","[0.15,0.85,0.325,0.675]","","",""
"sailing-trial","237","1219919","0.0-11.0-196.0","","","","false","","","","","","","","","","795","","28","","0","0","arrowleft","0","arrowleft","[0.15,0.85,0.325,0.675]","","",""
"sailing-trial","238","1223023","0.0-11.0-197.0","","","","false","","","","","","","","","","null","","1246","","1","1","null","null","arrowup","[0.15,0.85,0.325,0.675]","","",""
"sailing-trial","239","1227044","0.0-11.0-198.0","","","","false","","","","","","","","","","784","","300","","3","1","arrowright","1","arrowright","[0.325,0.675,0.15,0.85]","","",""
"sailing-trial","240","1229978","0.0-11.0-199.0","","","","false","","","","","","","","","","null","","1018","","1","1","null","null","arrowup","[0.325,0.675,0.15,0.85]","","",""
"sailing-trial","241","1235249","0.0-11.0-200.0","","","","false","","","","","","","","","","637","","1762","","3","1","arrowright","1","arrowright","[0.325,0.675,0.15,0.85]","","",""
"sailing-trial","242","1238379","0.0-11.0-201.0","","","","false","","","","","","","","","","null","","1302","","3","1","null","null","arrowup","[0.325,0.675,0.15,0.85]","","",""
"sailing-trial","243","1242797","0.0-11.0-202.0","","","","false","","","","","","","","","","916","","48","","3","1","arrowright","1","arrowright","[0.325,0.675,0.15,0.85]","","",""
"sailing-trial","244","1245944","0.0-11.0-203.0","","","","false","","","","","","","","","","null","","1145","","1","1","null","null","arrowup","[0.325,0.675,0.15,0.85]","","",""
"sailing-trial","245","1250844","0.0-11.0-204.0","","","","false","","","","","","","","","","885","","404","","3","1","arrowright","1","arrowright","[0.325,0.675,0.15,0.85]","","",""
"sailing-trial","246","1255937","0.0-11.0-205.0","","","","false","","","","","","","","","","null","","3124","","2","0","null","null","arrowup","[0.325,0.675,0.15,0.85]","","",""
"sailing-trial","247","1260072","0.0-11.0-206.0","","","","false","","","","","","","","","","1150","","188","","0","0","arrowleft","0","arrowleft","[0.325,0.675,0.15,0.85]","","",""
"sailing-trial","248","1262906","0.0-11.0-207.0","","","","false","","","","","","","","","","null","","941","","1","1","null","null","arrowup","[0.325,0.675,0.15,0.85]","","",""
"sailing-trial","249","1267247","0.0-11.0-208.0","","","","false","","","","","","","","","","930","","925","","3","0","arrowright","1","arrowright","[0.325,0.675,0.15,0.85]","","",""
"sailing-trial","250","1269897","0.0-11.0-209.0","","","","false","","","","","","","","","","null","","1263","","3","0","null","null","arrowup","[0.325,0.675,0.15,0.85]","","",""
"sailing-trial","251","1273746","0.0-11.0-210.0","","","","false","","","","","","","","","","804","","581","","0","0","arrowleft","0","arrowleft","[0.325,0.675,0.15,0.85]","","",""
"sailing-trial","252","1277197","0.0-11.0-211.0","","","","false","","","","","","","","","","null","","1343","","1","1","null","null","arrowup","[0.325,0.675,0.15,0.85]","","",""
"sailing-trial","253","1282454","0.0-11.0-212.0","","","","false","","","","","","","","","","1904","","286","","0","1","arrowleft","0","arrowleft","[0.325,0.675,0.15,0.85]","","",""
"sailing-trial","254","1284945","0.0-11.0-213.0","","","","false","","","","","","","","","","null","","1152","","3","0","null","null","arrowup","[0.325,0.675,0.15,0.85]","","",""
"sailing-trial","255","1290245","0.0-11.0-214.0","","","","false","","","","","","","","","","1171","","1102","","3","1","arrowright","1","arrowright","[0.325,0.675,0.15,0.85]","","",""
"sailing-trial","256","1292730","0.0-11.0-215.0","","","","false","","","","","","","","","","null","","1137","","0","0","null","null","arrowup","[0.325,0.675,0.15,0.85]","","",""
"sailing-trial","257","1298365","0.0-11.0-216.0","","","","false","","","","","","","","","","2363","","352","","3","0","arrowright","1","arrowright","[0.325,0.675,0.15,0.85]","","",""
"sailing-trial","258","1301326","0.0-11.0-217.0","","","","false","","","","","","","","","","null","","1074","","1","1","null","null","arrowup","[0.325,0.675,0.15,0.85]","","",""
"sailing-trial","259","1304893","0.0-11.0-218.0","","","","false","","","","","","","","","","590","","88","","3","1","arrowright","1","arrowright","[0.15,0.85,0.325,0.675]","","",""
"sailing-trial","260","1307352","0.0-11.0-219.0","","","","false","","","","","","","","","","null","","1082","","0","0","null","null","arrowup","[0.15,0.85,0.325,0.675]","","",""
"sailing-trial","261","1312305","0.0-11.0-220.0","","","","false","","","","","","","","","","981","","328","","3","1","arrowright","1","arrowright","[0.15,0.85,0.325,0.675]","","",""
"sailing-trial","262","1315718","0.0-11.0-221.0","","","","false","","","","","","","","","","null","","1271","","2","0","null","null","arrowup","[0.15,0.85,0.325,0.675]","","",""
"sailing-trial","263","1320677","0.0-11.0-222.0","","","","false","","","","","","","","","","1207","","129","","3","1","arrowright","1","arrowright","[0.15,0.85,0.325,0.675]","","",""
"sailing-trial","264","1325816","0.0-11.0-223.0","","","","false","","","","","","","","","","null","","1295","","3","1","null","null","arrowup","[0.15,0.85,0.325,0.675]","","",""
"sailing-trial","265","1332789","0.0-11.0-224.0","","","","false","","","","","","","","","","2054","","1435","","3","1","arrowright","1","arrowright","[0.15,0.85,0.325,0.675]","","",""
"sailing-trial","266","1336436","0.0-11.0-225.0","","","","false","","","","","","","","","","null","","1343","","1","1","null","null","arrowup","[0.15,0.85,0.325,0.675]","","",""
"sailing-trial","267","1340825","0.0-11.0-226.0","","","","false","","","","","","","","","","1210","","238","","3","0","arrowright","1","arrowright","[0.15,0.85,0.325,0.675]","","",""
"sailing-trial","268","1343352","0.0-11.0-227.0","","","","false","","","","","","","","","","null","","1061","","3","0","null","null","arrowup","[0.15,0.85,0.325,0.675]","","",""
"sailing-trial","269","1347887","0.0-11.0-228.0","","","","false","","","","","","","","","","1472","","31","","3","0","arrowright","1","arrowright","[0.15,0.85,0.325,0.675]","","",""
"sailing-trial","270","1351223","0.0-11.0-229.0","","","","false","","","","","","","","","","null","","1275","","2","0","null","null","arrowup","[0.15,0.85,0.325,0.675]","","",""
"sailing-trial","271","1358688","0.0-11.0-230.0","","","","false","","","","","","","","","","727","","3858","","0","0","arrowleft","0","arrowleft","[0.15,0.85,0.325,0.675]","","",""
"sailing-trial","272","1361537","0.0-11.0-231.0","","","","false","","","","","","","","","","null","","1422","","2","0","null","null","arrowup","[0.15,0.85,0.325,0.675]","","",""
"sailing-trial","273","1368660","0.0-11.0-232.0","","","","false","","","","","","","","","","1893","","2393","","3","0","arrowright","1","arrowright","[0.15,0.85,0.325,0.675]","","",""
"sailing-trial","274","1372426","0.0-11.0-233.0","","","","false","","","","","","","","","","null","","1321","","1","1","null","null","arrowup","[0.15,0.85,0.325,0.675]","","",""
"sailing-trial","275","1378572","0.0-11.0-234.0","","","","false","","","","","","","","","","1164","","1451","","3","1","arrowright","1","arrowright","[0.15,0.85,0.325,0.675]","","",""
"sailing-trial","276","1381348","0.0-11.0-235.0","","","","false","","","","","","","","","","null","","1195","","0","0","null","null","arrowup","[0.15,0.85,0.325,0.675]","","",""
"sailing-trial","277","1387714","0.0-11.0-236.0","","","","false","","","","","","","","","","2012","","1198","","3","1","arrowright","1","arrowright","[0.325,0.675,0.15,0.85]","","",""
"sailing-trial","278","1390665","0.0-11.0-237.0","","","","false","","","","","","","","","","null","","1228","","1","0","null","null","arrowup","[0.325,0.675,0.15,0.85]","","",""
"sailing-trial","279","1397162","0.0-11.0-238.0","","","","false","","","","","","","","","","1165","","2134","","3","1","arrowright","1","arrowright","[0.325,0.675,0.15,0.85]","","",""
"sailing-trial","280","1404131","0.0-11.0-239.0","","","","false","","","","","","","","","","null","","5105","","1","1","null","null","arrowup","[0.325,0.675,0.15,0.85]","","",""
"sailing-trial","281","1409792","0.0-11.0-240.0","","","","false","","","","","","","","","","1441","","1424","","3","1","arrowright","1","arrowright","[0.325,0.675,0.15,0.85]","","",""
"sailing-trial","282","1412878","0.0-11.0-241.0","","","","false","","","","","","","","","","null","","1139","","1","1","null","null","arrowup","[0.325,0.675,0.15,0.85]","","",""
"sailing-trial","283","1418811","0.0-11.0-242.0","","","","false","","","","","","","","","","1403","","1373","","3","1","arrowright","1","arrowright","[0.325,0.675,0.15,0.85]","","",""
"sailing-trial","284","1421217","0.0-11.0-243.0","","","","false","","","","","","","","","","null","","1181","","0","0","null","null","arrowup","[0.325,0.675,0.15,0.85]","","",""
"sailing-trial","285","1425348","0.0-11.0-244.0","","","","false","","","","","","","","","","1125","","28","","3","0","arrowright","1","arrowright","[0.325,0.675,0.15,0.85]","","",""
"sailing-trial","286","1428336","0.0-11.0-245.0","","","","false","","","","","","","","","","null","","1080","","0","0","null","null","arrowup","[0.325,0.675,0.15,0.85]","","",""
"sailing-trial","287","1434968","0.0-11.0-246.0","","","","false","","","","","","","","","","905","","2200","","3","1","arrowright","1","arrowright","[0.325,0.675,0.15,0.85]","","",""
"sailing-trial","288","1438632","0.0-11.0-247.0","","","","false","","","","","","","","","","null","","1654","","2","0","null","null","arrowup","[0.325,0.675,0.15,0.85]","","",""
"sailing-trial","289","1443792","0.0-11.0-248.0","","","","false","","","","","","","","","","1421","","279","","3","1","arrowright","1","arrowright","[0.325,0.675,0.15,0.85]","","",""
"sailing-trial","290","1451617","0.0-11.0-249.0","","","","false","","","","","","","","","","null","","2685","","0","1","null","null","arrowup","[0.325,0.675,0.15,0.85]","","",""
"sailing-trial","291","1458508","0.0-11.0-250.0","","","","false","","","","","","","","","","3077","","2","","3","1","arrowright","1","arrowright","[0.325,0.675,0.15,0.85]","","",""
"sailing-trial","292","1461152","0.0-11.0-251.0","","","","false","","","","","","","","","","null","","1114","","2","0","null","null","arrowup","[0.325,0.675,0.15,0.85]","","",""
"sailing-trial","293","1466208","0.0-11.0-252.0","","","","false","","","","","","","","","","1253","","453","","3","1","arrowright","1","arrowright","[0.15,0.85,0.325,0.675]","","",""
"sailing-trial","294","1469322","0.0-11.0-253.0","","","","false","","","","","","","","","","null","","1199","","0","0","null","null","arrowup","[0.15,0.85,0.325,0.675]","","",""
"sailing-trial","295","1474332","0.0-11.0-254.0","","","","false","","","","","","","","","","1106","","213","","3","1","arrowright","1","arrowright","[0.15,0.85,0.325,0.675]","","",""
"sailing-trial","296","1477373","0.0-11.0-255.0","","","","false","","","","","","","","","","null","","1058","","0","0","null","null","arrowup","[0.15,0.85,0.325,0.675]","","",""
"sailing-trial","297","1482522","0.0-11.0-256.0","","","","false","","","","","","","","","","1049","","1039","","3","1","arrowright","1","arrowright","[0.15,0.85,0.325,0.675]","","",""
"sailing-trial","298","1487623","0.0-11.0-257.0","","","","false","","","","","","","","","","null","","3436","","2","1","null","null","arrowup","[0.15,0.85,0.325,0.675]","","",""
"sailing-trial","299","1492456","0.0-11.0-258.0","","","","false","","","","","","","","","","1301","","644","","3","0","arrowright","1","arrowright","[0.15,0.85,0.325,0.675]","","",""
"sailing-trial","300","1495982","0.0-11.0-259.0","","","","false","","","","","","","","","","null","","1343","","1","1","null","null","arrowup","[0.15,0.85,0.325,0.675]","","",""
"sailing-trial","301","1502894","0.0-11.0-260.0","","","","false","","","","","","","","","","2766","","1053","","3","0","arrowright","1","arrowright","[0.15,0.85,0.325,0.675]","","",""
"sailing-trial","302","1508573","0.0-11.0-261.0","","","","false","","","","","","","","","","null","","3753","","2","0","null","null","arrowup","[0.15,0.85,0.325,0.675]","","",""
"sailing-trial","303","1514863","0.0-11.0-262.0","","","","false","","","","","","","","","","2707","","865","","3","0","arrowright","1","arrowright","[0.15,0.85,0.325,0.675]","","",""
"sailing-trial","304","1517922","0.0-11.0-263.0","","","","false","","","","","","","","","","null","","1255","","3","0","null","null","arrowup","[0.15,0.85,0.325,0.675]","","",""
"sailing-trial","305","1523057","0.0-11.0-264.0","","","","false","","","","","","","","","","1004","","31","","0","0","arrowleft","0","arrowleft","[0.15,0.85,0.325,0.675]","","",""
"sailing-trial","306","1527473","0.0-11.0-265.0","","","","false","","","","","","","","","","null","","2070","","0","1","null","null","arrowup","[0.15,0.85,0.325,0.675]","","",""
"sailing-trial","307","1532291","0.0-11.0-266.0","","","","false","","","","","","","","","","1334","","118","","3","1","arrowright","1","arrowright","[0.15,0.85,0.325,0.675]","","",""
"sailing-trial","308","1535227","0.0-11.0-267.0","","","","false","","","","","","","","","","null","","1188","","2","0","null","null","arrowup","[0.15,0.85,0.325,0.675]","","",""
"sailing-trial","309","1539954","0.0-11.0-268.0","","","","false","","","","","","","","","","1035","","323","","3","1","arrowright","1","arrowright","[0.15,0.85,0.325,0.675]","","",""
"sailing-trial","310","1543300","0.0-11.0-269.0","","","","false","","","","","","","","","","null","","1069","","3","1","null","null","arrowup","[0.15,0.85,0.325,0.675]","","",""
"sailing-trial","311","1549123","0.0-11.0-270.0","","","","false","","","","","","","","","","1929","","1116","","3","0","arrowright","1","arrowright","[0.325,0.675,0.15,0.85]","","",""
"sailing-trial","312","1552917","0.0-11.0-271.0","","","","false","","","","","","","","","","null","","1212","","2","1","null","null","arrowup","[0.325,0.675,0.15,0.85]","","",""
"sailing-trial","313","1559184","0.0-11.0-272.0","","","","false","","","","","","","","","","2529","","247","","3","1","arrowright","1","arrowright","[0.325,0.675,0.15,0.85]","","",""
"sailing-trial","314","1564151","0.0-11.0-273.0","","","","false","","","","","","","","","","null","","2990","","3","1","null","null","arrowup","[0.325,0.675,0.15,0.85]","","",""
"sailing-trial","315","1569619","0.0-11.0-274.0","","","","false","","","","","","","","","","2071","","55","","3","1","arrowright","1","arrowright","[0.325,0.675,0.15,0.85]","","",""
"sailing-trial","316","1572883","0.0-11.0-275.0","","","","false","","","","","","","","","","null","","1403","","1","1","null","null","arrowup","[0.325,0.675,0.15,0.85]","","",""
"sailing-trial","317","1577201","0.0-11.0-276.0","","","","false","","","","","","","","","","810","","214","","3","1","arrowright","1","arrowright","[0.325,0.675,0.15,0.85]","","",""
"sailing-trial","318","1581799","0.0-11.0-277.0","","","","false","","","","","","","","","","null","","1486","","3","1","null","null","arrowup","[0.325,0.675,0.15,0.85]","","",""
"sailing-trial","319","1587899","0.0-11.0-278.0","","","","false","","","","","","","","","","889","","1192","","3","1","arrowright","1","arrowright","[0.325,0.675,0.15,0.85]","","",""
"sailing-trial","320","1590298","0.0-11.0-279.0","","","","false","","","","","","","","","","null","","1277","","0","0","null","null","arrowup","[0.325,0.675,0.15,0.85]","","",""
"sailing-trial","321","1594632","0.0-11.0-280.0","","","","false","","","","","","","","","","1277","","131","","3","1","arrowright","1","arrowright","[0.325,0.675,0.15,0.85]","","",""
"sailing-trial","322","1597112","0.0-11.0-281.0","","","","false","","","","","","","","","","null","","1053","","2","0","null","null","arrowup","[0.325,0.675,0.15,0.85]","","",""
"sailing-trial","323","1601223","0.0-11.0-282.0","","","","false","","","","","","","","","","1302","","109","","0","0","arrowleft","0","arrowleft","[0.325,0.675,0.15,0.85]","","",""
"sailing-trial","324","1604938","0.0-11.0-283.0","","","","false","","","","","","","","","","null","","2295","","3","0","null","null","arrowup","[0.325,0.675,0.15,0.85]","","",""
"sailing-trial","325","1611395","0.0-11.0-284.0","","","","false","","","","","","","","","","888","","1651","","3","1","arrowright","1","arrowright","[0.325,0.675,0.15,0.85]","","",""
"sailing-trial","326","1616097","0.0-11.0-285.0","","","","false","","","","","","","","","","null","","2932","","1","1","null","null","arrowup","[0.325,0.675,0.15,0.85]","","",""
"sailing-trial","327","1620524","0.0-11.0-286.0","","","","false","","","","","","","","","","1142","","334","","3","1","arrowright","1","arrowright","[0.325,0.675,0.15,0.85]","","",""
"sailing-trial","328","1623408","0.0-11.0-287.0","","","","false","","","","","","","","","","null","","896","","2","1","null","null","arrowup","[0.325,0.675,0.15,0.85]","","",""
"sailing-trial","329","1628563","0.0-11.0-288.0","","","","false","","","","","","","","","","750","","1505","","3","1","arrowright","1","arrowright","[0.15,0.85,0.325,0.675]","","",""
"sailing-trial","330","1631294","0.0-11.0-289.0","","","","false","","","","","","","","","","null","","835","","1","1","null","null","arrowup","[0.15,0.85,0.325,0.675]","","",""
"sailing-trial","331","1635262","0.0-11.0-290.0","","","","false","","","","","","","","","","674","","90","","3","1","arrowright","1","arrowright","[0.15,0.85,0.325,0.675]","","",""
"sailing-trial","332","1641861","0.0-11.0-291.0","","","","false","","","","","","","","","","null","","5225","","0","0","null","null","arrowup","[0.15,0.85,0.325,0.675]","","",""
"sailing-trial","333","1645865","0.0-11.0-292.0","","","","false","","","","","","","","","","1002","","37","","3","1","arrowright","1","arrowright","[0.15,0.85,0.325,0.675]","","",""
"sailing-trial","334","1648801","0.0-11.0-293.0","","","","false","","","","","","","","","","null","","1036","","3","1","null","null","arrowup","[0.15,0.85,0.325,0.675]","","",""
"sailing-trial","335","1653052","0.0-11.0-294.0","","","","false","","","","","","","","","","623","","681","","3","1","arrowright","1","arrowright","[0.15,0.85,0.325,0.675]","","",""
"sailing-trial","336","1656217","0.0-11.0-295.0","","","","false","","","","","","","","","","null","","1067","","1","1","null","null","arrowup","[0.15,0.85,0.325,0.675]","","",""
"sailing-trial","337","1663573","0.0-11.0-296.0","","","","false","","","","","","","","","","1622","","1273","","3","1","arrowright","1","arrowright","[0.15,0.85,0.325,0.675]","","",""
"sailing-trial","338","1671633","0.0-11.0-297.0","","","","false","","","","","","","","","","null","","6569","","0","0","null","null","arrowup","[0.15,0.85,0.325,0.675]","","",""
"sailing-trial","339","1677349","0.0-11.0-298.0","","","","false","","","","","","","","","","1142","","1487","","3","1","arrowright","1","arrowright","[0.15,0.85,0.325,0.675]","","",""
"sailing-trial","340","1681996","0.0-11.0-299.0","","","","false","","","","","","","","","","null","","2754","","3","1","null","null","arrowup","[0.15,0.85,0.325,0.675]","","",""
"sailing-trial","341","1686818","0.0-11.0-300.0","","","","false","","","","","","","","","","1099","","786","","3","1","arrowright","1","arrowright","[0.15,0.85,0.325,0.675]","","",""
"sailing-trial","342","1691244","0.0-11.0-301.0","","","","false","","","","","","","","","","null","","2429","","2","1","null","null","arrowup","[0.15,0.85,0.325,0.675]","","",""
"sailing-trial","343","1696256","0.0-11.0-302.0","","","","false","","","","","","","","","","2585","","47","","3","0","arrowright","1","arrowright","[0.15,0.85,0.325,0.675]","","",""
"sailing-trial","344","1699091","0.0-11.0-303.0","","","","false","","","","","","","","","","null","","1086","","0","0","null","null","arrowup","[0.15,0.85,0.325,0.675]","","",""
"sailing-trial","345","1705160","0.0-11.0-304.0","","","","false","","","","","","","","","","1291","","1762","","3","1","arrowright","1","arrowright","[0.15,0.85,0.325,0.675]","","",""
"sailing-trial","346","1708741","0.0-11.0-305.0","","","","false","","","","","","","","","","null","","2005","","2","0","null","null","arrowup","[0.15,0.85,0.325,0.675]","","",""
"sailing-trial","347","1712945","0.0-11.0-306.0","","","","false","","","","","","","","","","969","","213","","3","1","arrowright","1","arrowright","[0.15,0.85,0.325,0.675]","","",""
"sailing-trial","348","1715550","0.0-11.0-307.0","","","","false","","","","","","","","","","null","","1175","","0","0","null","null","arrowup","[0.15,0.85,0.325,0.675]","","",""
"sailing-trial","349","1720180","0.0-11.0-308.0","","","","false","","","","","","","","","","841","","355","","3","1","arrowright","1","arrowright","[0.15,0.85,0.325,0.675]","","",""
"sailing-trial","350","1722863","0.0-11.0-309.0","","","","false","","","","","","","","","","null","","892","","0","0","null","null","arrowup","[0.15,0.85,0.325,0.675]","","",""
"sailing-trial","351","1726794","0.0-11.0-310.0","","","","false","","","","","","","","","","926","","34","","3","1","arrowright","1","arrowright","[0.675,0.325,0.85,0.15]","","",""
"sailing-trial","352","1730084","0.0-11.0-311.0","","","","false","","","","","","","","","","null","","788","","2","1","null","null","arrowup","[0.675,0.325,0.85,0.15]","","",""
"sailing-trial","353","1733353","0.0-11.0-312.0","","","","false","","","","","","","","","","787","","135","","3","0","arrowright","1","arrowright","[0.675,0.325,0.85,0.15]","","",""
"sailing-trial","354","1735677","0.0-11.0-313.0","","","","false","","","","","","","","","","null","","1004","","3","0","null","null","arrowup","[0.675,0.325,0.85,0.15]","","",""
"sailing-trial","355","1739213","0.0-11.0-314.0","","","","false","","","","","","","","","","1003","","113","","3","0","arrowright","1","arrowright","[0.675,0.325,0.85,0.15]","","",""
"sailing-trial","356","1741941","0.0-11.0-315.0","","","","false","","","","","","","","","","null","","865","","1","1","null","null","arrowup","[0.675,0.325,0.85,0.15]","","",""
"sailing-trial","357","1746079","0.0-11.0-316.0","","","","false","","","","","","","","","","969","","703","","3","0","arrowright","1","arrowright","[0.675,0.325,0.85,0.15]","","",""
"sailing-trial","358","1749197","0.0-11.0-317.0","","","","false","","","","","","","","","","null","","870","","2","1","null","null","arrowup","[0.675,0.325,0.85,0.15]","","",""
"sailing-trial","359","1753388","0.0-11.0-318.0","","","","false","","","","","","","","","","1218","","61","","3","1","arrowright","1","arrowright","[0.675,0.325,0.85,0.15]","","",""
"sailing-trial","360","1756209","0.0-11.0-319.0","","","","false","","","","","","","","","","null","","857","","0","1","null","null","arrowup","[0.675,0.325,0.85,0.15]","","",""
"sailing-trial","361","1759889","0.0-11.0-320.0","","","","false","","","","","","","","","","829","","83","","3","1","arrowright","1","arrowright","[0.675,0.325,0.85,0.15]","","",""
"sailing-trial","362","1762871","0.0-11.0-321.0","","","","false","","","","","","","","","","null","","995","","1","1","null","null","arrowup","[0.675,0.325,0.85,0.15]","","",""
"sailing-trial","363","1766601","0.0-11.0-322.0","","","","false","","","","","","","","","","1151","","151","","3","0","arrowright","1","arrowright","[0.675,0.325,0.85,0.15]","","",""
"sailing-trial","364","1770826","0.0-11.0-323.0","","","","false","","","","","","","","","","null","","1983","","3","1","null","null","arrowup","[0.675,0.325,0.85,0.15]","","",""
"sailing-trial","365","1774878","0.0-11.0-324.0","","","","false","","","","","","","","","","891","","621","","3","0","arrowright","1","arrowright","[0.675,0.325,0.85,0.15]","","",""
"sailing-trial","366","1779047","0.0-11.0-325.0","","","","false","","","","","","","","","","null","","2935","","3","0","null","null","arrowup","[0.675,0.325,0.85,0.15]","","",""
"sailing-trial","367","1783707","0.0-11.0-326.0","","","","false","","","","","","","","","","893","","211","","3","1","arrowright","1","arrowright","[0.85,0.15,0.675,0.325]","","",""
"sailing-trial","368","1786600","0.0-11.0-327.0","","","","false","","","","","","","","","","null","","1459","","3","0","null","null","arrowup","[0.85,0.15,0.675,0.325]","","",""
"sailing-trial","369","1791804","0.0-11.0-328.0","","","","false","","","","","","","","","","1493","","828","","3","1","arrowright","1","arrowright","[0.85,0.15,0.675,0.325]","","",""
"sailing-trial","370","1794165","0.0-11.0-329.0","","","","false","","","","","","","","","","null","","1010","","3","0","null","null","arrowup","[0.85,0.15,0.675,0.325]","","",""
"sailing-trial","371","1799984","0.0-11.0-330.0","","","","false","","","","","","","","","","610","","1108","","3","0","arrowright","1","arrowright","[0.85,0.15,0.675,0.325]","","",""
"sailing-trial","372","1802280","0.0-11.0-331.0","","","","false","","","","","","","","","","null","","846","","3","0","null","null","arrowup","[0.85,0.15,0.675,0.325]","","",""
"sailing-trial","373","1805741","0.0-11.0-332.0","","","","false","","","","","","","","","","718","","76","","0","1","arrowleft","0","arrowleft","[0.85,0.15,0.675,0.325]","","",""
"sailing-trial","374","1807829","0.0-11.0-333.0","","","","false","","","","","","","","","","null","","811","","1","0","null","null","arrowup","[0.85,0.15,0.675,0.325]","","",""
"sailing-trial","375","1811898","0.0-11.0-334.0","","","","false","","","","","","","","","","721","","392","","0","1","arrowleft","0","arrowleft","[0.85,0.15,0.675,0.325]","","",""
"sailing-trial","376","1814278","0.0-11.0-335.0","","","","false","","","","","","","","","","null","","1036","","3","0","null","null","arrowup","[0.85,0.15,0.675,0.325]","","",""
"sailing-trial","377","1817569","0.0-11.0-336.0","","","","false","","","","","","","","","","704","","117","","0","0","arrowleft","0","arrowleft","[0.85,0.15,0.675,0.325]","","",""
"sailing-trial","378","1820407","0.0-11.0-337.0","","","","false","","","","","","","","","","null","","1117","","0","1","null","null","arrowup","[0.85,0.15,0.675,0.325]","","",""
"sailing-trial","379","1823928","0.0-11.0-338.0","","","","false","","","","","","","","","","887","","193","","0","0","arrowleft","0","arrowleft","[0.85,0.15,0.675,0.325]","","",""
"sailing-trial","380","1827066","0.0-11.0-339.0","","","","false","","","","","","","","","","null","","1015","","3","0","null","null","arrowup","[0.85,0.15,0.675,0.325]","","",""
"sailing-trial","381","1831828","0.0-11.0-340.0","","","","false","","","","","","","","","","1260","","216","","3","1","arrowright","1","arrowright","[0.85,0.15,0.675,0.325]","","",""
"sailing-trial","382","1835200","0.0-11.0-341.0","","","","false","","","","","","","","","","null","","1947","","2","0","null","null","arrowup","[0.85,0.15,0.675,0.325]","","",""
"sailing-trial","383","1838903","0.0-11.0-342.0","","","","false","","","","","","","","","","861","","157","","3","0","arrowright","1","arrowright","[0.85,0.15,0.675,0.325]","","",""
"sailing-trial","384","1842714","0.0-11.0-343.0","","","","false","","","","","","","","","","null","","1767","","0","0","null","null","arrowup","[0.85,0.15,0.675,0.325]","","",""
"sailing-trial","385","1857743","0.0-11.0-344.0","","","","true","","","","","","","","","","null","","null","","null","null","null","null","null","[0.675,0.325,0.85,0.15]","","",""
"sailing-trial","386","1861236","0.0-11.0-345.0","","","","false","","","","","","","","","","null","","1429","","0","1","null","null","arrowup","[0.675,0.325,0.85,0.15]","","",""
"sailing-trial","387","1865640","0.0-11.0-346.0","","","","false","","","","","","","","","","1818","","192","","3","0","arrowright","1","arrowright","[0.675,0.325,0.85,0.15]","","",""
"sailing-trial","388","1868523","0.0-11.0-347.0","","","","false","","","","","","","","","","null","","934","","2","1","null","null","arrowup","[0.675,0.325,0.85,0.15]","","",""
"sailing-trial","389","1872101","0.0-11.0-348.0","","","","false","","","","","","","","","","763","","87","","3","0","arrowright","1","arrowright","[0.675,0.325,0.85,0.15]","","",""
"sailing-trial","390","1875117","0.0-11.0-349.0","","","","false","","","","","","","","","","null","","1697","","0","0","null","null","arrowup","[0.675,0.325,0.85,0.15]","","",""
"sailing-trial","391","1879048","0.0-11.0-350.0","","","","false","","","","","","","","","","962","","41","","0","1","arrowleft","0","arrowleft","[0.675,0.325,0.85,0.15]","","",""
"sailing-trial","392","1881225","0.0-11.0-351.0","","","","false","","","","","","","","","","null","","793","","3","0","null","null","arrowup","[0.675,0.325,0.85,0.15]","","",""
"sailing-trial","393","1885407","0.0-11.0-352.0","","","","false","","","","","","","","","","726","","527","","0","1","arrowleft","0","arrowleft","[0.675,0.325,0.85,0.15]","","",""
"sailing-trial","394","1888143","0.0-11.0-353.0","","","","false","","","","","","","","","","null","","863","","2","1","null","null","arrowup","[0.675,0.325,0.85,0.15]","","",""
"sailing-trial","395","1892116","0.0-11.0-354.0","","","","false","","","","","","","","","","633","","902","","0","0","arrowleft","0","arrowleft","[0.675,0.325,0.85,0.15]","","",""
"sailing-trial","396","1895195","0.0-11.0-355.0","","","","false","","","","","","","","","","null","","1776","","1","0","null","null","arrowup","[0.675,0.325,0.85,0.15]","","",""
"sailing-trial","397","1900032","0.0-11.0-356.0","","","","false","","","","","","","","","","795","","709","","0","1","arrowleft","0","arrowleft","[0.675,0.325,0.85,0.15]","","",""
"sailing-trial","398","1902897","0.0-11.0-357.0","","","","false","","","","","","","","","","null","","951","","2","1","null","null","arrowup","[0.675,0.325,0.85,0.15]","","",""
"sailing-trial","399","1906620","0.0-11.0-358.0","","","","false","","","","","","","","","","1022","","9","","0","0","arrowleft","0","arrowleft","[0.675,0.325,0.85,0.15]","","",""
"sailing-trial","400","1910305","0.0-11.0-359.0","","","","false","","","","","","","","","","null","","1691","","2","1","null","null","arrowup","[0.675,0.325,0.85,0.15]","","",""
"sailing-trial","401","1914208","0.0-11.0-360.0","","","","false","","","","","","","","","","831","","296","","0","1","arrowleft","0","arrowleft","[0.85,0.15,0.675,0.325]","","",""
"sailing-trial","402","1918174","0.0-11.0-361.0","","","","false","","","","","","","","","","null","","2041","","3","1","null","null","arrowup","[0.85,0.15,0.675,0.325]","","",""
"sailing-trial","403","1922850","0.0-11.0-362.0","","","","false","","","","","","","","","","977","","323","","0","1","arrowleft","0","arrowleft","[0.85,0.15,0.675,0.325]","","",""
"sailing-trial","404","1925319","0.0-11.0-363.0","","","","false","","","","","","","","","","null","","1109","","0","0","null","null","arrowup","[0.85,0.15,0.675,0.325]","","",""
"sailing-trial","405","1930028","0.0-11.0-364.0","","","","false","","","","","","","","","","832","","363","","0","1","arrowleft","0","arrowleft","[0.85,0.15,0.675,0.325]","","",""
"sailing-trial","406","1934398","0.0-11.0-365.0","","","","false","","","","","","","","","","null","","2794","","3","0","null","null","arrowup","[0.85,0.15,0.675,0.325]","","",""
"sailing-trial","407","1939768","0.0-11.0-366.0","","","","false","","","","","","","","","","963","","1270","","0","1","arrowleft","0","arrowleft","[0.85,0.15,0.675,0.325]","","",""
"sailing-trial","408","1943428","0.0-11.0-367.0","","","","false","","","","","","","","","","null","","2071","","1","0","null","null","arrowup","[0.85,0.15,0.675,0.325]","","",""
"sailing-trial","409","1951564","0.0-11.0-368.0","","","","false","","","","","","","","","","2018","","3074","","0","1","arrowleft","0","arrowleft","[0.85,0.15,0.675,0.325]","","",""
"sailing-trial","410","1954681","0.0-11.0-369.0","","","","false","","","","","","","","","","null","","948","","3","1","null","null","arrowup","[0.85,0.15,0.675,0.325]","","",""
"sailing-trial","411","1960324","0.0-11.0-370.0","","","","false","","","","","","","","","","998","","159","","0","1","arrowleft","0","arrowleft","[0.85,0.15,0.675,0.325]","","",""
"sailing-trial","412","1964818","0.0-11.0-371.0","","","","false","","","","","","","","","","null","","2329","","0","1","null","null","arrowup","[0.85,0.15,0.675,0.325]","","",""
"sailing-trial","413","1971741","0.0-11.0-372.0","","","","false","","","","","","","","","","997","","2692","","0","1","arrowleft","0","arrowleft","[0.85,0.15,0.675,0.325]","","",""
"sailing-trial","414","1974883","0.0-11.0-373.0","","","","false","","","","","","","","","","null","","1216","","0","0","null","null","arrowup","[0.85,0.15,0.675,0.325]","","",""
"sailing-trial","415","1979198","0.0-11.0-374.0","","","","false","","","","","","","","","","1380","","3","","3","0","arrowright","1","arrowright","[0.85,0.15,0.675,0.325]","","",""
"sailing-trial","416","1981754","0.0-11.0-375.0","","","","false","","","","","","","","","","null","","1232","","2","0","null","null","arrowup","[0.85,0.15,0.675,0.325]","","",""
"sailing-trial","417","1985502","0.0-11.0-376.0","","","","false","","","","","","","","","","492","","52","","0","1","arrowleft","0","arrowleft","[0.85,0.15,0.675,0.325]","","",""
"sailing-trial","418","1988075","0.0-11.0-377.0","","","","false","","","","","","","","","","null","","1096","","1","0","null","null","arrowup","[0.85,0.15,0.675,0.325]","","",""
"sailing-trial","419","1991767","0.0-11.0-378.0","","","","false","","","","","","","","","","603","","93","","0","1","arrowleft","0","arrowleft","[0.85,0.15,0.675,0.325]","","",""
"sailing-trial","420","1995025","0.0-11.0-379.0","","","","false","","","","","","","","","","null","","1344","","3","1","null","null","arrowup","[0.85,0.15,0.675,0.325]","","",""
"sailing-trial","421","2000689","0.0-11.0-380.0","","","","false","","","","","","","","","","645","","1863","","0","1","arrowleft","0","arrowleft","[0.85,0.15,0.675,0.325]","","",""
"sailing-trial","422","2004668","0.0-11.0-381.0","","","","false","","","","","","","","","","null","","1829","","3","1","null","null","arrowup","[0.85,0.15,0.675,0.325]","","",""
"sailing-trial","423","2008658","0.0-11.0-382.0","","","","false","","","","","","","","","","1491","","133","","3","0","arrowright","1","arrowright","[0.85,0.15,0.675,0.325]","","",""
"sailing-trial","424","2012597","0.0-11.0-383.0","","","","false","","","","","","","","","","null","","1963","","2","1","null","null","arrowup","[0.85,0.15,0.675,0.325]","","",""
"sailing-trial","425","2016116","0.0-11.0-384.0","","","","false","","","","","","","","","","843","","304","","0","0","arrowleft","0","arrowleft","[0.325,0.675,0.15,0.85]","","",""
"sailing-trial","426","2019694","0.0-11.0-385.0","","","","false","","","","","","","","","","null","","2065","","1","0","null","null","arrowup","[0.325,0.675,0.15,0.85]","","",""
"sailing-trial","427","2023475","0.0-11.0-386.0","","","","false","","","","","","","","","","1080","","252","","0","0","arrowleft","0","arrowleft","[0.325,0.675,0.15,0.85]","","",""
"sailing-trial","428","2027572","0.0-11.0-387.0","","","","false","","","","","","","","","","null","","2672","","2","0","null","null","arrowup","[0.325,0.675,0.15,0.85]","","",""
"sailing-trial","429","2034042","0.0-11.0-388.0","","","","false","","","","","","","","","","1556","","1993","","3","1","arrowright","1","arrowright","[0.325,0.675,0.15,0.85]","","",""
"sailing-trial","430","2036868","0.0-11.0-389.0","","","","false","","","","","","","","","","null","","1140","","0","0","null","null","arrowup","[0.325,0.675,0.15,0.85]","","",""
"sailing-trial","431","2041625","0.0-11.0-390.0","","","","false","","","","","","","","","","921","","326","","3","1","arrowright","1","arrowright","[0.325,0.675,0.15,0.85]","","",""
"sailing-trial","432","2044887","0.0-11.0-391.0","","","","false","","","","","","","","","","null","","1798","","1","0","null","null","arrowup","[0.325,0.675,0.15,0.85]","","",""
"sailing-trial","433","2050887","0.0-11.0-392.0","","","","false","","","","","","","","","","2202","","811","","3","1","arrowright","1","arrowright","[0.325,0.675,0.15,0.85]","","",""
"sailing-trial","434","2054969","0.0-11.0-393.0","","","","false","","","","","","","","","","null","","2031","","0","1","null","null","arrowup","[0.325,0.675,0.15,0.85]","","",""
"sailing-trial","435","2061277","0.0-11.0-394.0","","","","false","","","","","","","","","","2669","","237","","3","1","arrowright","1","arrowright","[0.325,0.675,0.15,0.85]","","",""
"sailing-trial","436","2064447","0.0-11.0-395.0","","","","false","","","","","","","","","","null","","1034","","3","1","null","null","arrowup","[0.325,0.675,0.15,0.85]","","",""
"sailing-trial","437","2068364","0.0-11.0-396.0","","","","false","","","","","","","","","","737","","264","","3","1","arrowright","1","arrowright","[0.325,0.675,0.15,0.85]","","",""
"sailing-trial","438","2072753","0.0-11.0-397.0","","","","false","","","","","","","","","","null","","2202","","3","1","null","null","arrowup","[0.325,0.675,0.15,0.85]","","",""
"sailing-trial","439","2076740","0.0-11.0-398.0","","","","false","","","","","","","","","","1056","","25","","3","1","arrowright","1","arrowright","[0.325,0.675,0.15,0.85]","","",""
"sailing-trial","440","2080860","0.0-11.0-399.0","","","","false","","","","","","","","","","null","","2209","","2","1","null","null","arrowup","[0.325,0.675,0.15,0.85]","","",""
"instructions","441","2085209","0.0-12.0","","","","","","","","","","4347","","","","","","","","","","","","","","","","[{""page_index"":0,""viewing_time"":4347}]"
"survey-debrief","442","2107921","0.0-13.0","","","","","","","","","","22711","","","","","","","","","","","","","","{""difficulty"":""5"",""fun"":""1"",""clarity"":""5"",""strategy"":""no"",""feedback"":""it was so boring and way to long""}","",""
