"trial_type","trial_index","time_elapsed","internal_node_id","value","metadata","success","timeout","failed_images","failed_audio","failed_video","browser_interaction","low_quality","rt","stimulus","response","button_pressed","island_rt","island_response","boat_rt","boat_response","boat","reward","island_key","island","boat_key","reward_probabilities","responses","num_errors","view_history"
"pavlovia","0","2","0.0-0.0","","","","","","","","","","","","","","","","","","","","","","","","","",""
"call-function","1","2","0.0-1.0","","{""task_version"":""sailing_part1_v1"",""task_condition"":""good"",""boats"":[""C"",""B"",""A"",""D""],""boats_demo"":[""F"",""E"",""H"",""G""],""islands"":[""B"",""A""],""subject_id"":""14052"",""age"":""16"",""gender"":""Female""}","","","","","","","","","","","","","","","","","","","","","","","",""
"preload","2","1492","0.0-2.0","","","true","false","[]","[]","[]","[{""event"":""fullscreenenter"",""trial"":3,""time"":5950}]","false","","","","","","","","","","","","","","","","",""
"fullscreen","3","6947","0.0-3.0","","","true","","","","","","","","","","","","","","","","","","","","","","",""
"audio-keyboard-response","4","10204","0.0-4.0-0.0","","","","","","","","","","2930.666666666667","audio/beep_loop.wav"," ","","","","","","","","","","","","","",""
"audio-test","5","12927","0.0-4.0-1.0","","","","","","","","","","null","audio/turtle.mp3","","3","","","","","","","","","","","","",""
"audio-test","6","19655","0.0-4.0-2.0","","","","","","","","","","null","audio/shark.mp3","","2","","","","","","","","","","","","",""
"sailing-instructions","7","54442","0.0-5.0-0.0-0.0","","","","","","","","","","","","","","null","null","null","null","null","null","","","","","","",""
"sailing-trial","8","60286","0.0-5.0-0.0-1.0-0.0","","","","false","","","","","","","","","","4596.100000023842","","null","","null","null","arrowleft","0","null","null","","",""
"sailing-trial","9","64049","0.0-5.0-0.0-1.0-1.0","","","","false","","","","","","","","","","2635.2999999523163","","null","","null","null","arrowright","1","null","null","","",""
"sailing-trial","10","66998","0.0-5.0-0.0-1.0-2.0","","","","false","","","","","","","","","","1819.6000000238419","","null","","null","null","arrowright","1","null","null","","",""
"sailing-instructions","11","113560","0.0-5.0-0.0-2.0","","","","","","","","","","","","","","null","null","null","null","0","null","","","","","","",""
"sailing-trial","12","120384","0.0-5.0-0.0-3.0-0.0","","","","false","","","","","","","","","","null","","2379.4000000953674","","2","1","null","null","arrowleft","[1,1,1,1]","","",""
"sailing-trial","13","125879","0.0-5.0-0.0-3.0-1.0","","","","false","","","","","","","","","","null","","2098","","3","1","null","null","arrowright","[1,1,1,1]","","",""
"sailing-trial","14","132123","0.0-5.0-0.0-3.0-2.0","","","","false","","","","","","","","","","null","","3048.2000000476837","","3","0","null","null","arrowright","[0,0,0,0]","","",""
"sailing-instructions","15","139557","0.0-5.0-0.0-4.0","","","","","","","","","","","","","","null","null","null","null","null","null","","","","","","",""
"sailing-comprehension","16","160308","0.0-5.0-0.0-5.0","","","","","","","","","","18690.399999976158","","","","","","","","","","","","","","[""true"",""true"",""false"",""true""]","0",""
"sailing-instructions","17","229892","0.0-6.0-0.0-0.0","","","","","","","","","","","","","","null","null","null","null","null","null","","","","","","",""
"sailing-comprehension","18","244616","0.0-6.0-0.0-1.0","","","","","","","","","","13245.299999952316","","","","","","","","","","","","","","[""true"",""false"",""true""]","0",""
"sailing-instructions","19","258624","0.0-7.0-0.0-0.0","","","","","","","","","","","","","","null","null","null","null","null","null","","","","","","",""
"sailing-trial","20","264275","0.0-7.0-0.0-1.0-0.0","","","","false","","","","","","","","","","null","","2865.2000000476837","","0","0","null","null","arrowup","[0.2,0.8,0.2,0.8]","","",""
"sailing-trial","21","269288","0.0-7.0-0.0-1.0-1.0","","","","false","","","","","","","","","","null","","2910.399999976158","","1","0","null","null","arrowup","[0.2,0.8,0.2,0.8]","","",""
"sailing-trial","22","274799","0.0-7.0-0.0-1.0-2.0","","","","false","","","","","","","","","","null","","3044.899999976158","","2","0","null","null","arrowup","[0.2,0.8,0.2,0.8]","","",""
"sailing-trial","23","279761","0.0-7.0-0.0-1.0-3.0","","","","false","","","","","","","","","","null","","2095.3000000715256","","3","1","null","null","arrowup","[0.2,0.8,0.2,0.8]","","",""
"sailing-comprehension","24","297921","0.0-7.0-0.0-2.0","","","","","","","","","","12036.199999928474","","","","","","","","","","","","","","[""true""]","1",""
"sailing-instructions","25","312659","0.0-7.0-0.1-0.1","","","","","","","","","","","","","","null","null","null","null","null","null","","","","","","",""
"sailing-trial","26","316413","0.0-7.0-0.1-1.1-0.1","","","","false","","","","","","","","","","null","","1188.3999999761581","","0","0","null","null","arrowup","[0.2,0.8,0.2,0.8]","","",""
"sailing-trial","27","320677","0.0-7.0-0.1-1.1-1.1","","","","false","","","","","","","","","","null","","1733.6000000238419","","1","1","null","null","arrowup","[0.2,0.8,0.2,0.8]","","",""
"sailing-trial","28","323390","0.0-7.0-0.1-1.1-2.1","","","","false","","","","","","","","","","null","","1109.2000000476837","","2","0","null","null","arrowup","[0.2,0.8,0.2,0.8]","","",""
"sailing-trial","29","327009","0.0-7.0-0.1-1.1-3.1","","","","false","","","","","","","","","","null","","1050.6000000238419","","3","1","null","null","arrowup","[0.2,0.8,0.2,0.8]","","",""
"sailing-comprehension","30","332646","0.0-7.0-0.1-2.1","","","","","","","","","","3939.5","","","","","","","","","","","","","","[""false""]","0",""
"sailing-instructions","31","342883","0.0-8.0-0.0-0.0","","","","","","","","","","","","","","null","null","null","null","null","null","","","","","","",""
"sailing-comprehension","32","348567","0.0-8.0-0.0-1.0","","","","","","","","","","4132.899999976158","","","","","","","","","","","","","","[""true""]","0",""
"sailing-instructions","33","378021","0.0-9.0-0.0-0.0","","","","","","","","","","","","","","null","null","null","null","null","null","","","","","","",""
"sailing-trial","34","383437","0.0-9.0-0.0-1.0-0.0","","","","false","","","","","","","","","","1299.6000000238419","","726.7000000476837","","2","0","arrowright","1","arrowleft","[0.2,0.8,0.2,0.8]","","",""
"sailing-trial","35","388915","0.0-9.0-0.0-1.0-1.0","","","","false","","","","","","","","","","1314.4000000953674","","1062.2999999523163","","3","0","arrowright","1","arrowright","[0.2,0.8,0.2,0.8]","","",""
"sailing-trial","36","392079","0.0-9.0-0.0-1.0-2.0","","","","false","","","","","","","","","","null","","1259.3999999761581","","0","0","null","null","arrowup","[0.2,0.8,0.2,0.8]","","",""
"sailing-trial","37","396408","0.0-9.0-0.0-1.0-3.0","","","","false","","","","","","","","","","822.7000000476837","","3.5","","1","1","arrowleft","0","arrowright","[0.2,0.8,0.2,0.8]","","",""
"sailing-trial","38","399406","0.0-9.0-0.0-1.0-4.0","","","","false","","","","","","","","","","null","","1210.2000000476837","","3","0","null","null","arrowup","[0.2,0.8,0.2,0.8]","","",""
"sailing-trial","39","404920","0.0-9.0-0.0-1.0-5.0","","","","false","","","","","","","","","","1276.3000000715256","","834","","0","1","arrowleft","0","arrowleft","[0.2,0.8,0.2,0.8]","","",""
"sailing-instructions","40","435372","0.0-10.0","","","","","","","","","","","","","","null","null","null","null","null","null","","","","","","",""
"sailing-trial","41","440288","0.0-11.0-0.0","","","","false","","","","","","","","","","1054.5","","30","","3","0","arrowright","1","arrowright","[0.85,0.15,0.675,0.325]","","",""
"sailing-trial","42","444251","0.0-11.0-1.0","","","","false","","","","","","","","","","null","","1146.5999999046326","","1","0","null","null","arrowup","[0.85,0.15,0.675,0.325]","","",""
"sailing-trial","43","448738","0.0-11.0-2.0","","","","false","","","","","","","","","","1201.3999999761581","","1.600000023841858","","2","1","arrowright","1","arrowleft","[0.85,0.15,0.675,0.325]","","",""
"sailing-trial","44","451578","0.0-11.0-3.0","","","","false","","","","","","","","","","null","","1033.5","","1","0","null","null","arrowup","[0.85,0.15,0.675,0.325]","","",""
"sailing-trial","45","456974","0.0-11.0-4.0","","","","false","","","","","","","","","","1214.6000000238419","","882","","2","1","arrowright","1","arrowleft","[0.85,0.15,0.675,0.325]","","",""
"sailing-trial","46","459998","0.0-11.0-5.0","","","","false","","","","","","","","","","null","","912.8999999761581","","0","1","null","null","arrowup","[0.85,0.15,0.675,0.325]","","",""
"sailing-trial","47","465001","0.0-11.0-6.0","","","","false","","","","","","","","","","1522.3999999761581","","248.80000007152557","","0","1","arrowleft","0","arrowleft","[0.85,0.15,0.675,0.325]","","",""
"sailing-trial","48","467539","0.0-11.0-7.0","","","","false","","","","","","","","","","null","","961.8999999761581","","1","0","null","null","arrowup","[0.85,0.15,0.675,0.325]","","",""
"sailing-trial","49","472228","0.0-11.0-8.0","","","","false","","","","","","","","","","1130.6000000238419","","153.60000002384186","","2","1","arrowright","1","arrowleft","[0.85,0.15,0.675,0.325]","","",""
"sailing-trial","50","475328","0.0-11.0-9.0","","","","false","","","","","","","","","","null","","923.2999999523163","","3","1","null","null","arrowup","[0.85,0.15,0.675,0.325]","","",""
"sailing-trial","51","480172","0.0-11.0-10.0","","","","false","","","","","","","","","","863.1000000238419","","688.1999999284744","","3","1","arrowright","1","arrowright","[0.85,0.15,0.675,0.325]","","",""
"sailing-trial","52","483404","0.0-11.0-11.0","","","","false","","","","","","","","","","null","","1030.3000000715256","","1","1","null","null","arrowup","[0.85,0.15,0.675,0.325]","","",""
"sailing-trial","53","487490","0.0-11.0-12.0","","","","false","","","","","","","","","","663.6000000238419","","509.60000002384186","","1","0","arrowleft","0","arrowright","[0.85,0.15,0.675,0.325]","","",""
"sailing-trial","54","490646","0.0-11.0-13.0","","","","false","","","","","","","","","","null","","934.6000000238419","","2","1","null","null","arrowup","[0.85,0.15,0.675,0.325]","","",""
"sailing-trial","55","494408","0.0-11.0-14.0","","","","false","","","","","","","","","","551.3000000715256","","68.5","","2","1","arrowright","1","arrowleft","[0.85,0.15,0.675,0.325]","","",""
"sailing-trial","56","497409","0.0-11.0-15.0","","","","false","","","","","","","","","","null","","1149.1999999284744","","1","0","null","null","arrowup","[0.85,0.15,0.675,0.325]","","",""
"sailing-trial","57","501819","0.0-11.0-16.0","","","","false","","","","","","","","","","1032.5","","51.5","","3","1","arrowright","1","arrowright","[0.85,0.15,0.675,0.325]","","",""
"sailing-trial","58","504933","0.0-11.0-17.0","","","","false","","","","","","","","","","null","","1083","","2","1","null","null","arrowup","[0.85,0.15,0.675,0.325]","","",""
"sailing-trial","59","508615","0.0-11.0-18.0","","","","false","","","","","","","","","","792.5","","200.29999995231628","","3","0","arrowright","1","arrowright","[0.675,0.325,0.85,0.15]","","",""
"sailing-trial","60","511345","0.0-11.0-19.0","","","","false","","","","","","","","","","null","","1109.7000000476837","","3","0","null","null","arrowup","[0.675,0.325,0.85,0.15]","","",""
"sailing-trial","61","515472","0.0-11.0-20.0","","","","false","","","","","","","","","","1043.8999999761581","","55.60000002384186","","2","0","arrowright","1","arrowleft","[0.675,0.325,0.85,0.15]","","",""
"sailing-trial","62","518053","0.0-11.0-21.0","","","","false","","","","","","","","","","null","","993.1000000238419","","3","0","null","null","arrowup","[0.675,0.325,0.85,0.15]","","",""
"sailing-trial","63","522800","0.0-11.0-22.0","","","","false","","","","","","","","","","1361.2000000476837","","568.8999999761581","","1","0","arrowleft","0","arrowright","[0.675,0.325,0.85,0.15]","","",""
"sailing-trial","64","525578","0.0-11.0-23.0","","","","false","","","","","","","","","","null","","1250.8000000715256","","1","0","null","null","arrowup","[0.675,0.325,0.85,0.15]","","",""
"sailing-trial","65","529886","0.0-11.0-24.0","","","","false","","","","","","","","","","889.2999999523163","","641.0999999046326","","0","0","arrowleft","0","arrowleft","[0.675,0.325,0.85,0.15]","","",""
"sailing-trial","66","532976","0.0-11.0-25.0","","","","false","","","","","","","","","","null","","897.5","","1","1","null","null","arrowup","[0.675,0.325,0.85,0.15]","","",""
"sailing-trial","67","536794","0.0-11.0-26.0","","","","false","","","","","","","","","","809.1999999284744","","306.2999999523163","","0","0","arrowleft","0","arrowleft","[0.675,0.325,0.85,0.15]","","",""
"sailing-trial","68","540750","0.0-11.0-27.0","","","","false","","","","","","","","","","null","","1670.8999999761581","","0","1","null","null","arrowup","[0.675,0.325,0.85,0.15]","","",""
"sailing-trial","69","544834","0.0-11.0-28.0","","","","false","","","","","","","","","","1125.8000000715256","","181.90000009536743","","0","0","arrowleft","0","arrowleft","[0.675,0.325,0.85,0.15]","","",""
"sailing-trial","70","547806","0.0-11.0-29.0","","","","false","","","","","","","","","","null","","1229.6000000238419","","3","0","null","null","arrowup","[0.675,0.325,0.85,0.15]","","",""
"sailing-trial","71","552326","0.0-11.0-30.0","","","","false","","","","","","","","","","962.0999999046326","","365.60000002384186","","2","1","arrowright","1","arrowleft","[0.675,0.325,0.85,0.15]","","",""
"sailing-trial","72","555607","0.0-11.0-31.0","","","","false","","","","","","","","","","null","","1081.2999999523163","","3","1","null","null","arrowup","[0.675,0.325,0.85,0.15]","","",""
"sailing-trial","73","559771","0.0-11.0-32.0","","","","false","","","","","","","","","","738.6000000238419","","191.19999992847443","","2","1","arrowright","1","arrowleft","[0.675,0.325,0.85,0.15]","","",""
"sailing-trial","74","562816","0.0-11.0-33.0","","","","false","","","","","","","","","","null","","1427.4000000953674","","1","0","null","null","arrowup","[0.675,0.325,0.85,0.15]","","",""
"sailing-trial","75","567283","0.0-11.0-34.0","","","","false","","","","","","","","","","1712.6000000238419","","39.200000047683716","","2","0","arrowright","1","arrowleft","[0.675,0.325,0.85,0.15]","","",""
"sailing-trial","76","570008","0.0-11.0-35.0","","","","false","","","","","","","","","","null","","959","","0","0","null","null","arrowup","[0.675,0.325,0.85,0.15]","","",""
"sailing-trial","77","575056","0.0-11.0-36.0","","","","false","","","","","","","","","","1659.1000000238419","","177.10000002384186","","2","1","arrowright","1","arrowleft","[0.675,0.325,0.85,0.15]","","",""
"sailing-trial","78","578104","0.0-11.0-37.0","","","","false","","","","","","","","","","null","","984.4000000953674","","1","1","null","null","arrowup","[0.675,0.325,0.85,0.15]","","",""
"sailing-trial","79","581921","0.0-11.0-38.0","","","","false","","","","","","","","","","998.6999999284744","","165.29999995231628","","1","0","arrowleft","0","arrowright","[0.85,0.15,0.675,0.325]","","",""
"sailing-trial","80","585112","0.0-11.0-39.0","","","","false","","","","","","","","","","null","","1197.8000000715256","","2","1","null","null","arrowup","[0.85,0.15,0.675,0.325]","","",""
"sailing-trial","81","589379","0.0-11.0-40.0","","","","false","","","","","","","","","","1599.8999999761581","","61.89999997615814","","1","0","arrowleft","0","arrowright","[0.85,0.15,0.675,0.325]","","",""
"sailing-trial","82","591980","0.0-11.0-41.0","","","","false","","","","","","","","","","null","","1052.5999999046326","","3","0","null","null","arrowup","[0.85,0.15,0.675,0.325]","","",""
"sailing-trial","83","596819","0.0-11.0-42.0","","","","false","","","","","","","","","","1613.2999999523163","","60.10000002384186","","0","1","arrowleft","0","arrowleft","[0.85,0.15,0.675,0.325]","","",""
"sailing-trial","84","599701","0.0-11.0-43.0","","","","false","","","","","","","","","","null","","878.5","","3","1","null","null","arrowup","[0.85,0.15,0.675,0.325]","","",""
"sailing-trial","85","604929","0.0-11.0-44.0","","","","false","","","","","","","","","","1278.1000000238419","","748.1999999284744","","0","1","arrowleft","0","arrowleft","[0.85,0.15,0.675,0.325]","","",""
"sailing-trial","86","608159","0.0-11.0-45.0","","","","false","","","","","","","","","","null","","1120.2000000476837","","3","1","null","null","arrowup","[0.85,0.15,0.675,0.325]","","",""
"sailing-trial","87","612822","0.0-11.0-46.0","","","","false","","","","","","","","","","1166.8000000715256","","312.10000002384186","","0","1","arrowleft","0","arrowleft","[0.85,0.15,0.675,0.325]","","",""
"sailing-trial","88","615918","0.0-11.0-47.0","","","","false","","","","","","","","","","null","","1024.2999999523163","","0","1","null","null","arrowup","[0.85,0.15,0.675,0.325]","","",""
"sailing-trial","89","620931","0.0-11.0-48.0","","","","false","","","","","","","","","","1136.7000000476837","","609.7999999523163","","0","1","arrowleft","0","arrowleft","[0.85,0.15,0.675,0.325]","","",""
"sailing-trial","90","624129","0.0-11.0-49.0","","","","false","","","","","","","","","","null","","1200","","0","1","null","null","arrowup","[0.85,0.15,0.675,0.325]","","",""
"sailing-trial","91","629890","0.0-11.0-50.0","","","","false","","","","","","","","","","1962.8000000715256","","620","","2","1","arrowright","1","arrowleft","[0.85,0.15,0.675,0.325]","","",""
"sailing-trial","92","632721","0.0-11.0-51.0","","","","false","","","","","","","","","","null","","922.3999999761581","","2","1","null","null","arrowup","[0.85,0.15,0.675,0.325]","","",""
"sailing-trial","93","637350","0.0-11.0-52.0","","","","false","","","","","","","","","","1396.8000000715256","","120.29999995231628","","0","1","arrowleft","0","arrowleft","[0.85,0.15,0.675,0.325]","","",""
"sailing-trial","94","639911","0.0-11.0-53.0","","","","false","","","","","","","","","","null","","1073.3999999761581","","1","0","null","null","arrowup","[0.85,0.15,0.675,0.325]","","",""
"sailing-trial","95","645027","0.0-11.0-54.0","","","","false","","","","","","","","","","1727.2000000476837","","143.09999990463257","","0","1","arrowleft","0","arrowleft","[0.675,0.325,0.85,0.15]","","",""
"sailing-trial","96","647874","0.0-11.0-55.0","","","","false","","","","","","","","","","null","","910.2999999523163","","0","1","null","null","arrowup","[0.675,0.325,0.85,0.15]","","",""
"sailing-trial","97","652487","0.0-11.0-56.0","","","","false","","","","","","","","","","1406.2999999523163","","70.5","","2","1","arrowright","1","arrowleft","[0.675,0.325,0.85,0.15]","","",""
"sailing-trial","98","658390","0.0-11.0-57.0","","","","false","","","","","","","","","","null","","4243.600000023842","","3","0","null","null","arrowup","[0.675,0.325,0.85,0.15]","","",""
"sailing-trial","99","663627","0.0-11.0-58.0","","","","false","","","","","","","","","","1501.6999999284744","","121.20000004768372","","2","1","arrowright","1","arrowleft","[0.675,0.325,0.85,0.15]","","",""
"sailing-trial","100","666331","0.0-11.0-59.0","","","","false","","","","","","","","","","null","","1140.2999999523163","","3","0","null","null","arrowup","[0.675,0.325,0.85,0.15]","","",""
"sailing-trial","101","671671","0.0-11.0-60.0","","","","false","","","","","","","","","","1637.6000000238419","","687.5","","0","1","arrowleft","0","arrowleft","[0.675,0.325,0.85,0.15]","","",""
"sailing-trial","102","674172","0.0-11.0-61.0","","","","false","","","","","","","","","","null","","895.7999999523163","","2","0","null","null","arrowup","[0.675,0.325,0.85,0.15]","","",""
"sailing-trial","103","677774","0.0-11.0-62.0","","","","false","","","","","","","","","","897.2999999523163","","96.39999997615814","","0","0","arrowleft","0","arrowleft","[0.675,0.325,0.85,0.15]","","",""
"sailing-trial","104","680285","0.0-11.0-63.0","","","","false","","","","","","","","","","null","","1003.6000000238419","","3","0","null","null","arrowup","[0.675,0.325,0.85,0.15]","","",""
"sailing-trial","105","684384","0.0-11.0-64.0","","","","false","","","","","","","","","","1320.4000000953674","","176.5","","0","0","arrowleft","0","arrowleft","[0.675,0.325,0.85,0.15]","","",""
"sailing-trial","106","686972","0.0-11.0-65.0","","","","false","","","","","","","","","","null","","1025.3000000715256","","1","0","null","null","arrowup","[0.675,0.325,0.85,0.15]","","",""
"sailing-trial","107","690954","0.0-11.0-66.0","","","","false","","","","","","","","","","777.5","","190.09999990463257","","2","1","arrowright","1","arrowleft","[0.675,0.325,0.85,0.15]","","",""
"sailing-trial","108","694050","0.0-11.0-67.0","","","","false","","","","","","","","","","null","","1084","","0","1","null","null","arrowup","[0.675,0.325,0.85,0.15]","","",""
"sailing-trial","109","697696","0.0-11.0-68.0","","","","false","","","","","","","","","","825.3999999761581","","229.29999995231628","","2","0","arrowright","1","arrowleft","[0.675,0.325,0.85,0.15]","","",""
"sailing-trial","110","700546","0.0-11.0-69.0","","","","false","","","","","","","","","","null","","905.3000000715256","","2","1","null","null","arrowup","[0.675,0.325,0.85,0.15]","","",""
"sailing-trial","111","705024","0.0-11.0-70.0","","","","false","","","","","","","","","","877.7000000476837","","558.5","","0","1","arrowleft","0","arrowleft","[0.675,0.325,0.85,0.15]","","",""
"sailing-trial","112","708005","0.0-11.0-71.0","","","","false","","","","","","","","","","null","","954.5","","2","1","null","null","arrowup","[0.675,0.325,0.85,0.15]","","",""
"sailing-trial","113","712216","0.0-11.0-72.0","","","","false","","","","","","","","","","992.2000000476837","","543.6000000238419","","0","0","arrowleft","0","arrowleft","[0.675,0.325,0.85,0.15]","","",""
"sailing-trial","114","715082","0.0-11.0-73.0","","","","false","","","","","","","","","","null","","926.5","","2","1","null","null","arrowup","[0.675,0.325,0.85,0.15]","","",""
"sailing-trial","115","719428","0.0-11.0-74.0","","","","false","","","","","","","","","","601.7000000476837","","190.69999992847443","","2","1","arrowright","1","arrowleft","[0.85,0.15,0.675,0.325]","","",""
"sailing-trial","116","722039","0.0-11.0-75.0","","","","false","","","","","","","","","","null","","1072.6000000238419","","3","0","null","null","arrowup","[0.85,0.15,0.675,0.325]","","",""
"sailing-trial","117","727590","0.0-11.0-76.0","","","","false","","","","","","","","","","2099.0999999046326","","429","","2","1","arrowright","1","arrowleft","[0.85,0.15,0.675,0.325]","","",""
"sailing-trial","118","730727","0.0-11.0-77.0","","","","false","","","","","","","","","","null","","1788.2999999523163","","3","0","null","null","arrowup","[0.85,0.15,0.675,0.325]","","",""
"sailing-trial","119","734699","0.0-11.0-78.0","","","","false","","","","","","","","","","661.7999999523163","","362.09999990463257","","2","1","arrowright","1","arrowleft","[0.85,0.15,0.675,0.325]","","",""
"sailing-trial","120","738479","0.0-11.0-79.0","","","","false","","","","","","","","","","null","","2424.399999976158","","1","0","null","null","arrowup","[0.85,0.15,0.675,0.325]","","",""
"sailing-trial","121","742429","0.0-11.0-80.0","","","","false","","","","","","","","","","736.7999999523163","","318.5","","2","1","arrowright","1","arrowleft","[0.85,0.15,0.675,0.325]","","",""
"sailing-trial","122","744953","0.0-11.0-81.0","","","","false","","","","","","","","","","null","","916.3999999761581","","0","0","null","null","arrowup","[0.85,0.15,0.675,0.325]","","",""
"sailing-trial","123","748971","0.0-11.0-82.0","","","","false","","","","","","","","","","604.2000000476837","","365.39999997615814","","2","1","arrowright","1","arrowleft","[0.85,0.15,0.675,0.325]","","",""
"sailing-trial","124","751919","0.0-11.0-83.0","","","","false","","","","","","","","","","null","","966.8000000715256","","3","1","null","null","arrowup","[0.85,0.15,0.675,0.325]","","",""
"sailing-trial","125","755767","0.0-11.0-84.0","","","","false","","","","","","","","","","728.6000000238419","","8.399999976158142","","3","1","arrowright","1","arrowright","[0.85,0.15,0.675,0.325]","","",""
"sailing-trial","126","759045","0.0-11.0-85.0","","","","false","","","","","","","","","","null","","1188.6000000238419","","2","1","null","null","arrowup","[0.85,0.15,0.675,0.325]","","",""
"sailing-trial","127","762927","0.0-11.0-86.0","","","","false","","","","","","","","","","847.4000000953674","","494","","3","0","arrowright","1","arrowright","[0.85,0.15,0.675,0.325]","","",""
"sailing-trial","128","765772","0.0-11.0-87.0","","","","false","","","","","","","","","","null","","967","","2","1","null","null","arrowup","[0.85,0.15,0.675,0.325]","","",""
"sailing-trial","129","769552","0.0-11.0-88.0","","","","false","","","","","","","","","","789.7000000476837","","86.60000002384186","","2","1","arrowright","1","arrowleft","[0.85,0.15,0.675,0.325]","","",""
"sailing-trial","130","772199","0.0-11.0-89.0","","","","false","","","","","","","","","","null","","1258.6000000238419","","3","0","null","null","arrowup","[0.85,0.15,0.675,0.325]","","",""
"sailing-trial","131","776154","0.0-11.0-90.0","","","","false","","","","","","","","","","1002.6000000238419","","463","","0","0","arrowleft","0","arrowleft","[0.675,0.325,0.85,0.15]","","",""
"sailing-trial","132","778761","0.0-11.0-91.0","","","","false","","","","","","","","","","null","","879","","2","1","null","null","arrowup","[0.675,0.325,0.85,0.15]","","",""
"sailing-trial","133","783007","0.0-11.0-92.0","","","","false","","","","","","","","","","564.1999999284744","","754.3999999761581","","2","1","arrowright","1","arrowleft","[0.675,0.325,0.85,0.15]","","",""
"sailing-trial","134","785821","0.0-11.0-93.0","","","","false","","","","","","","","","","null","","850.6000000238419","","3","1","null","null","arrowup","[0.675,0.325,0.85,0.15]","","",""
"sailing-trial","135","789033","0.0-11.0-94.0","","","","false","","","","","","","","","","571.6000000238419","","53.699999928474426","","3","0","arrowright","1","arrowright","[0.675,0.325,0.85,0.15]","","",""
"sailing-trial","136","792000","0.0-11.0-95.0","","","","false","","","","","","","","","","null","","1056.5","","3","1","null","null","arrowup","[0.675,0.325,0.85,0.15]","","",""
"sailing-trial","137","795476","0.0-11.0-96.0","","","","false","","","","","","","","","","558.3999999761581","","415.7000000476837","","3","0","arrowright","1","arrowright","[0.675,0.325,0.85,0.15]","","",""
"sailing-trial","138","798345","0.0-11.0-97.0","","","","false","","","","","","","","","","null","","1022.8999999761581","","2","1","null","null","arrowup","[0.675,0.325,0.85,0.15]","","",""
"sailing-trial","139","802207","0.0-11.0-98.0","","","","false","","","","","","","","","","547.8000000715256","","407.3000000715256","","2","1","arrowright","1","arrowleft","[0.675,0.325,0.85,0.15]","","",""
"sailing-trial","140","807005","0.0-11.0-99.0","","","","false","","","","","","","","","","null","","2954.100000023842","","1","1","null","null","arrowup","[0.675,0.325,0.85,0.15]","","",""
"sailing-trial","141","810999","0.0-11.0-100.0","","","","false","","","","","","","","","","660.2999999523163","","411.10000002384186","","1","1","arrowleft","0","arrowright","[0.675,0.325,0.85,0.15]","","",""
"sailing-trial","142","813865","0.0-11.0-101.0","","","","false","","","","","","","","","","null","","1094.5","","2","1","null","null","arrowup","[0.675,0.325,0.85,0.15]","","",""
"sailing-trial","143","818226","0.0-11.0-102.0","","","","false","","","","","","","","","","1151.8999999761581","","230.10000002384186","","2","1","arrowright","1","arrowleft","[0.675,0.325,0.85,0.15]","","",""
"sailing-trial","144","821407","0.0-11.0-103.0","","","","false","","","","","","","","","","null","","1246.7999999523163","","3","1","null","null","arrowup","[0.675,0.325,0.85,0.15]","","",""
"sailing-trial","145","825940","0.0-11.0-104.0","","","","false","","","","","","","","","","558","","345.5","","3","0","arrowright","1","arrowright","[0.675,0.325,0.85,0.15]","","",""
"sailing-trial","146","828477","0.0-11.0-105.0","","","","false","","","","","","","","","","null","","1171.4000000953674","","1","0","null","null","arrowup","[0.675,0.325,0.85,0.15]","","",""
"sailing-trial","147","832337","0.0-11.0-106.0","","","","false","","","","","","","","","","1284.6999999284744","","86.10000002384186","","2","0","arrowright","1","arrowleft","[0.15,0.85,0.325,0.675]","","",""
"sailing-trial","148","834484","0.0-11.0-107.0","","","","false","","","","","","","","","","null","","801.2000000476837","","0","0","null","null","arrowup","[0.15,0.85,0.325,0.675]","","",""
"sailing-trial","149","839008","0.0-11.0-108.0","","","","false","","","","","","","","","","1195.1000000238419","","350.5","","1","1","arrowleft","0","arrowright","[0.15,0.85,0.325,0.675]","","",""
"sailing-trial","150","841940","0.0-11.0-109.0","","","","false","","","","","","","","","","null","","1080.2999999523163","","1","1","null","null","arrowup","[0.15,0.85,0.325,0.675]","","",""
"sailing-trial","151","846601","0.0-11.0-110.0","","","","false","","","","","","","","","","564.2999999523163","","1151.7000000476837","","1","1","arrowleft","0","arrowright","[0.15,0.85,0.325,0.675]","","",""
"sailing-trial","152","848972","0.0-11.0-111.0","","","","false","","","","","","","","","","null","","979.2000000476837","","0","0","null","null","arrowup","[0.15,0.85,0.325,0.675]","","",""
"sailing-trial","153","852595","0.0-11.0-112.0","","","","false","","","","","","","","","","884.2000000476837","","65.10000002384186","","1","1","arrowleft","0","arrowright","[0.15,0.85,0.325,0.675]","","",""
"sailing-trial","154","855327","0.0-11.0-113.0","","","","false","","","","","","","","","","null","","859.1000000238419","","1","1","null","null","arrowup","[0.15,0.85,0.325,0.675]","","",""
"sailing-trial","155","859082","0.0-11.0-114.0","","","","false","","","","","","","","","","673.5","","475.5","","3","0","arrowright","1","arrowright","[0.15,0.85,0.325,0.675]","","",""
"sailing-trial","156","861688","0.0-11.0-115.0","","","","false","","","","","","","","","","null","","802.6000000238419","","1","1","null","null","arrowup","[0.15,0.85,0.325,0.675]","","",""
"sailing-trial","157","865735","0.0-11.0-116.0","","","","false","","","","","","","","","","645.1000000238419","","371.39999997615814","","1","1","arrowleft","0","arrowright","[0.15,0.85,0.325,0.675]","","",""
"sailing-trial","158","870128","0.0-11.0-117.0","","","","false","","","","","","","","","","null","","3017.899999976158","","0","0","null","null","arrowup","[0.15,0.85,0.325,0.675]","","",""
"sailing-trial","159","873944","0.0-11.0-118.0","","","","false","","","","","","","","","","599","","332.60000002384186","","1","1","arrowleft","0","arrowright","[0.15,0.85,0.325,0.675]","","",""
"sailing-trial","160","876258","0.0-11.0-119.0","","","","false","","","","","","","","","","null","","972.5","","0","0","null","null","arrowup","[0.15,0.85,0.325,0.675]","","",""
"sailing-trial","161","880487","0.0-11.0-120.0","","","","false","","","","","","","","","","820.8999999761581","","245.79999995231628","","1","1","arrowleft","0","arrowright","[0.15,0.85,0.325,0.675]","","",""
"sailing-trial","162","883580","0.0-11.0-121.0","","","","false","","","","","","","","","","null","","1648.7000000476837","","2","0","null","null","arrowup","[0.15,0.85,0.325,0.675]","","",""
"sailing-trial","163","887624","0.0-11.0-122.0","","","","false","","","","","","","","","","889.7999999523163","","390.89999997615814","","1","0","arrowleft","0","arrowright","[0.15,0.85,0.325,0.675]","","",""
"sailing-trial","164","889981","0.0-11.0-123.0","","","","false","","","","","","","","","","null","","800.7000000476837","","3","0","null","null","arrowup","[0.15,0.85,0.325,0.675]","","",""
"sailing-trial","165","894361","0.0-11.0-124.0","","","","false","","","","","","","","","","712.5","","667.6000000238419","","3","1","arrowright","1","arrowright","[0.85,0.15,0.675,0.325]","","",""
"sailing-trial","166","897074","0.0-11.0-125.0","","","","false","","","","","","","","","","null","","818.5999999046326","","2","1","null","null","arrowup","[0.85,0.15,0.675,0.325]","","",""
"sailing-trial","167","901005","0.0-11.0-126.0","","","","false","","","","","","","","","","863.6999999284744","","168.09999990463257","","2","1","arrowright","1","arrowleft","[0.85,0.15,0.675,0.325]","","",""
"sailing-trial","168","903331","0.0-11.0-127.0","","","","false","","","","","","","","","","null","","936.8000000715256","","2","0","null","null","arrowup","[0.85,0.15,0.675,0.325]","","",""
"sailing-trial","169","907283","0.0-11.0-128.0","","","","false","","","","","","","","","","1004.8999999761581","","369.39999997615814","","3","0","arrowright","1","arrowright","[0.85,0.15,0.675,0.325]","","",""
"sailing-trial","170","909885","0.0-11.0-129.0","","","","false","","","","","","","","","","null","","1233.7999999523163","","1","0","null","null","arrowup","[0.85,0.15,0.675,0.325]","","",""
"sailing-trial","171","914426","0.0-11.0-130.0","","","","false","","","","","","","","","","1135.6000000238419","","509.60000002384186","","0","1","arrowleft","0","arrowleft","[0.85,0.15,0.675,0.325]","","",""
"sailing-trial","172","917306","0.0-11.0-131.0","","","","false","","","","","","","","","","null","","993.6000000238419","","3","1","null","null","arrowup","[0.85,0.15,0.675,0.325]","","",""
"sailing-trial","173","921220","0.0-11.0-132.0","","","","false","","","","","","","","","","1241.6000000238419","","197.90000009536743","","3","0","arrowright","1","arrowright","[0.85,0.15,0.675,0.325]","","",""
"sailing-trial","174","923455","0.0-11.0-133.0","","","","false","","","","","","","","","","null","","858.7999999523163","","1","0","null","null","arrowup","[0.85,0.15,0.675,0.325]","","",""
"sailing-trial","175","927497","0.0-11.0-134.0","","","","false","","","","","","","","","","727.1000000238419","","413.89999997615814","","3","1","arrowright","1","arrowright","[0.85,0.15,0.675,0.325]","","",""
"sailing-trial","176","929868","0.0-11.0-135.0","","","","false","","","","","","","","","","null","","985.7999999523163","","0","0","null","null","arrowup","[0.85,0.15,0.675,0.325]","","",""
"sailing-trial","177","933058","0.0-11.0-136.0","","","","false","","","","","","","","","","758.2000000476837","","1.5","","3","0","arrowright","1","arrowright","[0.85,0.15,0.675,0.325]","","",""
"sailing-trial","178","935824","0.0-11.0-137.0","","","","false","","","","","","","","","","null","","939.7000000476837","","3","1","null","null","arrowup","[0.85,0.15,0.675,0.325]","","",""
"sailing-trial","179","938994","0.0-11.0-138.0","","","","false","","","","","","","","","","545.2999999523163","","205.60000002384186","","3","0","arrowright","1","arrowright","[0.85,0.15,0.675,0.325]","","",""
"sailing-trial","180","941986","0.0-11.0-139.0","","","","false","","","","","","","","","","null","","1172.3999999761581","","2","1","null","null","arrowup","[0.85,0.15,0.675,0.325]","","",""
"sailing-trial","181","945466","0.0-11.0-140.0","","","","false","","","","","","","","","","683.1000000238419","","365","","2","0","arrowright","1","arrowleft","[0.85,0.15,0.675,0.325]","","",""
"sailing-trial","182","948264","0.0-11.0-141.0","","","","false","","","","","","","","","","null","","959.8999999761581","","2","1","null","null","arrowup","[0.85,0.15,0.675,0.325]","","",""
"sailing-trial","183","951461","0.0-11.0-142.0","","","","false","","","","","","","","","","487.1999999284744","","69.5","","2","0","arrowright","1","arrowleft","[0.675,0.325,0.85,0.15]","","",""
"sailing-trial","184","953849","0.0-11.0-143.0","","","","false","","","","","","","","","","null","","913.3000000715256","","3","0","null","null","arrowup","[0.675,0.325,0.85,0.15]","","",""
"sailing-trial","185","958337","0.0-11.0-144.0","","","","false","","","","","","","","","","959.1000000238419","","1141.5","","2","0","arrowright","1","arrowleft","[0.675,0.325,0.85,0.15]","","",""
"sailing-trial","186","961084","0.0-11.0-145.0","","","","false","","","","","","","","","","null","","879.0999999046326","","0","1","null","null","arrowup","[0.675,0.325,0.85,0.15]","","",""
"sailing-trial","187","964915","0.0-11.0-146.0","","","","false","","","","","","","","","","438.2000000476837","","433.5","","0","1","arrowleft","0","arrowleft","[0.675,0.325,0.85,0.15]","","",""
"sailing-trial","188","967109","0.0-11.0-147.0","","","","false","","","","","","","","","","null","","754.1000000238419","","1","0","null","null","arrowup","[0.675,0.325,0.85,0.15]","","",""
"sailing-trial","189","970810","0.0-11.0-148.0","","","","false","","","","","","","","","","646.7000000476837","","120.39999997615814","","2","1","arrowright","1","arrowleft","[0.675,0.325,0.85,0.15]","","",""
"sailing-trial","190","972968","0.0-11.0-149.0","","","","false","","","","","","","","","","null","","774","","3","0","null","null","arrowup","[0.675,0.325,0.85,0.15]","","",""
"sailing-trial","191","976688","0.0-11.0-150.0","","","","false","","","","","","","","","","740.8000000715256","","67.80000007152557","","0","1","arrowleft","0","arrowleft","[0.675,0.325,0.85,0.15]","","",""
"sailing-trial","192","978755","0.0-11.0-151.0","","","","false","","","","","","","","","","null","","738.4000000953674","","3","0","null","null","arrowup","[0.675,0.325,0.85,0.15]","","",""
"sailing-trial","193","982553","0.0-11.0-152.0","","","","false","","","","","","","","","","844.7999999523163","","519.8999999761581","","0","0","arrowleft","0","arrowleft","[0.675,0.325,0.85,0.15]","","",""
"sailing-trial","194","985265","0.0-11.0-153.0","","","","false","","","","","","","","","","null","","894.1000000238419","","3","1","null","null","arrowup","[0.675,0.325,0.85,0.15]","","",""
"sailing-trial","195","988509","0.0-11.0-154.0","","","","false","","","","","","","","","","556.8999999761581","","285.3000000715256","","3","0","arrowright","1","arrowright","[0.675,0.325,0.85,0.15]","","",""
"sailing-trial","196","991308","0.0-11.0-155.0","","","","false","","","","","","","","","","null","","930.3999999761581","","0","1","null","null","arrowup","[0.675,0.325,0.85,0.15]","","",""
"sailing-trial","197","995372","0.0-11.0-156.0","","","","false","","","","","","","","","","770.8999999761581","","188.79999995231628","","2","1","arrowright","1","arrowleft","[0.675,0.325,0.85,0.15]","","",""
"sailing-trial","198","998329","0.0-11.0-157.0","","","","false","","","","","","","","","","null","","1578.6000000238419","","3","0","null","null","arrowup","[0.675,0.325,0.85,0.15]","","",""
"sailing-trial","199","1002284","0.0-11.0-158.0","","","","false","","","","","","","","","","1086.6000000238419","","412.7999999523163","","0","0","arrowleft","0","arrowleft","[0.675,0.325,0.85,0.15]","","",""
"sailing-trial","200","1004334","0.0-11.0-159.0","","","","false","","","","","","","","","","null","","730.3999999761581","","1","0","null","null","arrowup","[0.675,0.325,0.85,0.15]","","",""
"sailing-trial","201","1008412","0.0-11.0-160.0","","","","false","","","","","","","","","","660.3000000715256","","459.3000000715256","","0","1","arrowleft","0","arrowleft","[0.325,0.675,0.15,0.85]","","",""
"sailing-trial","202","1010668","0.0-11.0-161.0","","","","false","","","","","","","","","","null","","903.2999999523163","","1","0","null","null","arrowup","[0.325,0.675,0.15,0.85]","","",""
"sailing-trial","203","1014041","0.0-11.0-162.0","","","","false","","","","","","","","","","880.1999999284744","","73.70000004768372","","0","0","arrowleft","0","arrowleft","[0.325,0.675,0.15,0.85]","","",""
"sailing-trial","204","1016260","0.0-11.0-163.0","","","","false","","","","","","","","","","null","","767.7999999523163","","2","0","null","null","arrowup","[0.325,0.675,0.15,0.85]","","",""
"sailing-trial","205","1020817","0.0-11.0-164.0","","","","false","","","","","","","","","","1099.2000000476837","","286","","0","1","arrowleft","0","arrowleft","[0.325,0.675,0.15,0.85]","","",""
"sailing-trial","206","1023551","0.0-11.0-165.0","","","","false","","","","","","","","","","null","","1168.5","","0","0","null","null","arrowup","[0.325,0.675,0.15,0.85]","","",""
"sailing-trial","207","1027494","0.0-11.0-166.0","","","","false","","","","","","","","","","629.1000000238419","","404.89999997615814","","3","1","arrowright","1","arrowright","[0.325,0.675,0.15,0.85]","","",""
"sailing-trial","208","1030678","0.0-11.0-167.0","","","","false","","","","","","","","","","null","","1794.1000000238419","","0","0","null","null","arrowup","[0.325,0.675,0.15,0.85]","","",""
"sailing-trial","209","1034557","0.0-11.0-168.0","","","","false","","","","","","","","","","552.1000000238419","","445.89999997615814","","3","1","arrowright","1","arrowright","[0.325,0.675,0.15,0.85]","","",""
"sailing-trial","210","1037286","0.0-11.0-169.0","","","","false","","","","","","","","","","null","","880","","1","1","null","null","arrowup","[0.325,0.675,0.15,0.85]","","",""
"sailing-trial","211","1041234","0.0-11.0-170.0","","","","false","","","","","","","","","","715.5","","350.39999997615814","","1","1","arrowleft","0","arrowright","[0.325,0.675,0.15,0.85]","","",""
"sailing-trial","212","1044396","0.0-11.0-171.0","","","","false","","","","","","","","","","null","","1268.6000000238419","","3","1","null","null","arrowup","[0.325,0.675,0.15,0.85]","","",""
"sailing-trial","213","1048144","0.0-11.0-172.0","","","","false","","","","","","","","","","491.89999997615814","","360.8000000715256","","3","1","arrowright","1","arrowright","[0.325,0.675,0.15,0.85]","","",""
"sailing-trial","214","1051024","0.0-11.0-173.0","","","","false","","","","","","","","","","null","","873.7999999523163","","1","1","null","null","arrowup","[0.325,0.675,0.15,0.85]","","",""
"sailing-trial","215","1055482","0.0-11.0-174.0","","","","false","","","","","","","","","","1856.1999999284744","","4.399999976158142","","1","0","arrowleft","0","arrowright","[0.325,0.675,0.15,0.85]","","",""
"sailing-trial","216","1058074","0.0-11.0-175.0","","","","false","","","","","","","","","","null","","923.6999999284744","","0","0","null","null","arrowup","[0.325,0.675,0.15,0.85]","","",""
"sailing-trial","217","1061357","0.0-11.0-176.0","","","","false","","","","","","","","","","837.6999999284744","","17.700000047683716","","3","0","arrowright","1","arrowright","[0.675,0.325,0.85,0.15]","","",""
"sailing-trial","218","1064146","0.0-11.0-177.0","","","","false","","","","","","","","","","null","","954.1000000238419","","2","1","null","null","arrowup","[0.675,0.325,0.85,0.15]","","",""
"sailing-trial","219","1068041","0.0-11.0-178.0","","","","false","","","","","","","","","","824.1999999284744","","110.89999997615814","","2","1","arrowright","1","arrowleft","[0.675,0.325,0.85,0.15]","","",""
"sailing-trial","220","1070387","0.0-11.0-179.0","","","","false","","","","","","","","","","null","","919.8000000715256","","3","0","null","null","arrowup","[0.675,0.325,0.85,0.15]","","",""
"sailing-trial","221","1074670","0.0-11.0-180.0","","","","false","","","","","","","","","","880.2000000476837","","459.7999999523163","","2","1","arrowright","1","arrowleft","[0.675,0.325,0.85,0.15]","","",""
"sailing-trial","222","1077385","0.0-11.0-181.0","","","","false","","","","","","","","","","null","","871.3000000715256","","2","1","null","null","arrowup","[0.675,0.325,0.85,0.15]","","",""
"sailing-trial","223","1081130","0.0-11.0-182.0","","","","false","","","","","","","","","","791.8999999761581","","25.5","","0","1","arrowleft","0","arrowleft","[0.675,0.325,0.85,0.15]","","",""
"sailing-trial","224","1083552","0.0-11.0-183.0","","","","false","","","","","","","","","","null","","1098.9000000953674","","3","0","null","null","arrowup","[0.675,0.325,0.85,0.15]","","",""
"sailing-trial","225","1087708","0.0-11.0-184.0","","","","false","","","","","","","","","","770.6999999284744","","483.6999999284744","","2","1","arrowright","1","arrowleft","[0.675,0.325,0.85,0.15]","","",""
"sailing-trial","226","1091074","0.0-11.0-185.0","","","","false","","","","","","","","","","null","","2026.3999999761581","","3","0","null","null","arrowup","[0.675,0.325,0.85,0.15]","","",""
"sailing-trial","227","1094872","0.0-11.0-186.0","","","","false","","","","","","","","","","632.3000000715256","","568.7000000476837","","0","0","arrowleft","0","arrowleft","[0.675,0.325,0.85,0.15]","","",""
"sailing-trial","228","1097732","0.0-11.0-187.0","","","","false","","","","","","","","","","null","","957.2000000476837","","2","1","null","null","arrowup","[0.675,0.325,0.85,0.15]","","",""
"sailing-trial","229","1101600","0.0-11.0-188.0","","","","false","","","","","","","","","","1145.3999999761581","","352.60000002384186","","2","0","arrowright","1","arrowleft","[0.675,0.325,0.85,0.15]","","",""
"sailing-trial","230","1104462","0.0-11.0-189.0","","","","false","","","","","","","","","","null","","952.5","","1","1","null","null","arrowup","[0.675,0.325,0.85,0.15]","","",""
"sailing-trial","231","1108055","0.0-11.0-190.0","","","","false","","","","","","","","","","707.6000000238419","","472","","1","0","arrowleft","0","arrowright","[0.675,0.325,0.85,0.15]","","",""
"sailing-trial","232","1110740","0.0-11.0-191.0","","","","false","","","","","","","","","","null","","822.1000000238419","","2","1","null","null","arrowup","[0.675,0.325,0.85,0.15]","","",""
"sailing-trial","233","1114668","0.0-11.0-192.0","","","","false","","","","","","","","","","712.7999999523163","","297.6999999284744","","2","1","arrowright","1","arrowleft","[0.85,0.15,0.675,0.325]","","",""
"sailing-trial","234","1116761","0.0-11.0-193.0","","","","false","","","","","","","","","","null","","736.2999999523163","","1","0","null","null","arrowup","[0.85,0.15,0.675,0.325]","","",""
"sailing-trial","235","1121046","0.0-11.0-194.0","","","","false","","","","","","","","","","977.8000000715256","","170.10000002384186","","2","1","arrowright","1","arrowleft","[0.85,0.15,0.675,0.325]","","",""
"sailing-trial","236","1123092","0.0-11.0-195.0","","","","false","","","","","","","","","","null","","712.8000000715256","","3","0","null","null","arrowup","[0.85,0.15,0.675,0.325]","","",""
"sailing-trial","237","1126575","0.0-11.0-196.0","","","","false","","","","","","","","","","557.3999999761581","","2.200000047683716","","2","1","arrowright","1","arrowleft","[0.85,0.15,0.675,0.325]","","",""
"sailing-trial","238","1128862","0.0-11.0-197.0","","","","false","","","","","","","","","","null","","923.3000000715256","","2","0","null","null","arrowup","[0.85,0.15,0.675,0.325]","","",""
"sailing-trial","239","1134833","0.0-11.0-198.0","","","","false","","","","","","","","","","2221.1999999284744","","869.3999999761581","","0","1","arrowleft","0","arrowleft","[0.85,0.15,0.675,0.325]","","",""
"sailing-trial","240","1137027","0.0-11.0-199.0","","","","false","","","","","","","","","","null","","866","","3","0","null","null","arrowup","[0.85,0.15,0.675,0.325]","","",""
"sailing-trial","241","1141144","0.0-11.0-200.0","","","","false","","","","","","","","","","676.6999999284744","","465.7000000476837","","0","1","arrowleft","0","arrowleft","[0.85,0.15,0.675,0.325]","","",""
"sailing-trial","242","1144867","0.0-11.0-201.0","","","","false","","","","","","","","","","null","","2295.899999976158","","3","0","null","null","arrowup","[0.85,0.15,0.675,0.325]","","",""
"sailing-trial","243","1149005","0.0-11.0-202.0","","","","false","","","","","","","","","","756.2999999523163","","378.60000002384186","","0","1","arrowleft","0","arrowleft","[0.85,0.15,0.675,0.325]","","",""
"sailing-trial","244","1151919","0.0-11.0-203.0","","","","false","","","","","","","","","","null","","947.1999999284744","","2","1","null","null","arrowup","[0.85,0.15,0.675,0.325]","","",""
"sailing-trial","245","1155018","0.0-11.0-204.0","","","","false","","","","","","","","","","546.5","","116.60000002384186","","2","0","arrowright","1","arrowleft","[0.85,0.15,0.675,0.325]","","",""
"sailing-trial","246","1157412","0.0-11.0-205.0","","","","false","","","","","","","","","","null","","848","","0","0","null","null","arrowup","[0.85,0.15,0.675,0.325]","","",""
"sailing-trial","247","1161143","0.0-11.0-206.0","","","","false","","","","","","","","","","679.6999999284744","","61","","2","1","arrowright","1","arrowleft","[0.85,0.15,0.675,0.325]","","",""
"sailing-trial","248","1163859","0.0-11.0-207.0","","","","false","","","","","","","","","","null","","882.1000000238419","","3","1","null","null","arrowup","[0.85,0.15,0.675,0.325]","","",""
"sailing-trial","249","1167084","0.0-11.0-208.0","","","","false","","","","","","","","","","487.5","","280.7000000476837","","3","0","arrowright","1","arrowright","[0.85,0.15,0.675,0.325]","","",""
"sailing-trial","250","1170152","0.0-11.0-209.0","","","","false","","","","","","","","","","null","","896.2999999523163","","0","1","null","null","arrowup","[0.85,0.15,0.675,0.325]","","",""
"sailing-trial","251","1174533","0.0-11.0-210.0","","","","false","","","","","","","","","","1169.6999999284744","","330","","0","1","arrowleft","0","arrowleft","[0.85,0.15,0.675,0.325]","","",""
"sailing-trial","252","1177146","0.0-11.0-211.0","","","","false","","","","","","","","","","null","","793.9000000953674","","0","1","null","null","arrowup","[0.85,0.15,0.675,0.325]","","",""
"sailing-trial","253","1181043","0.0-11.0-212.0","","","","false","","","","","","","","","","660.7999999523163","","421.7999999523163","","0","1","arrowleft","0","arrowleft","[0.85,0.15,0.675,0.325]","","",""
"sailing-trial","254","1183381","0.0-11.0-213.0","","","","false","","","","","","","","","","null","","918.9000000953674","","3","0","null","null","arrowup","[0.85,0.15,0.675,0.325]","","",""
"sailing-trial","255","1186915","0.0-11.0-214.0","","","","false","","","","","","","","","","702","","413.39999997615814","","0","0","arrowleft","0","arrowleft","[0.675,0.325,0.85,0.15]","","",""
"sailing-trial","256","1189616","0.0-11.0-215.0","","","","false","","","","","","","","","","null","","1382.1000000238419","","0","0","null","null","arrowup","[0.675,0.325,0.85,0.15]","","",""
"sailing-trial","257","1194369","0.0-11.0-216.0","","","","false","","","","","","","","","","1790.3999999761581","","496.40000009536743","","1","0","arrowleft","0","arrowright","[0.675,0.325,0.85,0.15]","","",""
"sailing-trial","258","1197312","0.0-11.0-217.0","","","","false","","","","","","","","","","null","","942.7000000476837","","0","1","null","null","arrowup","[0.675,0.325,0.85,0.15]","","",""
"sailing-trial","259","1201149","0.0-11.0-218.0","","","","false","","","","","","","","","","815.7000000476837","","427.89999997615814","","1","0","arrowleft","0","arrowright","[0.675,0.325,0.85,0.15]","","",""
"sailing-trial","260","1203941","0.0-11.0-219.0","","","","false","","","","","","","","","","null","","978.8999999761581","","0","1","null","null","arrowup","[0.675,0.325,0.85,0.15]","","",""
"sailing-trial","261","1207821","0.0-11.0-220.0","","","","false","","","","","","","","","","832.4000000953674","","135","","0","1","arrowleft","0","arrowleft","[0.675,0.325,0.85,0.15]","","",""
"sailing-trial","262","1211205","0.0-11.0-221.0","","","","false","","","","","","","","","","null","","1691.8999999761581","","0","0","null","null","arrowup","[0.675,0.325,0.85,0.15]","","",""
"sailing-trial","263","1214928","0.0-11.0-222.0","","","","false","","","","","","","","","","604.2999999523163","","454.60000002384186","","2","0","arrowright","1","arrowleft","[0.675,0.325,0.85,0.15]","","",""
"sailing-trial","264","1217177","0.0-11.0-223.0","","","","false","","","","","","","","","","null","","841.6000000238419","","1","0","null","null","arrowup","[0.675,0.325,0.85,0.15]","","",""
"sailing-trial","265","1221190","0.0-11.0-224.0","","","","false","","","","","","","","","","931.6000000238419","","89.60000002384186","","3","1","arrowright","1","arrowright","[0.675,0.325,0.85,0.15]","","",""
"sailing-trial","266","1223511","0.0-11.0-225.0","","","","false","","","","","","","","","","null","","930.7000000476837","","1","0","null","null","arrowup","[0.675,0.325,0.85,0.15]","","",""
"sailing-trial","267","1227153","0.0-11.0-226.0","","","","false","","","","","","","","","","673.2999999523163","","17.200000047683716","","2","1","arrowright","1","arrowleft","[0.675,0.325,0.85,0.15]","","",""
"sailing-trial","268","1230451","0.0-11.0-227.0","","","","false","","","","","","","","","","null","","875.1000000238419","","1","1","null","null","arrowup","[0.675,0.325,0.85,0.15]","","",""
"sailing-trial","269","1234646","0.0-11.0-228.0","","","","false","","","","","","","","","","618.2999999523163","","623.2999999523163","","1","1","arrowleft","0","arrowright","[0.675,0.325,0.85,0.15]","","",""
"sailing-trial","270","1236826","0.0-11.0-229.0","","","","false","","","","","","","","","","null","","788","","3","0","null","null","arrowup","[0.675,0.325,0.85,0.15]","","",""
"sailing-trial","271","1241206","0.0-11.0-230.0","","","","false","","","","","","","","","","704.5","","773","","2","1","arrowright","1","arrowleft","[0.675,0.325,0.85,0.15]","","",""
"sailing-trial","272","1244455","0.0-11.0-231.0","","","","false","","","","","","","","","","null","","1292.0999999046326","","0","1","null","null","arrowup","[0.675,0.325,0.85,0.15]","","",""
"sailing-trial","273","1248234","0.0-11.0-232.0","","","","false","","","","","","","","","","576.6999999284744","","313.39999997615814","","0","1","arrowleft","0","arrowleft","[0.675,0.325,0.85,0.15]","","",""
"sailing-trial","274","1250526","0.0-11.0-233.0","","","","false","","","","","","","","","","null","","971.7000000476837","","1","0","null","null","arrowup","[0.675,0.325,0.85,0.15]","","",""
"sailing-trial","275","1254430","0.0-11.0-234.0","","","","false","","","","","","","","","","580.5","","394.1999999284744","","0","1","arrowleft","0","arrowleft","[0.85,0.15,0.675,0.325]","","",""
"sailing-trial","276","1256523","0.0-11.0-235.0","","","","false","","","","","","","","","","null","","727.8999999761581","","2","0","null","null","arrowup","[0.85,0.15,0.675,0.325]","","",""
"sailing-trial","277","1260491","0.0-11.0-236.0","","","","false","","","","","","","","","","657.3999999761581","","405","","0","1","arrowleft","0","arrowleft","[0.85,0.15,0.675,0.325]","","",""
"sailing-trial","278","1262780","0.0-11.0-237.0","","","","false","","","","","","","","","","null","","763.8999999761581","","2","0","null","null","arrowup","[0.85,0.15,0.675,0.325]","","",""
"sailing-trial","279","1266919","0.0-11.0-238.0","","","","false","","","","","","","","","","696.3999999761581","","511.60000002384186","","0","1","arrowleft","0","arrowleft","[0.85,0.15,0.675,0.325]","","",""
"sailing-trial","280","1269633","0.0-11.0-239.0","","","","false","","","","","","","","","","null","","796.5","","3","1","null","null","arrowup","[0.85,0.15,0.675,0.325]","","",""
"sailing-trial","281","1274046","0.0-11.0-240.0","","","","false","","","","","","","","","","1075.6000000238419","","355.8000000715256","","0","1","arrowleft","0","arrowleft","[0.85,0.15,0.675,0.325]","","",""
"sailing-trial","282","1276892","0.0-11.0-241.0","","","","false","","","","","","","","","","null","","914.7000000476837","","2","1","null","null","arrowup","[0.85,0.15,0.675,0.325]","","",""
"sailing-trial","283","1280788","0.0-11.0-242.0","","","","false","","","","","","","","","","704.5","","315.89999997615814","","0","1","arrowleft","0","arrowleft","[0.85,0.15,0.675,0.325]","","",""
"sailing-trial","284","1282961","0.0-11.0-243.0","","","","false","","","","","","","","","","null","","674.8000000715256","","2","0","null","null","arrowup","[0.85,0.15,0.675,0.325]","","",""
"sailing-trial","285","1286967","0.0-11.0-244.0","","","","false","","","","","","","","","","669.5","","370.7999999523163","","0","1","arrowleft","0","arrowleft","[0.85,0.15,0.675,0.325]","","",""
"sailing-trial","286","1290659","0.0-11.0-245.0","","","","false","","","","","","","","","","null","","1457","","1","0","null","null","arrowup","[0.85,0.15,0.675,0.325]","","",""
"sailing-trial","287","1294562","0.0-11.0-246.0","","","","false","","","","","","","","","","667.3999999761581","","341.59999990463257","","2","1","arrowright","1","arrowleft","[0.85,0.15,0.675,0.325]","","",""
"sailing-trial","288","1296706","0.0-11.0-247.0","","","","false","","","","","","","","","","null","","776.2999999523163","","1","0","null","null","arrowup","[0.85,0.15,0.675,0.325]","","",""
"sailing-trial","289","1300788","0.0-11.0-248.0","","","","false","","","","","","","","","","873.3999999761581","","389.5","","2","1","arrowright","1","arrowleft","[0.85,0.15,0.675,0.325]","","",""
"sailing-trial","290","1303753","0.0-11.0-249.0","","","","false","","","","","","","","","","null","","1167.8999999761581","","2","1","null","null","arrowup","[0.85,0.15,0.675,0.325]","","",""
"sailing-trial","291","1308048","0.0-11.0-250.0","","","","false","","","","","","","","","","1015.2999999523163","","348.10000002384186","","0","1","arrowleft","0","arrowleft","[0.675,0.325,0.85,0.15]","","",""
"sailing-trial","292","1310431","0.0-11.0-251.0","","","","false","","","","","","","","","","null","","635.2999999523163","","2","1","null","null","arrowup","[0.675,0.325,0.85,0.15]","","",""
"sailing-trial","293","1313922","0.0-11.0-252.0","","","","false","","","","","","","","","","511.89999997615814","","57.5","","2","1","arrowright","1","arrowleft","[0.675,0.325,0.85,0.15]","","",""
"sailing-trial","294","1315949","0.0-11.0-253.0","","","","false","","","","","","","","","","null","","672.2999999523163","","1","0","null","null","arrowup","[0.675,0.325,0.85,0.15]","","",""
"sailing-trial","295","1320206","0.0-11.0-254.0","","","","false","","","","","","","","","","1156.5","","242.10000002384186","","2","1","arrowright","1","arrowleft","[0.675,0.325,0.85,0.15]","","",""
"sailing-trial","296","1322624","0.0-11.0-255.0","","","","false","","","","","","","","","","null","","938","","1","0","null","null","arrowup","[0.675,0.325,0.85,0.15]","","",""
"sailing-trial","297","1326765","0.0-11.0-256.0","","","","false","","","","","","","","","","1184.8000000715256","","17.5","","2","1","arrowright","1","arrowleft","[0.675,0.325,0.85,0.15]","","",""
"sailing-trial","298","1329480","0.0-11.0-257.0","","","","false","","","","","","","","","","null","","861.3000000715256","","2","1","null","null","arrowup","[0.675,0.325,0.85,0.15]","","",""
"sailing-trial","299","1332994","0.0-11.0-258.0","","","","false","","","","","","","","","","560","","89.5","","2","1","arrowright","1","arrowleft","[0.675,0.325,0.85,0.15]","","",""
"sailing-trial","300","1335169","0.0-11.0-259.0","","","","false","","","","","","","","","","null","","846.7000000476837","","1","0","null","null","arrowup","[0.675,0.325,0.85,0.15]","","",""
"sailing-trial","301","1339321","0.0-11.0-260.0","","","","false","","","","","","","","","","1193.3000000715256","","45.39999997615814","","2","1","arrowright","1","arrowleft","[0.675,0.325,0.85,0.15]","","",""
"sailing-trial","302","1341921","0.0-11.0-261.0","","","","false","","","","","","","","","","null","","708.8000000715256","","2","1","null","null","arrowup","[0.675,0.325,0.85,0.15]","","",""
"sailing-trial","303","1346399","0.0-11.0-262.0","","","","false","","","","","","","","","","539.8000000715256","","1018.1999999284744","","2","1","arrowright","1","arrowleft","[0.675,0.325,0.85,0.15]","","",""
"sailing-trial","304","1349363","0.0-11.0-263.0","","","","false","","","","","","","","","","null","","1121.1000000238419","","0","1","null","null","arrowup","[0.675,0.325,0.85,0.15]","","",""
"sailing-trial","305","1352676","0.0-11.0-264.0","","","","false","","","","","","","","","","543.5","","191.20000004768372","","0","0","arrowleft","0","arrowleft","[0.675,0.325,0.85,0.15]","","",""
"sailing-trial","306","1354975","0.0-11.0-265.0","","","","false","","","","","","","","","","null","","895.7999999523163","","0","0","null","null","arrowup","[0.675,0.325,0.85,0.15]","","",""
"sailing-trial","307","1358922","0.0-11.0-266.0","","","","false","","","","","","","","","","405.10000002384186","","661.8999999761581","","2","1","arrowright","1","arrowleft","[0.85,0.15,0.675,0.325]","","",""
"sailing-trial","308","1361781","0.0-11.0-267.0","","","","false","","","","","","","","","","null","","1219.8000000715256","","3","0","null","null","arrowup","[0.85,0.15,0.675,0.325]","","",""
"sailing-trial","309","1365074","0.0-11.0-268.0","","","","false","","","","","","","","","","749.5","","50.90000009536743","","2","0","arrowright","1","arrowleft","[0.85,0.15,0.675,0.325]","","",""
"sailing-trial","310","1367287","0.0-11.0-269.0","","","","false","","","","","","","","","","null","","772.1000000238419","","2","0","null","null","arrowup","[0.85,0.15,0.675,0.325]","","",""
"sailing-trial","311","1371710","0.0-11.0-270.0","","","","false","","","","","","","","","","732.3000000715256","","781.2000000476837","","0","1","arrowleft","0","arrowleft","[0.85,0.15,0.675,0.325]","","",""
"sailing-trial","312","1373953","0.0-11.0-271.0","","","","false","","","","","","","","","","null","","877.6999999284744","","2","0","null","null","arrowup","[0.85,0.15,0.675,0.325]","","",""
"sailing-trial","313","1377672","0.0-11.0-272.0","","","","false","","","","","","","","","","559.5","","287.7999999523163","","0","1","arrowleft","0","arrowleft","[0.85,0.15,0.675,0.325]","","",""
"sailing-trial","314","1380337","0.0-11.0-273.0","","","","false","","","","","","","","","","null","","698.2000000476837","","0","1","null","null","arrowup","[0.85,0.15,0.675,0.325]","","",""
"sailing-trial","315","1384132","0.0-11.0-274.0","","","","false","","","","","","","","","","787.7999999523163","","26.09999990463257","","0","1","arrowleft","0","arrowleft","[0.85,0.15,0.675,0.325]","","",""
"sailing-trial","316","1386211","0.0-11.0-275.0","","","","false","","","","","","","","","","null","","610.2000000476837","","2","0","null","null","arrowup","[0.85,0.15,0.675,0.325]","","",""
"sailing-trial","317","1390277","0.0-11.0-276.0","","","","false","","","","","","","","","","601.1999999284744","","490.59999990463257","","0","1","arrowleft","0","arrowleft","[0.85,0.15,0.675,0.325]","","",""
"sailing-trial","318","1392675","0.0-11.0-277.0","","","","false","","","","","","","","","","null","","565.6999999284744","","0","1","null","null","arrowup","[0.85,0.15,0.675,0.325]","","",""
"sailing-trial","319","1398637","0.0-11.0-278.0","","","","false","","","","","","","","","","2273.399999976158","","792.8999999761581","","0","1","arrowleft","0","arrowleft","[0.85,0.15,0.675,0.325]","","",""
"sailing-trial","320","1400944","0.0-11.0-279.0","","","","false","","","","","","","","","","null","","881.1999999284744","","3","0","null","null","arrowup","[0.85,0.15,0.675,0.325]","","",""
"sailing-trial","321","1405381","0.0-11.0-280.0","","","","false","","","","","","","","","","1368.8999999761581","","139.60000002384186","","0","1","arrowleft","0","arrowleft","[0.85,0.15,0.675,0.325]","","",""
"sailing-trial","322","1407829","0.0-11.0-281.0","","","","false","","","","","","","","","","null","","576.2999999523163","","2","1","null","null","arrowup","[0.85,0.15,0.675,0.325]","","",""
"sailing-trial","323","1411143","0.0-11.0-282.0","","","","false","","","","","","","","","","476.1999999284744","","406.09999990463257","","2","0","arrowright","1","arrowleft","[0.325,0.675,0.15,0.85]","","",""
"sailing-trial","324","1413347","0.0-11.0-283.0","","","","false","","","","","","","","","","null","","830.1000000238419","","2","0","null","null","arrowup","[0.325,0.675,0.15,0.85]","","",""
"sailing-trial","325","1416883","0.0-11.0-284.0","","","","false","","","","","","","","","","506.59999990463257","","421.6999999284744","","0","0","arrowleft","0","arrowleft","[0.325,0.675,0.15,0.85]","","",""
"sailing-trial","326","1418992","0.0-11.0-285.0","","","","false","","","","","","","","","","null","","745.0999999046326","","0","0","null","null","arrowup","[0.325,0.675,0.15,0.85]","","",""
"sailing-trial","327","1422682","0.0-11.0-286.0","","","","false","","","","","","","","","","576.2000000476837","","72.39999997615814","","3","1","arrowright","1","arrowright","[0.325,0.675,0.15,0.85]","","",""
"sailing-trial","328","1424883","0.0-11.0-287.0","","","","false","","","","","","","","","","null","","876.9000000953674","","1","0","null","null","arrowup","[0.325,0.675,0.15,0.85]","","",""
"sailing-trial","329","1429525","0.0-11.0-288.0","","","","false","","","","","","","","","","572.3000000715256","","1183.4000000953674","","3","1","arrowright","1","arrowright","[0.325,0.675,0.15,0.85]","","",""
"sailing-trial","330","1431534","0.0-11.0-289.0","","","","false","","","","","","","","","","null","","703.2000000476837","","1","0","null","null","arrowup","[0.325,0.675,0.15,0.85]","","",""
"sailing-trial","331","1435405","0.0-11.0-290.0","","","","false","","","","","","","","","","532.5999999046326","","426.7000000476837","","3","1","arrowright","1","arrowright","[0.325,0.675,0.15,0.85]","","",""
"sailing-trial","332","1438302","0.0-11.0-291.0","","","","false","","","","","","","","","","null","","1036.3000000715256","","1","1","null","null","arrowup","[0.325,0.675,0.15,0.85]","","",""
"sailing-trial","333","1442149","0.0-11.0-292.0","","","","false","","","","","","","","","","714.2999999523163","","224.89999997615814","","3","1","arrowright","1","arrowright","[0.325,0.675,0.15,0.85]","","",""
"sailing-trial","334","1444301","0.0-11.0-293.0","","","","false","","","","","","","","","","null","","839.1000000238419","","2","0","null","null","arrowup","[0.325,0.675,0.15,0.85]","","",""
"sailing-trial","335","1448344","0.0-11.0-294.0","","","","false","","","","","","","","","","711.7000000476837","","469.2000000476837","","3","1","arrowright","1","arrowright","[0.325,0.675,0.15,0.85]","","",""
"sailing-trial","336","1450544","0.0-11.0-295.0","","","","false","","","","","","","","","","null","","879.8999999761581","","2","0","null","null","arrowup","[0.325,0.675,0.15,0.85]","","",""
"sailing-trial","337","1454240","0.0-11.0-296.0","","","","false","","","","","","","","","","560.9000000953674","","146.29999995231628","","3","1","arrowright","1","arrowright","[0.325,0.675,0.15,0.85]","","",""
"sailing-trial","338","1457635","0.0-11.0-297.0","","","","false","","","","","","","","","","null","","1006.2999999523163","","1","1","null","null","arrowup","[0.325,0.675,0.15,0.85]","","",""
"sailing-trial","339","1461456","0.0-11.0-298.0","","","","false","","","","","","","","","","879","","485.60000002384186","","1","0","arrowleft","0","arrowright","[0.325,0.675,0.15,0.85]","","",""
"sailing-trial","340","1464161","0.0-11.0-299.0","","","","false","","","","","","","","","","null","","873","","2","1","null","null","arrowup","[0.325,0.675,0.15,0.85]","","",""
"sailing-trial","341","1467531","0.0-11.0-300.0","","","","false","","","","","","","","","","587.1000000238419","","296.7999999523163","","2","0","arrowright","1","arrowleft","[0.325,0.675,0.15,0.85]","","",""
"sailing-trial","342","1469684","0.0-11.0-301.0","","","","false","","","","","","","","","","null","","792.2000000476837","","0","0","null","null","arrowup","[0.325,0.675,0.15,0.85]","","",""
"sailing-trial","343","1473259","0.0-11.0-302.0","","","","false","","","","","","","","","","945.1000000238419","","266.5","","2","0","arrowright","1","arrowleft","[0.325,0.675,0.15,0.85]","","",""
"sailing-trial","344","1475985","0.0-11.0-303.0","","","","false","","","","","","","","","","null","","892.3000000715256","","3","1","null","null","arrowup","[0.325,0.675,0.15,0.85]","","",""
"sailing-trial","345","1479366","0.0-11.0-304.0","","","","false","","","","","","","","","","464.60000002384186","","47.5","","3","1","arrowright","1","arrowright","[0.15,0.85,0.325,0.675]","","",""
"sailing-trial","346","1481963","0.0-11.0-305.0","","","","false","","","","","","","","","","null","","758.2000000476837","","1","1","null","null","arrowup","[0.15,0.85,0.325,0.675]","","",""
"sailing-trial","347","1485595","0.0-11.0-306.0","","","","false","","","","","","","","","","520.3999999761581","","253.19999992847443","","3","1","arrowright","1","arrowright","[0.15,0.85,0.325,0.675]","","",""
"sailing-trial","348","1488341","0.0-11.0-307.0","","","","false","","","","","","","","","","null","","899","","1","1","null","null","arrowup","[0.15,0.85,0.325,0.675]","","",""
"sailing-trial","349","1492373","0.0-11.0-308.0","","","","false","","","","","","","","","","731.3999999761581","","462.8000000715256","","1","1","arrowleft","0","arrowright","[0.15,0.85,0.325,0.675]","","",""
"sailing-trial","350","1494588","0.0-11.0-309.0","","","","false","","","","","","","","","","null","","718.9000000953674","","3","0","null","null","arrowup","[0.15,0.85,0.325,0.675]","","",""
"sailing-trial","351","1498499","0.0-11.0-310.0","","","","false","","","","","","","","","","712.8999999761581","","334.2000000476837","","1","1","arrowleft","0","arrowright","[0.15,0.85,0.325,0.675]","","",""
"sailing-trial","352","1500808","0.0-11.0-311.0","","","","false","","","","","","","","","","null","","1001.3999999761581","","0","0","null","null","arrowup","[0.15,0.85,0.325,0.675]","","",""
"sailing-trial","353","1504087","0.0-11.0-312.0","","","","false","","","","","","","","","","631.3999999761581","","308.3000000715256","","2","0","arrowright","1","arrowleft","[0.15,0.85,0.325,0.675]","","",""
"sailing-trial","354","1506198","0.0-11.0-313.0","","","","false","","","","","","","","","","null","","769.7000000476837","","3","0","null","null","arrowup","[0.15,0.85,0.325,0.675]","","",""
"sailing-trial","355","1510022","0.0-11.0-314.0","","","","false","","","","","","","","","","670.8000000715256","","252.39999997615814","","1","1","arrowleft","0","arrowright","[0.15,0.85,0.325,0.675]","","",""
"sailing-trial","356","1512654","0.0-11.0-315.0","","","","false","","","","","","","","","","null","","881.8000000715256","","1","1","null","null","arrowup","[0.15,0.85,0.325,0.675]","","",""
"sailing-trial","357","1516366","0.0-11.0-316.0","","","","false","","","","","","","","","","835.1000000238419","","25.699999928474426","","1","1","arrowleft","0","arrowright","[0.15,0.85,0.325,0.675]","","",""
"sailing-trial","358","1518410","0.0-11.0-317.0","","","","false","","","","","","","","","","null","","793.2999999523163","","0","0","null","null","arrowup","[0.15,0.85,0.325,0.675]","","",""
"sailing-trial","359","1522895","0.0-11.0-318.0","","","","false","","","","","","","","","","1263.5","","386.5","","1","1","arrowleft","0","arrowright","[0.15,0.85,0.325,0.675]","","",""
"sailing-trial","360","1525437","0.0-11.0-319.0","","","","false","","","","","","","","","","null","","1236.1000000238419","","0","0","null","null","arrowup","[0.15,0.85,0.325,0.675]","","",""
"sailing-trial","361","1531237","0.0-11.0-320.0","","","","false","","","","","","","","","","2515.2999999523163","","448.3000000715256","","1","1","arrowleft","0","arrowright","[0.15,0.85,0.325,0.675]","","",""
"sailing-trial","362","1533299","0.0-11.0-321.0","","","","false","","","","","","","","","","null","","762.6999999284744","","0","0","null","null","arrowup","[0.15,0.85,0.325,0.675]","","",""
"sailing-trial","363","1536752","0.0-11.0-322.0","","","","false","","","","","","","","","","788.3999999761581","","261.1999999284744","","1","0","arrowleft","0","arrowright","[0.675,0.325,0.85,0.15]","","",""
"sailing-trial","364","1538998","0.0-11.0-323.0","","","","false","","","","","","","","","","null","","843.8999999761581","","3","0","null","null","arrowup","[0.675,0.325,0.85,0.15]","","",""
"sailing-trial","365","1543294","0.0-11.0-324.0","","","","false","","","","","","","","","","977.5","","431.5","","1","1","arrowleft","0","arrowright","[0.675,0.325,0.85,0.15]","","",""
"sailing-trial","366","1545367","0.0-11.0-325.0","","","","false","","","","","","","","","","null","","759.6999999284744","","1","0","null","null","arrowup","[0.675,0.325,0.85,0.15]","","",""
"sailing-trial","367","1548855","0.0-11.0-326.0","","","","false","","","","","","","","","","626.7999999523163","","3.700000047683716","","0","1","arrowleft","0","arrowleft","[0.675,0.325,0.85,0.15]","","",""
"sailing-trial","368","1551437","0.0-11.0-327.0","","","","false","","","","","","","","","","null","","745.5","","0","1","null","null","arrowup","[0.675,0.325,0.85,0.15]","","",""
"sailing-trial","369","1554834","0.0-11.0-328.0","","","","false","","","","","","","","","","765.3999999761581","","172.39999997615814","","0","0","arrowleft","0","arrowleft","[0.675,0.325,0.85,0.15]","","",""
"sailing-trial","370","1557821","0.0-11.0-329.0","","","","false","","","","","","","","","","null","","1144.3999999761581","","3","0","null","null","arrowup","[0.675,0.325,0.85,0.15]","","",""
"sailing-trial","371","1562160","0.0-11.0-330.0","","","","false","","","","","","","","","","1351.2999999523163","","110.80000007152557","","0","1","arrowleft","0","arrowleft","[0.675,0.325,0.85,0.15]","","",""
"sailing-trial","372","1564024","0.0-11.0-331.0","","","","false","","","","","","","","","","null","","558.2000000476837","","0","0","null","null","arrowup","[0.675,0.325,0.85,0.15]","","",""
"sailing-trial","373","1567301","0.0-11.0-332.0","","","","false","","","","","","","","","","534.7999999523163","","340.8000000715256","","2","0","arrowright","1","arrowleft","[0.675,0.325,0.85,0.15]","","",""
"sailing-trial","374","1569920","0.0-11.0-333.0","","","","false","","","","","","","","","","null","","756.6999999284744","","2","1","null","null","arrowup","[0.675,0.325,0.85,0.15]","","",""
"sailing-trial","375","1572959","0.0-11.0-334.0","","","","false","","","","","","","","","","600","","35.60000002384186","","2","0","arrowright","1","arrowleft","[0.675,0.325,0.85,0.15]","","",""
"sailing-trial","376","1577450","0.0-11.0-335.0","","","","false","","","","","","","","","","null","","1452.1000000238419","","1","0","null","null","arrowup","[0.675,0.325,0.85,0.15]","","",""
"sailing-trial","377","1582609","0.0-11.0-336.0","","","","false","","","","","","","","","","1790.3999999761581","","182.69999992847443","","0","1","arrowleft","0","arrowleft","[0.675,0.325,0.85,0.15]","","",""
"sailing-trial","378","1585406","0.0-11.0-337.0","","","","false","","","","","","","","","","null","","972.3000000715256","","2","1","null","null","arrowup","[0.675,0.325,0.85,0.15]","","",""
"sailing-trial","379","1589786","0.0-11.0-338.0","","","","false","","","","","","","","","","795.8999999761581","","661.5","","0","1","arrowleft","0","arrowleft","[0.675,0.325,0.85,0.15]","","",""
"sailing-trial","380","1591978","0.0-11.0-339.0","","","","false","","","","","","","","","","null","","890.1000000238419","","3","0","null","null","arrowup","[0.675,0.325,0.85,0.15]","","",""
"sailing-trial","381","1596348","0.0-11.0-340.0","","","","false","","","","","","","","","","932","","477.8000000715256","","0","1","arrowleft","0","arrowleft","[0.675,0.325,0.85,0.15]","","",""
"sailing-trial","382","1598949","0.0-11.0-341.0","","","","false","","","","","","","","","","null","","1298.3000000715256","","1","0","null","null","arrowup","[0.675,0.325,0.85,0.15]","","",""
"sailing-trial","383","1602609","0.0-11.0-342.0","","","","false","","","","","","","","","","705.8000000715256","","40.60000002384186","","0","1","arrowleft","0","arrowleft","[0.85,0.15,0.675,0.325]","","",""
"sailing-trial","384","1606771","0.0-11.0-343.0","","","","false","","","","","","","","","","null","","2257.399999976158","","0","1","null","null","arrowup","[0.85,0.15,0.675,0.325]","","",""
"sailing-trial","385","1610852","0.0-11.0-344.0","","","","false","","","","","","","","","","599.8999999761581","","474.89999997615814","","0","1","arrowleft","0","arrowleft","[0.85,0.15,0.675,0.325]","","",""
"sailing-trial","386","1613515","0.0-11.0-345.0","","","","false","","","","","","","","","","null","","852.3999999761581","","2","1","null","null","arrowup","[0.85,0.15,0.675,0.325]","","",""
"sailing-trial","387","1616411","0.0-11.0-346.0","","","","false","","","","","","","","","","476.3000000715256","","29","","2","0","arrowright","1","arrowleft","[0.85,0.15,0.675,0.325]","","",""
"sailing-trial","388","1619060","0.0-11.0-347.0","","","","false","","","","","","","","","","null","","854","","0","1","null","null","arrowup","[0.85,0.15,0.675,0.325]","","",""
"sailing-trial","389","1622597","0.0-11.0-348.0","","","","false","","","","","","","","","","584.3000000715256","","662.5","","0","0","arrowleft","0","arrowleft","[0.85,0.15,0.675,0.325]","","",""
"sailing-trial","390","1625189","0.0-11.0-349.0","","","","false","","","","","","","","","","null","","786.6999999284744","","1","1","null","null","arrowup","[0.85,0.15,0.675,0.325]","","",""
"sailing-trial","391","1628738","0.0-11.0-350.0","","","","false","","","","","","","","","","563.7000000476837","","134.09999990463257","","1","1","arrowleft","0","arrowright","[0.85,0.15,0.675,0.325]","","",""
"sailing-trial","392","1631532","0.0-11.0-351.0","","","","false","","","","","","","","","","null","","1031.5","","0","1","null","null","arrowup","[0.85,0.15,0.675,0.325]","","",""
"sailing-trial","393","1636231","0.0-11.0-352.0","","","","false","","","","","","","","","","1195.6000000238419","","582.7000000476837","","0","1","arrowleft","0","arrowleft","[0.85,0.15,0.675,0.325]","","",""
"sailing-trial","394","1638843","0.0-11.0-353.0","","","","false","","","","","","","","","","null","","769.3000000715256","","1","1","null","null","arrowup","[0.85,0.15,0.675,0.325]","","",""
"sailing-trial","395","1642663","0.0-11.0-354.0","","","","false","","","","","","","","","","568.2999999523163","","4.600000023841858","","1","0","arrowleft","0","arrowright","[0.85,0.15,0.675,0.325]","","",""
"sailing-trial","396","1644831","0.0-11.0-355.0","","","","false","","","","","","","","","","null","","853.5","","2","0","null","null","arrowup","[0.85,0.15,0.675,0.325]","","",""
"sailing-trial","397","1648918","0.0-11.0-356.0","","","","false","","","","","","","","","","566.1000000238419","","488.89999997615814","","0","1","arrowleft","0","arrowleft","[0.85,0.15,0.675,0.325]","","",""
"sailing-trial","398","1651365","0.0-11.0-357.0","","","","false","","","","","","","","","","null","","663","","2","1","null","null","arrowup","[0.85,0.15,0.675,0.325]","","",""
"sailing-trial","399","1655387","0.0-11.0-358.0","","","","false","","","","","","","","","","1112.3999999761581","","381.10000002384186","","0","0","arrowleft","0","arrowleft","[0.675,0.325,0.85,0.15]","","",""
"sailing-trial","400","1657507","0.0-11.0-359.0","","","","false","","","","","","","","","","null","","829.5","","0","0","null","null","arrowup","[0.675,0.325,0.85,0.15]","","",""
"sailing-trial","401","1661107","0.0-11.0-360.0","","","","false","","","","","","","","","","558","","167.80000007152557","","2","1","arrowright","1","arrowleft","[0.675,0.325,0.85,0.15]","","",""
"sailing-trial","402","1663738","0.0-11.0-361.0","","","","false","","","","","","","","","","null","","841.7999999523163","","3","1","null","null","arrowup","[0.675,0.325,0.85,0.15]","","",""
"sailing-trial","403","1667537","0.0-11.0-362.0","","","","false","","","","","","","","","","524.7999999523163","","423.89999997615814","","1","1","arrowleft","0","arrowright","[0.675,0.325,0.85,0.15]","","",""
"sailing-trial","404","1669864","0.0-11.0-363.0","","","","false","","","","","","","","","","null","","975.2000000476837","","3","0","null","null","arrowup","[0.675,0.325,0.85,0.15]","","",""
"sailing-trial","405","1673896","0.0-11.0-364.0","","","","false","","","","","","","","","","1000.2999999523163","","62","","2","1","arrowright","1","arrowleft","[0.675,0.325,0.85,0.15]","","",""
"sailing-trial","406","1676778","0.0-11.0-365.0","","","","false","","","","","","","","","","null","","1064.3999999761581","","2","1","null","null","arrowup","[0.675,0.325,0.85,0.15]","","",""
"sailing-trial","407","1680359","0.0-11.0-366.0","","","","false","","","","","","","","","","560.6999999284744","","139.69999992847443","","2","1","arrowright","1","arrowleft","[0.675,0.325,0.85,0.15]","","",""
"sailing-trial","408","1683321","0.0-11.0-367.0","","","","false","","","","","","","","","","null","","1151.5","","1","1","null","null","arrowup","[0.675,0.325,0.85,0.15]","","",""
"sailing-trial","409","1687852","0.0-11.0-368.0","","","","false","","","","","","","","","","553.8000000715256","","1128.6000000238419","","2","1","arrowright","1","arrowleft","[0.675,0.325,0.85,0.15]","","",""
"sailing-trial","410","1690649","0.0-11.0-369.0","","","","false","","","","","","","","","","null","","912.5999999046326","","2","1","null","null","arrowup","[0.675,0.325,0.85,0.15]","","",""
"sailing-trial","411","1694312","0.0-11.0-370.0","","","","false","","","","","","","","","","598.8999999761581","","125.60000002384186","","2","1","arrowright","1","arrowleft","[0.675,0.325,0.85,0.15]","","",""
"sailing-trial","412","1696465","0.0-11.0-371.0","","","","false","","","","","","","","","","null","","738.7999999523163","","0","0","null","null","arrowup","[0.675,0.325,0.85,0.15]","","",""
"sailing-trial","413","1699596","0.0-11.0-372.0","","","","false","","","","","","","","","","568.2999999523163","","112","","2","0","arrowright","1","arrowleft","[0.675,0.325,0.85,0.15]","","",""
"sailing-trial","414","1702306","0.0-11.0-373.0","","","","false","","","","","","","","","","null","","789.4000000953674","","2","1","null","null","arrowup","[0.675,0.325,0.85,0.15]","","",""
"sailing-trial","415","1706988","0.0-11.0-374.0","","","","false","","","","","","","","","","1470.1999999284744","","837.3999999761581","","3","0","arrowright","1","arrowright","[0.675,0.325,0.85,0.15]","","",""
"sailing-trial","416","1709188","0.0-11.0-375.0","","","","false","","","","","","","","","","null","","852.1000000238419","","0","0","null","null","arrowup","[0.675,0.325,0.85,0.15]","","",""
"sailing-trial","417","1712511","0.0-11.0-376.0","","","","false","","","","","","","","","","618.2999999523163","","363.60000002384186","","2","0","arrowright","1","arrowleft","[0.85,0.15,0.675,0.325]","","",""
"sailing-trial","418","1715345","0.0-11.0-377.0","","","","false","","","","","","","","","","null","","839.8000000715256","","1","1","null","null","arrowup","[0.85,0.15,0.675,0.325]","","",""
"sailing-trial","419","1718594","0.0-11.0-378.0","","","","false","","","","","","","","","","518.4000000953674","","342.1999999284744","","1","0","arrowleft","0","arrowright","[0.85,0.15,0.675,0.325]","","",""
"sailing-trial","420","1720697","0.0-11.0-379.0","","","","false","","","","","","","","","","null","","635.7000000476837","","0","0","null","null","arrowup","[0.85,0.15,0.675,0.325]","","",""
"sailing-trial","421","1724469","0.0-11.0-380.0","","","","false","","","","","","","","","","544.7000000476837","","416","","2","1","arrowright","1","arrowleft","[0.85,0.15,0.675,0.325]","","",""
"sailing-trial","422","1726692","0.0-11.0-381.0","","","","false","","","","","","","","","","null","","982.7999999523163","","3","0","null","null","arrowup","[0.85,0.15,0.675,0.325]","","",""
"sailing-trial","423","1730414","0.0-11.0-382.0","","","","false","","","","","","","","","","536.1000000238419","","311.6999999284744","","0","1","arrowleft","0","arrowleft","[0.85,0.15,0.675,0.325]","","",""
"sailing-trial","424","1732658","0.0-11.0-383.0","","","","false","","","","","","","","","","null","","943.6000000238419","","0","0","null","null","arrowup","[0.85,0.15,0.675,0.325]","","",""
"sailing-trial","425","1735960","0.0-11.0-384.0","","","","false","","","","","","","","","","595.6999999284744","","365.60000002384186","","2","0","arrowright","1","arrowleft","[0.85,0.15,0.675,0.325]","","",""
"sailing-trial","426","1737961","0.0-11.0-385.0","","","","false","","","","","","","","","","null","","708.2999999523163","","3","0","null","null","arrowup","[0.85,0.15,0.675,0.325]","","",""
"sailing-trial","427","1742221","0.0-11.0-386.0","","","","false","","","","","","","","","","1043.6999999284744","","317","","2","1","arrowright","1","arrowleft","[0.85,0.15,0.675,0.325]","","",""
"sailing-trial","428","1744887","0.0-11.0-387.0","","","","false","","","","","","","","","","null","","861.5","","2","1","null","null","arrowup","[0.85,0.15,0.675,0.325]","","",""
"sailing-trial","429","1748682","0.0-11.0-388.0","","","","false","","","","","","","","","","571.6000000238419","","418.10000002384186","","2","1","arrowright","1","arrowleft","[0.85,0.15,0.675,0.325]","","",""
"sailing-trial","430","1751344","0.0-11.0-389.0","","","","false","","","","","","","","","","null","","800.7000000476837","","0","1","null","null","arrowup","[0.85,0.15,0.675,0.325]","","",""
"sailing-trial","431","1754809","0.0-11.0-390.0","","","","false","","","","","","","","","","545.3000000715256","","44.700000047683716","","0","1","arrowleft","0","arrowleft","[0.85,0.15,0.675,0.325]","","",""
"sailing-trial","432","1756912","0.0-11.0-391.0","","","","false","","","","","","","","","","null","","770.7000000476837","","1","0","null","null","arrowup","[0.85,0.15,0.675,0.325]","","",""
"sailing-trial","433","1760487","0.0-11.0-392.0","","","","false","","","","","","","","","","499","","186.10000002384186","","0","1","arrowleft","0","arrowleft","[0.85,0.15,0.675,0.325]","","",""
"sailing-trial","434","1763701","0.0-11.0-393.0","","","","false","","","","","","","","","","null","","1041.1999999284744","","0","1","null","null","arrowup","[0.85,0.15,0.675,0.325]","","",""
"sailing-trial","435","1768498","0.0-11.0-394.0","","","","false","","","","","","","","","","1818.3999999761581","","96","","0","1","arrowleft","0","arrowleft","[0.85,0.15,0.675,0.325]","","",""
"sailing-trial","436","1771197","0.0-11.0-395.0","","","","false","","","","","","","","","","null","","883.1000000238419","","0","1","null","null","arrowup","[0.85,0.15,0.675,0.325]","","",""
"sailing-trial","437","1775774","0.0-11.0-396.0","","","","false","","","","","","","","","","884.2999999523163","","885.6000000238419","","0","1","arrowleft","0","arrowleft","[0.85,0.15,0.675,0.325]","","",""
"sailing-trial","438","1778405","0.0-11.0-397.0","","","","false","","","","","","","","","","null","","851.2000000476837","","0","1","null","null","arrowup","[0.85,0.15,0.675,0.325]","","",""
"sailing-trial","439","1782135","0.0-11.0-398.0","","","","false","","","","","","","","","","672.6000000238419","","135.39999997615814","","0","1","arrowleft","0","arrowleft","[0.85,0.15,0.675,0.325]","","",""
"sailing-trial","440","1784967","0.0-11.0-399.0","","","","false","","","","","","","","","","null","","971.8999999761581","","3","1","null","null","arrowup","[0.85,0.15,0.675,0.325]","","",""
"instructions","441","1788313","0.0-12.0","","","","","","","","","","3345.100000023842","","","","","","","","","","","","","","","","[{""page_index"":0,""viewing_time"":3343.7000000476837}]"
"survey-debrief","442","1817935","0.0-13.0","","","","","","","","","","29619.600000023842","","","","","","","","","","","","","","{""difficulty"":""3"",""fun"":""4"",""clarity"":""5"",""strategy"":""go to the fog shop if they had treasure, opposite if they didnt"",""feedback"":""no""}","",""
