"trial_type","trial_index","time_elapsed","internal_node_id","value","metadata","success","timeout","failed_images","failed_audio","failed_video","browser_interaction","low_quality","rt","stimulus","response","button_pressed","island_rt","island_response","boat_rt","boat_response","boat","reward","island_key","island","boat_key","reward_probabilities","responses","num_errors","view_history"
"pavlovia","0","2","0.0-0.0","","","","","","","","","","","","","","","","","","","","","","","","","",""
"call-function","1","2","0.0-1.0","","{""task_version"":""sailing_part1_v1"",""task_condition"":""good"",""boats"":[""B"",""D"",""C"",""A""],""boats_demo"":[""G"",""H"",""F"",""E""],""islands"":[""B"",""A""],""subject_id"":""13846"",""age"":""11"",""gender"":""Female""}","","","","","","","","","","","","","","","","","","","","","","","",""
"preload","2","1308","0.0-2.0","","","true","false","[]","[]","[]","[{""event"":""fullscreenenter"",""trial"":3,""time"":4476}]","false","","","","","","","","","","","","","","","","",""
"fullscreen","3","5461","0.0-3.0","","","true","","","","","","","","","","","","","","","","","","","","","","",""
"audio-keyboard-response","4","6005","0.0-4.0-0.0","","","","","","","","","","261.3333333333333","audio/beep_loop.wav","audiovolumeup","","","","","","","","","","","","","",""
"audio-test","5","9620","0.0-4.0-1.0","","","","","","","","","","null","audio/turtle.mp3","","3","","","","","","","","","","","","",""
"audio-test","6","12478","0.0-4.0-2.0","","","","","","","","","","null","audio/shark.mp3","","2","","","","","","","","","","","","",""
"sailing-instructions","7","56760","0.0-5.0-0.0-0.0","","","","","","","","","","","","","","null","null","null","null","null","null","","","","","","",""
"sailing-trial","8","61757","0.0-5.0-0.0-1.0-0.0","","","","false","","","","","","","","","","3755.899999976158","","null","","null","null","arrowleft","0","null","null","","",""
"sailing-trial","9","64737","0.0-5.0-0.0-1.0-1.0","","","","false","","","","","","","","","","1817.6000000238419","","null","","null","null","arrowright","1","null","null","","",""
"sailing-trial","10","70934","0.0-5.0-0.0-1.0-2.0","","","","false","","","","","","","","","","5075.599999964237","","null","","null","null","arrowleft","0","null","null","","",""
"sailing-instructions","11","114046","0.0-5.0-0.0-2.0","","","","","","","","","","","","","","null","null","null","null","0","null","","","","","","",""
"sailing-trial","12","121952","0.0-5.0-0.0-3.0-0.0","","","","false","","","","","","","","","","null","","4775.899999976158","","2","1","null","null","arrowleft","[1,1,1,1]","","",""
"sailing-trial","13","125922","0.0-5.0-0.0-3.0-1.0","","","","false","","","","","","","","","","null","","1141.1000000238419","","3","1","null","null","arrowright","[1,1,1,1]","","",""
"sailing-trial","14","131282","0.0-5.0-0.0-3.0-2.0","","","","false","","","","","","","","","","null","","1925","","2","0","null","null","arrowleft","[0,0,0,0]","","",""
"sailing-instructions","15","139083","0.0-5.0-0.0-4.0","","","","","","","","","","","","","","null","null","null","null","null","null","","","","","","",""
"sailing-comprehension","16","187975","0.0-5.0-0.0-5.0","","","","","","","","","","44861.60000002384","","","","","","","","","","","","","","[""true"",""true"",""false"",""true""]","0",""
"sailing-instructions","17","259616","0.0-6.0-0.0-0.0","","","","","","","","","","","","","","null","null","null","null","null","null","","","","","","",""
"sailing-comprehension","18","290980","0.0-6.0-0.0-1.0","","","","","","","","","","30006.100000023842","","","","","","","","","","","","","","[""true"",""false"",""true""]","0",""
"sailing-instructions","19","311318","0.0-7.0-0.0-0.0","","","","","","","","","","","","","","null","null","null","null","null","null","","","","","","",""
"sailing-trial","20","319304","0.0-7.0-0.0-1.0-0.0","","","","false","","","","","","","","","","null","","5068.300000011921","","0","1","null","null","arrowup","[0.2,0.8,0.2,0.8]","","",""
"sailing-trial","21","323916","0.0-7.0-0.0-1.0-1.0","","","","false","","","","","","","","","","null","","2480","","1","1","null","null","arrowup","[0.2,0.8,0.2,0.8]","","",""
"sailing-trial","22","328677","0.0-7.0-0.0-1.0-2.0","","","","false","","","","","","","","","","null","","1778.699999988079","","2","1","null","null","arrowup","[0.2,0.8,0.2,0.8]","","",""
"sailing-trial","23","331416","0.0-7.0-0.0-1.0-3.0","","","","false","","","","","","","","","","null","","801.9000000357628","","3","1","null","null","arrowup","[0.2,0.8,0.2,0.8]","","",""
"sailing-comprehension","24","382388","0.0-7.0-0.0-2.0","","","","","","","","","","38042.80000001192","","","","","","","","","","","","","","[""true""]","1",""
"sailing-instructions","25","397068","0.0-7.0-0.1-0.1","","","","","","","","","","","","","","null","null","null","null","null","null","","","","","","",""
"sailing-trial","26","400490","0.0-7.0-0.1-1.1-0.1","","","","false","","","","","","","","","","null","","2068.099999964237","","0","0","null","null","arrowup","[0.2,0.8,0.2,0.8]","","",""
"sailing-trial","27","403295","0.0-7.0-0.1-1.1-1.1","","","","false","","","","","","","","","","null","","938.3999999761581","","1","1","null","null","arrowup","[0.2,0.8,0.2,0.8]","","",""
"sailing-trial","28","404639","0.0-7.0-0.1-1.1-2.1","","","","false","","","","","","","","","","null","","36.5","","2","0","null","null","arrowup","[0.2,0.8,0.2,0.8]","","",""
"sailing-trial","29","406276","0.0-7.0-0.1-1.1-3.1","","","","false","","","","","","","","","","null","","383.89999997615814","","3","0","null","null","arrowup","[0.2,0.8,0.2,0.8]","","",""
"sailing-comprehension","30","413361","0.0-7.0-0.1-2.1","","","","","","","","","","5834.900000035763","","","","","","","","","","","","","","[""false""]","0",""
"sailing-instructions","31","423928","0.0-8.0-0.0-0.0","","","","","","","","","","","","","","null","null","null","null","null","null","","","","","","",""
"sailing-comprehension","32","428736","0.0-8.0-0.0-1.0","","","","","","","","","","3928.199999988079","","","","","","","","","","","","","","[""true""]","0",""
"sailing-instructions","33","453132","0.0-9.0-0.0-0.0","","","","","","","","","","","","","","null","null","null","null","null","null","","","","","","",""
"sailing-trial","34","458109","0.0-9.0-0.0-1.0-0.0","","","","false","","","","","","","","","","1012.5","","535.6000000238419","","3","1","arrowright","1","arrowright","[0.2,0.8,0.2,0.8]","","",""
"sailing-trial","35","461478","0.0-9.0-0.0-1.0-1.0","","","","false","","","","","","","","","","727.3999999761581","","40.89999997615814","","0","0","arrowleft","0","arrowleft","[0.2,0.8,0.2,0.8]","","",""
"sailing-trial","36","465237","0.0-9.0-0.0-1.0-2.0","","","","false","","","","","","","","","","null","","2221.199999988079","","0","0","null","null","arrowup","[0.2,0.8,0.2,0.8]","","",""
"sailing-trial","37","470817","0.0-9.0-0.0-1.0-3.0","","","","false","","","","","","","","","","1387.1000000238419","","1096.5","","1","1","arrowleft","0","arrowright","[0.2,0.8,0.2,0.8]","","",""
"sailing-trial","38","474663","0.0-9.0-0.0-1.0-4.0","","","","false","","","","","","","","","","null","","1974.800000011921","","3","1","null","null","arrowup","[0.2,0.8,0.2,0.8]","","",""
"sailing-trial","39","478109","0.0-9.0-0.0-1.0-5.0","","","","false","","","","","","","","","","756.5","","73.89999997615814","","2","0","arrowright","1","arrowleft","[0.2,0.8,0.2,0.8]","","",""
"sailing-instructions","40","503705","0.0-10.0","","","","","","","","","","","","","","null","null","null","null","null","null","","","","","","",""
"sailing-trial","41","508064","0.0-11.0-0.0","","","","false","","","","","","","","","","677.5999999642372","","471.69999998807907","","3","0","arrowright","1","arrowright","[0.15,0.85,0.675,0.325]","","",""
"sailing-trial","42","511679","0.0-11.0-1.0","","","","false","","","","","","","","","","null","","2251.800000011921","","2","0","null","null","arrowup","[0.15,0.85,0.675,0.325]","","",""
"sailing-trial","43","515475","0.0-11.0-2.0","","","","false","","","","","","","","","","554.7999999523163","","733.1999999880791","","0","0","arrowleft","0","arrowleft","[0.15,0.85,0.675,0.325]","","",""
"sailing-trial","44","518529","0.0-11.0-3.0","","","","false","","","","","","","","","","null","","1165.6000000238419","","3","1","null","null","arrowup","[0.15,0.85,0.675,0.325]","","",""
"sailing-trial","45","522254","0.0-11.0-4.0","","","","false","","","","","","","","","","674.1000000238419","","118.30000001192093","","3","1","arrowright","1","arrowright","[0.15,0.85,0.675,0.325]","","",""
"sailing-trial","46","525286","0.0-11.0-5.0","","","","false","","","","","","","","","","null","","1261.4000000357628","","3","1","null","null","arrowup","[0.15,0.85,0.675,0.325]","","",""
"sailing-trial","47","529046","0.0-11.0-6.0","","","","false","","","","","","","","","","425.5999999642372","","888.6999999880791","","3","0","arrowright","1","arrowright","[0.15,0.85,0.675,0.325]","","",""
"sailing-trial","48","532127","0.0-11.0-7.0","","","","false","","","","","","","","","","null","","1485.8999999761581","","1","0","null","null","arrowup","[0.15,0.85,0.675,0.325]","","",""
"sailing-trial","49","537682","0.0-11.0-8.0","","","","false","","","","","","","","","","1643.4000000357628","","685.8000000119209","","2","1","arrowright","1","arrowleft","[0.15,0.85,0.675,0.325]","","",""
"sailing-trial","50","539958","0.0-11.0-9.0","","","","false","","","","","","","","","","null","","834.3999999761581","","0","0","null","null","arrowup","[0.15,0.85,0.675,0.325]","","",""
"sailing-trial","51","547395","0.0-11.0-10.0","","","","false","","","","","","","","","","1254.1000000238419","","408.7999999523163","","1","1","arrowleft","0","arrowright","[0.15,0.85,0.675,0.325]","","",""
"sailing-trial","52","550883","0.0-11.0-11.0","","","","false","","","","","","","","","","null","","1583.7000000476837","","0","0","null","null","arrowup","[0.15,0.85,0.675,0.325]","","",""
"sailing-trial","53","554539","0.0-11.0-12.0","","","","false","","","","","","","","","","699.5","","176.30000001192093","","0","0","arrowleft","0","arrowleft","[0.15,0.85,0.675,0.325]","","",""
"sailing-trial","54","557930","0.0-11.0-13.0","","","","false","","","","","","","","","","null","","2106.099999964237","","2","0","null","null","arrowup","[0.15,0.85,0.675,0.325]","","",""
"sailing-trial","55","562369","0.0-11.0-14.0","","","","false","","","","","","","","","","586.6000000238419","","12.399999976158142","","3","0","arrowright","1","arrowright","[0.15,0.85,0.675,0.325]","","",""
"sailing-trial","56","566689","0.0-11.0-15.0","","","","false","","","","","","","","","","null","","2245.699999988079","","2","1","null","null","arrowup","[0.15,0.85,0.675,0.325]","","",""
"sailing-trial","57","570382","0.0-11.0-16.0","","","","false","","","","","","","","","","619.5","","81.30000001192093","","2","1","arrowright","1","arrowleft","[0.325,0.675,0.85,0.15]","","",""
"sailing-trial","58","574050","0.0-11.0-17.0","","","","false","","","","","","","","","","null","","749.8000000119209","","0","1","null","null","arrowup","[0.325,0.675,0.85,0.15]","","",""
"sailing-trial","59","578562","0.0-11.0-18.0","","","","false","","","","","","","","","","618.3000000119209","","961.8000000119209","","0","0","arrowleft","0","arrowleft","[0.325,0.675,0.85,0.15]","","",""
"sailing-trial","60","581741","0.0-11.0-19.0","","","","false","","","","","","","","","","null","","1615.800000011921","","0","0","null","null","arrowup","[0.325,0.675,0.85,0.15]","","",""
"sailing-trial","61","585360","0.0-11.0-20.0","","","","false","","","","","","","","","","749.1000000238419","","546.5","","2","0","arrowright","1","arrowleft","[0.325,0.675,0.85,0.15]","","",""
"sailing-trial","62","588621","0.0-11.0-21.0","","","","false","","","","","","","","","","null","","1324.8999999761581","","1","1","null","null","arrowup","[0.325,0.675,0.85,0.15]","","",""
"sailing-trial","63","591928","0.0-11.0-22.0","","","","false","","","","","","","","","","582.8000000119209","","15.299999952316284","","1","1","arrowleft","0","arrowright","[0.325,0.675,0.85,0.15]","","",""
"sailing-trial","64","595025","0.0-11.0-23.0","","","","false","","","","","","","","","","null","","1077.4000000357628","","1","1","null","null","arrowup","[0.325,0.675,0.85,0.15]","","",""
"sailing-trial","65","598047","0.0-11.0-24.0","","","","false","","","","","","","","","","510.5999999642372","","66.60000002384186","","1","0","arrowleft","0","arrowright","[0.325,0.675,0.85,0.15]","","",""
"sailing-trial","66","600561","0.0-11.0-25.0","","","","false","","","","","","","","","","null","","1328.699999988079","","0","0","null","null","arrowup","[0.325,0.675,0.85,0.15]","","",""
"sailing-trial","67","604321","0.0-11.0-26.0","","","","false","","","","","","","","","","832.5999999642372","","425.80000001192093","","1","0","arrowleft","0","arrowright","[0.325,0.675,0.85,0.15]","","",""
"sailing-trial","68","607397","0.0-11.0-27.0","","","","false","","","","","","","","","","null","","1215.1000000238419","","1","1","null","null","arrowup","[0.325,0.675,0.85,0.15]","","",""
"sailing-trial","69","612216","0.0-11.0-28.0","","","","false","","","","","","","","","","688.1999999880791","","1102.199999988079","","3","1","arrowright","1","arrowright","[0.325,0.675,0.85,0.15]","","",""
"sailing-trial","70","615052","0.0-11.0-29.0","","","","false","","","","","","","","","","null","","1061.5","","2","1","null","null","arrowup","[0.325,0.675,0.85,0.15]","","",""
"sailing-trial","71","618057","0.0-11.0-30.0","","","","false","","","","","","","","","","416.19999998807907","","278.5","","3","0","arrowright","1","arrowright","[0.325,0.675,0.85,0.15]","","",""
"sailing-trial","72","620569","0.0-11.0-31.0","","","","false","","","","","","","","","","null","","1213.6000000238419","","3","0","null","null","arrowup","[0.325,0.675,0.85,0.15]","","",""
"sailing-trial","73","624548","0.0-11.0-32.0","","","","false","","","","","","","","","","483.60000002384186","","1370.2999999523163","","1","0","arrowleft","0","arrowright","[0.15,0.85,0.675,0.325]","","",""
"sailing-trial","74","627215","0.0-11.0-33.0","","","","false","","","","","","","","","","null","","1110.7000000476837","","3","0","null","null","arrowup","[0.15,0.85,0.675,0.325]","","",""
"sailing-trial","75","631205","0.0-11.0-34.0","","","","false","","","","","","","","","","448.30000001192093","","633.2000000476837","","2","1","arrowright","1","arrowleft","[0.15,0.85,0.675,0.325]","","",""
"sailing-trial","76","634097","0.0-11.0-35.0","","","","false","","","","","","","","","","null","","1007.5","","2","1","null","null","arrowup","[0.15,0.85,0.675,0.325]","","",""
"sailing-trial","77","639238","0.0-11.0-36.0","","","","false","","","","","","","","","","645.1999999880791","","692.0999999642372","","2","0","arrowright","1","arrowleft","[0.15,0.85,0.675,0.325]","","",""
"sailing-trial","78","642840","0.0-11.0-37.0","","","","false","","","","","","","","","","null","","1149","","1","1","null","null","arrowup","[0.15,0.85,0.675,0.325]","","",""
"sailing-trial","79","646590","0.0-11.0-38.0","","","","false","","","","","","","","","","783.0999999642372","","174.5","","2","0","arrowright","1","arrowleft","[0.15,0.85,0.675,0.325]","","",""
"sailing-trial","80","649463","0.0-11.0-39.0","","","","false","","","","","","","","","","null","","1453.800000011921","","0","0","null","null","arrowup","[0.15,0.85,0.675,0.325]","","",""
"sailing-trial","81","653476","0.0-11.0-40.0","","","","false","","","","","","","","","","1288.4000000357628","","452.10000002384186","","3","0","arrowright","1","arrowright","[0.15,0.85,0.675,0.325]","","",""
"sailing-trial","82","656367","0.0-11.0-41.0","","","","false","","","","","","","","","","null","","1235.5","","3","0","null","null","arrowup","[0.15,0.85,0.675,0.325]","","",""
"sailing-trial","83","661210","0.0-11.0-42.0","","","","false","","","","","","","","","","1188.3999999761581","","718.2000000476837","","1","1","arrowleft","0","arrowright","[0.15,0.85,0.675,0.325]","","",""
"sailing-trial","84","664816","0.0-11.0-43.0","","","","false","","","","","","","","","","null","","2263.099999964237","","0","0","null","null","arrowup","[0.15,0.85,0.675,0.325]","","",""
"sailing-trial","85","669597","0.0-11.0-44.0","","","","false","","","","","","","","","","659.8000000119209","","913.6000000238419","","1","1","arrowleft","0","arrowright","[0.15,0.85,0.675,0.325]","","",""
"sailing-trial","86","672864","0.0-11.0-45.0","","","","false","","","","","","","","","","null","","1131.300000011921","","2","1","null","null","arrowup","[0.15,0.85,0.675,0.325]","","",""
"sailing-trial","87","676708","0.0-11.0-46.0","","","","false","","","","","","","","","","514.8999999761581","","515.1000000238419","","1","1","arrowleft","0","arrowright","[0.15,0.85,0.675,0.325]","","",""
"sailing-trial","88","680587","0.0-11.0-47.0","","","","false","","","","","","","","","","null","","2035.3999999761581","","1","1","null","null","arrowup","[0.15,0.85,0.675,0.325]","","",""
"sailing-trial","89","684578","0.0-11.0-48.0","","","","false","","","","","","","","","","1188.5","","2.600000023841858","","1","0","arrowleft","0","arrowright","[0.15,0.85,0.675,0.325]","","",""
"sailing-trial","90","687189","0.0-11.0-49.0","","","","false","","","","","","","","","","null","","1021","","2","1","null","null","arrowup","[0.15,0.85,0.675,0.325]","","",""
"sailing-trial","91","691024","0.0-11.0-50.0","","","","false","","","","","","","","","","519.8999999761581","","449.10000002384186","","2","0","arrowright","1","arrowleft","[0.325,0.675,0.85,0.15]","","",""
"sailing-trial","92","694759","0.0-11.0-51.0","","","","false","","","","","","","","","","null","","1469.1000000238419","","1","1","null","null","arrowup","[0.325,0.675,0.85,0.15]","","",""
"sailing-trial","93","698102","0.0-11.0-52.0","","","","false","","","","","","","","","","605.8999999761581","","337.19999998807907","","3","0","arrowright","1","arrowright","[0.325,0.675,0.85,0.15]","","",""
"sailing-trial","94","700940","0.0-11.0-53.0","","","","false","","","","","","","","","","null","","1167.5","","1","1","null","null","arrowup","[0.325,0.675,0.85,0.15]","","",""
"sailing-trial","95","704682","0.0-11.0-54.0","","","","false","","","","","","","","","","655.8000000119209","","953.3000000119209","","1","0","arrowleft","0","arrowright","[0.325,0.675,0.85,0.15]","","",""
"sailing-trial","96","708103","0.0-11.0-55.0","","","","false","","","","","","","","","","null","","997.3000000119209","","2","1","null","null","arrowup","[0.325,0.675,0.85,0.15]","","",""
"sailing-trial","97","712196","0.0-11.0-56.0","","","","false","","","","","","","","","","440.5","","101.60000002384186","","2","1","arrowright","1","arrowleft","[0.325,0.675,0.85,0.15]","","",""
"sailing-trial","98","715474","0.0-11.0-57.0","","","","false","","","","","","","","","","null","","1213.1000000238419","","3","1","null","null","arrowup","[0.325,0.675,0.85,0.15]","","",""
"sailing-trial","99","718920","0.0-11.0-58.0","","","","false","","","","","","","","","","648","","461","","3","0","arrowright","1","arrowright","[0.325,0.675,0.85,0.15]","","",""
"sailing-trial","100","723637","0.0-11.0-59.0","","","","false","","","","","","","","","","null","","2904.199999988079","","1","1","null","null","arrowup","[0.325,0.675,0.85,0.15]","","",""
"sailing-trial","101","727420","0.0-11.0-60.0","","","","false","","","","","","","","","","1111.3999999761581","","110.19999998807907","","3","0","arrowright","1","arrowright","[0.325,0.675,0.85,0.15]","","",""
"sailing-trial","102","731483","0.0-11.0-61.0","","","","false","","","","","","","","","","null","","1264.300000011921","","0","1","null","null","arrowup","[0.325,0.675,0.85,0.15]","","",""
"sailing-trial","103","735238","0.0-11.0-62.0","","","","false","","","","","","","","","","633.6000000238419","","363.0999999642372","","0","1","arrowleft","0","arrowleft","[0.325,0.675,0.85,0.15]","","",""
"sailing-trial","104","738019","0.0-11.0-63.0","","","","false","","","","","","","","","","null","","1223.3999999761581","","2","1","null","null","arrowup","[0.325,0.675,0.85,0.15]","","",""
"sailing-trial","105","741163","0.0-11.0-64.0","","","","false","","","","","","","","","","376.39999997615814","","475.0999999642372","","0","0","arrowleft","0","arrowleft","[0.325,0.675,0.85,0.15]","","",""
"sailing-trial","106","743606","0.0-11.0-65.0","","","","false","","","","","","","","","","null","","1230.9000000357628","","0","0","null","null","arrowup","[0.325,0.675,0.85,0.15]","","",""
"sailing-trial","107","746839","0.0-11.0-66.0","","","","false","","","","","","","","","","427.5","","559.5","","2","0","arrowright","1","arrowleft","[0.85,0.15,0.325,0.675]","","",""
"sailing-trial","108","749303","0.0-11.0-67.0","","","","false","","","","","","","","","","null","","1094.5999999642372","","1","0","null","null","arrowup","[0.85,0.15,0.325,0.675]","","",""
"sailing-trial","109","752473","0.0-11.0-68.0","","","","false","","","","","","","","","","527.5999999642372","","64.5","","3","1","arrowright","1","arrowright","[0.85,0.15,0.325,0.675]","","",""
"sailing-trial","110","754958","0.0-11.0-69.0","","","","false","","","","","","","","","","null","","1402.3999999761581","","2","0","null","null","arrowup","[0.85,0.15,0.325,0.675]","","",""
"sailing-trial","111","759713","0.0-11.0-70.0","","","","false","","","","","","","","","","762.8000000119209","","277.89999997615814","","3","0","arrowright","1","arrowright","[0.85,0.15,0.325,0.675]","","",""
"sailing-trial","112","763093","0.0-11.0-71.0","","","","false","","","","","","","","","","null","","1910.5","","1","0","null","null","arrowup","[0.85,0.15,0.325,0.675]","","",""
"sailing-trial","113","766847","0.0-11.0-72.0","","","","false","","","","","","","","","","782.8000000119209","","353.80000001192093","","0","1","arrowleft","0","arrowleft","[0.85,0.15,0.325,0.675]","","",""
"sailing-trial","114","770210","0.0-11.0-73.0","","","","false","","","","","","","","","","null","","1714.2999999523163","","3","1","null","null","arrowup","[0.85,0.15,0.325,0.675]","","",""
"sailing-trial","115","774427","0.0-11.0-74.0","","","","false","","","","","","","","","","757.5","","713","","0","1","arrowleft","0","arrowleft","[0.85,0.15,0.325,0.675]","","",""
"sailing-trial","116","777649","0.0-11.0-75.0","","","","false","","","","","","","","","","null","","2011.7999999523163","","3","0","null","null","arrowup","[0.85,0.15,0.325,0.675]","","",""
"sailing-trial","117","781614","0.0-11.0-76.0","","","","false","","","","","","","","","","637.6000000238419","","625.3000000119209","","3","1","arrowright","1","arrowright","[0.85,0.15,0.325,0.675]","","",""
"sailing-trial","118","784251","0.0-11.0-77.0","","","","false","","","","","","","","","","null","","1437.8999999761581","","3","0","null","null","arrowup","[0.85,0.15,0.325,0.675]","","",""
"sailing-trial","119","788296","0.0-11.0-78.0","","","","false","","","","","","","","","","637.3000000119209","","391.10000002384186","","0","1","arrowleft","0","arrowleft","[0.85,0.15,0.325,0.675]","","",""
"sailing-trial","120","790778","0.0-11.0-79.0","","","","false","","","","","","","","","","null","","1394.199999988079","","2","0","null","null","arrowup","[0.85,0.15,0.325,0.675]","","",""
"sailing-trial","121","795210","0.0-11.0-80.0","","","","false","","","","","","","","","","1218.699999988079","","787.8000000119209","","1","0","arrowleft","0","arrowright","[0.85,0.15,0.325,0.675]","","",""
"sailing-trial","122","798040","0.0-11.0-81.0","","","","false","","","","","","","","","","null","","1448.9000000357628","","3","0","null","null","arrowup","[0.85,0.15,0.325,0.675]","","",""
"sailing-trial","123","801329","0.0-11.0-82.0","","","","false","","","","","","","","","","629.5999999642372","","332.89999997615814","","3","0","arrowright","1","arrowright","[0.15,0.85,0.675,0.325]","","",""
"sailing-trial","124","803993","0.0-11.0-83.0","","","","false","","","","","","","","","","null","","1304.2000000476837","","0","0","null","null","arrowup","[0.15,0.85,0.675,0.325]","","",""
"sailing-trial","125","806739","0.0-11.0-84.0","","","","false","","","","","","","","","","299.5","","192.80000001192093","","0","0","arrowleft","0","arrowleft","[0.15,0.85,0.675,0.325]","","",""
"sailing-trial","126","809406","0.0-11.0-85.0","","","","false","","","","","","","","","","null","","1548.9000000357628","","2","0","null","null","arrowup","[0.15,0.85,0.675,0.325]","","",""
"sailing-trial","127","814207","0.0-11.0-86.0","","","","false","","","","","","","","","","1041.199999988079","","762.1999999880791","","3","1","arrowright","1","arrowright","[0.15,0.85,0.675,0.325]","","",""
"sailing-trial","128","818680","0.0-11.0-87.0","","","","false","","","","","","","","","","null","","1439.800000011921","","2","0","null","null","arrowup","[0.15,0.85,0.675,0.325]","","",""
"sailing-trial","129","822617","0.0-11.0-88.0","","","","false","","","","","","","","","","1365.8999999761581","","335.2000000476837","","3","0","arrowright","1","arrowright","[0.15,0.85,0.675,0.325]","","",""
"sailing-trial","130","826568","0.0-11.0-89.0","","","","false","","","","","","","","","","null","","1287.300000011921","","1","1","null","null","arrowup","[0.15,0.85,0.675,0.325]","","",""
"sailing-trial","131","831005","0.0-11.0-90.0","","","","false","","","","","","","","","","1114.800000011921","","292.80000001192093","","1","1","arrowleft","0","arrowright","[0.15,0.85,0.675,0.325]","","",""
"sailing-trial","132","834205","0.0-11.0-91.0","","","","false","","","","","","","","","","null","","1344","","0","1","null","null","arrowup","[0.15,0.85,0.675,0.325]","","",""
"sailing-trial","133","838388","0.0-11.0-92.0","","","","false","","","","","","","","","","975.8999999761581","","375.9000000357628","","1","1","arrowleft","0","arrowright","[0.15,0.85,0.675,0.325]","","",""
"sailing-trial","134","841230","0.0-11.0-93.0","","","","false","","","","","","","","","","null","","1157","","2","1","null","null","arrowup","[0.15,0.85,0.675,0.325]","","",""
"sailing-trial","135","845581","0.0-11.0-94.0","","","","false","","","","","","","","","","565.5","","172.10000002384186","","1","0","arrowleft","0","arrowright","[0.15,0.85,0.675,0.325]","","",""
"sailing-trial","136","850326","0.0-11.0-95.0","","","","false","","","","","","","","","","null","","2697.800000011921","","2","1","null","null","arrowup","[0.15,0.85,0.675,0.325]","","",""
"sailing-trial","137","854115","0.0-11.0-96.0","","","","false","","","","","","","","","","759.3999999761581","","69.80000001192093","","2","0","arrowright","1","arrowleft","[0.15,0.85,0.675,0.325]","","",""
"sailing-trial","138","858300","0.0-11.0-97.0","","","","false","","","","","","","","","","null","","2264.699999988079","","0","1","null","null","arrowup","[0.15,0.85,0.675,0.325]","","",""
"sailing-trial","139","863403","0.0-11.0-98.0","","","","false","","","","","","","","","","1641.5999999642372","","42.80000001192093","","0","0","arrowleft","0","arrowleft","[0.325,0.675,0.85,0.15]","","",""
"sailing-trial","140","866909","0.0-11.0-99.0","","","","false","","","","","","","","","","null","","1236.5","","2","1","null","null","arrowup","[0.325,0.675,0.85,0.15]","","",""
"sailing-trial","141","871322","0.0-11.0-100.0","","","","false","","","","","","","","","","532.5","","293.39999997615814","","2","1","arrowright","1","arrowleft","[0.325,0.675,0.85,0.15]","","",""
"sailing-trial","142","875250","0.0-11.0-101.0","","","","false","","","","","","","","","","null","","1934.699999988079","","2","1","null","null","arrowup","[0.325,0.675,0.85,0.15]","","",""
"sailing-trial","143","879378","0.0-11.0-102.0","","","","false","","","","","","","","","","1060.5","","467.4000000357628","","3","0","arrowright","1","arrowright","[0.325,0.675,0.85,0.15]","","",""
"sailing-trial","144","882879","0.0-11.0-103.0","","","","false","","","","","","","","","","null","","1582.0999999642372","","2","1","null","null","arrowup","[0.325,0.675,0.85,0.15]","","",""
"sailing-trial","145","888024","0.0-11.0-104.0","","","","false","","","","","","","","","","1099.800000011921","","494.69999998807907","","2","1","arrowright","1","arrowleft","[0.325,0.675,0.85,0.15]","","",""
"sailing-trial","146","891060","0.0-11.0-105.0","","","","false","","","","","","","","","","null","","1353","","0","0","null","null","arrowup","[0.325,0.675,0.85,0.15]","","",""
"sailing-trial","147","895254","0.0-11.0-106.0","","","","false","","","","","","","","","","688","","455.89999997615814","","2","1","arrowright","1","arrowleft","[0.325,0.675,0.85,0.15]","","",""
"sailing-trial","148","898197","0.0-11.0-107.0","","","","false","","","","","","","","","","null","","1481.300000011921","","3","0","null","null","arrowup","[0.325,0.675,0.85,0.15]","","",""
"sailing-trial","149","902531","0.0-11.0-108.0","","","","false","","","","","","","","","","1167.8999999761581","","55.19999998807907","","2","1","arrowright","1","arrowleft","[0.325,0.675,0.85,0.15]","","",""
"sailing-trial","150","907596","0.0-11.0-109.0","","","","false","","","","","","","","","","null","","2085.199999988079","","1","1","null","null","arrowup","[0.325,0.675,0.85,0.15]","","",""
"sailing-trial","151","912775","0.0-11.0-110.0","","","","false","","","","","","","","","","740.5","","1444.699999988079","","2","1","arrowright","1","arrowleft","[0.325,0.675,0.85,0.15]","","",""
"sailing-trial","152","915864","0.0-11.0-111.0","","","","false","","","","","","","","","","null","","1186.4000000357628","","1","1","null","null","arrowup","[0.325,0.675,0.85,0.15]","","",""
"sailing-trial","153","920606","0.0-11.0-112.0","","","","false","","","","","","","","","","1268.5999999642372","","182.60000002384186","","2","1","arrowright","1","arrowleft","[0.325,0.675,0.85,0.15]","","",""
"sailing-trial","154","923826","0.0-11.0-113.0","","","","false","","","","","","","","","","null","","1866.699999988079","","0","0","null","null","arrowup","[0.325,0.675,0.85,0.15]","","",""
"sailing-trial","155","928319","0.0-11.0-114.0","","","","false","","","","","","","","","","1078.4000000357628","","91.5","","2","1","arrowright","1","arrowleft","[0.325,0.675,0.85,0.15]","","",""
"sailing-trial","156","934212","0.0-11.0-115.0","","","","false","","","","","","","","","","null","","3984.400000035763","","1","1","null","null","arrowup","[0.325,0.675,0.85,0.15]","","",""
"sailing-trial","157","938605","0.0-11.0-116.0","","","","false","","","","","","","","","","398.30000001192093","","1641.300000011921","","2","0","arrowright","1","arrowleft","[0.325,0.675,0.85,0.15]","","",""
"sailing-trial","158","941646","0.0-11.0-117.0","","","","false","","","","","","","","","","null","","1652.699999988079","","0","0","null","null","arrowup","[0.325,0.675,0.85,0.15]","","",""
"sailing-trial","159","945291","0.0-11.0-118.0","","","","false","","","","","","","","","","490.30000001192093","","384.5","","1","1","arrowleft","0","arrowright","[0.15,0.85,0.675,0.325]","","",""
"sailing-trial","160","948814","0.0-11.0-119.0","","","","false","","","","","","","","","","null","","1667.300000011921","","1","1","null","null","arrowup","[0.15,0.85,0.675,0.325]","","",""
"sailing-trial","161","953632","0.0-11.0-120.0","","","","false","","","","","","","","","","1300.5","","382.9000000357628","","1","1","arrowleft","0","arrowright","[0.15,0.85,0.675,0.325]","","",""
"sailing-trial","162","957793","0.0-11.0-121.0","","","","false","","","","","","","","","","null","","2691.5","","3","0","null","null","arrowup","[0.15,0.85,0.675,0.325]","","",""
"sailing-trial","163","962591","0.0-11.0-122.0","","","","false","","","","","","","","","","917.8000000119209","","330.10000002384186","","1","1","arrowleft","0","arrowright","[0.15,0.85,0.675,0.325]","","",""
"sailing-trial","164","965098","0.0-11.0-123.0","","","","false","","","","","","","","","","null","","1163.8999999761581","","3","0","null","null","arrowup","[0.15,0.85,0.675,0.325]","","",""
"sailing-trial","165","968731","0.0-11.0-124.0","","","","false","","","","","","","","","","615.5999999642372","","67.09999996423721","","1","1","arrowleft","0","arrowright","[0.15,0.85,0.675,0.325]","","",""
"sailing-trial","166","971885","0.0-11.0-125.0","","","","false","","","","","","","","","","null","","1252","","2","1","null","null","arrowup","[0.15,0.85,0.675,0.325]","","",""
"sailing-trial","167","976178","0.0-11.0-126.0","","","","false","","","","","","","","","","485.10000002384186","","991","","1","1","arrowleft","0","arrowright","[0.15,0.85,0.675,0.325]","","",""
"sailing-trial","168","980264","0.0-11.0-127.0","","","","false","","","","","","","","","","null","","1363.5999999642372","","2","1","null","null","arrowup","[0.15,0.85,0.675,0.325]","","",""
"sailing-trial","169","985120","0.0-11.0-128.0","","","","false","","","","","","","","","","1308.4000000357628","","273.5","","1","1","arrowleft","0","arrowright","[0.15,0.85,0.675,0.325]","","",""
"sailing-trial","170","989754","0.0-11.0-129.0","","","","false","","","","","","","","","","null","","2472.7000000476837","","1","1","null","null","arrowup","[0.15,0.85,0.675,0.325]","","",""
"sailing-trial","171","994851","0.0-11.0-130.0","","","","false","","","","","","","","","","1478.800000011921","","129.80000001192093","","1","1","arrowleft","0","arrowright","[0.15,0.85,0.675,0.325]","","",""
"sailing-trial","172","998197","0.0-11.0-131.0","","","","false","","","","","","","","","","null","","1329.300000011921","","1","1","null","null","arrowup","[0.15,0.85,0.675,0.325]","","",""
"sailing-trial","173","1003694","0.0-11.0-132.0","","","","false","","","","","","","","","","2241.100000023842","","176.9000000357628","","2","1","arrowright","1","arrowleft","[0.15,0.85,0.675,0.325]","","",""
"sailing-trial","174","1006633","0.0-11.0-133.0","","","","false","","","","","","","","","","null","","1759","","0","0","null","null","arrowup","[0.15,0.85,0.675,0.325]","","",""
"sailing-trial","175","1010750","0.0-11.0-134.0","","","","false","","","","","","","","","","408.89999997615814","","510","","3","1","arrowright","1","arrowright","[0.15,0.85,0.675,0.325]","","",""
"sailing-trial","176","1013762","0.0-11.0-135.0","","","","false","","","","","","","","","","null","","1216.5","","1","1","null","null","arrowup","[0.15,0.85,0.675,0.325]","","",""
"sailing-trial","177","1017681","0.0-11.0-136.0","","","","false","","","","","","","","","","774.3000000119209","","211.80000001192093","","3","0","arrowright","1","arrowright","[0.15,0.85,0.675,0.325]","","",""
"sailing-trial","178","1022388","0.0-11.0-137.0","","","","false","","","","","","","","","","null","","2678.2999999523163","","1","1","null","null","arrowup","[0.15,0.85,0.675,0.325]","","",""
"sailing-trial","179","1027924","0.0-11.0-138.0","","","","false","","","","","","","","","","934.5999999642372","","562.1999999880791","","1","0","arrowleft","0","arrowright","[0.325,0.675,0.85,0.15]","","",""
"sailing-trial","180","1032429","0.0-11.0-139.0","","","","false","","","","","","","","","","null","","2341.699999988079","","1","1","null","null","arrowup","[0.325,0.675,0.85,0.15]","","",""
"sailing-trial","181","1036831","0.0-11.0-140.0","","","","false","","","","","","","","","","1290.7999999523163","","212.5","","1","1","arrowleft","0","arrowright","[0.325,0.675,0.85,0.15]","","",""
"sailing-trial","182","1041576","0.0-11.0-141.0","","","","false","","","","","","","","","","null","","2613.600000023842","","2","1","null","null","arrowup","[0.325,0.675,0.85,0.15]","","",""
"sailing-trial","183","1047320","0.0-11.0-142.0","","","","false","","","","","","","","","","1789","","1285.6000000238419","","1","1","arrowleft","0","arrowright","[0.325,0.675,0.85,0.15]","","",""
"sailing-trial","184","1050503","0.0-11.0-143.0","","","","false","","","","","","","","","","null","","1869.1000000238419","","1","0","null","null","arrowup","[0.325,0.675,0.85,0.15]","","",""
"sailing-trial","185","1055742","0.0-11.0-144.0","","","","false","","","","","","","","","","1166.5","","969","","1","1","arrowleft","0","arrowright","[0.325,0.675,0.85,0.15]","","",""
"sailing-trial","186","1058495","0.0-11.0-145.0","","","","false","","","","","","","","","","null","","1398.6000000238419","","0","0","null","null","arrowup","[0.325,0.675,0.85,0.15]","","",""
"sailing-trial","187","1064401","0.0-11.0-146.0","","","","false","","","","","","","","","","1626.2999999523163","","334.5","","1","1","arrowleft","0","arrowright","[0.325,0.675,0.85,0.15]","","",""
"sailing-trial","188","1069696","0.0-11.0-147.0","","","","false","","","","","","","","","","null","","1652.6000000238419","","0","1","null","null","arrowup","[0.325,0.675,0.85,0.15]","","",""
"sailing-trial","189","1075584","0.0-11.0-148.0","","","","false","","","","","","","","","","1318","","899.5","","1","0","arrowleft","0","arrowright","[0.325,0.675,0.85,0.15]","","",""
"sailing-trial","190","1081939","0.0-11.0-149.0","","","","false","","","","","","","","","","null","","3322.899999976158","","3","1","null","null","arrowup","[0.325,0.675,0.85,0.15]","","",""
"sailing-trial","191","1086837","0.0-11.0-150.0","","","","false","","","","","","","","","","1233.1000000238419","","573.1999999880791","","1","1","arrowleft","0","arrowright","[0.325,0.675,0.85,0.15]","","",""
"sailing-trial","192","1089756","0.0-11.0-151.0","","","","false","","","","","","","","","","null","","946.6999999880791","","0","0","null","null","arrowup","[0.325,0.675,0.85,0.15]","","",""
"sailing-trial","193","1093671","0.0-11.0-152.0","","","","false","","","","","","","","","","549.1000000238419","","478.89999997615814","","3","0","arrowright","1","arrowright","[0.325,0.675,0.85,0.15]","","",""
"sailing-trial","194","1096141","0.0-11.0-153.0","","","","false","","","","","","","","","","null","","804.1999999880791","","2","1","null","null","arrowup","[0.325,0.675,0.85,0.15]","","",""
"sailing-trial","195","1101692","0.0-11.0-154.0","","","","false","","","","","","","","","","1681.5999999642372","","361.19999998807907","","2","0","arrowright","1","arrowleft","[0.675,0.325,0.15,0.85]","","",""
"sailing-trial","196","1106299","0.0-11.0-155.0","","","","false","","","","","","","","","","null","","1577.5999999642372","","3","1","null","null","arrowup","[0.675,0.325,0.15,0.85]","","",""
"sailing-trial","197","1110782","0.0-11.0-156.0","","","","false","","","","","","","","","","827.4000000357628","","335.19999998807907","","3","1","arrowright","1","arrowright","[0.675,0.325,0.15,0.85]","","",""
"sailing-trial","198","1113447","0.0-11.0-157.0","","","","false","","","","","","","","","","null","","889.9000000357628","","0","1","null","null","arrowup","[0.675,0.325,0.15,0.85]","","",""
"sailing-trial","199","1118129","0.0-11.0-158.0","","","","false","","","","","","","","","","919.5","","477.39999997615814","","3","1","arrowright","1","arrowright","[0.675,0.325,0.15,0.85]","","",""
"sailing-trial","200","1121711","0.0-11.0-159.0","","","","false","","","","","","","","","","null","","2444.800000011921","","2","0","null","null","arrowup","[0.675,0.325,0.15,0.85]","","",""
"sailing-trial","201","1125364","0.0-11.0-160.0","","","","false","","","","","","","","","","1028.199999988079","","547.1000000238419","","3","0","arrowright","1","arrowright","[0.675,0.325,0.15,0.85]","","",""
"sailing-trial","202","1128863","0.0-11.0-161.0","","","","false","","","","","","","","","","null","","1805.800000011921","","2","1","null","null","arrowup","[0.675,0.325,0.15,0.85]","","",""
"sailing-trial","203","1132022","0.0-11.0-162.0","","","","false","","","","","","","","","","437.5","","328.9000000357628","","2","0","arrowright","1","arrowleft","[0.675,0.325,0.15,0.85]","","",""
"sailing-trial","204","1134531","0.0-11.0-163.0","","","","false","","","","","","","","","","null","","808.3000000119209","","3","1","null","null","arrowup","[0.675,0.325,0.15,0.85]","","",""
"sailing-trial","205","1137928","0.0-11.0-164.0","","","","false","","","","","","","","","","20.80000001192093","","545.6999999880791","","0","1","arrowleft","0","arrowleft","[0.675,0.325,0.15,0.85]","","",""
"sailing-trial","206","1139866","0.0-11.0-165.0","","","","false","","","","","","","","","","null","","880","","0","0","null","null","arrowup","[0.675,0.325,0.15,0.85]","","",""
"sailing-trial","207","1145935","0.0-11.0-166.0","","","","false","","","","","","","","","","584.5","","1668.4000000357628","","0","1","arrowleft","0","arrowleft","[0.675,0.325,0.15,0.85]","","",""
"sailing-trial","208","1148735","0.0-11.0-167.0","","","","false","","","","","","","","","","null","","1430.3999999761581","","1","0","null","null","arrowup","[0.675,0.325,0.15,0.85]","","",""
"sailing-trial","209","1152781","0.0-11.0-168.0","","","","false","","","","","","","","","","1239","","57.5","","3","1","arrowright","1","arrowright","[0.675,0.325,0.15,0.85]","","",""
"sailing-trial","210","1157241","0.0-11.0-169.0","","","","false","","","","","","","","","","null","","2692.5","","3","1","null","null","arrowup","[0.675,0.325,0.15,0.85]","","",""
"sailing-trial","211","1162682","0.0-11.0-170.0","","","","false","","","","","","","","","","1713.8999999761581","","476.19999998807907","","3","1","arrowright","1","arrowright","[0.85,0.15,0.325,0.675]","","",""
"sailing-trial","212","1165262","0.0-11.0-171.0","","","","false","","","","","","","","","","null","","1053.9000000357628","","0","0","null","null","arrowup","[0.85,0.15,0.325,0.675]","","",""
"sailing-trial","213","1169164","0.0-11.0-172.0","","","","false","","","","","","","","","","867.1999999880791","","473.19999998807907","","3","0","arrowright","1","arrowright","[0.85,0.15,0.325,0.675]","","",""
"sailing-trial","214","1172263","0.0-11.0-173.0","","","","false","","","","","","","","","","null","","1271.8999999761581","","0","1","null","null","arrowup","[0.85,0.15,0.325,0.675]","","",""
"sailing-trial","215","1176108","0.0-11.0-174.0","","","","false","","","","","","","","","","577.6000000238419","","420.4000000357628","","0","1","arrowleft","0","arrowleft","[0.85,0.15,0.325,0.675]","","",""
"sailing-trial","216","1179524","0.0-11.0-175.0","","","","false","","","","","","","","","","null","","1493.6000000238419","","2","0","null","null","arrowup","[0.85,0.15,0.325,0.675]","","",""
"sailing-trial","217","1184236","0.0-11.0-176.0","","","","false","","","","","","","","","","493.10000002384186","","1066.199999988079","","0","1","arrowleft","0","arrowleft","[0.85,0.15,0.325,0.675]","","",""
"sailing-trial","218","1186607","0.0-11.0-177.0","","","","false","","","","","","","","","","null","","945.5999999642372","","3","0","null","null","arrowup","[0.85,0.15,0.325,0.675]","","",""
"sailing-trial","219","1189931","0.0-11.0-178.0","","","","false","","","","","","","","","","549.4000000357628","","105.10000002384186","","0","1","arrowleft","0","arrowleft","[0.85,0.15,0.325,0.675]","","",""
"sailing-trial","220","1191986","0.0-11.0-179.0","","","","false","","","","","","","","","","null","","831.6000000238419","","1","0","null","null","arrowup","[0.85,0.15,0.325,0.675]","","",""
"sailing-trial","221","1196825","0.0-11.0-180.0","","","","false","","","","","","","","","","1280","","347","","0","1","arrowleft","0","arrowleft","[0.85,0.15,0.325,0.675]","","",""
"sailing-trial","222","1199504","0.0-11.0-181.0","","","","false","","","","","","","","","","null","","1096.300000011921","","0","1","null","null","arrowup","[0.85,0.15,0.325,0.675]","","",""
"sailing-trial","223","1204233","0.0-11.0-182.0","","","","false","","","","","","","","","","1704.9000000357628","","220.89999997615814","","0","1","arrowleft","0","arrowleft","[0.85,0.15,0.325,0.675]","","",""
"sailing-trial","224","1207198","0.0-11.0-183.0","","","","false","","","","","","","","","","null","","1320.6000000238419","","3","1","null","null","arrowup","[0.85,0.15,0.325,0.675]","","",""
"sailing-trial","225","1210749","0.0-11.0-184.0","","","","false","","","","","","","","","","439.5999999642372","","263.0999999642372","","0","1","arrowleft","0","arrowleft","[0.85,0.15,0.325,0.675]","","",""
"sailing-trial","226","1214019","0.0-11.0-185.0","","","","false","","","","","","","","","","null","","1715.3999999761581","","3","0","null","null","arrowup","[0.85,0.15,0.325,0.675]","","",""
"sailing-trial","227","1218272","0.0-11.0-186.0","","","","false","","","","","","","","","","833.6000000238419","","26.69999998807907","","0","1","arrowleft","0","arrowleft","[0.85,0.15,0.325,0.675]","","",""
"sailing-trial","228","1222313","0.0-11.0-187.0","","","","false","","","","","","","","","","null","","2759.300000011921","","3","0","null","null","arrowup","[0.85,0.15,0.325,0.675]","","",""
"sailing-trial","229","1226367","0.0-11.0-188.0","","","","false","","","","","","","","","","1051.199999988079","","66.60000002384186","","0","1","arrowleft","0","arrowleft","[0.85,0.15,0.325,0.675]","","",""
"sailing-trial","230","1229737","0.0-11.0-189.0","","","","false","","","","","","","","","","null","","1944.8999999761581","","2","0","null","null","arrowup","[0.85,0.15,0.325,0.675]","","",""
"sailing-trial","231","1234957","0.0-11.0-190.0","","","","false","","","","","","","","","","944.0999999642372","","507.80000001192093","","0","0","arrowleft","0","arrowleft","[0.325,0.675,0.85,0.15]","","",""
"sailing-trial","232","1237891","0.0-11.0-191.0","","","","false","","","","","","","","","","null","","831.3000000119209","","2","1","null","null","arrowup","[0.325,0.675,0.85,0.15]","","",""
"sailing-trial","233","1241720","0.0-11.0-192.0","","","","false","","","","","","","","","","480.39999997615814","","105.19999998807907","","2","1","arrowright","1","arrowleft","[0.325,0.675,0.85,0.15]","","",""
"sailing-trial","234","1245017","0.0-11.0-193.0","","","","false","","","","","","","","","","null","","1417.1000000238419","","0","1","null","null","arrowup","[0.325,0.675,0.85,0.15]","","",""
"sailing-trial","235","1250623","0.0-11.0-194.0","","","","false","","","","","","","","","","2306.599999964237","","22.899999976158142","","2","1","arrowright","1","arrowleft","[0.325,0.675,0.85,0.15]","","",""
"sailing-trial","236","1254769","0.0-11.0-195.0","","","","false","","","","","","","","","","null","","1325.6000000238419","","2","1","null","null","arrowup","[0.325,0.675,0.85,0.15]","","",""
"sailing-trial","237","1258222","0.0-11.0-196.0","","","","false","","","","","","","","","","789.5999999642372","","531.5","","2","0","arrowright","1","arrowleft","[0.325,0.675,0.85,0.15]","","",""
"sailing-trial","238","1261270","0.0-11.0-197.0","","","","false","","","","","","","","","","null","","1013.4000000357628","","3","0","null","null","arrowup","[0.325,0.675,0.85,0.15]","","",""
"sailing-trial","239","1264359","0.0-11.0-198.0","","","","false","","","","","","","","","","449.2999999523163","","489.69999998807907","","1","0","arrowleft","0","arrowright","[0.325,0.675,0.85,0.15]","","",""
"sailing-trial","240","1267297","0.0-11.0-199.0","","","","false","","","","","","","","","","null","","1299.699999988079","","1","1","null","null","arrowup","[0.325,0.675,0.85,0.15]","","",""
"sailing-trial","241","1271930","0.0-11.0-200.0","","","","false","","","","","","","","","","1882.800000011921","","89.90000003576279","","1","0","arrowleft","0","arrowright","[0.325,0.675,0.85,0.15]","","",""
"sailing-trial","242","1274652","0.0-11.0-201.0","","","","false","","","","","","","","","","null","","1024.5","","3","1","null","null","arrowup","[0.325,0.675,0.85,0.15]","","",""
"sailing-trial","243","1277665","0.0-11.0-202.0","","","","false","","","","","","","","","","600.6000000238419","","262.4000000357628","","3","0","arrowright","1","arrowright","[0.325,0.675,0.85,0.15]","","",""
"sailing-trial","244","1280796","0.0-11.0-203.0","","","","false","","","","","","","","","","null","","1544.300000011921","","2","1","null","null","arrowup","[0.325,0.675,0.85,0.15]","","",""
"sailing-trial","245","1286391","0.0-11.0-204.0","","","","false","","","","","","","","","","1849.0999999642372","","899.8000000119209","","2","1","arrowright","1","arrowleft","[0.325,0.675,0.85,0.15]","","",""
"sailing-trial","246","1290268","0.0-11.0-205.0","","","","false","","","","","","","","","","null","","2201","","1","1","null","null","arrowup","[0.325,0.675,0.85,0.15]","","",""
"sailing-trial","247","1293771","0.0-11.0-206.0","","","","false","","","","","","","","","","1064.0999999642372","","254.0999999642372","","2","0","arrowright","1","arrowleft","[0.325,0.675,0.85,0.15]","","",""
"sailing-trial","248","1298735","0.0-11.0-207.0","","","","false","","","","","","","","","","null","","3269.199999988079","","0","0","null","null","arrowup","[0.325,0.675,0.85,0.15]","","",""
"sailing-trial","249","1302678","0.0-11.0-208.0","","","","false","","","","","","","","","","1217.6000000238419","","53.39999997615814","","2","1","arrowright","1","arrowleft","[0.325,0.675,0.85,0.15]","","",""
"sailing-trial","250","1304996","0.0-11.0-209.0","","","","false","","","","","","","","","","null","","1143.300000011921","","0","0","null","null","arrowup","[0.325,0.675,0.85,0.15]","","",""
"sailing-trial","251","1308834","0.0-11.0-210.0","","","","false","","","","","","","","","","902","","8.800000011920929","","2","1","arrowright","1","arrowleft","[0.325,0.675,0.85,0.15]","","",""
"sailing-trial","252","1311707","0.0-11.0-211.0","","","","false","","","","","","","","","","null","","1538.699999988079","","3","0","null","null","arrowup","[0.325,0.675,0.85,0.15]","","",""
"sailing-trial","253","1315351","0.0-11.0-212.0","","","","false","","","","","","","","","","875.5999999642372","","3.299999952316284","","2","1","arrowright","1","arrowleft","[0.15,0.85,0.675,0.325]","","",""
"sailing-trial","254","1318729","0.0-11.0-213.0","","","","false","","","","","","","","","","null","","1816.5999999642372","","0","0","null","null","arrowup","[0.15,0.85,0.675,0.325]","","",""
"sailing-trial","255","1322959","0.0-11.0-214.0","","","","false","","","","","","","","","","726.0999999642372","","418.0999999642372","","2","1","arrowright","1","arrowleft","[0.15,0.85,0.675,0.325]","","",""
"sailing-trial","256","1325692","0.0-11.0-215.0","","","","false","","","","","","","","","","null","","872.1000000238419","","1","1","null","null","arrowup","[0.15,0.85,0.675,0.325]","","",""
"sailing-trial","257","1329387","0.0-11.0-216.0","","","","false","","","","","","","","","","522.4000000357628","","352.39999997615814","","1","1","arrowleft","0","arrowright","[0.15,0.85,0.675,0.325]","","",""
"sailing-trial","258","1331948","0.0-11.0-217.0","","","","false","","","","","","","","","","null","","866","","2","1","null","null","arrowup","[0.15,0.85,0.675,0.325]","","",""
"sailing-trial","259","1335648","0.0-11.0-218.0","","","","false","","","","","","","","","","537.3000000119209","","309.80000001192093","","2","1","arrowright","1","arrowleft","[0.15,0.85,0.675,0.325]","","",""
"sailing-trial","260","1338429","0.0-11.0-219.0","","","","false","","","","","","","","","","null","","1088.1000000238419","","3","0","null","null","arrowup","[0.15,0.85,0.675,0.325]","","",""
"sailing-trial","261","1343093","0.0-11.0-220.0","","","","false","","","","","","","","","","710.0999999642372","","355.69999998807907","","2","0","arrowright","1","arrowleft","[0.15,0.85,0.675,0.325]","","",""
"sailing-trial","262","1345749","0.0-11.0-221.0","","","","false","","","","","","","","","","null","","1093.199999988079","","2","0","null","null","arrowup","[0.15,0.85,0.675,0.325]","","",""
"sailing-trial","263","1349844","0.0-11.0-222.0","","","","false","","","","","","","","","","519.5999999642372","","736.8000000119209","","1","1","arrowleft","0","arrowright","[0.15,0.85,0.675,0.325]","","",""
"sailing-trial","264","1353120","0.0-11.0-223.0","","","","false","","","","","","","","","","null","","1154.7000000476837","","1","1","null","null","arrowup","[0.15,0.85,0.675,0.325]","","",""
"sailing-trial","265","1359029","0.0-11.0-224.0","","","","false","","","","","","","","","","1079.5","","1328.199999988079","","1","1","arrowleft","0","arrowright","[0.15,0.85,0.675,0.325]","","",""
"sailing-trial","266","1361850","0.0-11.0-225.0","","","","false","","","","","","","","","","null","","1021","","2","1","null","null","arrowup","[0.15,0.85,0.675,0.325]","","",""
"sailing-trial","267","1367905","0.0-11.0-226.0","","","","false","","","","","","","","","","2853.199999988079","","273","","1","1","arrowleft","0","arrowright","[0.15,0.85,0.675,0.325]","","",""
"sailing-trial","268","1370936","0.0-11.0-227.0","","","","false","","","","","","","","","","null","","1606","","3","0","null","null","arrowup","[0.15,0.85,0.675,0.325]","","",""
"sailing-trial","269","1374482","0.0-11.0-228.0","","","","false","","","","","","","","","","569.5","","436.9000000357628","","1","0","arrowleft","0","arrowright","[0.15,0.85,0.675,0.325]","","",""
"sailing-trial","270","1377286","0.0-11.0-229.0","","","","false","","","","","","","","","","null","","939.3000000119209","","2","1","null","null","arrowup","[0.15,0.85,0.675,0.325]","","",""
"sailing-trial","271","1381176","0.0-11.0-230.0","","","","false","","","","","","","","","","963.5","","149.69999998807907","","2","0","arrowright","1","arrowleft","[0.15,0.85,0.675,0.325]","","",""
"sailing-trial","272","1384750","0.0-11.0-231.0","","","","false","","","","","","","","","","null","","2450.699999988079","","3","0","null","null","arrowup","[0.15,0.85,0.675,0.325]","","",""
"sailing-trial","273","1391973","0.0-11.0-232.0","","","","false","","","","","","","","","","640.3000000119209","","3416.100000023842","","1","1","arrowleft","0","arrowright","[0.15,0.85,0.675,0.325]","","",""
"sailing-trial","274","1397461","0.0-11.0-233.0","","","","false","","","","","","","","","","null","","2345.899999976158","","1","1","null","null","arrowup","[0.15,0.85,0.675,0.325]","","",""
"sailing-trial","275","1400518","0.0-11.0-234.0","","","","false","","","","","","","","","","516.8000000119209","","428.5","","3","0","arrowright","1","arrowright","[0.15,0.85,0.675,0.325]","","",""
"sailing-trial","276","1402886","0.0-11.0-235.0","","","","false","","","","","","","","","","null","","1178.800000011921","","2","0","null","null","arrowup","[0.15,0.85,0.675,0.325]","","",""
"sailing-trial","277","1405965","0.0-11.0-236.0","","","","false","","","","","","","","","","683.8999999761581","","305.30000001192093","","1","0","arrowleft","0","arrowright","[0.325,0.675,0.85,0.15]","","",""
"sailing-trial","278","1408920","0.0-11.0-237.0","","","","false","","","","","","","","","","null","","1284","","2","1","null","null","arrowup","[0.325,0.675,0.85,0.15]","","",""
"sailing-trial","279","1413566","0.0-11.0-238.0","","","","false","","","","","","","","","","673.5999999642372","","708","","2","1","arrowright","1","arrowleft","[0.325,0.675,0.85,0.15]","","",""
"sailing-trial","280","1416029","0.0-11.0-239.0","","","","false","","","","","","","","","","null","","809","","0","1","null","null","arrowup","[0.325,0.675,0.85,0.15]","","",""
"sailing-trial","281","1420959","0.0-11.0-240.0","","","","false","","","","","","","","","","408.39999997615814","","678.3000000119209","","0","1","arrowleft","0","arrowleft","[0.325,0.675,0.85,0.15]","","",""
"sailing-trial","282","1424434","0.0-11.0-241.0","","","","false","","","","","","","","","","null","","1985.3999999761581","","1","0","null","null","arrowup","[0.325,0.675,0.85,0.15]","","",""
"sailing-trial","283","1430002","0.0-11.0-242.0","","","","false","","","","","","","","","","784.3000000119209","","435.5","","0","1","arrowleft","0","arrowleft","[0.325,0.675,0.85,0.15]","","",""
"sailing-trial","284","1433074","0.0-11.0-243.0","","","","false","","","","","","","","","","null","","1512.7999999523163","","3","0","null","null","arrowup","[0.325,0.675,0.85,0.15]","","",""
"sailing-trial","285","1436637","0.0-11.0-244.0","","","","false","","","","","","","","","","1008.3000000119209","","256.39999997615814","","2","0","arrowright","1","arrowleft","[0.325,0.675,0.85,0.15]","","",""
"sailing-trial","286","1439878","0.0-11.0-245.0","","","","false","","","","","","","","","","null","","1204","","1","1","null","null","arrowup","[0.325,0.675,0.85,0.15]","","",""
"sailing-trial","287","1445118","0.0-11.0-246.0","","","","false","","","","","","","","","","660.6999999880791","","567.1000000238419","","0","1","arrowleft","0","arrowleft","[0.325,0.675,0.85,0.15]","","",""
"sailing-trial","288","1448403","0.0-11.0-247.0","","","","false","","","","","","","","","","null","","755.1000000238419","","1","1","null","null","arrowup","[0.325,0.675,0.85,0.15]","","",""
"sailing-trial","289","1453332","0.0-11.0-248.0","","","","false","","","","","","","","","","1138.699999988079","","371.60000002384186","","1","1","arrowleft","0","arrowright","[0.325,0.675,0.85,0.15]","","",""
"sailing-trial","290","1457464","0.0-11.0-249.0","","","","false","","","","","","","","","","null","","2317.600000023842","","1","1","null","null","arrowup","[0.325,0.675,0.85,0.15]","","",""
"sailing-trial","291","1460844","0.0-11.0-250.0","","","","false","","","","","","","","","","351.5","","255.5999999642372","","0","0","arrowleft","0","arrowleft","[0.325,0.675,0.85,0.15]","","",""
"sailing-trial","292","1463928","0.0-11.0-251.0","","","","false","","","","","","","","","","null","","1603.199999988079","","0","0","null","null","arrowup","[0.325,0.675,0.85,0.15]","","",""
"sailing-trial","293","1468254","0.0-11.0-252.0","","","","false","","","","","","","","","","1048.7000000476837","","413.5","","2","1","arrowright","1","arrowleft","[0.325,0.675,0.85,0.15]","","",""
"sailing-trial","294","1470939","0.0-11.0-253.0","","","","false","","","","","","","","","","null","","1485.6000000238419","","2","0","null","null","arrowup","[0.325,0.675,0.85,0.15]","","",""
"sailing-trial","295","1474773","0.0-11.0-254.0","","","","false","","","","","","","","","","773.0999999642372","","461.5999999642372","","0","0","arrowleft","0","arrowleft","[0.325,0.675,0.85,0.15]","","",""
"sailing-trial","296","1478306","0.0-11.0-255.0","","","","false","","","","","","","","","","null","","1602.3999999761581","","2","1","null","null","arrowup","[0.325,0.675,0.85,0.15]","","",""
"sailing-trial","297","1482542","0.0-11.0-256.0","","","","false","","","","","","","","","","1183.6000000238419","","115.19999998807907","","2","1","arrowright","1","arrowleft","[0.15,0.85,0.675,0.325]","","",""
"sailing-trial","298","1485489","0.0-11.0-257.0","","","","false","","","","","","","","","","null","","1232.3999999761581","","1","1","null","null","arrowup","[0.15,0.85,0.675,0.325]","","",""
"sailing-trial","299","1488713","0.0-11.0-258.0","","","","false","","","","","","","","","","679.3000000119209","","71.69999998807907","","1","0","arrowleft","0","arrowright","[0.15,0.85,0.675,0.325]","","",""
"sailing-trial","300","1492220","0.0-11.0-259.0","","","","false","","","","","","","","","","null","","2341.5","","2","0","null","null","arrowup","[0.15,0.85,0.675,0.325]","","",""
"sailing-trial","301","1495740","0.0-11.0-260.0","","","","false","","","","","","","","","","887.0999999642372","","401","","2","0","arrowright","1","arrowleft","[0.15,0.85,0.675,0.325]","","",""
"sailing-trial","302","1499539","0.0-11.0-261.0","","","","false","","","","","","","","","","null","","1168","","1","1","null","null","arrowup","[0.15,0.85,0.675,0.325]","","",""
"sailing-trial","303","1503979","0.0-11.0-262.0","","","","false","","","","","","","","","","1023.5","","817.5","","3","0","arrowright","1","arrowright","[0.15,0.85,0.675,0.325]","","",""
"sailing-trial","304","1506453","0.0-11.0-263.0","","","","false","","","","","","","","","","null","","1204.5","","3","0","null","null","arrowup","[0.15,0.85,0.675,0.325]","","",""
"sailing-trial","305","1511376","0.0-11.0-264.0","","","","false","","","","","","","","","","624.1000000238419","","201","","0","0","arrowleft","0","arrowleft","[0.15,0.85,0.675,0.325]","","",""
"sailing-trial","306","1516264","0.0-11.0-265.0","","","","false","","","","","","","","","","null","","2858.699999988079","","3","0","null","null","arrowup","[0.15,0.85,0.675,0.325]","","",""
"sailing-trial","307","1520893","0.0-11.0-266.0","","","","false","","","","","","","","","","924","","17","","2","1","arrowright","1","arrowleft","[0.15,0.85,0.675,0.325]","","",""
"sailing-trial","308","1524507","0.0-11.0-267.0","","","","false","","","","","","","","","","null","","1102.5","","1","1","null","null","arrowup","[0.15,0.85,0.675,0.325]","","",""
"sailing-trial","309","1528220","0.0-11.0-268.0","","","","false","","","","","","","","","","526","","257.30000001192093","","2","1","arrowright","1","arrowleft","[0.15,0.85,0.675,0.325]","","",""
"sailing-trial","310","1532016","0.0-11.0-269.0","","","","false","","","","","","","","","","null","","1396.800000011921","","2","1","null","null","arrowup","[0.15,0.85,0.675,0.325]","","",""
"sailing-trial","311","1536857","0.0-11.0-270.0","","","","false","","","","","","","","","","1625.5","","320.2999999523163","","1","1","arrowleft","0","arrowright","[0.15,0.85,0.675,0.325]","","",""
"sailing-trial","312","1539534","0.0-11.0-271.0","","","","false","","","","","","","","","","null","","1366","","1","0","null","null","arrowup","[0.15,0.85,0.675,0.325]","","",""
"sailing-trial","313","1543806","0.0-11.0-272.0","","","","false","","","","","","","","","","1331.8999999761581","","21.600000023841858","","2","1","arrowright","1","arrowleft","[0.15,0.85,0.675,0.325]","","",""
"sailing-trial","314","1547431","0.0-11.0-273.0","","","","false","","","","","","","","","","null","","1866.9000000357628","","3","1","null","null","arrowup","[0.15,0.85,0.675,0.325]","","",""
"sailing-trial","315","1551532","0.0-11.0-274.0","","","","false","","","","","","","","","","529.6000000238419","","152.5999999642372","","3","0","arrowright","1","arrowright","[0.15,0.85,0.675,0.325]","","",""
"sailing-trial","316","1556789","0.0-11.0-275.0","","","","false","","","","","","","","","","null","","3628.800000011921","","3","1","null","null","arrowup","[0.15,0.85,0.675,0.325]","","",""
"sailing-trial","317","1561502","0.0-11.0-276.0","","","","false","","","","","","","","","","1219.7000000476837","","649.6999999880791","","2","1","arrowright","1","arrowleft","[0.15,0.85,0.675,0.325]","","",""
"sailing-trial","318","1564782","0.0-11.0-277.0","","","","false","","","","","","","","","","null","","1535.699999988079","","3","1","null","null","arrowup","[0.15,0.85,0.675,0.325]","","",""
"sailing-trial","319","1568344","0.0-11.0-278.0","","","","false","","","","","","","","","","1087.5999999642372","","23.099999964237213","","3","0","arrowright","1","arrowright","[0.85,0.15,0.325,0.675]","","",""
"sailing-trial","320","1571939","0.0-11.0-279.0","","","","false","","","","","","","","","","null","","2252.899999976158","","1","0","null","null","arrowup","[0.85,0.15,0.325,0.675]","","",""
"sailing-trial","321","1575639","0.0-11.0-280.0","","","","false","","","","","","","","","","1544.300000011921","","1.5","","2","0","arrowright","1","arrowleft","[0.85,0.15,0.325,0.675]","","",""
"sailing-trial","322","1580338","0.0-11.0-281.0","","","","false","","","","","","","","","","null","","2800","","3","1","null","null","arrowup","[0.85,0.15,0.325,0.675]","","",""
"sailing-trial","323","1584032","0.0-11.0-282.0","","","","false","","","","","","","","","","1337.5","","26.099999964237213","","2","0","arrowright","1","arrowleft","[0.85,0.15,0.325,0.675]","","",""
"sailing-trial","324","1588361","0.0-11.0-283.0","","","","false","","","","","","","","","","null","","2952","","1","0","null","null","arrowup","[0.85,0.15,0.325,0.675]","","",""
"sailing-trial","325","1592394","0.0-11.0-284.0","","","","false","","","","","","","","","","882.3000000119209","","8.700000047683716","","0","1","arrowleft","0","arrowleft","[0.85,0.15,0.325,0.675]","","",""
"sailing-trial","326","1596255","0.0-11.0-285.0","","","","false","","","","","","","","","","null","","1187.3999999761581","","2","0","null","null","arrowup","[0.85,0.15,0.325,0.675]","","",""
"sailing-trial","327","1599190","0.0-11.0-286.0","","","","false","","","","","","","","","","562","","11.699999988079071","","2","0","arrowright","1","arrowleft","[0.85,0.15,0.325,0.675]","","",""
"sailing-trial","328","1602124","0.0-11.0-287.0","","","","false","","","","","","","","","","null","","855.3000000119209","","3","1","null","null","arrowup","[0.85,0.15,0.325,0.675]","","",""
"sailing-trial","329","1607813","0.0-11.0-288.0","","","","false","","","","","","","","","","1434.5999999642372","","1109","","3","1","arrowright","1","arrowright","[0.85,0.15,0.325,0.675]","","",""
"sailing-trial","330","1610727","0.0-11.0-289.0","","","","false","","","","","","","","","","null","","1074.5","","0","1","null","null","arrowup","[0.85,0.15,0.325,0.675]","","",""
"sailing-trial","331","1613831","0.0-11.0-290.0","","","","false","","","","","","","","","","492.5","","267.30000001192093","","3","0","arrowright","1","arrowright","[0.85,0.15,0.325,0.675]","","",""
"sailing-trial","332","1616904","0.0-11.0-291.0","","","","false","","","","","","","","","","null","","1141.5","","0","1","null","null","arrowup","[0.85,0.15,0.325,0.675]","","",""
"sailing-trial","333","1621123","0.0-11.0-292.0","","","","false","","","","","","","","","","828.7999999523163","","519.7999999523163","","0","1","arrowleft","0","arrowleft","[0.85,0.15,0.325,0.675]","","",""
"sailing-trial","334","1623504","0.0-11.0-293.0","","","","false","","","","","","","","","","null","","1049.0999999642372","","0","0","null","null","arrowup","[0.85,0.15,0.325,0.675]","","",""
"sailing-trial","335","1628530","0.0-11.0-294.0","","","","false","","","","","","","","","","909.5","","52.5","","1","1","arrowleft","0","arrowright","[0.325,0.675,0.85,0.15]","","",""
"sailing-trial","336","1634870","0.0-11.0-295.0","","","","false","","","","","","","","","","null","","5208.800000011921","","1","0","null","null","arrowup","[0.325,0.675,0.85,0.15]","","",""
"sailing-trial","337","1640071","0.0-11.0-296.0","","","","false","","","","","","","","","","1740","","564.1000000238419","","3","1","arrowright","1","arrowright","[0.325,0.675,0.85,0.15]","","",""
"sailing-trial","338","1642732","0.0-11.0-297.0","","","","false","","","","","","","","","","null","","1341.800000011921","","3","0","null","null","arrowup","[0.325,0.675,0.85,0.15]","","",""
"sailing-trial","339","1646807","0.0-11.0-298.0","","","","false","","","","","","","","","","1255.9000000357628","","427.69999998807907","","3","0","arrowright","1","arrowright","[0.325,0.675,0.85,0.15]","","",""
"sailing-trial","340","1650448","0.0-11.0-299.0","","","","false","","","","","","","","","","null","","1353.800000011921","","3","1","null","null","arrowup","[0.325,0.675,0.85,0.15]","","",""
"sailing-trial","341","1654574","0.0-11.0-300.0","","","","false","","","","","","","","","","1032.199999988079","","253.10000002384186","","2","1","arrowright","1","arrowleft","[0.325,0.675,0.85,0.15]","","",""
"sailing-trial","342","1656925","0.0-11.0-301.0","","","","false","","","","","","","","","","null","","975.6999999880791","","1","0","null","null","arrowup","[0.325,0.675,0.85,0.15]","","",""
"sailing-trial","343","1660738","0.0-11.0-302.0","","","","false","","","","","","","","","","678.5999999642372","","154.5","","2","1","arrowright","1","arrowleft","[0.325,0.675,0.85,0.15]","","",""
"sailing-trial","344","1663126","0.0-11.0-303.0","","","","false","","","","","","","","","","null","","1122.3999999761581","","0","0","null","null","arrowup","[0.325,0.675,0.85,0.15]","","",""
"sailing-trial","345","1667950","0.0-11.0-304.0","","","","false","","","","","","","","","","493.10000002384186","","1479.300000011921","","2","1","arrowright","1","arrowleft","[0.325,0.675,0.85,0.15]","","",""
"sailing-trial","346","1670638","0.0-11.0-305.0","","","","false","","","","","","","","","","null","","1437.300000011921","","0","0","null","null","arrowup","[0.325,0.675,0.85,0.15]","","",""
"sailing-trial","347","1674019","0.0-11.0-306.0","","","","false","","","","","","","","","","872.9000000357628","","240.39999997615814","","3","0","arrowright","1","arrowright","[0.325,0.675,0.85,0.15]","","",""
"sailing-trial","348","1676482","0.0-11.0-307.0","","","","false","","","","","","","","","","null","","789.5999999642372","","3","0","null","null","arrowup","[0.325,0.675,0.85,0.15]","","",""
"sailing-trial","349","1679755","0.0-11.0-308.0","","","","false","","","","","","","","","","657","","24.600000023841858","","1","0","arrowleft","0","arrowright","[0.325,0.675,0.85,0.15]","","",""
"sailing-trial","350","1682236","0.0-11.0-309.0","","","","false","","","","","","","","","","null","","1160","","3","0","null","null","arrowup","[0.325,0.675,0.85,0.15]","","",""
"sailing-trial","351","1685717","0.0-11.0-310.0","","","","false","","","","","","","","","","720.1999999880791","","404.4000000357628","","2","0","arrowright","1","arrowleft","[0.325,0.675,0.85,0.15]","","",""
"sailing-trial","352","1688090","0.0-11.0-311.0","","","","false","","","","","","","","","","null","","1026.699999988079","","0","0","null","null","arrowup","[0.325,0.675,0.85,0.15]","","",""
"sailing-trial","353","1691995","0.0-11.0-312.0","","","","false","","","","","","","","","","487.80000001192093","","315.30000001192093","","0","1","arrowleft","0","arrowleft","[0.15,0.85,0.675,0.325]","","",""
"sailing-trial","354","1694986","0.0-11.0-313.0","","","","false","","","","","","","","","","null","","1029.699999988079","","2","1","null","null","arrowup","[0.15,0.85,0.675,0.325]","","",""
"sailing-trial","355","1700264","0.0-11.0-314.0","","","","false","","","","","","","","","","494.89999997615814","","1791.1000000238419","","2","1","arrowright","1","arrowleft","[0.15,0.85,0.675,0.325]","","",""
"sailing-trial","356","1703426","0.0-11.0-315.0","","","","false","","","","","","","","","","null","","1297.300000011921","","3","0","null","null","arrowup","[0.15,0.85,0.675,0.325]","","",""
"sailing-trial","357","1709190","0.0-11.0-316.0","","","","false","","","","","","","","","","1215.5","","2176.100000023842","","0","0","arrowleft","0","arrowleft","[0.15,0.85,0.675,0.325]","","",""
"sailing-trial","358","1712739","0.0-11.0-317.0","","","","false","","","","","","","","","","null","","1452.6000000238419","","1","1","null","null","arrowup","[0.15,0.85,0.675,0.325]","","",""
"sailing-trial","359","1717495","0.0-11.0-318.0","","","","false","","","","","","","","","","1275.5","","420","","3","0","arrowright","1","arrowright","[0.15,0.85,0.675,0.325]","","",""
"sailing-trial","360","1719781","0.0-11.0-319.0","","","","false","","","","","","","","","","null","","1169.6000000238419","","3","0","null","null","arrowup","[0.15,0.85,0.675,0.325]","","",""
"sailing-trial","361","1724283","0.0-11.0-320.0","","","","false","","","","","","","","","","889","","458.69999998807907","","2","1","arrowright","1","arrowleft","[0.15,0.85,0.675,0.325]","","",""
"sailing-trial","362","1727367","0.0-11.0-321.0","","","","false","","","","","","","","","","null","","1597.7999999523163","","3","0","null","null","arrowup","[0.15,0.85,0.675,0.325]","","",""
"sailing-trial","363","1731344","0.0-11.0-322.0","","","","false","","","","","","","","","","1113.699999988079","","46.09999996423721","","2","0","arrowright","1","arrowleft","[0.15,0.85,0.675,0.325]","","",""
"sailing-trial","364","1735292","0.0-11.0-323.0","","","","false","","","","","","","","","","null","","1518.800000011921","","3","1","null","null","arrowup","[0.15,0.85,0.675,0.325]","","",""
"sailing-trial","365","1740203","0.0-11.0-324.0","","","","false","","","","","","","","","","973.5","","882.7999999523163","","3","1","arrowright","1","arrowright","[0.15,0.85,0.675,0.325]","","",""
"sailing-trial","366","1746845","0.0-11.0-325.0","","","","false","","","","","","","","","","null","","4931.699999988079","","3","1","null","null","arrowup","[0.15,0.85,0.675,0.325]","","",""
"sailing-trial","367","1752584","0.0-11.0-326.0","","","","false","","","","","","","","","","1563.8999999761581","","1528.800000011921","","0","0","arrowleft","0","arrowleft","[0.15,0.85,0.675,0.325]","","",""
"sailing-trial","368","1755365","0.0-11.0-327.0","","","","false","","","","","","","","","","null","","1381.5","","0","0","null","null","arrowup","[0.15,0.85,0.675,0.325]","","",""
"sailing-trial","369","1759067","0.0-11.0-328.0","","","","false","","","","","","","","","","708.8000000119209","","20","","1","0","arrowleft","0","arrowright","[0.15,0.85,0.675,0.325]","","",""
"sailing-trial","370","1762180","0.0-11.0-329.0","","","","false","","","","","","","","","","null","","1122.5999999642372","","1","1","null","null","arrowup","[0.15,0.85,0.675,0.325]","","",""
"sailing-trial","371","1766893","0.0-11.0-330.0","","","","false","","","","","","","","","","584.7999999523163","","313.7000000476837","","1","1","arrowleft","0","arrowright","[0.325,0.675,0.85,0.15]","","",""
"sailing-trial","372","1769515","0.0-11.0-331.0","","","","false","","","","","","","","","","null","","1207.8999999761581","","3","0","null","null","arrowup","[0.325,0.675,0.85,0.15]","","",""
"sailing-trial","373","1772864","0.0-11.0-332.0","","","","false","","","","","","","","","","610.8999999761581","","161.5","","1","0","arrowleft","0","arrowright","[0.325,0.675,0.85,0.15]","","",""
"sailing-trial","374","1776601","0.0-11.0-333.0","","","","false","","","","","","","","","","null","","1998.4000000357628","","2","1","null","null","arrowup","[0.325,0.675,0.85,0.15]","","",""
"sailing-trial","375","1781109","0.0-11.0-334.0","","","","false","","","","","","","","","","1300.300000011921","","26.899999976158142","","1","1","arrowleft","0","arrowright","[0.325,0.675,0.85,0.15]","","",""
"sailing-trial","376","1783538","0.0-11.0-335.0","","","","false","","","","","","","","","","null","","1098.3999999761581","","0","0","null","null","arrowup","[0.325,0.675,0.85,0.15]","","",""
"sailing-trial","377","1787036","0.0-11.0-336.0","","","","false","","","","","","","","","","815.8999999761581","","356.5999999642372","","1","0","arrowleft","0","arrowright","[0.325,0.675,0.85,0.15]","","",""
"sailing-trial","378","1789298","0.0-11.0-337.0","","","","false","","","","","","","","","","null","","963.5","","0","0","null","null","arrowup","[0.325,0.675,0.85,0.15]","","",""
"sailing-trial","379","1792665","0.0-11.0-338.0","","","","false","","","","","","","","","","413.0999999642372","","200","","2","1","arrowright","1","arrowleft","[0.325,0.675,0.85,0.15]","","",""
"sailing-trial","380","1795068","0.0-11.0-339.0","","","","false","","","","","","","","","","null","","1063.3999999761581","","1","0","null","null","arrowup","[0.325,0.675,0.85,0.15]","","",""
"sailing-trial","381","1799291","0.0-11.0-340.0","","","","false","","","","","","","","","","575.1999999880791","","1047.9000000357628","","0","0","arrowleft","0","arrowleft","[0.325,0.675,0.85,0.15]","","",""
"sailing-trial","382","1802586","0.0-11.0-341.0","","","","false","","","","","","","","","","null","","1527.1000000238419","","0","0","null","null","arrowup","[0.325,0.675,0.85,0.15]","","",""
"sailing-trial","383","1806376","0.0-11.0-342.0","","","","false","","","","","","","","","","689.5999999642372","","331.89999997615814","","2","1","arrowright","1","arrowleft","[0.325,0.675,0.85,0.15]","","",""
"sailing-trial","384","1809101","0.0-11.0-343.0","","","","false","","","","","","","","","","null","","987.6000000238419","","2","1","null","null","arrowup","[0.325,0.675,0.85,0.15]","","",""
"sailing-trial","385","1814113","0.0-11.0-344.0","","","","false","","","","","","","","","","711.9000000357628","","319.4000000357628","","2","1","arrowright","1","arrowleft","[0.325,0.675,0.85,0.15]","","",""
"sailing-trial","386","1816607","0.0-11.0-345.0","","","","false","","","","","","","","","","null","","1022.8999999761581","","1","0","null","null","arrowup","[0.325,0.675,0.85,0.15]","","",""
"sailing-trial","387","1820656","0.0-11.0-346.0","","","","false","","","","","","","","","","861.4000000357628","","706.3999999761581","","2","0","arrowright","1","arrowleft","[0.15,0.85,0.675,0.325]","","",""
"sailing-trial","388","1822831","0.0-11.0-347.0","","","","false","","","","","","","","","","null","","784.5","","2","0","null","null","arrowup","[0.15,0.85,0.675,0.325]","","",""
"sailing-trial","389","1825667","0.0-11.0-348.0","","","","false","","","","","","","","","","409.5","","45","","3","0","arrowright","1","arrowright","[0.15,0.85,0.675,0.325]","","",""
"sailing-trial","390","1827609","0.0-11.0-349.0","","","","false","","","","","","","","","","null","","807","","0","0","null","null","arrowup","[0.15,0.85,0.675,0.325]","","",""
"sailing-trial","391","1831855","0.0-11.0-350.0","","","","false","","","","","","","","","","1007.3999999761581","","315.4000000357628","","1","1","arrowleft","0","arrowright","[0.15,0.85,0.675,0.325]","","",""
"sailing-trial","392","1834486","0.0-11.0-351.0","","","","false","","","","","","","","","","null","","1263.5999999642372","","0","0","null","null","arrowup","[0.15,0.85,0.675,0.325]","","",""
"sailing-trial","393","1839346","0.0-11.0-352.0","","","","false","","","","","","","","","","1143","","753.9000000357628","","1","1","arrowleft","0","arrowright","[0.15,0.85,0.675,0.325]","","",""
"sailing-trial","394","1842444","0.0-11.0-353.0","","","","false","","","","","","","","","","null","","1047.2000000476837","","1","1","null","null","arrowup","[0.15,0.85,0.675,0.325]","","",""
"sailing-trial","395","1847686","0.0-11.0-354.0","","","","false","","","","","","","","","","1175.5999999642372","","361.4000000357628","","1","1","arrowleft","0","arrowright","[0.15,0.85,0.675,0.325]","","",""
"sailing-trial","396","1850805","0.0-11.0-355.0","","","","false","","","","","","","","","","null","","1242.699999988079","","3","1","null","null","arrowup","[0.15,0.85,0.675,0.325]","","",""
"sailing-trial","397","1854245","0.0-11.0-356.0","","","","false","","","","","","","","","","410.30000001192093","","397.89999997615814","","3","0","arrowright","1","arrowright","[0.15,0.85,0.675,0.325]","","",""
"sailing-trial","398","1856567","0.0-11.0-357.0","","","","false","","","","","","","","","","null","","1007","","2","0","null","null","arrowup","[0.15,0.85,0.675,0.325]","","",""
"sailing-trial","399","1860650","0.0-11.0-358.0","","","","false","","","","","","","","","","1154.5","","331","","1","0","arrowleft","0","arrowright","[0.15,0.85,0.675,0.325]","","",""
"sailing-trial","400","1863193","0.0-11.0-359.0","","","","false","","","","","","","","","","null","","1173.300000011921","","0","0","null","null","arrowup","[0.15,0.85,0.675,0.325]","","",""
"sailing-trial","401","1866302","0.0-11.0-360.0","","","","false","","","","","","","","","","728.8000000119209","","60.10000002384186","","3","0","arrowright","1","arrowright","[0.15,0.85,0.675,0.325]","","",""
"sailing-trial","402","1868881","0.0-11.0-361.0","","","","false","","","","","","","","","","null","","1165","","3","0","null","null","arrowup","[0.15,0.85,0.675,0.325]","","",""
"sailing-trial","403","1873466","0.0-11.0-362.0","","","","false","","","","","","","","","","727.6000000238419","","779.9000000357628","","2","1","arrowright","1","arrowleft","[0.15,0.85,0.675,0.325]","","",""
"sailing-trial","404","1875831","0.0-11.0-363.0","","","","false","","","","","","","","","","null","","1004","","1","0","null","null","arrowup","[0.15,0.85,0.675,0.325]","","",""
"sailing-trial","405","1880473","0.0-11.0-364.0","","","","false","","","","","","","","","","734.3000000119209","","190","","2","1","arrowright","1","arrowleft","[0.325,0.675,0.85,0.15]","","",""
"sailing-trial","406","1884323","0.0-11.0-365.0","","","","false","","","","","","","","","","null","","2524.399999976158","","0","0","null","null","arrowup","[0.325,0.675,0.85,0.15]","","",""
"sailing-trial","407","1888688","0.0-11.0-366.0","","","","false","","","","","","","","","","1229.5","","258.80000001192093","","0","1","arrowleft","0","arrowleft","[0.325,0.675,0.85,0.15]","","",""
"sailing-trial","408","1891184","0.0-11.0-367.0","","","","false","","","","","","","","","","null","","1127.5","","0","0","null","null","arrowup","[0.325,0.675,0.85,0.15]","","",""
"sailing-trial","409","1895094","0.0-11.0-368.0","","","","false","","","","","","","","","","769","","387.89999997615814","","2","1","arrowright","1","arrowleft","[0.325,0.675,0.85,0.15]","","",""
"sailing-trial","410","1897645","0.0-11.0-369.0","","","","false","","","","","","","","","","null","","646.9000000357628","","2","1","null","null","arrowup","[0.325,0.675,0.85,0.15]","","",""
"sailing-trial","411","1901323","0.0-11.0-370.0","","","","false","","","","","","","","","","656.8999999761581","","302.10000002384186","","2","0","arrowright","1","arrowleft","[0.325,0.675,0.85,0.15]","","",""
"sailing-trial","412","1904052","0.0-11.0-371.0","","","","false","","","","","","","","","","null","","860.8000000119209","","1","1","null","null","arrowup","[0.325,0.675,0.85,0.15]","","",""
"sailing-trial","413","1908132","0.0-11.0-372.0","","","","false","","","","","","","","","","587.2000000476837","","507.60000002384186","","1","1","arrowleft","0","arrowright","[0.325,0.675,0.85,0.15]","","",""
"sailing-trial","414","1911332","0.0-11.0-373.0","","","","false","","","","","","","","","","null","","1345.7999999523163","","2","1","null","null","arrowup","[0.325,0.675,0.85,0.15]","","",""
"sailing-trial","415","1914949","0.0-11.0-374.0","","","","false","","","","","","","","","","693.5","","49.5","","1","1","arrowleft","0","arrowright","[0.325,0.675,0.85,0.15]","","",""
"sailing-trial","416","1917895","0.0-11.0-375.0","","","","false","","","","","","","","","","null","","960.4000000357628","","3","0","null","null","arrowup","[0.325,0.675,0.85,0.15]","","",""
"sailing-trial","417","1922308","0.0-11.0-376.0","","","","false","","","","","","","","","","1264.9000000357628","","405.89999997615814","","1","1","arrowleft","0","arrowright","[0.325,0.675,0.85,0.15]","","",""
"sailing-trial","418","1924596","0.0-11.0-377.0","","","","false","","","","","","","","","","null","","975.3000000119209","","0","0","null","null","arrowup","[0.325,0.675,0.85,0.15]","","",""
"sailing-trial","419","1928230","0.0-11.0-378.0","","","","false","","","","","","","","","","761","","266.69999998807907","","1","1","arrowleft","0","arrowright","[0.325,0.675,0.85,0.15]","","",""
"sailing-trial","420","1930384","0.0-11.0-379.0","","","","false","","","","","","","","","","null","","826","","0","0","null","null","arrowup","[0.325,0.675,0.85,0.15]","","",""
"sailing-trial","421","1933916","0.0-11.0-380.0","","","","false","","","","","","","","","","828.8000000119209","","441.39999997615814","","3","0","arrowright","1","arrowright","[0.325,0.675,0.85,0.15]","","",""
"sailing-trial","422","1937124","0.0-11.0-381.0","","","","false","","","","","","","","","","null","","1806.699999988079","","0","0","null","null","arrowup","[0.325,0.675,0.85,0.15]","","",""
"sailing-trial","423","1941253","0.0-11.0-382.0","","","","false","","","","","","","","","","1088.699999988079","","317.5","","1","0","arrowleft","0","arrowright","[0.15,0.85,0.675,0.325]","","",""
"sailing-trial","424","1944484","0.0-11.0-383.0","","","","false","","","","","","","","","","null","","1382.8999999761581","","1","1","null","null","arrowup","[0.15,0.85,0.675,0.325]","","",""
"sailing-trial","425","1948392","0.0-11.0-384.0","","","","false","","","","","","","","","","639.3000000119209","","946.5999999642372","","0","0","arrowleft","0","arrowleft","[0.15,0.85,0.675,0.325]","","",""
"sailing-trial","426","1951667","0.0-11.0-385.0","","","","false","","","","","","","","","","null","","1445.300000011921","","2","1","null","null","arrowup","[0.15,0.85,0.675,0.325]","","",""
"sailing-trial","427","1955507","0.0-11.0-386.0","","","","false","","","","","","","","","","498.10000002384186","","509.69999998807907","","2","1","arrowright","1","arrowleft","[0.15,0.85,0.675,0.325]","","",""
"sailing-trial","428","1957815","0.0-11.0-387.0","","","","false","","","","","","","","","","null","","948.8000000119209","","3","0","null","null","arrowup","[0.15,0.85,0.675,0.325]","","",""
"sailing-trial","429","1962386","0.0-11.0-388.0","","","","false","","","","","","","","","","1205.800000011921","","447.5999999642372","","2","1","arrowright","1","arrowleft","[0.15,0.85,0.675,0.325]","","",""
"sailing-trial","430","1965287","0.0-11.0-389.0","","","","false","","","","","","","","","","null","","1069.2999999523163","","0","0","null","null","arrowup","[0.15,0.85,0.675,0.325]","","",""
"sailing-trial","431","1969982","0.0-11.0-390.0","","","","false","","","","","","","","","","1330","","303","","2","1","arrowright","1","arrowleft","[0.15,0.85,0.675,0.325]","","",""
"sailing-trial","432","1973114","0.0-11.0-391.0","","","","false","","","","","","","","","","null","","1080.1000000238419","","0","1","null","null","arrowup","[0.15,0.85,0.675,0.325]","","",""
"sailing-trial","433","1977213","0.0-11.0-392.0","","","","false","","","","","","","","","","910.3999999761581","","58.30000001192093","","2","1","arrowright","1","arrowleft","[0.15,0.85,0.675,0.325]","","",""
"sailing-trial","434","1981588","0.0-11.0-393.0","","","","false","","","","","","","","","","null","","1137.300000011921","","1","1","null","null","arrowup","[0.15,0.85,0.675,0.325]","","",""
"sailing-trial","435","1985651","0.0-11.0-394.0","","","","false","","","","","","","","","","695.5","","296.80000001192093","","2","1","arrowright","1","arrowleft","[0.15,0.85,0.675,0.325]","","",""
"sailing-trial","436","1988142","0.0-11.0-395.0","","","","false","","","","","","","","","","null","","1155.800000011921","","3","0","null","null","arrowup","[0.15,0.85,0.675,0.325]","","",""
"sailing-trial","437","1992232","0.0-11.0-396.0","","","","false","","","","","","","","","","624.5999999642372","","564.3999999761581","","1","1","arrowleft","0","arrowright","[0.15,0.85,0.675,0.325]","","",""
"sailing-trial","438","1995027","0.0-11.0-397.0","","","","false","","","","","","","","","","null","","937.3000000119209","","2","1","null","null","arrowup","[0.15,0.85,0.675,0.325]","","",""
"sailing-trial","439","1998624","0.0-11.0-398.0","","","","false","","","","","","","","","","739.2000000476837","","3.800000011920929","","2","1","arrowright","1","arrowleft","[0.15,0.85,0.675,0.325]","","",""
"sailing-trial","440","2001348","0.0-11.0-399.0","","","","false","","","","","","","","","","null","","1437.4000000357628","","2","0","null","null","arrowup","[0.15,0.85,0.675,0.325]","","",""
"instructions","441","2012861","0.0-12.0","","","","","","","","","","11511.800000011921","","","","","","","","","","","","","","","","[{""page_index"":0,""viewing_time"":11510}]"
"survey-debrief","442","2143078","0.0-13.0","","","","","","","","","","130204.80000001192","","","","","","","","","","","","","","{""difficulty"":""4"",""fun"":""4"",""clarity"":""5"",""strategy"":""For when the fog popped up, I put my finger on the arrow up and it was easier. "",""feedback"":""""}","",""
