"trial_type","trial_index","time_elapsed","internal_node_id","value","metadata","success","timeout","failed_images","failed_audio","failed_video","browser_interaction","low_quality","rt","stimulus","response","button_pressed","island_rt","island_response","boat_rt","boat_response","boat","reward","island_key","island","boat_key","reward_probabilities","responses","num_errors","view_history"
"pavlovia","0","6","0.0-0.0","","","","","","","","","","","","","","","","","","","","","","","","","",""
"call-function","1","6","0.0-1.0","","{""task_version"":""sailing_part1_v1"",""task_condition"":""good"",""boats"":[""B"",""C"",""A"",""D""],""boats_demo"":[""F"",""G"",""H"",""E""],""islands"":[""A"",""B""],""subject_id"":""14715"",""age"":""21"",""gender"":""Other""}","","","","","","","","","","","","","","","","","","","","","","","",""
"preload","2","868","0.0-2.0","","","true","false","[]","[]","[]","[{""event"":""fullscreenenter"",""trial"":3,""time"":2598}]","false","","","","","","","","","","","","","","","","",""
"fullscreen","3","3538","0.0-3.0","","","true","","","","","","","","","","","","","","","","","","","","","","",""
"audio-keyboard-response","4","4489","0.0-4.0-0.0","","","","","","","","","","864","audio/beep_loop.wav"," ","","","","","","","","","","","","","",""
"audio-test","5","5986","0.0-4.0-1.0","","","","","","","","","","null","audio/turtle.mp3","","3","","","","","","","","","","","","",""
"audio-test","6","8211","0.0-4.0-2.0","","","","","","","","","","null","audio/shark.mp3","","2","","","","","","","","","","","","",""
"sailing-instructions","7","37277","0.0-5.0-0.0-0.0","","","","","","","","","","","","","","null","null","null","null","null","null","","","","","","",""
"sailing-trial","8","40465","0.0-5.0-0.0-1.0-0.0","","","","false","","","","","","","","","","1991.1000000238419","","null","","null","null","arrowleft","0","null","null","","",""
"sailing-trial","9","42551","0.0-5.0-0.0-1.0-1.0","","","","false","","","","","","","","","","901.6999999880791","","null","","null","null","arrowright","1","null","null","","",""
"sailing-trial","10","45311","0.0-5.0-0.0-1.0-2.0","","","","false","","","","","","","","","","1549.8999999761581","","null","","null","null","arrowright","1","null","null","","",""
"sailing-instructions","11","86088","0.0-5.0-0.0-2.0","","","","","","","","","","","","","","null","null","null","null","0","null","","","","","","",""
"sailing-trial","12","90579","0.0-5.0-0.0-3.0-0.0","","","","false","","","","","","","","","","null","","1231.5999999642372","","2","1","null","null","arrowleft","[1,1,1,1]","","",""
"sailing-trial","13","94312","0.0-5.0-0.0-3.0-1.0","","","","false","","","","","","","","","","null","","884","","3","1","null","null","arrowright","[1,1,1,1]","","",""
"sailing-trial","14","97614","0.0-5.0-0.0-3.0-2.0","","","","false","","","","","","","","","","null","","544.6999999880791","","2","0","null","null","arrowleft","[0,0,0,0]","","",""
"sailing-instructions","15","104863","0.0-5.0-0.0-4.0","","","","","","","","","","","","","","null","null","null","null","null","null","","","","","","",""
"sailing-comprehension","16","121540","0.0-5.0-0.0-5.0","","","","","","","","","","12154.199999988079","","","","","","","","","","","","","","[""true"",""false"",""false"",""true""]","1",""
"sailing-instructions","17","149300","0.0-5.0-0.1-0.1","","","","","","","","","","","","","","null","null","null","null","null","null","","","","","","",""
"sailing-trial","18","151703","0.0-5.0-0.1-1.1-0.1","","","","false","","","","","","","","","","1212","","null","","null","null","arrowleft","0","null","null","","",""
"sailing-trial","19","153692","0.0-5.0-0.1-1.1-1.1","","","","false","","","","","","","","","","780.9000000357628","","null","","null","null","arrowright","1","null","null","","",""
"sailing-trial","20","155367","0.0-5.0-0.1-1.1-2.1","","","","false","","","","[{""event"":""fullscreenenter"",""trial"":3,""time"":2598},{""event"":""blur"",""trial"":21,""time"":181239},{""event"":""focus"",""trial"":21,""time"":182785}]","false","","","","","476.60000002384186","","null","","null","null","arrowright","1","null","null","","",""
"sailing-instructions","21","198531","0.0-5.0-0.1-2.1","","","","","","","","","","","","","","null","null","null","null","0","null","","","","","","",""
"sailing-trial","22","201808","0.0-5.0-0.1-3.1-0.1","","","","false","","","","","","","","","","null","","772.6999999880791","","2","1","null","null","arrowleft","[1,1,1,1]","","",""
"sailing-trial","23","204342","0.0-5.0-0.1-3.1-1.1","","","","false","","","","","","","","","","null","","252.89999997615814","","3","1","null","null","arrowright","[1,1,1,1]","","",""
"sailing-trial","24","206303","0.0-5.0-0.1-3.1-2.1","","","","false","","","","","","","","","","null","","116.59999996423721","","3","0","null","null","arrowright","[0,0,0,0]","","",""
"sailing-instructions","25","213535","0.0-5.0-0.1-4.1","","","","","","","","","","","","","","null","null","null","null","null","null","","","","","","",""
"sailing-comprehension","26","221766","0.0-5.0-0.1-5.1","","","","","","","","","","6598.600000023842","","","","","","","","","","","","","","[""true"",""true"",""false"",""true""]","0",""
"sailing-instructions","27","280174","0.0-6.0-0.0-0.0","","","","","","","","","","","","","","null","null","null","null","null","null","","","","","","",""
"sailing-comprehension","28","289609","0.0-6.0-0.0-1.0","","","","","","","","","","8667.800000011921","","","","","","","","","","","","","","[""true"",""false"",""true""]","0",""
"sailing-instructions","29","303517","0.0-7.0-0.0-0.0","","","","","","","","","","","","","","null","null","null","null","null","null","","","","","","",""
"sailing-trial","30","308160","0.0-7.0-0.0-1.0-0.0","","","","false","","","","","","","","","","null","","2467.599999964237","","0","0","null","null","arrowup","[0.2,0.8,0.2,0.8]","","",""
"sailing-trial","31","312037","0.0-7.0-0.0-1.0-1.0","","","","false","","","","","","","","","","null","","1142.699999988079","","1","1","null","null","arrowup","[0.2,0.8,0.2,0.8]","","",""
"sailing-trial","32","315120","0.0-7.0-0.0-1.0-2.0","","","","false","","","","","","","","","","null","","1171.1000000238419","","2","1","null","null","arrowup","[0.2,0.8,0.2,0.8]","","",""
"sailing-trial","33","317771","0.0-7.0-0.0-1.0-3.0","","","","false","","","","","","","","","","null","","804.6000000238419","","3","1","null","null","arrowup","[0.2,0.8,0.2,0.8]","","",""
"sailing-comprehension","34","324807","0.0-7.0-0.0-2.0","","","","","","","","","","6113.300000011921","","","","","","","","","","","","","","[""false""]","0",""
"sailing-instructions","35","334757","0.0-8.0-0.0-0.0","","","","","","","","","","","","","","null","null","null","null","null","null","","","","","","",""
"sailing-comprehension","36","338981","0.0-8.0-0.0-1.0","","","","","","","","","","3819.300000011921","","","","","","","","","","","","","","[""true""]","0",""
"sailing-instructions","37","366525","0.0-9.0-0.0-0.0","","","","","","","","","","","","","","null","null","null","null","null","null","","","","","","",""
"sailing-trial","38","371055","0.0-9.0-0.0-1.0-0.0","","","","false","","","","","","","","","","841.5999999642372","","160.0999999642372","","0","0","arrowleft","0","arrowleft","[0.2,0.8,0.2,0.8]","","",""
"sailing-trial","39","376101","0.0-9.0-0.0-1.0-1.0","","","","false","","","","","","","","","","1137.699999988079","","955.4000000357628","","1","0","arrowleft","0","arrowright","[0.2,0.8,0.2,0.8]","","",""
"sailing-trial","40","379512","0.0-9.0-0.0-1.0-2.0","","","","false","","","","","","","","","","null","","1625.800000011921","","0","0","null","null","arrowup","[0.2,0.8,0.2,0.8]","","",""
"sailing-trial","41","384251","0.0-9.0-0.0-1.0-3.0","","","","false","","","","","","","","","","1024.0999999642372","","125.19999998807907","","3","1","arrowright","1","arrowright","[0.2,0.8,0.2,0.8]","","",""
"sailing-trial","42","387684","0.0-9.0-0.0-1.0-4.0","","","","false","","","","","","","","","","null","","1548.7000000476837","","3","1","null","null","arrowup","[0.2,0.8,0.2,0.8]","","",""
"sailing-trial","43","392122","0.0-9.0-0.0-1.0-5.0","","","","false","","","","","","","","","","1255.199999988079","","147.39999997615814","","2","0","arrowright","1","arrowleft","[0.2,0.8,0.2,0.8]","","",""
"sailing-instructions","44","417954","0.0-10.0","","","","","","","","","","","","","","null","null","null","null","null","null","","","","","","",""
"sailing-trial","45","422693","0.0-11.0-0.0","","","","false","","","","","","","","","","898.2000000476837","","443.19999998807907","","0","1","arrowleft","0","arrowleft","[0.85,0.15,0.325,0.675]","","",""
"sailing-trial","46","426249","0.0-11.0-1.0","","","","false","","","","","","","","","","null","","1456.0999999642372","","1","1","null","null","arrowup","[0.85,0.15,0.325,0.675]","","",""
"sailing-trial","47","431572","0.0-11.0-2.0","","","","false","","","","","","","","","","1152.199999988079","","400.89999997615814","","1","1","arrowleft","0","arrowright","[0.85,0.15,0.325,0.675]","","",""
"sailing-trial","48","435264","0.0-11.0-3.0","","","","false","","","","","","","","","","null","","1314.199999988079","","1","0","null","null","arrowup","[0.85,0.15,0.325,0.675]","","",""
"sailing-trial","49","440017","0.0-11.0-4.0","","","","false","","","","","","","","","","769.1999999880791","","145","","2","0","arrowright","1","arrowleft","[0.85,0.15,0.325,0.675]","","",""
"sailing-trial","50","443229","0.0-11.0-5.0","","","","false","","","","","","","","","","null","","1276.8999999761581","","3","0","null","null","arrowup","[0.85,0.15,0.325,0.675]","","",""
"sailing-trial","51","448617","0.0-11.0-6.0","","","","false","","","","","","","","","","1299.2999999523163","","183.80000001192093","","3","1","arrowright","1","arrowright","[0.85,0.15,0.325,0.675]","","",""
"sailing-trial","52","451781","0.0-11.0-7.0","","","","false","","","","","","","","","","null","","1225.8999999761581","","3","1","null","null","arrowup","[0.85,0.15,0.325,0.675]","","",""
"sailing-trial","53","456651","0.0-11.0-8.0","","","","false","","","","","","","","","","887.6000000238419","","211.19999998807907","","0","1","arrowleft","0","arrowleft","[0.85,0.15,0.325,0.675]","","",""
"sailing-trial","54","459724","0.0-11.0-9.0","","","","false","","","","","","","","","","null","","949.1000000238419","","1","0","null","null","arrowup","[0.85,0.15,0.325,0.675]","","",""
"sailing-trial","55","464061","0.0-11.0-10.0","","","","false","","","","","","","","","","917.4000000357628","","42.80000001192093","","0","1","arrowleft","0","arrowleft","[0.85,0.15,0.325,0.675]","","",""
"sailing-trial","56","467119","0.0-11.0-11.0","","","","false","","","","","","","","","","null","","1352.2999999523163","","2","0","null","null","arrowup","[0.85,0.15,0.325,0.675]","","",""
"sailing-trial","57","471595","0.0-11.0-12.0","","","","false","","","","","","","","","","638","","246.39999997615814","","0","1","arrowleft","0","arrowleft","[0.85,0.15,0.325,0.675]","","",""
"sailing-trial","58","475129","0.0-11.0-13.0","","","","false","","","","","","","","","","null","","969.6999999880791","","0","1","null","null","arrowup","[0.85,0.15,0.325,0.675]","","",""
"sailing-trial","59","479252","0.0-11.0-14.0","","","","false","","","","","","","","","","604.0999999642372","","38.80000001192093","","0","1","arrowleft","0","arrowleft","[0.85,0.15,0.325,0.675]","","",""
"sailing-trial","60","482346","0.0-11.0-15.0","","","","false","","","","","","","","","","null","","984.3999999761581","","2","1","null","null","arrowup","[0.85,0.15,0.325,0.675]","","",""
"sailing-trial","61","486315","0.0-11.0-16.0","","","","false","","","","","","","","","","601.3999999761581","","55.69999998807907","","0","1","arrowleft","0","arrowleft","[0.675,0.325,0.15,0.85]","","",""
"sailing-trial","62","488783","0.0-11.0-17.0","","","","false","","","","","","","","","","null","","905.3999999761581","","1","0","null","null","arrowup","[0.675,0.325,0.15,0.85]","","",""
"sailing-trial","63","492788","0.0-11.0-18.0","","","","false","","","","","","","","","","638.0999999642372","","317.5","","0","1","arrowleft","0","arrowleft","[0.675,0.325,0.15,0.85]","","",""
"sailing-trial","64","496095","0.0-11.0-19.0","","","","false","","","","","","","","","","null","","1056.699999988079","","3","1","null","null","arrowup","[0.675,0.325,0.15,0.85]","","",""
"sailing-trial","65","499841","0.0-11.0-20.0","","","","false","","","","","","","","","","593","","214.39999997615814","","0","0","arrowleft","0","arrowleft","[0.675,0.325,0.15,0.85]","","",""
"sailing-trial","66","502795","0.0-11.0-21.0","","","","false","","","","","","","","","","null","","1000","","0","1","null","null","arrowup","[0.675,0.325,0.15,0.85]","","",""
"sailing-trial","67","506519","0.0-11.0-22.0","","","","false","","","","","","","","","","771.1000000238419","","37","","0","0","arrowleft","0","arrowleft","[0.675,0.325,0.15,0.85]","","",""
"sailing-trial","68","508888","0.0-11.0-23.0","","","","false","","","","","","","","","","null","","841.3000000119209","","1","0","null","null","arrowup","[0.675,0.325,0.15,0.85]","","",""
"sailing-trial","69","512514","0.0-11.0-24.0","","","","false","","","","","","","","","","727.9000000357628","","404.89999997615814","","2","0","arrowright","1","arrowleft","[0.675,0.325,0.15,0.85]","","",""
"sailing-trial","70","515344","0.0-11.0-25.0","","","","false","","","","","","","","","","null","","851.6000000238419","","2","1","null","null","arrowup","[0.675,0.325,0.15,0.85]","","",""
"sailing-trial","71","519633","0.0-11.0-26.0","","","","false","","","","","","","","","","578.5","","370.69999998807907","","3","1","arrowright","1","arrowright","[0.675,0.325,0.15,0.85]","","",""
"sailing-trial","72","522511","0.0-11.0-27.0","","","","false","","","","","","","","","","null","","1083","","2","0","null","null","arrowup","[0.675,0.325,0.15,0.85]","","",""
"sailing-trial","73","526709","0.0-11.0-28.0","","","","false","","","","","","","","","","606.2999999523163","","234.39999997615814","","3","0","arrowright","1","arrowright","[0.675,0.325,0.15,0.85]","","",""
"sailing-trial","74","529153","0.0-11.0-29.0","","","","false","","","","","","","","","","null","","988","","2","0","null","null","arrowup","[0.675,0.325,0.15,0.85]","","",""
"sailing-trial","75","533397","0.0-11.0-30.0","","","","false","","","","","","","","","","578.5999999642372","","469","","0","1","arrowleft","0","arrowleft","[0.675,0.325,0.15,0.85]","","",""
"sailing-trial","76","536377","0.0-11.0-31.0","","","","false","","","","","","","","","","null","","894.3000000119209","","0","1","null","null","arrowup","[0.675,0.325,0.15,0.85]","","",""
"sailing-trial","77","540311","0.0-11.0-32.0","","","","false","","","","","","","","","","558.8999999761581","","47.30000001192093","","0","1","arrowleft","0","arrowleft","[0.325,0.675,0.85,0.15]","","",""
"sailing-trial","78","544543","0.0-11.0-33.0","","","","false","","","","","","","","","","null","","2309.800000011921","","0","1","null","null","arrowup","[0.325,0.675,0.85,0.15]","","",""
"sailing-trial","79","548811","0.0-11.0-34.0","","","","false","","","","","","","","","","582.5999999642372","","489.39999997615814","","2","1","arrowright","1","arrowleft","[0.325,0.675,0.85,0.15]","","",""
"sailing-trial","80","551859","0.0-11.0-35.0","","","","false","","","","","","","","","","null","","1144","","0","1","null","null","arrowup","[0.325,0.675,0.85,0.15]","","",""
"sailing-trial","81","554903","0.0-11.0-36.0","","","","false","","","","","","","","","","677.3999999761581","","20.80000001192093","","0","0","arrowleft","0","arrowleft","[0.325,0.675,0.85,0.15]","","",""
"sailing-trial","82","557581","0.0-11.0-37.0","","","","false","","","","","","","","","","null","","1002.5999999642372","","0","0","null","null","arrowup","[0.325,0.675,0.85,0.15]","","",""
"sailing-trial","83","562075","0.0-11.0-38.0","","","","false","","","","","","","","","","620.6000000238419","","143.10000002384186","","0","0","arrowleft","0","arrowleft","[0.325,0.675,0.85,0.15]","","",""
"sailing-trial","84","564627","0.0-11.0-39.0","","","","false","","","","","","","","","","null","","1103.8999999761581","","0","0","null","null","arrowup","[0.325,0.675,0.85,0.15]","","",""
"sailing-trial","85","568333","0.0-11.0-40.0","","","","false","","","","","","","","","","753.7000000476837","","268.39999997615814","","3","0","arrowright","1","arrowright","[0.325,0.675,0.85,0.15]","","",""
"sailing-trial","86","571073","0.0-11.0-41.0","","","","false","","","","","","","","","","null","","794.8999999761581","","2","1","null","null","arrowup","[0.325,0.675,0.85,0.15]","","",""
"sailing-trial","87","575076","0.0-11.0-42.0","","","","false","","","","","","","","","","558.9000000357628","","313.9000000357628","","2","1","arrowright","1","arrowleft","[0.325,0.675,0.85,0.15]","","",""
"sailing-trial","88","577941","0.0-11.0-43.0","","","","false","","","","","","","","","","null","","890.6999999880791","","1","1","null","null","arrowup","[0.325,0.675,0.85,0.15]","","",""
"sailing-trial","89","580867","0.0-11.0-44.0","","","","false","","","","","","","","","","615.8000000119209","","99","","2","0","arrowright","1","arrowleft","[0.325,0.675,0.85,0.15]","","",""
"sailing-trial","90","583275","0.0-11.0-45.0","","","","false","","","","","","","","","","null","","963.8000000119209","","3","0","null","null","arrowup","[0.325,0.675,0.85,0.15]","","",""
"sailing-trial","91","588273","0.0-11.0-46.0","","","","false","","","","","","","","","","1309.4000000357628","","579.3999999761581","","1","1","arrowleft","0","arrowright","[0.325,0.675,0.85,0.15]","","",""
"sailing-trial","92","591008","0.0-11.0-47.0","","","","false","","","","","","","","","","null","","905.1000000238419","","1","1","null","null","arrowup","[0.325,0.675,0.85,0.15]","","",""
"sailing-trial","93","594979","0.0-11.0-48.0","","","","false","","","","","","","","","","657.7000000476837","","332.80000001192093","","1","1","arrowleft","0","arrowright","[0.325,0.675,0.85,0.15]","","",""
"sailing-trial","94","597774","0.0-11.0-49.0","","","","false","","","","","","","","","","null","","893","","2","1","null","null","arrowup","[0.325,0.675,0.85,0.15]","","",""
"sailing-trial","95","602272","0.0-11.0-50.0","","","","false","","","","","","","","","","1040.800000011921","","373.69999998807907","","1","1","arrowleft","0","arrowright","[0.675,0.325,0.15,0.85]","","",""
"sailing-trial","96","605962","0.0-11.0-51.0","","","","false","","","","","","","","","","null","","2140","","2","0","null","null","arrowup","[0.675,0.325,0.15,0.85]","","",""
"sailing-trial","97","610435","0.0-11.0-52.0","","","","false","","","","","","","","","","638.3999999761581","","726.8999999761581","","0","1","arrowleft","0","arrowleft","[0.675,0.325,0.15,0.85]","","",""
"sailing-trial","98","613106","0.0-11.0-53.0","","","","false","","","","","","","","","","null","","940.0999999642372","","2","0","null","null","arrowup","[0.675,0.325,0.15,0.85]","","",""
"sailing-trial","99","618393","0.0-11.0-54.0","","","","false","","","","","","","","","","1275","","828.9000000357628","","0","1","arrowleft","0","arrowleft","[0.675,0.325,0.15,0.85]","","",""
"sailing-trial","100","620809","0.0-11.0-55.0","","","","false","","","","","","","","","","null","","831.3999999761581","","2","0","null","null","arrowup","[0.675,0.325,0.15,0.85]","","",""
"sailing-trial","101","625444","0.0-11.0-56.0","","","","false","","","","","","","","","","760.6000000238419","","563.5","","0","1","arrowleft","0","arrowleft","[0.675,0.325,0.15,0.85]","","",""
"sailing-trial","102","628022","0.0-11.0-57.0","","","","false","","","","","","","","","","null","","700.5","","1","1","null","null","arrowup","[0.675,0.325,0.15,0.85]","","",""
"sailing-trial","103","632317","0.0-11.0-58.0","","","","false","","","","","","","","","","1157.800000011921","","346.19999998807907","","1","0","arrowleft","0","arrowright","[0.675,0.325,0.15,0.85]","","",""
"sailing-trial","104","634725","0.0-11.0-59.0","","","","false","","","","","","","","","","null","","978","","2","0","null","null","arrowup","[0.675,0.325,0.15,0.85]","","",""
"sailing-trial","105","638799","0.0-11.0-60.0","","","","false","","","","","","","","","","750.8000000119209","","174.5999999642372","","0","1","arrowleft","0","arrowleft","[0.675,0.325,0.15,0.85]","","",""
"sailing-trial","106","644071","0.0-11.0-61.0","","","","false","","","","","","","","","","null","","3346.899999976158","","0","1","null","null","arrowup","[0.675,0.325,0.15,0.85]","","",""
"sailing-trial","107","648474","0.0-11.0-62.0","","","","false","","","","","","","","","","679.3000000119209","","441.5","","0","1","arrowleft","0","arrowleft","[0.675,0.325,0.15,0.85]","","",""
"sailing-trial","108","651572","0.0-11.0-63.0","","","","false","","","","","","","","","","null","","1123","","0","1","null","null","arrowup","[0.675,0.325,0.15,0.85]","","",""
"sailing-trial","109","655068","0.0-11.0-64.0","","","","false","","","","","","","","","","641.1000000238419","","301.10000002384186","","0","0","arrowleft","0","arrowleft","[0.675,0.325,0.15,0.85]","","",""
"sailing-trial","110","657796","0.0-11.0-65.0","","","","false","","","","","","","","","","null","","1080.4000000357628","","3","0","null","null","arrowup","[0.675,0.325,0.15,0.85]","","",""
"sailing-trial","111","661359","0.0-11.0-66.0","","","","false","","","","","","","","","","563.3000000119209","","189.69999998807907","","0","1","arrowleft","0","arrowleft","[0.85,0.15,0.325,0.675]","","",""
"sailing-trial","112","664236","0.0-11.0-67.0","","","","false","","","","","","","","","","null","","909.6999999880791","","0","1","null","null","arrowup","[0.85,0.15,0.325,0.675]","","",""
"sailing-trial","113","668610","0.0-11.0-68.0","","","","false","","","","","","","","","","710.3999999761581","","511.7999999523163","","0","1","arrowleft","0","arrowleft","[0.85,0.15,0.325,0.675]","","",""
"sailing-trial","114","670392","0.0-11.0-69.0","","","","false","","","","","","","","","","null","","96.60000002384186","","1","0","null","null","arrowup","[0.85,0.15,0.325,0.675]","","",""
"sailing-trial","115","674272","0.0-11.0-70.0","","","","false","","","","","","","","","","757.6999999880791","","192.89999997615814","","0","1","arrowleft","0","arrowleft","[0.85,0.15,0.325,0.675]","","",""
"sailing-trial","116","676886","0.0-11.0-71.0","","","","false","","","","","","","","","","null","","711.6999999880791","","3","1","null","null","arrowup","[0.85,0.15,0.325,0.675]","","",""
"sailing-trial","117","680623","0.0-11.0-72.0","","","","false","","","","","","","","","","534.6999999880791","","294.69999998807907","","0","0","arrowleft","0","arrowleft","[0.85,0.15,0.325,0.675]","","",""
"sailing-trial","118","682817","0.0-11.0-73.0","","","","false","","","","","","","","","","null","","840.8999999761581","","1","0","null","null","arrowup","[0.85,0.15,0.325,0.675]","","",""
"sailing-trial","119","686808","0.0-11.0-74.0","","","","false","","","","","","","","","","674.1999999880791","","137.39999997615814","","0","1","arrowleft","0","arrowleft","[0.85,0.15,0.325,0.675]","","",""
"sailing-trial","120","689551","0.0-11.0-75.0","","","","false","","","","","","","","","","null","","860.3000000119209","","0","1","null","null","arrowup","[0.85,0.15,0.325,0.675]","","",""
"sailing-trial","121","693180","0.0-11.0-76.0","","","","false","","","","","","","","","","745","","67.79999995231628","","0","1","arrowleft","0","arrowleft","[0.85,0.15,0.325,0.675]","","",""
"sailing-trial","122","695201","0.0-11.0-77.0","","","","false","","","","","","","","","","null","","700.9000000357628","","0","0","null","null","arrowup","[0.85,0.15,0.325,0.675]","","",""
"sailing-trial","123","699555","0.0-11.0-78.0","","","","false","","","","","","","","","","733.1000000238419","","924.6000000238419","","0","0","arrowleft","0","arrowleft","[0.85,0.15,0.325,0.675]","","",""
"sailing-trial","124","702169","0.0-11.0-79.0","","","","false","","","","","","","","","","null","","748.1000000238419","","3","1","null","null","arrowup","[0.85,0.15,0.325,0.675]","","",""
"sailing-trial","125","706108","0.0-11.0-80.0","","","","false","","","","","","","","","","574.6999999880791","","371.19999998807907","","3","1","arrowright","1","arrowright","[0.85,0.15,0.325,0.675]","","",""
"sailing-trial","126","708205","0.0-11.0-81.0","","","","false","","","","","","","","","","null","","732.5","","1","0","null","null","arrowup","[0.85,0.15,0.325,0.675]","","",""
"sailing-trial","127","712272","0.0-11.0-82.0","","","","false","","","","","","","","","","642.5","","353.60000002384186","","3","1","arrowright","1","arrowright","[0.85,0.15,0.325,0.675]","","",""
"sailing-trial","128","715018","0.0-11.0-83.0","","","","false","","","","","","","","","","null","","852.8000000119209","","0","1","null","null","arrowup","[0.85,0.15,0.325,0.675]","","",""
"sailing-trial","129","719698","0.0-11.0-84.0","","","","false","","","","","","","","","","625.3000000119209","","389.80000001192093","","3","0","arrowright","1","arrowright","[0.85,0.15,0.325,0.675]","","",""
"sailing-trial","130","722618","0.0-11.0-85.0","","","","false","","","","","","","","","","null","","907.7999999523163","","0","1","null","null","arrowup","[0.85,0.15,0.325,0.675]","","",""
"sailing-trial","131","725791","0.0-11.0-86.0","","","","false","","","","","","","","","","543.1999999880791","","52.90000003576279","","0","0","arrowleft","0","arrowleft","[0.325,0.675,0.85,0.15]","","",""
"sailing-trial","132","728618","0.0-11.0-87.0","","","","false","","","","","","","","","","null","","837.4000000357628","","2","1","null","null","arrowup","[0.325,0.675,0.85,0.15]","","",""
"sailing-trial","133","732036","0.0-11.0-88.0","","","","false","","","","","","","","","","519.5","","337.30000001192093","","0","0","arrowleft","0","arrowleft","[0.325,0.675,0.85,0.15]","","",""
"sailing-trial","134","734291","0.0-11.0-89.0","","","","false","","","","","","","","","","null","","792.3999999761581","","1","0","null","null","arrowup","[0.325,0.675,0.85,0.15]","","",""
"sailing-trial","135","738257","0.0-11.0-90.0","","","","false","","","","","","","","","","662.1999999880791","","292.5","","2","1","arrowright","1","arrowleft","[0.325,0.675,0.85,0.15]","","",""
"sailing-trial","136","740985","0.0-11.0-91.0","","","","false","","","","","","","","","","null","","952.5999999642372","","0","1","null","null","arrowup","[0.325,0.675,0.85,0.15]","","",""
"sailing-trial","137","745130","0.0-11.0-92.0","","","","false","","","","","","","","","","756.5","","208.60000002384186","","2","1","arrowright","1","arrowleft","[0.325,0.675,0.85,0.15]","","",""
"sailing-trial","138","747371","0.0-11.0-93.0","","","","false","","","","","","","","","","null","","796.1000000238419","","0","0","null","null","arrowup","[0.325,0.675,0.85,0.15]","","",""
"sailing-trial","139","751139","0.0-11.0-94.0","","","","false","","","","","","","","","","687.1999999880791","","210.30000001192093","","2","0","arrowright","1","arrowleft","[0.325,0.675,0.85,0.15]","","",""
"sailing-trial","140","753968","0.0-11.0-95.0","","","","false","","","","","","","","","","null","","829.0999999642372","","1","1","null","null","arrowup","[0.325,0.675,0.85,0.15]","","",""
"sailing-trial","141","757722","0.0-11.0-96.0","","","","false","","","","","","","","","","431.5","","261.0999999642372","","3","1","arrowright","1","arrowright","[0.325,0.675,0.85,0.15]","","",""
"sailing-trial","142","760317","0.0-11.0-97.0","","","","false","","","","","","","","","","null","","719.8999999761581","","3","1","null","null","arrowup","[0.325,0.675,0.85,0.15]","","",""
"sailing-trial","143","763522","0.0-11.0-98.0","","","","false","","","","","","","","","","644.8999999761581","","26.899999976158142","","3","0","arrowright","1","arrowright","[0.325,0.675,0.85,0.15]","","",""
"sailing-trial","144","765852","0.0-11.0-99.0","","","","false","","","","","","","","","","null","","818.3000000119209","","0","0","null","null","arrowup","[0.325,0.675,0.85,0.15]","","",""
"sailing-trial","145","769233","0.0-11.0-100.0","","","","false","","","","","","","","","","530.6999999880791","","278","","3","0","arrowright","1","arrowright","[0.325,0.675,0.85,0.15]","","",""
"sailing-trial","146","771339","0.0-11.0-101.0","","","","false","","","","","","","","","","null","","766.2000000476837","","1","0","null","null","arrowup","[0.325,0.675,0.85,0.15]","","",""
"sailing-trial","147","775172","0.0-11.0-102.0","","","","false","","","","","","","","","","566.8000000119209","","6.099999964237213","","2","0","arrowright","1","arrowleft","[0.85,0.15,0.325,0.675]","","",""
"sailing-trial","148","777966","0.0-11.0-103.0","","","","false","","","","","","","","","","null","","953","","3","1","null","null","arrowup","[0.85,0.15,0.325,0.675]","","",""
"sailing-trial","149","781502","0.0-11.0-104.0","","","","false","","","","","","","","","","563.8000000119209","","38.40000003576279","","3","1","arrowright","1","arrowright","[0.85,0.15,0.325,0.675]","","",""
"sailing-trial","150","783592","0.0-11.0-105.0","","","","false","","","","","","","","","","null","","733.2999999523163","","1","0","null","null","arrowup","[0.85,0.15,0.325,0.675]","","",""
"sailing-trial","151","787561","0.0-11.0-106.0","","","","false","","","","","","","","","","886.8999999761581","","228.80000001192093","","3","1","arrowright","1","arrowright","[0.85,0.15,0.325,0.675]","","",""
"sailing-trial","152","790398","0.0-11.0-107.0","","","","false","","","","","","","","","","null","","1067.1000000238419","","3","1","null","null","arrowup","[0.85,0.15,0.325,0.675]","","",""
"sailing-trial","153","794297","0.0-11.0-108.0","","","","false","","","","","","","","","","624.2999999523163","","130.10000002384186","","3","1","arrowright","1","arrowright","[0.85,0.15,0.325,0.675]","","",""
"sailing-trial","154","796648","0.0-11.0-109.0","","","","false","","","","","","","","","","null","","516","","3","1","null","null","arrowup","[0.85,0.15,0.325,0.675]","","",""
"sailing-trial","155","801359","0.0-11.0-110.0","","","","false","","","","","","","","","","699","","34.19999998807907","","3","0","arrowright","1","arrowright","[0.85,0.15,0.325,0.675]","","",""
"sailing-trial","156","804481","0.0-11.0-111.0","","","","false","","","","","","","","","","null","","1026.6000000238419","","3","1","null","null","arrowup","[0.85,0.15,0.325,0.675]","","",""
"sailing-trial","157","808620","0.0-11.0-112.0","","","","false","","","","","","","","","","702.9000000357628","","241.9000000357628","","3","1","arrowright","1","arrowright","[0.85,0.15,0.325,0.675]","","",""
"sailing-trial","158","811581","0.0-11.0-113.0","","","","false","","","","","","","","","","null","","980.3000000119209","","3","1","null","null","arrowup","[0.85,0.15,0.325,0.675]","","",""
"sailing-trial","159","815242","0.0-11.0-114.0","","","","false","","","","","","","","","","729.4000000357628","","81.19999998807907","","3","0","arrowright","1","arrowright","[0.85,0.15,0.325,0.675]","","",""
"sailing-trial","160","818463","0.0-11.0-115.0","","","","false","","","","","","","","","","null","","1393.300000011921","","2","1","null","null","arrowup","[0.85,0.15,0.325,0.675]","","",""
"sailing-trial","161","822600","0.0-11.0-116.0","","","","false","","","","","","","","","","628.8000000119209","","444.0999999642372","","0","1","arrowleft","0","arrowleft","[0.85,0.15,0.325,0.675]","","",""
"sailing-trial","162","824859","0.0-11.0-117.0","","","","false","","","","","","","","","","null","","757.6000000238419","","1","0","null","null","arrowup","[0.85,0.15,0.325,0.675]","","",""
"sailing-trial","163","828281","0.0-11.0-118.0","","","","false","","","","","","","","","","672.3999999761581","","158.60000002384186","","0","0","arrowleft","0","arrowleft","[0.675,0.325,0.15,0.85]","","",""
"sailing-trial","164","830395","0.0-11.0-119.0","","","","false","","","","","","","","","","null","","739.1000000238419","","2","0","null","null","arrowup","[0.675,0.325,0.15,0.85]","","",""
"sailing-trial","165","833855","0.0-11.0-120.0","","","","false","","","","","","","","","","674.1000000238419","","396.30000001192093","","2","0","arrowright","1","arrowleft","[0.675,0.325,0.15,0.85]","","",""
"sailing-trial","166","836724","0.0-11.0-121.0","","","","false","","","","","","","","","","null","","921.1999999880791","","2","0","null","null","arrowup","[0.675,0.325,0.15,0.85]","","",""
"sailing-trial","167","840695","0.0-11.0-122.0","","","","false","","","","","","","","","","657.6999999880791","","457.9000000357628","","3","1","arrowright","1","arrowright","[0.675,0.325,0.15,0.85]","","",""
"sailing-trial","168","842776","0.0-11.0-123.0","","","","false","","","","","","","","","","null","","783.7000000476837","","1","0","null","null","arrowup","[0.675,0.325,0.15,0.85]","","",""
"sailing-trial","169","846718","0.0-11.0-124.0","","","","false","","","","","","","","","","596.8000000119209","","135.0999999642372","","3","1","arrowright","1","arrowright","[0.675,0.325,0.15,0.85]","","",""
"sailing-trial","170","848914","0.0-11.0-125.0","","","","false","","","","","","","","","","null","","451.5","","2","0","null","null","arrowup","[0.675,0.325,0.15,0.85]","","",""
"sailing-trial","171","852779","0.0-11.0-126.0","","","","false","","","","","","","","","","629.2000000476837","","174.30000001192093","","0","1","arrowleft","0","arrowleft","[0.675,0.325,0.15,0.85]","","",""
"sailing-trial","172","854633","0.0-11.0-127.0","","","","false","","","","","","","","","","null","","616","","1","0","null","null","arrowup","[0.675,0.325,0.15,0.85]","","",""
"sailing-trial","173","858777","0.0-11.0-128.0","","","","false","","","","","","","","","","646.1000000238419","","377.9000000357628","","0","1","arrowleft","0","arrowleft","[0.675,0.325,0.15,0.85]","","",""
"sailing-trial","174","861469","0.0-11.0-129.0","","","","false","","","","","","","","","","null","","761.9000000357628","","1","1","null","null","arrowup","[0.675,0.325,0.15,0.85]","","",""
"sailing-trial","175","865829","0.0-11.0-130.0","","","","false","","","","","","","","","","508.19999998807907","","408.80000001192093","","0","1","arrowleft","0","arrowleft","[0.675,0.325,0.15,0.85]","","",""
"sailing-trial","176","868452","0.0-11.0-131.0","","","","false","","","","","","","","","","null","","799.9000000357628","","1","1","null","null","arrowup","[0.675,0.325,0.15,0.85]","","",""
"sailing-trial","177","871580","0.0-11.0-132.0","","","","false","","","","","","","","","","639","","12.800000011920929","","0","0","arrowleft","0","arrowleft","[0.675,0.325,0.15,0.85]","","",""
"sailing-trial","178","874135","0.0-11.0-133.0","","","","false","","","","","","","","","","null","","663.6999999880791","","3","1","null","null","arrowup","[0.675,0.325,0.15,0.85]","","",""
"sailing-trial","179","878097","0.0-11.0-134.0","","","","false","","","","","","","","","","899","","39.69999998807907","","3","1","arrowright","1","arrowright","[0.675,0.325,0.15,0.85]","","",""
"sailing-trial","180","880603","0.0-11.0-135.0","","","","false","","","","","","","","","","null","","733.3000000119209","","0","1","null","null","arrowup","[0.675,0.325,0.15,0.85]","","",""
"sailing-trial","181","884993","0.0-11.0-136.0","","","","false","","","","","","","","","","552.5","","656.4000000357628","","3","1","arrowright","1","arrowright","[0.675,0.325,0.15,0.85]","","",""
"sailing-trial","182","887621","0.0-11.0-137.0","","","","false","","","","","","","","","","null","","763.1999999880791","","3","1","null","null","arrowup","[0.675,0.325,0.15,0.85]","","",""
"sailing-trial","183","891149","0.0-11.0-138.0","","","","false","","","","","","","","","","612.5","","384.0999999642372","","3","0","arrowright","1","arrowright","[0.15,0.85,0.675,0.325]","","",""
"sailing-trial","184","894970","0.0-11.0-139.0","","","","false","","","","","","","","","","null","","1866.5","","3","1","null","null","arrowup","[0.15,0.85,0.675,0.325]","","",""
"sailing-trial","185","898131","0.0-11.0-140.0","","","","false","","","","","","","","","","653.3000000119209","","31.19999998807907","","3","0","arrowright","1","arrowright","[0.15,0.85,0.675,0.325]","","",""
"sailing-trial","186","900287","0.0-11.0-141.0","","","","false","","","","","","","","","","null","","736.5","","2","0","null","null","arrowup","[0.15,0.85,0.675,0.325]","","",""
"sailing-trial","187","904691","0.0-11.0-142.0","","","","false","","","","","","","","","","632.8000000119209","","260.2000000476837","","3","1","arrowright","1","arrowright","[0.15,0.85,0.675,0.325]","","",""
"sailing-trial","188","907276","0.0-11.0-143.0","","","","false","","","","","","","","","","null","","1210","","3","0","null","null","arrowup","[0.15,0.85,0.675,0.325]","","",""
"sailing-trial","189","910849","0.0-11.0-144.0","","","","false","","","","","","","","","","650","","203.79999995231628","","3","0","arrowright","1","arrowright","[0.15,0.85,0.675,0.325]","","",""
"sailing-trial","190","913140","0.0-11.0-145.0","","","","false","","","","","","","","","","null","","930.3000000119209","","0","0","null","null","arrowup","[0.15,0.85,0.675,0.325]","","",""
"sailing-trial","191","918522","0.0-11.0-146.0","","","","false","","","","","","","","","","864.1000000238419","","1326.8999999761581","","2","1","arrowright","1","arrowleft","[0.15,0.85,0.675,0.325]","","",""
"sailing-trial","192","921283","0.0-11.0-147.0","","","","false","","","","","","","","","","null","","954.2999999523163","","1","1","null","null","arrowup","[0.15,0.85,0.675,0.325]","","",""
"sailing-trial","193","924771","0.0-11.0-148.0","","","","false","","","","","","","","","","701.5","","22.69999998807907","","2","0","arrowright","1","arrowleft","[0.15,0.85,0.675,0.325]","","",""
"sailing-trial","194","927138","0.0-11.0-149.0","","","","false","","","","","","","","","","null","","968","","0","0","null","null","arrowup","[0.15,0.85,0.675,0.325]","","",""
"sailing-trial","195","930758","0.0-11.0-150.0","","","","false","","","","","","","","","","699.9000000357628","","113.69999998807907","","2","0","arrowright","1","arrowleft","[0.15,0.85,0.675,0.325]","","",""
"sailing-trial","196","933799","0.0-11.0-151.0","","","","false","","","","","","","","","","null","","1862.699999988079","","2","0","null","null","arrowup","[0.15,0.85,0.675,0.325]","","",""
"sailing-trial","197","937631","0.0-11.0-152.0","","","","false","","","","","","","","","","567.5","","482.19999998807907","","3","0","arrowright","1","arrowright","[0.15,0.85,0.675,0.325]","","",""
"sailing-trial","198","940284","0.0-11.0-153.0","","","","false","","","","","","","","","","null","","757.4000000357628","","2","1","null","null","arrowup","[0.15,0.85,0.675,0.325]","","",""
"sailing-trial","199","943211","0.0-11.0-154.0","","","","false","","","","","","","","","","448.80000001192093","","40.90000003576279","","0","0","arrowleft","0","arrowleft","[0.15,0.85,0.675,0.325]","","",""
"sailing-trial","200","945716","0.0-11.0-155.0","","","","false","","","","","","","","","","null","","864.8999999761581","","2","1","null","null","arrowup","[0.15,0.85,0.675,0.325]","","",""
"sailing-trial","201","949801","0.0-11.0-156.0","","","","false","","","","","","","","","","673.8000000119209","","359.60000002384186","","2","1","arrowright","1","arrowleft","[0.325,0.675,0.85,0.15]","","",""
"sailing-trial","202","952500","0.0-11.0-157.0","","","","false","","","","","","","","","","null","","1012.8000000119209","","2","1","null","null","arrowup","[0.325,0.675,0.85,0.15]","","",""
"sailing-trial","203","956316","0.0-11.0-158.0","","","","false","","","","","","","","","","561.8000000119209","","20.69999998807907","","2","1","arrowright","1","arrowleft","[0.325,0.675,0.85,0.15]","","",""
"sailing-trial","204","959017","0.0-11.0-159.0","","","","false","","","","","","","","","","null","","836","","1","1","null","null","arrowup","[0.325,0.675,0.85,0.15]","","",""
"sailing-trial","205","962491","0.0-11.0-160.0","","","","false","","","","","","","","","","542.6999999880791","","113.39999997615814","","2","1","arrowright","1","arrowleft","[0.325,0.675,0.85,0.15]","","",""
"sailing-trial","206","965135","0.0-11.0-161.0","","","","false","","","","","","","","","","null","","1353.5999999642372","","0","0","null","null","arrowup","[0.325,0.675,0.85,0.15]","","",""
"sailing-trial","207","969405","0.0-11.0-162.0","","","","false","","","","","","","","","","662.7999999523163","","196.60000002384186","","2","1","arrowright","1","arrowleft","[0.325,0.675,0.85,0.15]","","",""
"sailing-trial","208","972482","0.0-11.0-163.0","","","","false","","","","","","","","","","null","","1063.8999999761581","","1","1","null","null","arrowup","[0.325,0.675,0.85,0.15]","","",""
"sailing-trial","209","976851","0.0-11.0-164.0","","","","false","","","","","","","","","","944.7000000476837","","181.30000001192093","","2","1","arrowright","1","arrowleft","[0.325,0.675,0.85,0.15]","","",""
"sailing-trial","210","982499","0.0-11.0-165.0","","","","false","","","","","","","","","","null","","4346.5","","0","0","null","null","arrowup","[0.325,0.675,0.85,0.15]","","",""
"sailing-trial","211","987451","0.0-11.0-166.0","","","","false","","","","","","","","","","641.0999999642372","","1048.199999988079","","2","1","arrowright","1","arrowleft","[0.325,0.675,0.85,0.15]","","",""
"sailing-trial","212","990206","0.0-11.0-167.0","","","","false","","","","","","","","","","null","","1268.0999999642372","","0","0","null","null","arrowup","[0.325,0.675,0.85,0.15]","","",""
"sailing-trial","213","994036","0.0-11.0-168.0","","","","false","","","","","","","","","","715","","386.30000001192093","","3","0","arrowright","1","arrowright","[0.325,0.675,0.85,0.15]","","",""
"sailing-trial","214","997014","0.0-11.0-169.0","","","","false","","","","","","","","","","null","","1056","","2","1","null","null","arrowup","[0.325,0.675,0.85,0.15]","","",""
"sailing-trial","215","1000403","0.0-11.0-170.0","","","","false","","","","","","","","","","569","","252.10000002384186","","0","0","arrowleft","0","arrowleft","[0.325,0.675,0.85,0.15]","","",""
"sailing-trial","216","1002355","0.0-11.0-171.0","","","","false","","","","","","","","","","null","","681.8999999761581","","0","0","null","null","arrowup","[0.325,0.675,0.85,0.15]","","",""
"sailing-trial","217","1006415","0.0-11.0-172.0","","","","false","","","","","","","","","","598.2999999523163","","374.60000002384186","","2","1","arrowright","1","arrowleft","[0.325,0.675,0.85,0.15]","","",""
"sailing-trial","218","1009414","0.0-11.0-173.0","","","","false","","","","","","","","","","null","","1144.2000000476837","","3","1","null","null","arrowup","[0.325,0.675,0.85,0.15]","","",""
"sailing-trial","219","1012371","0.0-11.0-174.0","","","","false","","","","","","","","","","604.1999999880791","","77.59999996423721","","2","0","arrowright","1","arrowleft","[0.325,0.675,0.85,0.15]","","",""
"sailing-trial","220","1014617","0.0-11.0-175.0","","","","false","","","","","","","","","","null","","863.3000000119209","","3","0","null","null","arrowup","[0.325,0.675,0.85,0.15]","","",""
"sailing-trial","221","1020862","0.0-11.0-176.0","","","","false","","","","","","","","","","684.5999999642372","","2454.600000023842","","3","1","arrowright","1","arrowright","[0.325,0.675,0.85,0.15]","","",""
"sailing-trial","222","1024019","0.0-11.0-177.0","","","","false","","","","","","","","","","null","","1593.5","","0","0","null","null","arrowup","[0.325,0.675,0.85,0.15]","","",""
"sailing-trial","223","1028269","0.0-11.0-178.0","","","","false","","","","","","","","","","657","","371.69999998807907","","2","1","arrowright","1","arrowleft","[0.325,0.675,0.85,0.15]","","",""
"sailing-trial","224","1031096","0.0-11.0-179.0","","","","false","","","","","","","","","","null","","1032.0999999642372","","3","0","null","null","arrowup","[0.325,0.675,0.85,0.15]","","",""
"sailing-trial","225","1036642","0.0-11.0-180.0","","","","false","","","","","","","","","","854.3000000119209","","461.2999999523163","","3","0","arrowright","1","arrowright","[0.15,0.85,0.675,0.325]","","",""
"sailing-trial","226","1040094","0.0-11.0-181.0","","","","false","","","","","","","","","","null","","1877.199999988079","","0","0","null","null","arrowup","[0.15,0.85,0.675,0.325]","","",""
"sailing-trial","227","1045114","0.0-11.0-182.0","","","","false","","","","","","","","","","684","","1183.300000011921","","1","1","arrowleft","0","arrowright","[0.15,0.85,0.675,0.325]","","",""
"sailing-trial","228","1047644","0.0-11.0-183.0","","","","false","","","","","","","","","","null","","699.8999999761581","","2","1","null","null","arrowup","[0.15,0.85,0.675,0.325]","","",""
"sailing-trial","229","1051868","0.0-11.0-184.0","","","","false","","","","","","","","","","1046.6000000238419","","84.39999997615814","","1","1","arrowleft","0","arrowright","[0.15,0.85,0.675,0.325]","","",""
"sailing-trial","230","1054022","0.0-11.0-185.0","","","","false","","","","","","","","","","null","","796.2000000476837","","0","0","null","null","arrowup","[0.15,0.85,0.675,0.325]","","",""
"sailing-trial","231","1059095","0.0-11.0-186.0","","","","false","","","","","","","","","","858.3999999761581","","386.89999997615814","","1","1","arrowleft","0","arrowright","[0.15,0.85,0.675,0.325]","","",""
"sailing-trial","232","1062311","0.0-11.0-187.0","","","","false","","","","","","","","","","null","","1086.800000011921","","2","1","null","null","arrowup","[0.15,0.85,0.675,0.325]","","",""
"sailing-trial","233","1066437","0.0-11.0-188.0","","","","false","","","","","","","","","","637.6999999880791","","331.9000000357628","","1","1","arrowleft","0","arrowright","[0.15,0.85,0.675,0.325]","","",""
"sailing-trial","234","1069195","0.0-11.0-189.0","","","","false","","","","","","","","","","null","","863.6999999880791","","0","1","null","null","arrowup","[0.15,0.85,0.675,0.325]","","",""
"sailing-trial","235","1073198","0.0-11.0-190.0","","","","false","","","","","","","","","","794","","88.39999997615814","","1","1","arrowleft","0","arrowright","[0.15,0.85,0.675,0.325]","","",""
"sailing-trial","236","1075427","0.0-11.0-191.0","","","","false","","","","","","","","","","null","","569.1999999880791","","1","1","null","null","arrowup","[0.15,0.85,0.675,0.325]","","",""
"sailing-trial","237","1078914","0.0-11.0-192.0","","","","false","","","","","","","","","","655.7000000476837","","360.39999997615814","","1","0","arrowleft","0","arrowright","[0.15,0.85,0.675,0.325]","","",""
"sailing-trial","238","1081677","0.0-11.0-193.0","","","","false","","","","","","","","","","null","","895.2000000476837","","1","1","null","null","arrowup","[0.15,0.85,0.675,0.325]","","",""
"sailing-trial","239","1086533","0.0-11.0-194.0","","","","false","","","","","","","","","","769.8999999761581","","475.69999998807907","","1","1","arrowleft","0","arrowright","[0.15,0.85,0.675,0.325]","","",""
"sailing-trial","240","1089284","0.0-11.0-195.0","","","","false","","","","","","","","","","null","","964.6999999880791","","2","0","null","null","arrowup","[0.15,0.85,0.675,0.325]","","",""
"sailing-trial","241","1092657","0.0-11.0-196.0","","","","false","","","","","","","","","","545.7000000476837","","354.30000001192093","","3","0","arrowright","1","arrowright","[0.325,0.675,0.85,0.15]","","",""
"sailing-trial","242","1095228","0.0-11.0-197.0","","","","false","","","","","","","","","","null","","760.2999999523163","","2","1","null","null","arrowup","[0.325,0.675,0.85,0.15]","","",""
"sailing-trial","243","1098441","0.0-11.0-198.0","","","","false","","","","","","","","","","636.3000000119209","","10.099999964237213","","2","0","arrowright","1","arrowleft","[0.325,0.675,0.85,0.15]","","",""
"sailing-trial","244","1100925","0.0-11.0-199.0","","","","false","","","","","","","","","","null","","689.3000000119209","","2","1","null","null","arrowup","[0.325,0.675,0.85,0.15]","","",""
"sailing-trial","245","1105529","0.0-11.0-200.0","","","","false","","","","","","","","","","543","","921.2000000476837","","2","1","arrowright","1","arrowleft","[0.325,0.675,0.85,0.15]","","",""
"sailing-trial","246","1107589","0.0-11.0-201.0","","","","false","","","","","","","","","","null","","824","","1","0","null","null","arrowup","[0.325,0.675,0.85,0.15]","","",""
"sailing-trial","247","1111221","0.0-11.0-202.0","","","","false","","","","","","","","","","782.5","","197.80000001192093","","0","0","arrowleft","0","arrowleft","[0.325,0.675,0.85,0.15]","","",""
"sailing-trial","248","1113131","0.0-11.0-203.0","","","","false","","","","","","","","","","null","","689.7000000476837","","0","0","null","null","arrowup","[0.325,0.675,0.85,0.15]","","",""
"sailing-trial","249","1117729","0.0-11.0-204.0","","","","false","","","","","","","","","","629.6999999880791","","903.9000000357628","","2","1","arrowright","1","arrowleft","[0.325,0.675,0.85,0.15]","","",""
"sailing-trial","250","1119638","0.0-11.0-205.0","","","","false","","","","","","","","","","null","","613.1999999880791","","3","0","null","null","arrowup","[0.325,0.675,0.85,0.15]","","",""
"sailing-trial","251","1123148","0.0-11.0-206.0","","","","false","","","","","","","","","","664.0999999642372","","13","","2","1","arrowright","1","arrowleft","[0.325,0.675,0.85,0.15]","","",""
"sailing-trial","252","1125757","0.0-11.0-207.0","","","","false","","","","","","","","","","null","","750","","1","1","null","null","arrowup","[0.325,0.675,0.85,0.15]","","",""
"sailing-trial","253","1129364","0.0-11.0-208.0","","","","false","","","","","","","","","","406.5","","17.5","","2","1","arrowright","1","arrowleft","[0.325,0.675,0.85,0.15]","","",""
"sailing-trial","254","1131241","0.0-11.0-209.0","","","","false","","","","","","","","","","null","","155.80000001192093","","1","1","null","null","arrowup","[0.325,0.675,0.85,0.15]","","",""
"sailing-trial","255","1135629","0.0-11.0-210.0","","","","false","","","","","","","","","","467.5","","707.3000000119209","","2","1","arrowright","1","arrowleft","[0.325,0.675,0.85,0.15]","","",""
"sailing-trial","256","1137334","0.0-11.0-211.0","","","","false","","","","","","","","","","null","","343.10000002384186","","3","0","null","null","arrowup","[0.325,0.675,0.85,0.15]","","",""
"sailing-trial","257","1141462","0.0-11.0-212.0","","","","false","","","","","","","","","","440.10000002384186","","631.6999999880791","","2","1","arrowright","1","arrowleft","[0.325,0.675,0.85,0.15]","","",""
"sailing-trial","258","1142758","0.0-11.0-213.0","","","","false","","","","","","","","","","null","","37","","0","0","null","null","arrowup","[0.325,0.675,0.85,0.15]","","",""
"sailing-trial","259","1145671","0.0-11.0-214.0","","","","false","","","","","","","","","","219.4000000357628","","148.70000004768372","","2","0","arrowright","1","arrowleft","[0.15,0.85,0.675,0.325]","","",""
"sailing-trial","260","1147691","0.0-11.0-215.0","","","","false","","","","","","","","","","null","","75.10000002384186","","2","1","null","null","arrowup","[0.15,0.85,0.675,0.325]","","",""
"sailing-trial","261","1151201","0.0-11.0-216.0","","","","false","","","","","","","","","","603.3000000119209","","308.39999997615814","","2","0","arrowright","1","arrowleft","[0.15,0.85,0.675,0.325]","","",""
"sailing-trial","262","1153824","0.0-11.0-217.0","","","","false","","","","","","","","","","null","","929.8000000119209","","3","1","null","null","arrowup","[0.15,0.85,0.675,0.325]","","",""
"sailing-trial","263","1157065","0.0-11.0-218.0","","","","false","","","","","","","","","","170.10000002384186","","107.5","","2","1","arrowright","1","arrowleft","[0.15,0.85,0.675,0.325]","","",""
"sailing-trial","264","1158999","0.0-11.0-219.0","","","","false","","","","","","","","","","null","","338.0999999642372","","1","0","null","null","arrowup","[0.15,0.85,0.675,0.325]","","",""
"sailing-trial","265","1162645","0.0-11.0-220.0","","","","false","","","","","","","","","","593.0999999642372","","138","","2","1","arrowright","1","arrowleft","[0.15,0.85,0.675,0.325]","","",""
"sailing-trial","266","1164866","0.0-11.0-221.0","","","","false","","","","","","","","","","null","","27.600000023841858","","0","0","null","null","arrowup","[0.15,0.85,0.675,0.325]","","",""
"sailing-trial","267","1167793","0.0-11.0-222.0","","","","false","","","","","","","","","","170.80000001192093","","235.5","","2","0","arrowright","1","arrowleft","[0.15,0.85,0.675,0.325]","","",""
"sailing-trial","268","1168968","0.0-11.0-223.0","","","","false","","","","","","","","","","null","","30.099999964237213","","1","0","null","null","arrowup","[0.15,0.85,0.675,0.325]","","",""
"sailing-trial","269","1172641","0.0-11.0-224.0","","","","false","","","","","","","","","","418.19999998807907","","230.70000004768372","","2","1","arrowright","1","arrowleft","[0.15,0.85,0.675,0.325]","","",""
"sailing-trial","270","1174305","0.0-11.0-225.0","","","","false","","","","","","","","","","null","","40.80000001192093","","2","1","null","null","arrowup","[0.15,0.85,0.675,0.325]","","",""
"sailing-trial","271","1178723","0.0-11.0-226.0","","","","false","","","","","","","","","","242.79999995231628","","161.80000001192093","","2","0","arrowright","1","arrowleft","[0.15,0.85,0.675,0.325]","","",""
"sailing-trial","272","1181090","0.0-11.0-227.0","","","","false","","","","","","","","","","null","","376.60000002384186","","1","1","null","null","arrowup","[0.15,0.85,0.675,0.325]","","",""
"sailing-trial","273","1184669","0.0-11.0-228.0","","","","false","","","","","","","","","","647.2000000476837","","89.90000003576279","","2","1","arrowright","1","arrowleft","[0.15,0.85,0.675,0.325]","","",""
"sailing-trial","274","1186266","0.0-11.0-229.0","","","","false","","","","","","","","","","null","","207.89999997615814","","3","0","null","null","arrowup","[0.15,0.85,0.675,0.325]","","",""
"sailing-trial","275","1190077","0.0-11.0-230.0","","","","false","","","","","","","","","","265.10000002384186","","764.5","","2","1","arrowright","1","arrowleft","[0.325,0.675,0.85,0.15]","","",""
"sailing-trial","276","1191905","0.0-11.0-231.0","","","","false","","","","","","","","","","null","","279.4000000357628","","1","1","null","null","arrowup","[0.325,0.675,0.85,0.15]","","",""
"sailing-trial","277","1195389","0.0-11.0-232.0","","","","false","","","","","","","","","","453.39999997615814","","187.69999998807907","","2","1","arrowright","1","arrowleft","[0.325,0.675,0.85,0.15]","","",""
"sailing-trial","278","1197122","0.0-11.0-233.0","","","","false","","","","","","","","","","null","","50.39999997615814","","1","1","null","null","arrowup","[0.325,0.675,0.85,0.15]","","",""
"sailing-trial","279","1199868","0.0-11.0-234.0","","","","false","","","","","","","","","","26.900000035762787","","73.39999997615814","","2","0","arrowright","1","arrowleft","[0.325,0.675,0.85,0.15]","","",""
"sailing-trial","280","1201789","0.0-11.0-235.0","","","","false","","","","","","","","","","null","","272.30000001192093","","2","1","null","null","arrowup","[0.325,0.675,0.85,0.15]","","",""
"sailing-trial","281","1205662","0.0-11.0-236.0","","","","false","","","","","","","","","","611.3999999761581","","59.80000001192093","","1","1","arrowleft","0","arrowright","[0.325,0.675,0.85,0.15]","","",""
"sailing-trial","282","1208054","0.0-11.0-237.0","","","","false","","","","","","","","","","null","","564.1999999880791","","0","1","null","null","arrowup","[0.325,0.675,0.85,0.15]","","",""
"sailing-trial","283","1211574","0.0-11.0-238.0","","","","false","","","","","","","","","","119.10000002384186","","556.1000000238419","","0","1","arrowleft","0","arrowleft","[0.325,0.675,0.85,0.15]","","",""
"sailing-trial","284","1213241","0.0-11.0-239.0","","","","false","","","","","","","","","","null","","187.5","","0","0","null","null","arrowup","[0.325,0.675,0.85,0.15]","","",""
"sailing-trial","285","1217005","0.0-11.0-240.0","","","","false","","","","","","","","","","444.5","","252.89999997615814","","1","1","arrowleft","0","arrowright","[0.325,0.675,0.85,0.15]","","",""
"sailing-trial","286","1218871","0.0-11.0-241.0","","","","false","","","","","","","","","","null","","160","","0","1","null","null","arrowup","[0.325,0.675,0.85,0.15]","","",""
"sailing-trial","287","1222222","0.0-11.0-242.0","","","","false","","","","","","","","","","653.1999999880791","","310.89999997615814","","1","0","arrowleft","0","arrowright","[0.325,0.675,0.85,0.15]","","",""
"sailing-trial","288","1224190","0.0-11.0-243.0","","","","false","","","","","","","","","","null","","855.1999999880791","","1","0","null","null","arrowup","[0.325,0.675,0.85,0.15]","","",""
"sailing-trial","289","1228218","0.0-11.0-244.0","","","","false","","","","","","","","","","243.5999999642372","","220.69999998807907","","1","1","arrowleft","0","arrowright","[0.325,0.675,0.85,0.15]","","",""
"sailing-trial","290","1230921","0.0-11.0-245.0","","","","false","","","","","","","","","","null","","943.1000000238419","","1","1","null","null","arrowup","[0.325,0.675,0.85,0.15]","","",""
"sailing-trial","291","1235876","0.0-11.0-246.0","","","","false","","","","","","","","","","499.89999997615814","","252","","1","0","arrowleft","0","arrowright","[0.325,0.675,0.85,0.15]","","",""
"sailing-trial","292","1237854","0.0-11.0-247.0","","","","false","","","","","","","","","","null","","691.8000000119209","","1","0","null","null","arrowup","[0.325,0.675,0.85,0.15]","","",""
"sailing-trial","293","1240988","0.0-11.0-248.0","","","","false","","","","","","","","","","408.30000001192093","","157","","2","0","arrowright","1","arrowleft","[0.15,0.85,0.675,0.325]","","",""
"sailing-trial","294","1242929","0.0-11.0-249.0","","","","false","","","","","","","","","","null","","34.39999997615814","","0","0","null","null","arrowup","[0.15,0.85,0.675,0.325]","","",""
"sailing-trial","295","1246823","0.0-11.0-250.0","","","","false","","","","","","","","","","1243.300000011921","","61.89999997615814","","3","0","arrowright","1","arrowright","[0.15,0.85,0.675,0.325]","","",""
"sailing-trial","296","1249536","0.0-11.0-251.0","","","","false","","","","","","","","","","null","","791.1999999880791","","2","1","null","null","arrowup","[0.15,0.85,0.675,0.325]","","",""
"sailing-trial","297","1253298","0.0-11.0-252.0","","","","false","","","","","","","","","","514","","738.6999999880791","","2","0","arrowright","1","arrowleft","[0.15,0.85,0.675,0.325]","","",""
"sailing-trial","298","1255969","0.0-11.0-253.0","","","","false","","","","","","","","","","null","","829.1999999880791","","2","1","null","null","arrowup","[0.15,0.85,0.675,0.325]","","",""
"sailing-trial","299","1259393","0.0-11.0-254.0","","","","false","","","","","","","","","","405.7000000476837","","169.10000002384186","","2","1","arrowright","1","arrowleft","[0.15,0.85,0.675,0.325]","","",""
"sailing-trial","300","1260925","0.0-11.0-255.0","","","","false","","","","","","","","","","null","","238.30000001192093","","3","0","null","null","arrowup","[0.15,0.85,0.675,0.325]","","",""
"sailing-trial","301","1265618","0.0-11.0-256.0","","","","false","","","","","","","","","","513.8000000119209","","21.600000023841858","","2","1","arrowright","1","arrowleft","[0.15,0.85,0.675,0.325]","","",""
"sailing-trial","302","1267552","0.0-11.0-257.0","","","","false","","","","","","","","","","null","","136.69999998807907","","1","1","null","null","arrowup","[0.15,0.85,0.675,0.325]","","",""
"sailing-trial","303","1270541","0.0-11.0-258.0","","","","false","","","","","","","","","","578.8000000119209","","27.30000001192093","","2","0","arrowright","1","arrowleft","[0.15,0.85,0.675,0.325]","","",""
"sailing-trial","304","1273064","0.0-11.0-259.0","","","","false","","","","","","","","","","null","","915.8999999761581","","2","0","null","null","arrowup","[0.15,0.85,0.675,0.325]","","",""
"sailing-trial","305","1275927","0.0-11.0-260.0","","","","false","","","","","","","","","","510.30000001192093","","152.5","","3","0","arrowright","1","arrowright","[0.15,0.85,0.675,0.325]","","",""
"sailing-trial","306","1278404","0.0-11.0-261.0","","","","false","","","","","","","","","","null","","439.30000001192093","","1","1","null","null","arrowup","[0.15,0.85,0.675,0.325]","","",""
"sailing-trial","307","1282191","0.0-11.0-262.0","","","","false","","","","","","","","","","336.80000001192093","","260.5999999642372","","1","1","arrowleft","0","arrowright","[0.15,0.85,0.675,0.325]","","",""
"sailing-trial","308","1283800","0.0-11.0-263.0","","","","false","","","","","","","","","","null","","250.80000001192093","","2","0","null","null","arrowup","[0.15,0.85,0.675,0.325]","","",""
"sailing-trial","309","1287242","0.0-11.0-264.0","","","","false","","","","","","","","","","575.5","","127.80000001192093","","1","1","arrowleft","0","arrowright","[0.15,0.85,0.675,0.325]","","",""
"sailing-trial","310","1289168","0.0-11.0-265.0","","","","false","","","","","","","","","","null","","51.69999998807907","","2","1","null","null","arrowup","[0.15,0.85,0.675,0.325]","","",""
"sailing-trial","311","1292391","0.0-11.0-266.0","","","","false","","","","","","","","","","34.80000001192093","","88.80000001192093","","1","1","arrowleft","0","arrowright","[0.15,0.85,0.675,0.325]","","",""
"sailing-trial","312","1294055","0.0-11.0-267.0","","","","false","","","","","","","","","","null","","199.60000002384186","","0","0","null","null","arrowup","[0.15,0.85,0.675,0.325]","","",""
"sailing-trial","313","1297389","0.0-11.0-268.0","","","","false","","","","","","","","","","385.19999998807907","","17.599999964237213","","2","1","arrowright","1","arrowleft","[0.325,0.675,0.85,0.15]","","",""
"sailing-trial","314","1299416","0.0-11.0-269.0","","","","false","","","","","","","","","","null","","141.79999995231628","","2","1","null","null","arrowup","[0.325,0.675,0.85,0.15]","","",""
"sailing-trial","315","1302512","0.0-11.0-270.0","","","","false","","","","","","","","","","416.19999998807907","","197.89999997615814","","2","0","arrowright","1","arrowleft","[0.325,0.675,0.85,0.15]","","",""
"sailing-trial","316","1304277","0.0-11.0-271.0","","","","false","","","","","","","","","","null","","597.3000000119209","","3","0","null","null","arrowup","[0.325,0.675,0.85,0.15]","","",""
"sailing-trial","317","1307936","0.0-11.0-272.0","","","","false","","","","","","","","","","332","","200","","1","1","arrowleft","0","arrowright","[0.325,0.675,0.85,0.15]","","",""
"sailing-trial","318","1309801","0.0-11.0-273.0","","","","false","","","","","","","","","","null","","620.3000000119209","","3","0","null","null","arrowup","[0.325,0.675,0.85,0.15]","","",""
"sailing-trial","319","1313398","0.0-11.0-274.0","","","","false","","","","","","","","","","331","","243.39999997615814","","1","1","arrowleft","0","arrowright","[0.325,0.675,0.85,0.15]","","",""
"sailing-trial","320","1315061","0.0-11.0-275.0","","","","false","","","","","","","","","","null","","100.90000003576279","","0","0","null","null","arrowup","[0.325,0.675,0.85,0.15]","","",""
"sailing-trial","321","1319038","0.0-11.0-276.0","","","","false","","","","","","","","","","450.69999998807907","","249.5","","2","1","arrowright","1","arrowleft","[0.325,0.675,0.85,0.15]","","",""
"sailing-trial","322","1320950","0.0-11.0-277.0","","","","false","","","","","","","","","","null","","20.799999952316284","","2","1","null","null","arrowup","[0.325,0.675,0.85,0.15]","","",""
"sailing-trial","323","1324166","0.0-11.0-278.0","","","","false","","","","","","","","","","215.5","","175.30000001192093","","2","1","arrowright","1","arrowleft","[0.325,0.675,0.85,0.15]","","",""
"sailing-trial","324","1325646","0.0-11.0-279.0","","","","false","","","","","","","","","","null","","139.19999998807907","","2","0","null","null","arrowup","[0.325,0.675,0.85,0.15]","","",""
"sailing-trial","325","1328762","0.0-11.0-280.0","","","","false","","","","","","","","","","469.19999998807907","","289.0999999642372","","2","0","arrowright","1","arrowleft","[0.325,0.675,0.85,0.15]","","",""
"sailing-trial","326","1330373","0.0-11.0-281.0","","","","false","","","","","","","","","","null","","526.7000000476837","","1","0","null","null","arrowup","[0.325,0.675,0.85,0.15]","","",""
"sailing-trial","327","1333218","0.0-11.0-282.0","","","","false","","","","","","","","","","506.2999999523163","","100.60000002384186","","2","0","arrowright","1","arrowleft","[0.325,0.675,0.85,0.15]","","",""
"sailing-trial","328","1335138","0.0-11.0-283.0","","","","false","","","","","","","","","","null","","394.60000002384186","","0","0","null","null","arrowup","[0.325,0.675,0.85,0.15]","","",""
"sailing-trial","329","1338125","0.0-11.0-284.0","","","","false","","","","","","","","","","334.9000000357628","","95.39999997615814","","1","0","arrowleft","0","arrowright","[0.15,0.85,0.675,0.325]","","",""
"sailing-trial","330","1339658","0.0-11.0-285.0","","","","false","","","","","","","","","","null","","300","","3","0","null","null","arrowup","[0.15,0.85,0.675,0.325]","","",""
"sailing-trial","331","1343452","0.0-11.0-286.0","","","","false","","","","","","","","","","561","","308.69999998807907","","3","1","arrowright","1","arrowright","[0.15,0.85,0.675,0.325]","","",""
"sailing-trial","332","1345417","0.0-11.0-287.0","","","","false","","","","","","","","","","null","","286","","1","1","null","null","arrowup","[0.15,0.85,0.675,0.325]","","",""
"sailing-trial","333","1349554","0.0-11.0-288.0","","","","false","","","","","","","","","","131","","1169.1000000238419","","3","1","arrowright","1","arrowright","[0.15,0.85,0.675,0.325]","","",""
"sailing-trial","334","1351879","0.0-11.0-289.0","","","","false","","","","","","","","","","null","","897.8000000119209","","2","0","null","null","arrowup","[0.15,0.85,0.675,0.325]","","",""
"sailing-trial","335","1355584","0.0-11.0-290.0","","","","false","","","","","","","","","","607.0999999642372","","35.799999952316284","","3","1","arrowright","1","arrowright","[0.15,0.85,0.675,0.325]","","",""
"sailing-trial","336","1357492","0.0-11.0-291.0","","","","false","","","","","","","","","","null","","345","","0","0","null","null","arrowup","[0.15,0.85,0.675,0.325]","","",""
"sailing-trial","337","1361282","0.0-11.0-292.0","","","","false","","","","","","","","","","368.19999998807907","","127","","3","1","arrowright","1","arrowright","[0.15,0.85,0.675,0.325]","","",""
"sailing-trial","338","1365900","0.0-11.0-293.0","","","","false","","","","","","","","","","null","","3429.2999999523163","","3","0","null","null","arrowup","[0.15,0.85,0.675,0.325]","","",""
"sailing-trial","339","1369580","0.0-11.0-294.0","","","","false","","","","","","","","","","629.0999999642372","","162.0999999642372","","2","1","arrowright","1","arrowleft","[0.15,0.85,0.675,0.325]","","",""
"sailing-trial","340","1371429","0.0-11.0-295.0","","","","false","","","","","","","","","","null","","523.6999999880791","","1","0","null","null","arrowup","[0.15,0.85,0.675,0.325]","","",""
"sailing-trial","341","1374401","0.0-11.0-296.0","","","","false","","","","","","","","","","370.39999997615814","","253.10000002384186","","2","0","arrowright","1","arrowleft","[0.15,0.85,0.675,0.325]","","",""
"sailing-trial","342","1376432","0.0-11.0-297.0","","","","false","","","","","","","","","","null","","405.19999998807907","","3","1","null","null","arrowup","[0.15,0.85,0.675,0.325]","","",""
"sailing-trial","343","1379484","0.0-11.0-298.0","","","","false","","","","","","","","","","219.19999998807907","","58.10000002384186","","2","1","arrowright","1","arrowleft","[0.15,0.85,0.675,0.325]","","",""
"sailing-trial","344","1381247","0.0-11.0-299.0","","","","false","","","","","","","","","","null","","4","","2","1","null","null","arrowup","[0.15,0.85,0.675,0.325]","","",""
"sailing-trial","345","1384619","0.0-11.0-300.0","","","","false","","","","","","","","","","315.30000001192093","","156.69999998807907","","2","1","arrowright","1","arrowleft","[0.15,0.85,0.675,0.325]","","",""
"sailing-trial","346","1387015","0.0-11.0-301.0","","","","false","","","","","","","","","","null","","759.1000000238419","","3","1","null","null","arrowup","[0.15,0.85,0.675,0.325]","","",""
"sailing-trial","347","1390303","0.0-11.0-302.0","","","","false","","","","","","","","","","265.9000000357628","","208.69999998807907","","2","1","arrowright","1","arrowleft","[0.15,0.85,0.675,0.325]","","",""
"sailing-trial","348","1392114","0.0-11.0-303.0","","","","false","","","","","","","","","","null","","174.0999999642372","","2","1","null","null","arrowup","[0.15,0.85,0.675,0.325]","","",""
"sailing-trial","349","1394620","0.0-11.0-304.0","","","","false","","","","","","","","","","166.89999997615814","","130.19999998807907","","2","0","arrowright","1","arrowleft","[0.15,0.85,0.675,0.325]","","",""
"sailing-trial","350","1396508","0.0-11.0-305.0","","","","false","","","","","","","","","","null","","617.8000000119209","","0","0","null","null","arrowup","[0.15,0.85,0.675,0.325]","","",""
"sailing-trial","351","1399074","0.0-11.0-306.0","","","","false","","","","","","","","","","202.0999999642372","","57","","2","0","arrowright","1","arrowleft","[0.85,0.15,0.325,0.675]","","",""
"sailing-trial","352","1400821","0.0-11.0-307.0","","","","false","","","","","","","","","","null","","261.89999997615814","","2","0","null","null","arrowup","[0.85,0.15,0.325,0.675]","","",""
"sailing-trial","353","1403794","0.0-11.0-308.0","","","","false","","","","","","","","","","245.70000004768372","","149.10000002384186","","3","0","arrowright","1","arrowright","[0.85,0.15,0.325,0.675]","","",""
"sailing-trial","354","1405930","0.0-11.0-309.0","","","","false","","","","","","","","","","null","","413.89999997615814","","3","1","null","null","arrowup","[0.85,0.15,0.325,0.675]","","",""
"sailing-trial","355","1409172","0.0-11.0-310.0","","","","false","","","","","","","","","","256.2000000476837","","78.5","","3","1","arrowright","1","arrowright","[0.85,0.15,0.325,0.675]","","",""
"sailing-trial","356","1410546","0.0-11.0-311.0","","","","false","","","","","","","","","","null","","188.60000002384186","","2","0","null","null","arrowup","[0.85,0.15,0.325,0.675]","","",""
"sailing-trial","357","1413867","0.0-11.0-312.0","","","","false","","","","","","","","","","272.30000001192093","","30.19999998807907","","3","1","arrowright","1","arrowright","[0.85,0.15,0.325,0.675]","","",""
"sailing-trial","358","1415385","0.0-11.0-313.0","","","","false","","","","","","","","","","null","","296","","3","0","null","null","arrowup","[0.85,0.15,0.325,0.675]","","",""
"sailing-trial","359","1421396","0.0-11.0-314.0","","","","false","","","","","","","","","","3106.199999988079","","43.19999998807907","","3","1","arrowright","1","arrowright","[0.85,0.15,0.325,0.675]","","",""
"sailing-trial","360","1423379","0.0-11.0-315.0","","","","false","","","","","","","","","","null","","254.5","","0","1","null","null","arrowup","[0.85,0.15,0.325,0.675]","","",""
"sailing-trial","361","1426817","0.0-11.0-316.0","","","","false","","","","","","","","","","386.10000002384186","","103.69999998807907","","3","1","arrowright","1","arrowright","[0.85,0.15,0.325,0.675]","","",""
"sailing-trial","362","1428696","0.0-11.0-317.0","","","","false","","","","","","","","","","null","","36.200000047683716","","3","1","null","null","arrowup","[0.85,0.15,0.325,0.675]","","",""
"sailing-trial","363","1431776","0.0-11.0-318.0","","","","false","","","","","","","","","","17.600000023841858","","348.10000002384186","","3","0","arrowright","1","arrowright","[0.85,0.15,0.325,0.675]","","",""
"sailing-trial","364","1434579","0.0-11.0-319.0","","","","false","","","","","","","","","","null","","1139.1000000238419","","0","1","null","null","arrowup","[0.85,0.15,0.325,0.675]","","",""
"sailing-trial","365","1438114","0.0-11.0-320.0","","","","false","","","","","","","","","","544","","187.9000000357628","","0","1","arrowleft","0","arrowleft","[0.85,0.15,0.325,0.675]","","",""
"sailing-trial","366","1439781","0.0-11.0-321.0","","","","false","","","","","","","","","","null","","149.10000002384186","","2","0","null","null","arrowup","[0.85,0.15,0.325,0.675]","","",""
"sailing-trial","367","1443382","0.0-11.0-322.0","","","","false","","","","","","","","","","356.2000000476837","","187.69999998807907","","0","1","arrowleft","0","arrowleft","[0.85,0.15,0.325,0.675]","","",""
"sailing-trial","368","1445261","0.0-11.0-323.0","","","","false","","","","","","","","","","null","","219.5","","1","1","null","null","arrowup","[0.85,0.15,0.325,0.675]","","",""
"sailing-trial","369","1448180","0.0-11.0-324.0","","","","false","","","","","","","","","","66","","108.59999996423721","","0","1","arrowleft","0","arrowleft","[0.85,0.15,0.325,0.675]","","",""
"sailing-trial","370","1450527","0.0-11.0-325.0","","","","false","","","","","","","","","","null","","145.89999997615814","","3","1","null","null","arrowup","[0.85,0.15,0.325,0.675]","","",""
"sailing-trial","371","1453816","0.0-11.0-326.0","","","","false","","","","","","","","","","258.60000002384186","","47.10000002384186","","0","1","arrowleft","0","arrowleft","[0.85,0.15,0.325,0.675]","","",""
"sailing-trial","372","1455794","0.0-11.0-327.0","","","","false","","","","","","","","","","null","","162.5","","3","1","null","null","arrowup","[0.85,0.15,0.325,0.675]","","",""
"sailing-trial","373","1459279","0.0-11.0-328.0","","","","false","","","","","","","","","","343.69999998807907","","231.5","","0","1","arrowleft","0","arrowleft","[0.675,0.325,0.15,0.85]","","",""
"sailing-trial","374","1461146","0.0-11.0-329.0","","","","false","","","","","","","","","","null","","161.19999998807907","","3","1","null","null","arrowup","[0.675,0.325,0.15,0.85]","","",""
"sailing-trial","375","1464251","0.0-11.0-330.0","","","","false","","","","","","","","","","47.60000002384186","","177.10000002384186","","0","1","arrowleft","0","arrowleft","[0.675,0.325,0.15,0.85]","","",""
"sailing-trial","376","1466995","0.0-11.0-331.0","","","","false","","","","","","","","","","null","","971.9000000357628","","3","1","null","null","arrowup","[0.675,0.325,0.15,0.85]","","",""
"sailing-trial","377","1470447","0.0-11.0-332.0","","","","false","","","","","","","","","","326.19999998807907","","108.59999996423721","","0","1","arrowleft","0","arrowleft","[0.675,0.325,0.15,0.85]","","",""
"sailing-trial","378","1473161","0.0-11.0-333.0","","","","false","","","","","","","","","","null","","0","","3","1","null","null","arrowup","[0.675,0.325,0.15,0.85]","","",""
"sailing-trial","379","1475869","0.0-11.0-334.0","","","","false","","","","","","","","","","189","","215.30000001192093","","0","0","arrowleft","0","arrowleft","[0.675,0.325,0.15,0.85]","","",""
"sailing-trial","380","1477755","0.0-11.0-335.0","","","","false","","","","","","","","","","null","","783.3999999761581","","0","0","null","null","arrowup","[0.675,0.325,0.15,0.85]","","",""
"sailing-trial","381","1480673","0.0-11.0-336.0","","","","false","","","","","","","","","","387.10000002384186","","308","","2","0","arrowright","1","arrowleft","[0.675,0.325,0.15,0.85]","","",""
"sailing-trial","382","1482385","0.0-11.0-337.0","","","","false","","","","","","","","","","null","","699.5","","2","0","null","null","arrowup","[0.675,0.325,0.15,0.85]","","",""
"sailing-trial","383","1486165","0.0-11.0-338.0","","","","false","","","","","","","","","","274.80000001192093","","58.10000002384186","","3","1","arrowright","1","arrowright","[0.675,0.325,0.15,0.85]","","",""
"sailing-trial","384","1487909","0.0-11.0-339.0","","","","false","","","","","","","","","","null","","158.5","","0","1","null","null","arrowup","[0.675,0.325,0.15,0.85]","","",""
"sailing-trial","385","1491211","0.0-11.0-340.0","","","","false","","","","","","","","","","81.5","","142.89999997615814","","3","1","arrowright","1","arrowright","[0.675,0.325,0.15,0.85]","","",""
"sailing-trial","386","1493060","0.0-11.0-341.0","","","","false","","","","","","","","","","null","","90.5","","0","1","null","null","arrowup","[0.675,0.325,0.15,0.85]","","",""
"sailing-trial","387","1495970","0.0-11.0-342.0","","","","false","","","","","","","","","","33.10000002384186","","20.30000001192093","","3","1","arrowright","1","arrowright","[0.675,0.325,0.15,0.85]","","",""
"sailing-trial","388","1497290","0.0-11.0-343.0","","","","false","","","","","","","","","","null","","145.89999997615814","","0","0","null","null","arrowup","[0.675,0.325,0.15,0.85]","","",""
"sailing-trial","389","1500576","0.0-11.0-344.0","","","","false","","","","","","","","","","320.19999998807907","","147.60000002384186","","3","1","arrowright","1","arrowright","[0.675,0.325,0.15,0.85]","","",""
"sailing-trial","390","1502492","0.0-11.0-345.0","","","","false","","","","","","","","","","null","","181.70000004768372","","3","1","null","null","arrowup","[0.675,0.325,0.15,0.85]","","",""
"sailing-trial","391","1505860","0.0-11.0-346.0","","","","false","","","","","","","","","","178.30000001192093","","122.5","","3","1","arrowright","1","arrowright","[0.85,0.15,0.325,0.675]","","",""
"sailing-trial","392","1507123","0.0-11.0-347.0","","","","false","","","","","","","","","","null","","84.5","","1","0","null","null","arrowup","[0.85,0.15,0.325,0.675]","","",""
"sailing-trial","393","1509720","0.0-11.0-348.0","","","","false","","","","","","","","","","113.69999998807907","","90","","3","0","arrowright","1","arrowright","[0.85,0.15,0.325,0.675]","","",""
"sailing-trial","394","1510976","0.0-11.0-349.0","","","","false","","","","","","","","","","null","","126","","3","0","null","null","arrowup","[0.85,0.15,0.325,0.675]","","",""
"sailing-trial","395","1513702","0.0-11.0-350.0","","","","false","","","","","","","","","","282.2999999523163","","85.80000001192093","","2","0","arrowright","1","arrowleft","[0.85,0.15,0.325,0.675]","","",""
"sailing-trial","396","1516358","0.0-11.0-351.0","","","","false","","","","","","","","","","null","","861.0999999642372","","0","1","null","null","arrowup","[0.85,0.15,0.325,0.675]","","",""
"sailing-trial","397","1519819","0.0-11.0-352.0","","","","false","","","","","","","","","","297.39999997615814","","26.899999976158142","","0","1","arrowleft","0","arrowleft","[0.85,0.15,0.325,0.675]","","",""
"sailing-trial","398","1521707","0.0-11.0-353.0","","","","false","","","","","","","","","","null","","21","","0","1","null","null","arrowup","[0.85,0.15,0.325,0.675]","","",""
"sailing-trial","399","1524795","0.0-11.0-354.0","","","","false","","","","","","","","","","102.39999997615814","","62.19999998807907","","0","1","arrowleft","0","arrowleft","[0.85,0.15,0.325,0.675]","","",""
"sailing-trial","400","1526262","0.0-11.0-355.0","","","","false","","","","","","","","","","null","","22.69999998807907","","2","0","null","null","arrowup","[0.85,0.15,0.325,0.675]","","",""
"sailing-trial","401","1529074","0.0-11.0-356.0","","","","false","","","","","","","","","","471.69999998807907","","104.10000002384186","","0","0","arrowleft","0","arrowleft","[0.85,0.15,0.325,0.675]","","",""
"sailing-trial","402","1531258","0.0-11.0-357.0","","","","false","","","","","","","","","","null","","397.10000002384186","","1","1","null","null","arrowup","[0.85,0.15,0.325,0.675]","","",""
"sailing-trial","403","1534578","0.0-11.0-358.0","","","","false","","","","","","","","","","85.19999998807907","","407.4000000357628","","0","1","arrowleft","0","arrowleft","[0.85,0.15,0.325,0.675]","","",""
"sailing-trial","404","1536394","0.0-11.0-359.0","","","","false","","","","","","","","","","null","","144.79999995231628","","3","0","null","null","arrowup","[0.85,0.15,0.325,0.675]","","",""
"sailing-trial","405","1539156","0.0-11.0-360.0","","","","false","","","","","","","","","","397.5","","78.69999998807907","","0","0","arrowleft","0","arrowleft","[0.85,0.15,0.325,0.675]","","",""
"sailing-trial","406","1541524","0.0-11.0-361.0","","","","false","","","","","","","","","","null","","667","","3","1","null","null","arrowup","[0.85,0.15,0.325,0.675]","","",""
"sailing-trial","407","1544427","0.0-11.0-362.0","","","","false","","","","","","","","","","33.30000001192093","","106.59999996423721","","1","1","arrowleft","0","arrowright","[0.85,0.15,0.325,0.675]","","",""
"sailing-trial","408","1545662","0.0-11.0-363.0","","","","false","","","","","","","","","","null","","202.20000004768372","","3","0","null","null","arrowup","[0.85,0.15,0.325,0.675]","","",""
"sailing-trial","409","1548924","0.0-11.0-364.0","","","","false","","","","","","","","","","659.3999999761581","","104.69999998807907","","2","0","arrowright","1","arrowleft","[0.85,0.15,0.325,0.675]","","",""
"sailing-trial","410","1550773","0.0-11.0-365.0","","","","false","","","","","","","","","","null","","691.5","","3","0","null","null","arrowup","[0.85,0.15,0.325,0.675]","","",""
"sailing-trial","411","1553984","0.0-11.0-366.0","","","","false","","","","","","","","","","423.89999997615814","","235.39999997615814","","1","0","arrowleft","0","arrowright","[0.675,0.325,0.15,0.85]","","",""
"sailing-trial","412","1556557","0.0-11.0-367.0","","","","false","","","","","","","","","","null","","808.8999999761581","","3","1","null","null","arrowup","[0.675,0.325,0.15,0.85]","","",""
"sailing-trial","413","1560112","0.0-11.0-368.0","","","","false","","","","","","","","","","515.1000000238419","","230.80000001192093","","0","1","arrowleft","0","arrowleft","[0.675,0.325,0.15,0.85]","","",""
"sailing-trial","414","1562040","0.0-11.0-369.0","","","","false","","","","","","","","","","null","","384.69999998807907","","2","1","null","null","arrowup","[0.675,0.325,0.15,0.85]","","",""
"sailing-trial","415","1565461","0.0-11.0-370.0","","","","false","","","","","","","","","","398.5999999642372","","87.89999997615814","","0","1","arrowleft","0","arrowleft","[0.675,0.325,0.15,0.85]","","",""
"sailing-trial","416","1567373","0.0-11.0-371.0","","","","false","","","","","","","","","","null","","31.69999998807907","","1","1","null","null","arrowup","[0.675,0.325,0.15,0.85]","","",""
"sailing-trial","417","1570642","0.0-11.0-372.0","","","","false","","","","","","","","","","354.0999999642372","","116.5","","0","1","arrowleft","0","arrowleft","[0.675,0.325,0.15,0.85]","","",""
"sailing-trial","418","1572755","0.0-11.0-373.0","","","","false","","","","","","","","","","null","","449.19999998807907","","3","1","null","null","arrowup","[0.675,0.325,0.15,0.85]","","",""
"sailing-trial","419","1576004","0.0-11.0-374.0","","","","false","","","","","","","","","","227.39999997615814","","114.30000001192093","","0","1","arrowleft","0","arrowleft","[0.675,0.325,0.15,0.85]","","",""
"sailing-trial","420","1578068","0.0-11.0-375.0","","","","false","","","","","","","","","","null","","768.5","","2","0","null","null","arrowup","[0.675,0.325,0.15,0.85]","","",""
"sailing-trial","421","1581526","0.0-11.0-376.0","","","","false","","","","","","","","","","558.3000000119209","","48.39999997615814","","0","1","arrowleft","0","arrowleft","[0.675,0.325,0.15,0.85]","","",""
"sailing-trial","422","1583339","0.0-11.0-377.0","","","","false","","","","","","","","","","null","","156","","1","1","null","null","arrowup","[0.675,0.325,0.15,0.85]","","",""
"sailing-trial","423","1586808","0.0-11.0-378.0","","","","false","","","","","","","","","","503","","27.80000001192093","","0","1","arrowleft","0","arrowleft","[0.675,0.325,0.15,0.85]","","",""
"sailing-trial","424","1588805","0.0-11.0-379.0","","","","false","","","","","","","","","","null","","149.9000000357628","","2","1","null","null","arrowup","[0.675,0.325,0.15,0.85]","","",""
"sailing-trial","425","1592076","0.0-11.0-380.0","","","","false","","","","","","","","","","314.7000000476837","","40.10000002384186","","0","1","arrowleft","0","arrowleft","[0.675,0.325,0.15,0.85]","","",""
"sailing-trial","426","1594022","0.0-11.0-381.0","","","","false","","","","","","","","","","null","","262","","3","1","null","null","arrowup","[0.675,0.325,0.15,0.85]","","",""
"sailing-trial","427","1597016","0.0-11.0-382.0","","","","false","","","","","","","","","","199.4000000357628","","22.399999976158142","","0","1","arrowleft","0","arrowleft","[0.85,0.15,0.325,0.675]","","",""
"sailing-trial","428","1598857","0.0-11.0-383.0","","","","false","","","","","","","","","","null","","258","","1","1","null","null","arrowup","[0.85,0.15,0.325,0.675]","","",""
"sailing-trial","429","1602167","0.0-11.0-384.0","","","","false","","","","","","","","","","187.89999997615814","","176.60000002384186","","0","1","arrowleft","0","arrowleft","[0.85,0.15,0.325,0.675]","","",""
"sailing-trial","430","1603871","0.0-11.0-385.0","","","","false","","","","","","","","","","null","","116.69999998807907","","0","1","null","null","arrowup","[0.85,0.15,0.325,0.675]","","",""
"sailing-trial","431","1606907","0.0-11.0-386.0","","","","false","","","","","","","","","","112.19999998807907","","21.399999976158142","","0","1","arrowleft","0","arrowleft","[0.85,0.15,0.325,0.675]","","",""
"sailing-trial","432","1608822","0.0-11.0-387.0","","","","false","","","","","","","","","","null","","221.19999998807907","","3","1","null","null","arrowup","[0.85,0.15,0.325,0.675]","","",""
"sailing-trial","433","1611801","0.0-11.0-388.0","","","","false","","","","","","","","","","57.40000003576279","","170.0999999642372","","0","1","arrowleft","0","arrowleft","[0.85,0.15,0.325,0.675]","","",""
"sailing-trial","434","1613799","0.0-11.0-389.0","","","","false","","","","","","","","","","null","","236.69999998807907","","0","0","null","null","arrowup","[0.85,0.15,0.325,0.675]","","",""
"sailing-trial","435","1618737","0.0-11.0-390.0","","","","false","","","","","","","","","","841.0999999642372","","1314.5999999642372","","0","1","arrowleft","0","arrowleft","[0.85,0.15,0.325,0.675]","","",""
"sailing-trial","436","1620098","0.0-11.0-391.0","","","","false","","","","","","","","","","null","","149.10000002384186","","1","0","null","null","arrowup","[0.85,0.15,0.325,0.675]","","",""
"sailing-trial","437","1623344","0.0-11.0-392.0","","","","false","","","","","","","","","","418.60000002384186","","30.80000001192093","","0","1","arrowleft","0","arrowleft","[0.85,0.15,0.325,0.675]","","",""
"sailing-trial","438","1625236","0.0-11.0-393.0","","","","false","","","","","","","","","","null","","148.5","","3","1","null","null","arrowup","[0.85,0.15,0.325,0.675]","","",""
"sailing-trial","439","1628242","0.0-11.0-394.0","","","","false","","","","","","","","","","141.69999998807907","","35.39999997615814","","0","1","arrowleft","0","arrowleft","[0.85,0.15,0.325,0.675]","","",""
"sailing-trial","440","1630187","0.0-11.0-395.0","","","","false","","","","","","","","","","null","","155.5","","1","1","null","null","arrowup","[0.85,0.15,0.325,0.675]","","",""
"sailing-trial","441","1633903","0.0-11.0-396.0","","","","false","","","","","","","","","","78","","866.1000000238419","","0","1","arrowleft","0","arrowleft","[0.85,0.15,0.325,0.675]","","",""
"sailing-trial","442","1635736","0.0-11.0-397.0","","","","false","","","","","","","","","","null","","26.19999998807907","","2","1","null","null","arrowup","[0.85,0.15,0.325,0.675]","","",""
"sailing-trial","443","1639951","0.0-11.0-398.0","","","","false","","","","","","","","","","217.60000002384186","","79","","0","1","arrowleft","0","arrowleft","[0.85,0.15,0.325,0.675]","","",""
"sailing-trial","444","1642154","0.0-11.0-399.0","","","","false","","","","","","","","","","null","","203.5","","1","1","null","null","arrowup","[0.85,0.15,0.325,0.675]","","",""
"instructions","445","1645376","0.0-12.0","","","","","","","","","","3221.599999964237","","","","","","","","","","","","","","","","[{""page_index"":0,""viewing_time"":3221.099999964237}]"
"survey-debrief","446","1664449","0.0-13.0","","","","","","","","","","19069.099999964237","","","","","","","","","","","","","","{""difficulty"":""4"",""fun"":""2"",""clarity"":""5"",""strategy"":""spam keys to make it go faster"",""feedback"":""""}","",""
