"trial_type","trial_index","time_elapsed","internal_node_id","value","metadata","success","timeout","failed_images","failed_audio","failed_video","browser_interaction","low_quality","rt","stimulus","response","button_pressed","island_rt","island_response","boat_rt","boat_response","boat","reward","island_key","island","boat_key","reward_probabilities","responses","num_errors","view_history"
"pavlovia","0","7","0.0-0.0","","","","","","","","","","","","","","","","","","","","","","","","","",""
"call-function","1","8","0.0-1.0","","{""task_version"":""sr_pilot_v2"",""task_condition"":""good"",""boats"":[""D"",""C"",""A"",""B""],""boats_demo"":[""E"",""H"",""F"",""G""],""islands"":[""A"",""B""],""subject_id"":""13982"",""age"":""19"",""gender"":""Female""}","","","","","","","","","","","","","","","","","","","","","","","",""
"preload","2","4148","0.0-2.0","","","true","false","[]","[]","[]","[{""event"":""focus"",""trial"":3,""time"":154964},{""event"":""fullscreenenter"",""trial"":3,""time"":156245}]","false","","","","","","","","","","","","","","","","",""
"fullscreen","3","157227","0.0-3.0","","","true","","","","","","","","","","","","","","","","","","","","","","",""
"audio-keyboard-response","4","161017","0.0-4.0-0.0","","","","","","","","","","3297.233560090703","audio/beep_loop.wav"," ","","","","","","","","","","","","","",""
"audio-test","5","166187","0.0-4.0-1.0","","","","","","","","","","null","audio/turtle.mp3","","3","","","","","","","","","","","","",""
"audio-test","6","168784","0.0-4.0-2.0","","","","","","","","","","null","audio/shark.mp3","","2","","","","","","","","","","","","",""
"sailing-instructions","7","200405","0.0-5.0-0.0-0.0","","","","","","","","","","","","","","null","null","null","null","null","null","","","","","","",""
"sailing-trial","8","204160","0.0-5.0-0.0-1.0-0.0","","","","false","","","","","","","","","","2640.199999999255","","null","","null","null","arrowleft","0","null","null","","",""
"sailing-trial","9","206914","0.0-5.0-0.0-1.0-1.0","","","","false","","","","","","","","","","1630.800000000745","","null","","null","null","arrowright","1","null","null","","",""
"sailing-trial","10","210645","0.0-5.0-0.0-1.0-2.0","","","","false","","","","","","","","","","2617.7999999970198","","null","","null","null","arrowleft","0","null","null","","",""
"sailing-instructions","11","251531","0.0-5.0-0.0-2.0","","","","","","","","","","","","","","null","null","null","null","0","null","","","","","","",""
"sailing-trial","12","257666","0.0-5.0-0.0-3.0-0.0","","","","false","","","","","","","","","","null","","1871.699999999255","","2","1","null","null","arrowleft","[1,1,1,1]","","",""
"sailing-trial","13","262317","0.0-5.0-0.0-3.0-1.0","","","","false","","","","","","","","","","null","","1199.699999999255","","3","1","null","null","arrowright","[1,1,1,1]","","",""
"sailing-trial","14","267179","0.0-5.0-0.0-3.0-2.0","","","","false","","","","","","","","","","null","","1399.0999999977648","","3","0","null","null","arrowright","[0,0,0,0]","","",""
"sailing-instructions","15","275261","0.0-5.0-0.0-4.0","","","","","","","","","","","","","","null","null","null","null","null","null","","","","","","",""
"sailing-comprehension","16","359415","0.0-5.0-0.0-5.0","","","","","","","","","","81208.10000000149","","","","","","","","","","","","","","[""true"",""true"",""false"",""true""]","0",""
"sailing-instructions","17","422664","0.0-6.0-0.0-0.0","","","","","","","","","","","","","","null","null","null","null","null","null","","","","","","",""
"sailing-comprehension","18","432429","0.0-6.0-0.0-1.0","","","","","","","","","","8587.400000002235","","","","","","","","","","","","","","[""true"",""false"",""true""]","0",""
"sailing-instructions","19","447617","0.0-7.0-0.0-0.0","","","","","","","","","","","","","","null","null","null","null","null","null","","","","","","",""
"sailing-trial","20","453761","0.0-7.0-0.0-1.0-0.0","","","","false","","","","","","","","","","null","","3099.300000000745","","0","0","null","null","arrowup","[0.2,0.8,0.2,0.8]","","",""
"sailing-trial","21","459300","0.0-7.0-0.0-1.0-1.0","","","","false","","","","","","","","","","null","","2664.599999997765","","1","1","null","null","arrowup","[0.2,0.8,0.2,0.8]","","",""
"sailing-trial","22","464250","0.0-7.0-0.0-1.0-2.0","","","","false","","","","","","","","","","null","","2320.39999999851","","2","0","null","null","arrowup","[0.2,0.8,0.2,0.8]","","",""
"sailing-trial","23","468520","0.0-7.0-0.0-1.0-3.0","","","","false","","","","","","","","","","null","","1671.1000000014901","","3","1","null","null","arrowup","[0.2,0.8,0.2,0.8]","","",""
"sailing-comprehension","24","476375","0.0-7.0-0.0-2.0","","","","","","","","","","6195.29999999702","","","","","","","","","","","","","","[""false""]","0",""
"sailing-instructions","25","488246","0.0-8.0-0.0-0.0","","","","","","","","","","","","","","null","null","null","null","null","null","","","","","","",""
"sailing-comprehension","26","495255","0.0-8.0-0.0-1.0","","","","","","","","[{""event"":""focus"",""trial"":3,""time"":154964},{""event"":""fullscreenenter"",""trial"":3,""time"":156245},{""event"":""fullscreenexit"",""trial"":27,""time"":519799},{""event"":""blur"",""trial"":27,""time"":588314},{""event"":""focus"",""trial"":27,""time"":594907}]","false","3173","","","","","","","","","","","","","","[""true""]","0",""
"sailing-instructions","27","603454","0.0-9.0-0.0-0.0","","","","","","","","","","","","","","null","null","null","null","null","null","","","","","","",""
"sailing-trial","28","619728","0.0-9.0-0.0-1.0-0.0","","","","true","","","","","","","","","","1259.7999999970198","","null","","null","null","arrowright","1","null","[0.2,0.8,0.2,0.8]","","",""
"sailing-trial","29","625778","0.0-9.0-0.0-1.0-1.0","","","","false","","","","","","","","","","1505.8999999985099","","906.6000000014901","","2","0","arrowright","1","arrowleft","[0.2,0.8,0.2,0.8]","","",""
"sailing-trial","30","630293","0.0-9.0-0.0-1.0-2.0","","","","false","","","","","","","","","","null","","2315.300000000745","","0","0","null","null","arrowup","[0.2,0.8,0.2,0.8]","","",""
"sailing-trial","31","635492","0.0-9.0-0.0-1.0-3.0","","","","false","","","","","","","","","","1351","","464.19999999925494","","1","0","arrowleft","0","arrowright","[0.2,0.8,0.2,0.8]","","",""
"sailing-trial","32","639616","0.0-9.0-0.0-1.0-4.0","","","","false","","","","","","","","","","null","","1540","","3","1","null","null","arrowup","[0.2,0.8,0.2,0.8]","","",""
"sailing-trial","33","645658","0.0-9.0-0.0-1.0-5.0","","","","false","","","","","","","","","","1665.300000000745","","1099.800000000745","","0","0","arrowleft","0","arrowleft","[0.2,0.8,0.2,0.8]","","",""
"sailing-instructions","34","675867","0.0-10.0","","","","","","","","","","","","","","null","null","null","null","null","null","","","","","","",""
"sailing-trial","35","680315","0.0-11.0-0.0","","","","false","","","","","","","","","","1924.2000000029802","","626.3000000007451","","0","0","arrowleft","0","arrowleft","[0.325,0.675,0.85,0.15]","","",""
"sailing-trial","36","684214","0.0-11.0-1.0","","","","false","","","","","","","","","","null","","1688.5","","1","1","null","null","arrowup","[0.325,0.675,0.85,0.15]","","",""
"sailing-trial","37","690131","0.0-11.0-2.0","","","","false","","","","","","","","","","1239.5999999977648","","1289","","0","1","arrowleft","0","arrowleft","[0.325,0.675,0.85,0.15]","","",""
"sailing-trial","38","692706","0.0-11.0-3.0","","","","false","","","","","","","","","","null","","876.1000000014901","","1","0","null","null","arrowup","[0.325,0.675,0.85,0.15]","","",""
"sailing-trial","39","698515","0.0-11.0-4.0","","","","false","","","","","","","","","","847.6999999992549","","1220.4000000022352","","2","1","arrowright","1","arrowleft","[0.325,0.675,0.85,0.15]","","",""
"sailing-trial","40","701751","0.0-11.0-5.0","","","","false","","","","","","","","","","null","","1238.0999999977648","","0","0","null","null","arrowup","[0.325,0.675,0.85,0.15]","","",""
"sailing-trial","41","706870","0.0-11.0-6.0","","","","false","","","","","","","","","","1519.8999999985099","","178.10000000149012","","3","1","arrowright","1","arrowright","[0.325,0.675,0.85,0.15]","","",""
"sailing-trial","42","710652","0.0-11.0-7.0","","","","false","","","","","","","","","","null","","2197.5","","3","0","null","null","arrowup","[0.325,0.675,0.85,0.15]","","",""
"sailing-trial","43","715792","0.0-11.0-8.0","","","","false","","","","","","","","","","1170.800000000745","","440.29999999701977","","1","1","arrowleft","0","arrowright","[0.325,0.675,0.85,0.15]","","",""
"sailing-trial","44","718973","0.0-11.0-9.0","","","","false","","","","","","","","","","null","","1044.8999999985099","","0","1","null","null","arrowup","[0.325,0.675,0.85,0.15]","","",""
"sailing-trial","45","723808","0.0-11.0-10.0","","","","false","","","","","","","","","","1206.2999999970198","","64.80000000074506","","0","1","arrowleft","0","arrowleft","[0.325,0.675,0.85,0.15]","","",""
"sailing-trial","46","726551","0.0-11.0-11.0","","","","false","","","","","","","","","","null","","1209.0999999977648","","3","0","null","null","arrowup","[0.325,0.675,0.85,0.15]","","",""
"sailing-trial","47","731413","0.0-11.0-12.0","","","","false","","","","","","","","","","797.5999999977648","","312.6000000014901","","2","1","arrowright","1","arrowleft","[0.325,0.675,0.85,0.15]","","",""
"sailing-trial","48","734600","0.0-11.0-13.0","","","","false","","","","","","","","","","null","","1274","","2","0","null","null","arrowup","[0.325,0.675,0.85,0.15]","","",""
"sailing-trial","49","740047","0.0-11.0-14.0","","","","false","","","","","","","","","","1497.199999999255","","594.6000000014901","","1","1","arrowleft","0","arrowright","[0.325,0.675,0.85,0.15]","","",""
"sailing-trial","50","742814","0.0-11.0-15.0","","","","false","","","","","","","","","","null","","901.1000000014901","","2","1","null","null","arrowup","[0.325,0.675,0.85,0.15]","","",""
"sailing-trial","51","746968","0.0-11.0-16.0","","","","false","","","","","","","","","","696.6999999992549","","346.79999999701977","","0","0","arrowleft","0","arrowleft","[0.325,0.675,0.85,0.15]","","",""
"sailing-trial","52","750975","0.0-11.0-17.0","","","","false","","","","","","","","","","null","","1001.8000000007451","","0","0","null","null","arrowup","[0.325,0.675,0.85,0.15]","","",""
"sailing-trial","53","755193","0.0-11.0-18.0","","","","false","","","","","","","","","","684.5","","209.09999999776483","","1","1","arrowleft","0","arrowright","[0.325,0.675,0.85,0.15]","","",""
"sailing-trial","54","758464","0.0-11.0-19.0","","","","false","","","","","","","","","","null","","1337.6000000014901","","0","1","null","null","arrowup","[0.325,0.675,0.85,0.15]","","",""
"sailing-trial","55","765857","0.0-11.0-20.0","","","","false","","","","","","","","","","704.6999999992549","","2877.60000000149","","1","1","arrowleft","0","arrowright","[0.325,0.675,0.85,0.15]","","",""
"sailing-trial","56","770294","0.0-11.0-21.0","","","","false","","","","","","","","","","null","","2527.10000000149","","1","1","null","null","arrowup","[0.325,0.675,0.85,0.15]","","",""
"sailing-trial","57","774643","0.0-11.0-22.0","","","","false","","","","","","","","","","606","","730.1000000014901","","1","0","arrowleft","0","arrowright","[0.325,0.675,0.85,0.15]","","",""
"sailing-trial","58","778455","0.0-11.0-23.0","","","","false","","","","","","","","","","null","","787.8999999985099","","0","0","null","null","arrowup","[0.325,0.675,0.85,0.15]","","",""
"sailing-trial","59","783472","0.0-11.0-24.0","","","","false","","","","","","","","","","926","","609.6999999992549","","0","1","arrowleft","0","arrowleft","[0.15,0.85,0.675,0.325]","","",""
"sailing-trial","60","787303","0.0-11.0-25.0","","","","false","","","","","","","","","","null","","1780","","1","1","null","null","arrowup","[0.15,0.85,0.675,0.325]","","",""
"sailing-trial","61","794267","0.0-11.0-26.0","","","","false","","","","","","","","","","2609.800000000745","","772.1999999992549","","2","1","arrowright","1","arrowleft","[0.15,0.85,0.675,0.325]","","",""
"sailing-trial","62","797358","0.0-11.0-27.0","","","","false","","","","","","","","","","null","","1098.5","","1","1","null","null","arrowup","[0.15,0.85,0.675,0.325]","","",""
"sailing-trial","63","802918","0.0-11.0-28.0","","","","false","","","","","","","","","","1030.199999999255","","441.30000000074506","","3","0","arrowright","1","arrowright","[0.15,0.85,0.675,0.325]","","",""
"sailing-trial","64","805951","0.0-11.0-29.0","","","","false","","","","","","","","","","null","","942.0999999977648","","1","1","null","null","arrowup","[0.15,0.85,0.675,0.325]","","",""
"sailing-trial","65","811944","0.0-11.0-30.0","","","","false","","","","","","","","","","988.9000000022352","","835.5","","2","0","arrowright","1","arrowleft","[0.15,0.85,0.675,0.325]","","",""
"sailing-trial","66","815310","0.0-11.0-31.0","","","","false","","","","","","","","","","null","","1740.199999999255","","3","0","null","null","arrowup","[0.15,0.85,0.675,0.325]","","",""
"sailing-trial","67","820867","0.0-11.0-32.0","","","","false","","","","[{""event"":""focus"",""trial"":3,""time"":154964},{""event"":""fullscreenenter"",""trial"":3,""time"":156245},{""event"":""fullscreenexit"",""trial"":27,""time"":519799},{""event"":""blur"",""trial"":27,""time"":588314},{""event"":""focus"",""trial"":27,""time"":594907},{""event"":""blur"",""trial"":68,""time"":823456},{""event"":""focus"",""trial"":68,""time"":823726}]","false","","","","","1318.800000000745","","525.6000000014901","","1","1","arrowleft","0","arrowright","[0.15,0.85,0.675,0.325]","","",""
"sailing-trial","68","823933","0.0-11.0-33.0","","","","false","","","","","","","","","","null","","1079.7000000029802","","1","1","null","null","arrowup","[0.15,0.85,0.675,0.325]","","",""
"sailing-trial","69","828907","0.0-11.0-34.0","","","","false","","","","","","","","","","747","","594.8000000007451","","1","1","arrowleft","0","arrowright","[0.15,0.85,0.675,0.325]","","",""
"sailing-trial","70","831222","0.0-11.0-35.0","","","","false","","","","","","","","","","null","","784.1000000014901","","0","0","null","null","arrowup","[0.15,0.85,0.675,0.325]","","",""
"sailing-trial","71","836180","0.0-11.0-36.0","","","","false","","","","","","","","","","869.1999999992549","","755.9000000022352","","1","1","arrowleft","0","arrowright","[0.15,0.85,0.675,0.325]","","",""
"sailing-trial","72","838069","0.0-11.0-37.0","","","","false","","","","","","","","","","null","","245","","0","0","null","null","arrowup","[0.15,0.85,0.675,0.325]","","",""
"sailing-trial","73","844249","0.0-11.0-38.0","","","","false","","","","","","","","","","744.8000000007451","","1278.3999999985099","","1","0","arrowleft","0","arrowright","[0.15,0.85,0.675,0.325]","","",""
"sailing-trial","74","847608","0.0-11.0-39.0","","","","false","","","","","","","","","","null","","1129.699999999255","","2","1","null","null","arrowup","[0.15,0.85,0.675,0.325]","","",""
"sailing-trial","75","854654","0.0-11.0-40.0","","","","false","","","","","","","","","","2171.89999999851","","831.1000000014901","","2","0","arrowright","1","arrowleft","[0.15,0.85,0.675,0.325]","","",""
"sailing-trial","76","857884","0.0-11.0-41.0","","","","false","","","","","","","","","","null","","1109","","2","1","null","null","arrowup","[0.15,0.85,0.675,0.325]","","",""
"sailing-trial","77","864796","0.0-11.0-42.0","","","","false","","","","","","","","","","1222.9000000022352","","2123.199999999255","","2","1","arrowright","1","arrowleft","[0.15,0.85,0.675,0.325]","","",""
"sailing-trial","78","868019","0.0-11.0-43.0","","","","false","","","","","","","","","","null","","1260.800000000745","","3","1","null","null","arrowup","[0.15,0.85,0.675,0.325]","","",""
"sailing-trial","79","872404","0.0-11.0-44.0","","","","false","","","","","","","","","","963.1999999992549","","647","","0","0","arrowleft","0","arrowleft","[0.325,0.675,0.85,0.15]","","",""
"sailing-trial","80","874810","0.0-11.0-45.0","","","","false","","","","","","","","","","null","","1059.9000000022352","","3","0","null","null","arrowup","[0.325,0.675,0.85,0.15]","","",""
"sailing-trial","81","880208","0.0-11.0-46.0","","","","false","","","","","","","","","","1110","","489.19999999925494","","3","0","arrowright","1","arrowright","[0.325,0.675,0.85,0.15]","","",""
"sailing-trial","82","883060","0.0-11.0-47.0","","","","false","","","","","","","","","","null","","773.2000000029802","","0","1","null","null","arrowup","[0.325,0.675,0.85,0.15]","","",""
"sailing-trial","83","888061","0.0-11.0-48.0","","","","false","","","","","","","","","","811.3999999985099","","857.8999999985099","","0","0","arrowleft","0","arrowleft","[0.325,0.675,0.85,0.15]","","",""
"sailing-trial","84","890745","0.0-11.0-49.0","","","","false","","","","","","","","","","null","","730","","0","0","null","null","arrowup","[0.325,0.675,0.85,0.15]","","",""
"sailing-trial","85","895743","0.0-11.0-50.0","","","","false","","","","","","","","","","554.7999999970198","","655.5","","1","0","arrowleft","0","arrowright","[0.325,0.675,0.85,0.15]","","",""
"sailing-trial","86","898681","0.0-11.0-51.0","","","","false","","","","","","","","","","null","","729.4000000022352","","1","1","null","null","arrowup","[0.325,0.675,0.85,0.15]","","",""
"sailing-trial","87","903439","0.0-11.0-52.0","","","","false","","","","","","","","","","591","","615.6000000014901","","2","0","arrowright","1","arrowleft","[0.325,0.675,0.85,0.15]","","",""
"sailing-trial","88","906816","0.0-11.0-53.0","","","","false","","","","","","","","","","null","","1306.199999999255","","0","0","null","null","arrowup","[0.325,0.675,0.85,0.15]","","",""
"sailing-trial","89","912033","0.0-11.0-54.0","","","","false","","","","","","","","","","584.7999999970198","","511.19999999925494","","3","0","arrowright","1","arrowright","[0.325,0.675,0.85,0.15]","","",""
"sailing-trial","90","915659","0.0-11.0-55.0","","","","false","","","","","","","","","","null","","1404.9000000022352","","1","1","null","null","arrowup","[0.325,0.675,0.85,0.15]","","",""
"sailing-trial","91","923892","0.0-11.0-56.0","","","","false","","","","","","","","","","633.6000000014901","","673.1999999992549","","1","1","arrowleft","0","arrowright","[0.325,0.675,0.85,0.15]","","",""
"sailing-trial","92","926525","0.0-11.0-57.0","","","","false","","","","","","","","","","null","","751.4000000022352","","1","0","null","null","arrowup","[0.325,0.675,0.85,0.15]","","",""
"sailing-trial","93","934555","0.0-11.0-58.0","","","","false","","","","","","","","","","2926.300000000745","","939.9000000022352","","0","0","arrowleft","0","arrowleft","[0.325,0.675,0.85,0.15]","","",""
"sailing-trial","94","937689","0.0-11.0-59.0","","","","false","","","","","","","","","","null","","744","","3","0","null","null","arrowup","[0.325,0.675,0.85,0.15]","","",""
"sailing-trial","95","947165","0.0-11.0-60.0","","","","false","","","","","","","","","","2368.2999999970198","","3319.900000002235","","3","0","arrowright","1","arrowright","[0.15,0.85,0.675,0.325]","","",""
"sailing-trial","96","950391","0.0-11.0-61.0","","","","false","","","","","","","","","","null","","786.8999999985099","","1","1","null","null","arrowup","[0.15,0.85,0.675,0.325]","","",""
"sailing-trial","97","956159","0.0-11.0-62.0","","","","false","","","","","","","","","","1958.800000000745","","621.5999999977648","","0","0","arrowleft","0","arrowleft","[0.15,0.85,0.675,0.325]","","",""
"sailing-trial","98","961326","0.0-11.0-63.0","","","","false","","","","","","","","","","null","","2267.400000002235","","1","1","null","null","arrowup","[0.15,0.85,0.675,0.325]","","",""
"sailing-trial","99","967647","0.0-11.0-64.0","","","","false","","","","","","","","","","1553.2000000029802","","559.1999999992549","","2","0","arrowright","1","arrowleft","[0.15,0.85,0.675,0.325]","","",""
"sailing-trial","100","971030","0.0-11.0-65.0","","","","false","","","","","","","","","","null","","1229.3999999985099","","1","0","null","null","arrowup","[0.15,0.85,0.675,0.325]","","",""
"sailing-trial","101","976043","0.0-11.0-66.0","","","","false","","","","","","","","","","863.2999999970198","","971.8000000007451","","0","0","arrowleft","0","arrowleft","[0.15,0.85,0.675,0.325]","","",""
"sailing-trial","102","979522","0.0-11.0-67.0","","","","false","","","","","","","","","","null","","1191.2000000029802","","3","1","null","null","arrowup","[0.15,0.85,0.675,0.325]","","",""
"sailing-trial","103","984369","0.0-11.0-68.0","","","","false","","","","","","","","","","828.3999999985099","","686.4000000022352","","1","1","arrowleft","0","arrowright","[0.15,0.85,0.675,0.325]","","",""
"sailing-trial","104","988147","0.0-11.0-69.0","","","","false","","","","","","","","","","null","","1838.5","","1","1","null","null","arrowup","[0.15,0.85,0.675,0.325]","","",""
"sailing-trial","105","994467","0.0-11.0-70.0","","","","false","","","","","","","","","","1083.1000000014901","","1776.300000000745","","1","1","arrowleft","0","arrowright","[0.15,0.85,0.675,0.325]","","",""
"sailing-trial","106","998932","0.0-11.0-71.0","","","","false","","","","","","","","","","null","","2073.599999997765","","1","1","null","null","arrowup","[0.15,0.85,0.675,0.325]","","",""
"sailing-trial","107","1006256","0.0-11.0-72.0","","","","false","","","","","","","","","","4321.800000000745","","158","","1","1","arrowleft","0","arrowright","[0.15,0.85,0.675,0.325]","","",""
"sailing-trial","108","1010133","0.0-11.0-73.0","","","","false","","","","","","","","","","null","","1794.0999999977648","","1","1","null","null","arrowup","[0.15,0.85,0.675,0.325]","","",""
"sailing-trial","109","1016041","0.0-11.0-74.0","","","","false","","","","","","","","","","887.9000000022352","","1627.800000000745","","1","1","arrowleft","0","arrowright","[0.15,0.85,0.675,0.325]","","",""
"sailing-trial","110","1019667","0.0-11.0-75.0","","","","false","","","","","","","","","","null","","1997.199999999255","","3","0","null","null","arrowup","[0.15,0.85,0.675,0.325]","","",""
"sailing-trial","111","1024542","0.0-11.0-76.0","","","","false","","","","","","","","","","603.2000000029802","","703","","0","0","arrowleft","0","arrowleft","[0.15,0.85,0.675,0.325]","","",""
"sailing-trial","112","1027925","0.0-11.0-77.0","","","","false","","","","","","","","","","null","","1154.6000000014901","","2","1","null","null","arrowup","[0.15,0.85,0.675,0.325]","","",""
"sailing-trial","113","1033349","0.0-11.0-78.0","","","","false","","","","","","","","","","609.1999999992549","","819.5","","2","1","arrowright","1","arrowleft","[0.325,0.675,0.85,0.15]","","",""
"sailing-trial","114","1036323","0.0-11.0-79.0","","","","false","","","","","","","","","","null","","873.3000000007451","","2","1","null","null","arrowup","[0.325,0.675,0.85,0.15]","","",""
"sailing-trial","115","1042031","0.0-11.0-80.0","","","","false","","","","","","","","","","1254.1000000014901","","578.6999999992549","","3","0","arrowright","1","arrowright","[0.325,0.675,0.85,0.15]","","",""
"sailing-trial","116","1045650","0.0-11.0-81.0","","","","false","","","","","","","","","","null","","1353.9000000022352","","1","1","null","null","arrowup","[0.325,0.675,0.85,0.15]","","",""
"sailing-trial","117","1051927","0.0-11.0-82.0","","","","false","","","","","","","","","","1904.300000000745","","799.8000000007451","","0","0","arrowleft","0","arrowleft","[0.325,0.675,0.85,0.15]","","",""
"sailing-trial","118","1055374","0.0-11.0-83.0","","","","false","","","","","","","","","","null","","1833.5","","0","0","null","null","arrowup","[0.325,0.675,0.85,0.15]","","",""
"sailing-trial","119","1061672","0.0-11.0-84.0","","","","false","","","","","","","","","","1655.6000000014901","","787.5999999977648","","1","1","arrowleft","0","arrowright","[0.325,0.675,0.85,0.15]","","",""
"sailing-trial","120","1064294","0.0-11.0-85.0","","","","false","","","","","","","","","","null","","766.4000000022352","","3","0","null","null","arrowup","[0.325,0.675,0.85,0.15]","","",""
"sailing-trial","121","1070824","0.0-11.0-86.0","","","","false","","","","","","","","","","2427.599999997765","","531.6999999992549","","3","0","arrowright","1","arrowright","[0.325,0.675,0.85,0.15]","","",""
"sailing-trial","122","1074608","0.0-11.0-87.0","","","","false","","","","","","","","","","null","","1358.1000000014901","","1","1","null","null","arrowup","[0.325,0.675,0.85,0.15]","","",""
"sailing-trial","123","1080892","0.0-11.0-88.0","","","","false","","","","","","","","","","2038.8999999985099","","703.3000000007451","","2","1","arrowright","1","arrowleft","[0.325,0.675,0.85,0.15]","","",""
"sailing-trial","124","1085787","0.0-11.0-89.0","","","","false","","","","","","","","","","null","","2823.7000000029802","","3","0","null","null","arrowup","[0.325,0.675,0.85,0.15]","","",""
"sailing-trial","125","1093751","0.0-11.0-90.0","","","","false","","","","","","","","","","3760.60000000149","","1186.9000000022352","","0","0","arrowleft","0","arrowleft","[0.325,0.675,0.85,0.15]","","",""
"sailing-trial","126","1097797","0.0-11.0-91.0","","","","false","","","","","","","","","","null","","1825.300000000745","","2","1","null","null","arrowup","[0.325,0.675,0.85,0.15]","","",""
"sailing-trial","127","1104883","0.0-11.0-92.0","","","","false","","","","","","","","","","1074.2999999970198","","2087.800000000745","","1","0","arrowleft","0","arrowright","[0.325,0.675,0.85,0.15]","","",""
"sailing-trial","128","1108219","0.0-11.0-93.0","","","","false","","","","","","","","","","null","","1437.0999999977648","","3","0","null","null","arrowup","[0.325,0.675,0.85,0.15]","","",""
"sailing-trial","129","1116650","0.0-11.0-94.0","","","","false","","","","","","","","","","2636.5","","1850.300000000745","","2","1","arrowright","1","arrowleft","[0.15,0.85,0.675,0.325]","","",""
"sailing-trial","130","1121558","0.0-11.0-95.0","","","","false","","","","","","","","","","null","","2882.699999999255","","1","1","null","null","arrowup","[0.15,0.85,0.675,0.325]","","",""
"sailing-trial","131","1127703","0.0-11.0-96.0","","","","false","","","","","","","","","","1660","","814.6999999992549","","0","0","arrowleft","0","arrowleft","[0.15,0.85,0.675,0.325]","","",""
"sailing-trial","132","1130072","0.0-11.0-97.0","","","","false","","","","","","","","","","null","","819.1000000014901","","0","0","null","null","arrowup","[0.15,0.85,0.675,0.325]","","",""
"sailing-trial","133","1135559","0.0-11.0-98.0","","","","false","","","","","","","","","","1212.1000000014901","","448.69999999925494","","1","1","arrowleft","0","arrowright","[0.15,0.85,0.675,0.325]","","",""
"sailing-trial","134","1139422","0.0-11.0-99.0","","","","false","","","","","","","","","","null","","1875.3999999985099","","2","1","null","null","arrowup","[0.15,0.85,0.675,0.325]","","",""
"sailing-trial","135","1144727","0.0-11.0-100.0","","","","false","","","","","","","","","","1101.800000000745","","112.40000000223517","","1","1","arrowleft","0","arrowright","[0.15,0.85,0.675,0.325]","","",""
"sailing-trial","136","1147180","0.0-11.0-101.0","","","","false","","","","","","","","","","null","","514.1000000014901","","2","1","null","null","arrowup","[0.15,0.85,0.675,0.325]","","",""
"sailing-trial","137","1151492","0.0-11.0-102.0","","","","false","","","","","","","","","","620.1000000014901","","601.8000000007451","","2","1","arrowright","1","arrowleft","[0.15,0.85,0.675,0.325]","","",""
"sailing-trial","138","1154367","0.0-11.0-103.0","","","","false","","","","","","","","","","null","","782.6999999992549","","3","1","null","null","arrowup","[0.15,0.85,0.675,0.325]","","",""
"sailing-trial","139","1159336","0.0-11.0-104.0","","","","false","","","","","","","","","","894.5","","330.30000000074506","","2","0","arrowright","1","arrowleft","[0.15,0.85,0.675,0.325]","","",""
"sailing-trial","140","1163109","0.0-11.0-105.0","","","","false","","","","","","","","","","null","","1623.699999999255","","0","1","null","null","arrowup","[0.15,0.85,0.675,0.325]","","",""
"sailing-trial","141","1168738","0.0-11.0-106.0","","","","false","","","","","","","","","","1526.3999999985099","","609.2000000029802","","3","0","arrowright","1","arrowright","[0.15,0.85,0.675,0.325]","","",""
"sailing-trial","142","1171994","0.0-11.0-107.0","","","","false","","","","","","","","","","null","","1077.9000000022352","","2","1","null","null","arrowup","[0.15,0.85,0.675,0.325]","","",""
"sailing-trial","143","1177066","0.0-11.0-108.0","","","","false","","","","","","","","","","858","","336.20000000298023","","2","1","arrowright","1","arrowleft","[0.15,0.85,0.675,0.325]","","",""
"sailing-trial","144","1180255","0.0-11.0-109.0","","","","false","","","","","","","","","","null","","1189.3999999985099","","1","1","null","null","arrowup","[0.15,0.85,0.675,0.325]","","",""
"sailing-trial","145","1185186","0.0-11.0-110.0","","","","false","","","","","","","","","","455.19999999925494","","535.1000000014901","","1","1","arrowleft","0","arrowright","[0.15,0.85,0.675,0.325]","","",""
"sailing-trial","146","1187904","0.0-11.0-111.0","","","","false","","","","","","","","","","null","","1086.1000000014901","","3","0","null","null","arrowup","[0.15,0.85,0.675,0.325]","","",""
"sailing-trial","147","1194529","0.0-11.0-112.0","","","","false","","","","","","","","","","2265.099999997765","","548.5","","1","1","arrowleft","0","arrowright","[0.15,0.85,0.675,0.325]","","",""
"sailing-trial","148","1197754","0.0-11.0-113.0","","","","false","","","","","","","","","","null","","1330","","0","1","null","null","arrowup","[0.15,0.85,0.675,0.325]","","",""
"sailing-trial","149","1204173","0.0-11.0-114.0","","","","false","","","","","","","","","","2444.599999997765","","220.90000000223517","","1","1","arrowleft","0","arrowright","[0.15,0.85,0.675,0.325]","","",""
"sailing-trial","150","1207257","0.0-11.0-115.0","","","","false","","","","","","","","","","null","","1391.6000000014901","","2","0","null","null","arrowup","[0.15,0.85,0.675,0.325]","","",""
"sailing-trial","151","1213782","0.0-11.0-116.0","","","","false","","","","","","","","","","1180.699999999255","","1174.800000000745","","0","0","arrowleft","0","arrowleft","[0.675,0.325,0.15,0.85]","","",""
"sailing-trial","152","1219383","0.0-11.0-117.0","","","","false","","","","","","","","","","null","","4123.199999999255","","1","0","null","null","arrowup","[0.675,0.325,0.15,0.85]","","",""
"sailing-trial","153","1225082","0.0-11.0-118.0","","","","false","","","","","","","","","","822.1000000014901","","1532.699999999255","","2","0","arrowright","1","arrowleft","[0.675,0.325,0.15,0.85]","","",""
"sailing-trial","154","1228219","0.0-11.0-119.0","","","","false","","","","","","","","","","null","","840.8999999985099","","3","1","null","null","arrowup","[0.675,0.325,0.15,0.85]","","",""
"sailing-trial","155","1233202","0.0-11.0-120.0","","","","false","","","","","","","","","","1397.5999999977648","","823","","0","0","arrowleft","0","arrowleft","[0.675,0.325,0.15,0.85]","","",""
"sailing-trial","156","1236276","0.0-11.0-121.0","","","","false","","","","","","","","","","null","","1038.199999999255","","0","1","null","null","arrowup","[0.675,0.325,0.15,0.85]","","",""
"sailing-trial","157","1242233","0.0-11.0-122.0","","","","false","","","","","","","","","","1239.300000000745","","537.1999999992549","","1","0","arrowleft","0","arrowright","[0.675,0.325,0.15,0.85]","","",""
"sailing-trial","158","1244957","0.0-11.0-123.0","","","","false","","","","","","","","","","null","","1002.3000000007451","","0","0","null","null","arrowup","[0.675,0.325,0.15,0.85]","","",""
"sailing-trial","159","1251480","0.0-11.0-124.0","","","","false","","","","","","","","","","1058.5","","1574","","3","1","arrowright","1","arrowright","[0.675,0.325,0.15,0.85]","","",""
"sailing-trial","160","1255202","0.0-11.0-125.0","","","","false","","","","","","","","","","null","","1510","","3","1","null","null","arrowup","[0.675,0.325,0.15,0.85]","","",""
"sailing-trial","161","1260970","0.0-11.0-126.0","","","","false","","","","","","","","","","1026.300000000745","","766.5","","2","0","arrowright","1","arrowleft","[0.675,0.325,0.15,0.85]","","",""
"sailing-trial","162","1264988","0.0-11.0-127.0","","","","false","","","","","","","","","","null","","1630.4000000022352","","0","1","null","null","arrowup","[0.675,0.325,0.15,0.85]","","",""
"sailing-trial","163","1270168","0.0-11.0-128.0","","","","false","","","","","","","","","","1015","","319.80000000074506","","1","1","arrowleft","0","arrowright","[0.675,0.325,0.15,0.85]","","",""
"sailing-trial","164","1273228","0.0-11.0-129.0","","","","false","","","","","","","","","","null","","1053.800000000745","","0","1","null","null","arrowup","[0.675,0.325,0.15,0.85]","","",""
"sailing-trial","165","1277743","0.0-11.0-130.0","","","","false","","","","","","","","","","534","","854.1000000014901","","1","0","arrowleft","0","arrowright","[0.675,0.325,0.15,0.85]","","",""
"sailing-trial","166","1280698","0.0-11.0-131.0","","","","false","","","","","","","","","","null","","1524","","3","0","null","null","arrowup","[0.675,0.325,0.15,0.85]","","",""
"sailing-trial","167","1285782","0.0-11.0-132.0","","","","false","","","","","","","","","","963.1999999992549","","243.69999999925494","","1","1","arrowleft","0","arrowright","[0.15,0.85,0.675,0.325]","","",""
"sailing-trial","168","1288561","0.0-11.0-133.0","","","","false","","","","","","","","","","null","","1233.800000000745","","0","0","null","null","arrowup","[0.15,0.85,0.675,0.325]","","",""
"sailing-trial","169","1293720","0.0-11.0-134.0","","","","false","","","","","","","","","","682.2000000029802","","847.8000000007451","","1","1","arrowleft","0","arrowright","[0.15,0.85,0.675,0.325]","","",""
"sailing-trial","170","1296714","0.0-11.0-135.0","","","","false","","","","","","","","","","null","","1430.699999999255","","2","0","null","null","arrowup","[0.15,0.85,0.675,0.325]","","",""
"sailing-trial","171","1302541","0.0-11.0-136.0","","","","false","","","","","","","","","","711.5","","431.1000000014901","","2","1","arrowright","1","arrowleft","[0.15,0.85,0.675,0.325]","","",""
"sailing-trial","172","1306636","0.0-11.0-137.0","","","","false","","","","","","","","","","null","","1079.3999999985099","","3","0","null","null","arrowup","[0.15,0.85,0.675,0.325]","","",""
"sailing-trial","173","1312752","0.0-11.0-138.0","","","","false","","","","","","","","","","1563.800000000745","","366.6000000014901","","0","0","arrowleft","0","arrowleft","[0.15,0.85,0.675,0.325]","","",""
"sailing-trial","174","1316882","0.0-11.0-139.0","","","","false","","","","","","","","","","null","","1935.3999999985099","","2","0","null","null","arrowup","[0.15,0.85,0.675,0.325]","","",""
"sailing-trial","175","1320689","0.0-11.0-140.0","","","","false","","","","","","","","","","462.30000000074506","","2.599999997764826","","1","1","arrowleft","0","arrowright","[0.15,0.85,0.675,0.325]","","",""
"sailing-trial","176","1323113","0.0-11.0-141.0","","","","false","","","","","","","","","","null","","862.3000000007451","","3","0","null","null","arrowup","[0.15,0.85,0.675,0.325]","","",""
"sailing-trial","177","1327748","0.0-11.0-142.0","","","","false","","","","","","","","","","558.6000000014901","","485.4000000022352","","1","1","arrowleft","0","arrowright","[0.15,0.85,0.675,0.325]","","",""
"sailing-trial","178","1332178","0.0-11.0-143.0","","","","false","","","","","","","","","","null","","2465.5","","1","1","null","null","arrowup","[0.15,0.85,0.675,0.325]","","",""
"sailing-trial","179","1336382","0.0-11.0-144.0","","","","false","","","","","","","","","","562.9000000022352","","85.79999999701977","","1","1","arrowleft","0","arrowright","[0.15,0.85,0.675,0.325]","","",""
"sailing-trial","180","1340062","0.0-11.0-145.0","","","","false","","","","","","","","","","null","","1653.199999999255","","2","1","null","null","arrowup","[0.15,0.85,0.675,0.325]","","",""
"sailing-trial","181","1344183","0.0-11.0-146.0","","","","false","","","","","","","","","","896.3999999985099","","40","","1","1","arrowleft","0","arrowright","[0.15,0.85,0.675,0.325]","","",""
"sailing-trial","182","1346712","0.0-11.0-147.0","","","","false","","","","","","","","","","null","","980.6000000014901","","0","0","null","null","arrowup","[0.15,0.85,0.675,0.325]","","",""
"sailing-trial","183","1350753","0.0-11.0-148.0","","","","false","","","","","","","","","","562.0999999977648","","184.89999999850988","","2","1","arrowright","1","arrowleft","[0.15,0.85,0.675,0.325]","","",""
"sailing-trial","184","1353474","0.0-11.0-149.0","","","","false","","","","","","","","","","null","","827.8000000007451","","1","1","null","null","arrowup","[0.15,0.85,0.675,0.325]","","",""
"sailing-trial","185","1358193","0.0-11.0-150.0","","","","false","","","","","","","","","","887.0999999977648","","669.5","","2","1","arrowright","1","arrowleft","[0.15,0.85,0.675,0.325]","","",""
"sailing-trial","186","1360402","0.0-11.0-151.0","","","","false","","","","","","","","","","null","","730.5","","0","0","null","null","arrowup","[0.15,0.85,0.675,0.325]","","",""
"sailing-trial","187","1364436","0.0-11.0-152.0","","","","false","","","","","","","","","","643.5999999977648","","164","","2","1","arrowright","1","arrowleft","[0.85,0.15,0.325,0.675]","","",""
"sailing-trial","188","1367646","0.0-11.0-153.0","","","","false","","","","","","","","","","null","","1732.800000000745","","1","0","null","null","arrowup","[0.85,0.15,0.325,0.675]","","",""
"sailing-trial","189","1371344","0.0-11.0-154.0","","","","false","","","","","","","","","","666.1999999992549","","55.600000001490116","","2","0","arrowright","1","arrowleft","[0.85,0.15,0.325,0.675]","","",""
"sailing-trial","190","1373653","0.0-11.0-155.0","","","","false","","","","","","","","","","null","","852.8000000007451","","0","0","null","null","arrowup","[0.85,0.15,0.325,0.675]","","",""
"sailing-trial","191","1377876","0.0-11.0-156.0","","","","false","","","","","","","","","","422.3999999985099","","61.29999999701977","","3","0","arrowright","1","arrowright","[0.85,0.15,0.325,0.675]","","",""
"sailing-trial","192","1380053","0.0-11.0-157.0","","","","false","","","","","","","","","","null","","747.3999999985099","","2","0","null","null","arrowup","[0.85,0.15,0.325,0.675]","","",""
"sailing-trial","193","1384131","0.0-11.0-158.0","","","","false","","","","","","","","","","606.3000000007451","","3.5","","0","1","arrowleft","0","arrowleft","[0.85,0.15,0.325,0.675]","","",""
"sailing-trial","194","1386451","0.0-11.0-159.0","","","","false","","","","","","","","","","null","","743.5","","1","0","null","null","arrowup","[0.85,0.15,0.325,0.675]","","",""
"sailing-trial","195","1390508","0.0-11.0-160.0","","","","false","","","","","","","","","","484.5","","76.10000000149012","","0","1","arrowleft","0","arrowleft","[0.85,0.15,0.325,0.675]","","",""
"sailing-trial","196","1392878","0.0-11.0-161.0","","","","false","","","","","","","","","","null","","789.1999999992549","","3","0","null","null","arrowup","[0.85,0.15,0.325,0.675]","","",""
"sailing-trial","197","1401124","0.0-11.0-162.0","","","","false","","","","","","","","","","689","","4183.199999999255","","0","1","arrowleft","0","arrowleft","[0.85,0.15,0.325,0.675]","","",""
"sailing-trial","198","1403931","0.0-11.0-163.0","","","","false","","","","","","","","","","null","","895.3000000007451","","0","1","null","null","arrowup","[0.85,0.15,0.325,0.675]","","",""
"sailing-trial","199","1408357","0.0-11.0-164.0","","","","false","","","","","","","","","","907.9000000022352","","468.1000000014901","","0","1","arrowleft","0","arrowleft","[0.85,0.15,0.325,0.675]","","",""
"sailing-trial","200","1410717","0.0-11.0-165.0","","","","false","","","","","","","","","","null","","848.4000000022352","","2","0","null","null","arrowup","[0.85,0.15,0.325,0.675]","","",""
"sailing-trial","201","1415819","0.0-11.0-166.0","","","","false","","","","","","","","","","1334","","394.1000000014901","","3","1","arrowright","1","arrowright","[0.85,0.15,0.325,0.675]","","",""
"sailing-trial","202","1418526","0.0-11.0-167.0","","","","false","","","","","","","","","","null","","828.8000000007451","","0","1","null","null","arrowup","[0.85,0.15,0.325,0.675]","","",""
"sailing-trial","203","1422478","0.0-11.0-168.0","","","","false","","","","","","","","","","667.8999999985099","","131.5","","3","1","arrowright","1","arrowright","[0.85,0.15,0.325,0.675]","","",""
"sailing-trial","204","1426040","0.0-11.0-169.0","","","","false","","","","","","","","","","null","","1736.699999999255","","0","1","null","null","arrowup","[0.85,0.15,0.325,0.675]","","",""
"sailing-trial","205","1429521","0.0-11.0-170.0","","","","false","","","","","","","","","","572.2999999970198","","272.9000000022352","","3","0","arrowright","1","arrowright","[0.675,0.325,0.15,0.85]","","",""
"sailing-trial","206","1432680","0.0-11.0-171.0","","","","false","","","","","","","","","","null","","1777.199999999255","","2","0","null","null","arrowup","[0.675,0.325,0.15,0.85]","","",""
"sailing-trial","207","1436544","0.0-11.0-172.0","","","","false","","","","","","","","","","451.30000000074506","","529.7000000029802","","0","0","arrowleft","0","arrowleft","[0.675,0.325,0.15,0.85]","","",""
"sailing-trial","208","1439821","0.0-11.0-173.0","","","","false","","","","","","","","","","null","","936.9000000022352","","1","0","null","null","arrowup","[0.675,0.325,0.15,0.85]","","",""
"sailing-trial","209","1443680","0.0-11.0-174.0","","","","false","","","","","","","","","","556.8999999985099","","18.599999997764826","","2","1","arrowright","1","arrowleft","[0.675,0.325,0.15,0.85]","","",""
"sailing-trial","210","1445961","0.0-11.0-175.0","","","","false","","","","","","","","","","null","","983.4000000022352","","2","0","null","null","arrowup","[0.675,0.325,0.15,0.85]","","",""
"sailing-trial","211","1451164","0.0-11.0-176.0","","","","false","","","","","","","","","","794.6000000014901","","497.69999999925494","","2","0","arrowright","1","arrowleft","[0.675,0.325,0.15,0.85]","","",""
"sailing-trial","212","1454505","0.0-11.0-177.0","","","","false","","","","","","","","","","null","","1214.199999999255","","3","1","null","null","arrowup","[0.675,0.325,0.15,0.85]","","",""
"sailing-trial","213","1458322","0.0-11.0-178.0","","","","false","","","","","","","","","","558.5","","24","","3","1","arrowright","1","arrowright","[0.675,0.325,0.15,0.85]","","",""
"sailing-trial","214","1461387","0.0-11.0-179.0","","","","false","","","","","","","","","","null","","1514.199999999255","","1","0","null","null","arrowup","[0.675,0.325,0.15,0.85]","","",""
"sailing-trial","215","1464943","0.0-11.0-180.0","","","","false","","","","","","","","","","625.8999999985099","","187.59999999776483","","3","0","arrowright","1","arrowright","[0.675,0.325,0.15,0.85]","","",""
"sailing-trial","216","1467696","0.0-11.0-181.0","","","","false","","","","","","","","","","null","","1295.0999999977648","","2","0","null","null","arrowup","[0.675,0.325,0.15,0.85]","","",""
"sailing-trial","217","1472428","0.0-11.0-182.0","","","","false","","","","","","","","","","594.1000000014901","","892.6999999992549","","1","1","arrowleft","0","arrowright","[0.675,0.325,0.15,0.85]","","",""
"sailing-trial","218","1475334","0.0-11.0-183.0","","","","false","","","","","","","","","","null","","1013.1000000014901","","0","1","null","null","arrowup","[0.675,0.325,0.15,0.85]","","",""
"sailing-trial","219","1478970","0.0-11.0-184.0","","","","false","","","","","","","","","","409.80000000074506","","27.899999998509884","","1","1","arrowleft","0","arrowright","[0.675,0.325,0.15,0.85]","","",""
"sailing-trial","220","1481363","0.0-11.0-185.0","","","","false","","","","","","","","","","null","","881","","2","0","null","null","arrowup","[0.675,0.325,0.15,0.85]","","",""
"sailing-trial","221","1485515","0.0-11.0-186.0","","","","false","","","","","","","","","","1002.6999999992549","","306.80000000074506","","1","0","arrowleft","0","arrowright","[0.85,0.15,0.325,0.675]","","",""
"sailing-trial","222","1488319","0.0-11.0-187.0","","","","false","","","","","","","","","","null","","795.3000000007451","","3","1","null","null","arrowup","[0.85,0.15,0.325,0.675]","","",""
"sailing-trial","223","1493020","0.0-11.0-188.0","","","","false","","","","","","","","","","649.4000000022352","","383","","0","1","arrowleft","0","arrowleft","[0.85,0.15,0.325,0.675]","","",""
"sailing-trial","224","1497939","0.0-11.0-189.0","","","","false","","","","","","","","","","null","","2964.2000000029802","","3","1","null","null","arrowup","[0.85,0.15,0.325,0.675]","","",""
"sailing-trial","225","1502597","0.0-11.0-190.0","","","","false","","","","","","","","","","697.8999999985099","","700.3000000007451","","0","1","arrowleft","0","arrowleft","[0.85,0.15,0.325,0.675]","","",""
"sailing-trial","226","1505185","0.0-11.0-191.0","","","","false","","","","","","","","","","null","","1052.5","","0","0","null","null","arrowup","[0.85,0.15,0.325,0.675]","","",""
"sailing-trial","227","1509777","0.0-11.0-192.0","","","","false","","","","","","","","","","357.8999999985099","","802.5","","3","1","arrowright","1","arrowright","[0.85,0.15,0.325,0.675]","","",""
"sailing-trial","228","1512628","0.0-11.0-193.0","","","","false","","","","","","","","","","null","","1015.8000000007451","","3","1","null","null","arrowup","[0.85,0.15,0.325,0.675]","","",""
"sailing-trial","229","1516766","0.0-11.0-194.0","","","","false","","","","","","","","","","574.8000000007451","","723.3999999985099","","3","1","arrowright","1","arrowright","[0.85,0.15,0.325,0.675]","","",""
"sailing-trial","230","1519114","0.0-11.0-195.0","","","","false","","","","","","","","","","null","","841.3999999985099","","2","0","null","null","arrowup","[0.85,0.15,0.325,0.675]","","",""
"sailing-trial","231","1523400","0.0-11.0-196.0","","","","false","","","","","","","","","","620.4000000022352","","36.399999998509884","","3","1","arrowright","1","arrowright","[0.85,0.15,0.325,0.675]","","",""
"sailing-trial","232","1526400","0.0-11.0-197.0","","","","false","","","","","","","","","","null","","1134.8999999985099","","0","1","null","null","arrowup","[0.85,0.15,0.325,0.675]","","",""
"sailing-trial","233","1530436","0.0-11.0-198.0","","","","false","","","","","","","","","","499.6000000014901","","508.5999999977648","","3","1","arrowright","1","arrowright","[0.85,0.15,0.325,0.675]","","",""
"sailing-trial","234","1532935","0.0-11.0-199.0","","","","false","","","","","","","","","","null","","635.5","","0","1","null","null","arrowup","[0.85,0.15,0.325,0.675]","","",""
"sailing-trial","235","1536804","0.0-11.0-200.0","","","","false","","","","","","","","","","566.6999999992549","","708.9000000022352","","3","0","arrowright","1","arrowright","[0.85,0.15,0.325,0.675]","","",""
"sailing-trial","236","1539546","0.0-11.0-201.0","","","","false","","","","","","","","","","null","","744.1999999992549","","0","1","null","null","arrowup","[0.85,0.15,0.325,0.675]","","",""
"sailing-trial","237","1545031","0.0-11.0-202.0","","","","false","","","","","","","","","","415.0999999977648","","1190.5999999977648","","0","1","arrowleft","0","arrowleft","[0.85,0.15,0.325,0.675]","","",""
"sailing-trial","238","1547740","0.0-11.0-203.0","","","","false","","","","","","","","","","null","","753.1000000014901","","3","1","null","null","arrowup","[0.85,0.15,0.325,0.675]","","",""
"sailing-trial","239","1552128","0.0-11.0-204.0","","","","false","","","","","","","","","","1021.7000000029802","","736.6999999992549","","0","0","arrowleft","0","arrowleft","[0.675,0.325,0.15,0.85]","","",""
"sailing-trial","240","1555391","0.0-11.0-205.0","","","","false","","","","","","","","","","null","","1350.300000000745","","0","1","null","null","arrowup","[0.675,0.325,0.15,0.85]","","",""
"sailing-trial","241","1558758","0.0-11.0-206.0","","","","false","","","","","","","","","","563.1999999992549","","3.600000001490116","","2","0","arrowright","1","arrowleft","[0.675,0.325,0.15,0.85]","","",""
"sailing-trial","242","1561879","0.0-11.0-207.0","","","","false","","","","","","","","","","null","","1224.5999999977648","","1","0","null","null","arrowup","[0.675,0.325,0.15,0.85]","","",""
"sailing-trial","243","1566977","0.0-11.0-208.0","","","","false","","","","","","","","","","806.5999999977648","","968","","0","1","arrowleft","0","arrowleft","[0.675,0.325,0.15,0.85]","","",""
"sailing-trial","244","1569479","0.0-11.0-209.0","","","","false","","","","","","","","","","null","","869.3000000007451","","2","0","null","null","arrowup","[0.675,0.325,0.15,0.85]","","",""
"sailing-trial","245","1574498","0.0-11.0-210.0","","","","false","","","","","","","","","","843.6000000014901","","690.7999999970198","","0","1","arrowleft","0","arrowleft","[0.675,0.325,0.15,0.85]","","",""
"sailing-trial","246","1576901","0.0-11.0-211.0","","","","false","","","","","","","","","","null","","821.1000000014901","","2","0","null","null","arrowup","[0.675,0.325,0.15,0.85]","","",""
"sailing-trial","247","1582845","0.0-11.0-212.0","","","","false","","","","","","","","","","556.6000000014901","","1262.800000000745","","0","0","arrowleft","0","arrowleft","[0.675,0.325,0.15,0.85]","","",""
"sailing-trial","248","1585835","0.0-11.0-213.0","","","","false","","","","","","","","","","null","","894.8000000007451","","3","1","null","null","arrowup","[0.675,0.325,0.15,0.85]","","",""
"sailing-trial","249","1593608","0.0-11.0-214.0","","","","false","","","","","","","","","","2628.39999999851","","981","","2","0","arrowright","1","arrowleft","[0.675,0.325,0.15,0.85]","","",""
"sailing-trial","250","1598086","0.0-11.0-215.0","","","","false","","","","","","","","","","null","","3011.800000000745","","2","0","null","null","arrowup","[0.675,0.325,0.15,0.85]","","",""
"sailing-trial","251","1602681","0.0-11.0-216.0","","","","false","","","","","","","","","","1132.5","","410.0999999977648","","1","0","arrowleft","0","arrowright","[0.675,0.325,0.15,0.85]","","",""
"sailing-trial","252","1606939","0.0-11.0-217.0","","","","false","","","","","","","","","","null","","2181.89999999851","","3","1","null","null","arrowup","[0.675,0.325,0.15,0.85]","","",""
"sailing-trial","253","1611211","0.0-11.0-218.0","","","","false","","","","","","","","","","481.8999999985099","","168.60000000149012","","3","1","arrowright","1","arrowright","[0.675,0.325,0.15,0.85]","","",""
"sailing-trial","254","1614248","0.0-11.0-219.0","","","","false","","","","","","","","","","null","","1045.7000000029802","","3","1","null","null","arrowup","[0.675,0.325,0.15,0.85]","","",""
"sailing-trial","255","1618772","0.0-11.0-220.0","","","","false","","","","","","","","","","513.6000000014901","","541.1999999992549","","3","1","arrowright","1","arrowright","[0.675,0.325,0.15,0.85]","","",""
"sailing-trial","256","1621629","0.0-11.0-221.0","","","","false","","","","","","","","","","null","","990.8000000007451","","3","1","null","null","arrowup","[0.675,0.325,0.15,0.85]","","",""
"sailing-trial","257","1625977","0.0-11.0-222.0","","","","false","","","","","","","","","","474.79999999701977","","703.6999999992549","","3","1","arrowright","1","arrowright","[0.85,0.15,0.325,0.675]","","",""
"sailing-trial","258","1628650","0.0-11.0-223.0","","","","false","","","","","","","","","","null","","790.1999999992549","","0","1","null","null","arrowup","[0.85,0.15,0.325,0.675]","","",""
"sailing-trial","259","1632877","0.0-11.0-224.0","","","","false","","","","","","","","","","478.5","","429.69999999925494","","3","1","arrowright","1","arrowright","[0.85,0.15,0.325,0.675]","","",""
"sailing-trial","260","1636004","0.0-11.0-225.0","","","","false","","","","","","","","","","null","","1145","","0","1","null","null","arrowup","[0.85,0.15,0.325,0.675]","","",""
"sailing-trial","261","1640726","0.0-11.0-226.0","","","","false","","","","","","","","","","497.79999999701977","","419.20000000298023","","3","1","arrowright","1","arrowright","[0.85,0.15,0.325,0.675]","","",""
"sailing-trial","262","1643357","0.0-11.0-227.0","","","","false","","","","","","","","","","null","","1135.5999999977648","","1","0","null","null","arrowup","[0.85,0.15,0.325,0.675]","","",""
"sailing-trial","263","1650137","0.0-11.0-228.0","","","","false","","","","","","","","","","780.6000000014901","","679.3000000007451","","3","1","arrowright","1","arrowright","[0.85,0.15,0.325,0.675]","","",""
"sailing-trial","264","1653881","0.0-11.0-229.0","","","","false","","","","","","","","","","null","","1227.699999999255","","3","1","null","null","arrowup","[0.85,0.15,0.325,0.675]","","",""
"sailing-trial","265","1660358","0.0-11.0-230.0","","","","false","","","","","","","","","","1759","","947.9000000022352","","0","1","arrowleft","0","arrowleft","[0.85,0.15,0.325,0.675]","","",""
"sailing-trial","266","1662795","0.0-11.0-231.0","","","","false","","","","","","","","","","null","","831.8999999985099","","2","0","null","null","arrowup","[0.85,0.15,0.325,0.675]","","",""
"sailing-trial","267","1667595","0.0-11.0-232.0","","","","false","","","","","","","","","","598.1999999992549","","796.1000000014901","","3","0","arrowright","1","arrowright","[0.85,0.15,0.325,0.675]","","",""
"sailing-trial","268","1669990","0.0-11.0-233.0","","","","false","","","","","","","","","","null","","838.5","","1","0","null","null","arrowup","[0.85,0.15,0.325,0.675]","","",""
"sailing-trial","269","1674541","0.0-11.0-234.0","","","","false","","","","","","","","","","721.9000000022352","","825.4000000022352","","2","0","arrowright","1","arrowleft","[0.85,0.15,0.325,0.675]","","",""
"sailing-trial","270","1677028","0.0-11.0-235.0","","","","false","","","","","","","","","","null","","1125.5","","1","0","null","null","arrowup","[0.85,0.15,0.325,0.675]","","",""
"sailing-trial","271","1680888","0.0-11.0-236.0","","","","false","","","","","","","","","","746.1999999992549","","2.2999999970197678","","3","1","arrowright","1","arrowright","[0.85,0.15,0.325,0.675]","","",""
"sailing-trial","272","1683195","0.0-11.0-237.0","","","","false","","","","","","","","","","null","","749.0999999977648","","1","0","null","null","arrowup","[0.85,0.15,0.325,0.675]","","",""
"sailing-trial","273","1688509","0.0-11.0-238.0","","","","false","","","","","","","","","","524.6999999992549","","1199","","3","0","arrowright","1","arrowright","[0.325,0.675,0.85,0.15]","","",""
"sailing-trial","274","1691280","0.0-11.0-239.0","","","","false","","","","","","","","","","null","","1371.0999999977648","","2","0","null","null","arrowup","[0.325,0.675,0.85,0.15]","","",""
"sailing-trial","275","1697232","0.0-11.0-240.0","","","","false","","","","","","","","","","2164.60000000149","","821.3000000007451","","0","0","arrowleft","0","arrowleft","[0.325,0.675,0.85,0.15]","","",""
"sailing-trial","276","1700818","0.0-11.0-241.0","","","","false","","","","","","","","","","null","","1418.300000000745","","1","1","null","null","arrowup","[0.325,0.675,0.85,0.15]","","",""
"sailing-trial","277","1705467","0.0-11.0-242.0","","","","false","","","","","","","","","","436.19999999925494","","855.3000000007451","","1","1","arrowleft","0","arrowright","[0.325,0.675,0.85,0.15]","","",""
"sailing-trial","278","1708807","0.0-11.0-243.0","","","","false","","","","","","","","","","null","","1278.800000000745","","1","1","null","null","arrowup","[0.325,0.675,0.85,0.15]","","",""
"sailing-trial","279","1713849","0.0-11.0-244.0","","","","false","","","","","","","","","","668","","529.7000000029802","","1","1","arrowleft","0","arrowright","[0.325,0.675,0.85,0.15]","","",""
"sailing-trial","280","1717211","0.0-11.0-245.0","","","","false","","","","","","","","","","null","","1399.699999999255","","3","1","null","null","arrowup","[0.325,0.675,0.85,0.15]","","",""
"sailing-trial","281","1721766","0.0-11.0-246.0","","","","false","","","","","","","","","","575.1999999992549","","666.9000000022352","","1","1","arrowleft","0","arrowright","[0.325,0.675,0.85,0.15]","","",""
"sailing-trial","282","1724336","0.0-11.0-247.0","","","","false","","","","","","","","","","null","","660.8000000007451","","1","1","null","null","arrowup","[0.325,0.675,0.85,0.15]","","",""
"sailing-trial","283","1727975","0.0-11.0-248.0","","","","false","","","","","","","","","","911.5","","225.40000000223517","","2","0","arrowright","1","arrowleft","[0.325,0.675,0.85,0.15]","","",""
"sailing-trial","284","1732065","0.0-11.0-249.0","","","","false","","","","","","","","","","null","","1739.6000000014901","","2","1","null","null","arrowup","[0.325,0.675,0.85,0.15]","","",""
"sailing-trial","285","1738136","0.0-11.0-250.0","","","","false","","","","","","","","","","1168.8999999985099","","1933.699999999255","","3","0","arrowright","1","arrowright","[0.325,0.675,0.85,0.15]","","",""
"sailing-trial","286","1740808","0.0-11.0-251.0","","","","false","","","","","","","","","","null","","662.5999999977648","","2","1","null","null","arrowup","[0.325,0.675,0.85,0.15]","","",""
"sailing-trial","287","1745211","0.0-11.0-252.0","","","","false","","","","","","","","","","605","","218.19999999925494","","2","1","arrowright","1","arrowleft","[0.325,0.675,0.85,0.15]","","",""
"sailing-trial","288","1747989","0.0-11.0-253.0","","","","false","","","","","","","","","","null","","776.0999999977648","","2","1","null","null","arrowup","[0.325,0.675,0.85,0.15]","","",""
"sailing-trial","289","1751937","0.0-11.0-254.0","","","","false","","","","","","","","","","558.1000000014901","","58.30000000074506","","2","1","arrowright","1","arrowleft","[0.325,0.675,0.85,0.15]","","",""
"sailing-trial","290","1754360","0.0-11.0-255.0","","","","false","","","","","","","","","","null","","659.8999999985099","","2","1","null","null","arrowup","[0.325,0.675,0.85,0.15]","","",""
"sailing-trial","291","1759668","0.0-11.0-256.0","","","","false","","","","","","","","","","603.3999999985099","","460.80000000074506","","2","1","arrowright","1","arrowleft","[0.325,0.675,0.85,0.15]","","",""
"sailing-trial","292","1762558","0.0-11.0-257.0","","","","false","","","","","","","","","","null","","1213.199999999255","","3","0","null","null","arrowup","[0.325,0.675,0.85,0.15]","","",""
"sailing-trial","293","1767299","0.0-11.0-258.0","","","","false","","","","","","","","","","560.5999999977648","","611.5","","2","1","arrowright","1","arrowleft","[0.325,0.675,0.85,0.15]","","",""
"sailing-trial","294","1770118","0.0-11.0-259.0","","","","false","","","","","","","","","","null","","909.3000000007451","","2","1","null","null","arrowup","[0.325,0.675,0.85,0.15]","","",""
"sailing-trial","295","1776199","0.0-11.0-260.0","","","","false","","","","","","","","","","1180.4000000022352","","1243.7000000029802","","3","0","arrowright","1","arrowright","[0.15,0.85,0.675,0.325]","","",""
"sailing-trial","296","1779341","0.0-11.0-261.0","","","","false","","","","","","","","","","null","","1650.2999999970198","","0","0","null","null","arrowup","[0.15,0.85,0.675,0.325]","","",""
"sailing-trial","297","1783251","0.0-11.0-262.0","","","","false","","","","","","","","","","566.6000000014901","","18.5","","2","1","arrowright","1","arrowleft","[0.15,0.85,0.675,0.325]","","",""
"sailing-trial","298","1787035","0.0-11.0-263.0","","","","false","","","","","","","","","","null","","1720.3999999985099","","1","1","null","null","arrowup","[0.15,0.85,0.675,0.325]","","",""
"sailing-trial","299","1790805","0.0-11.0-264.0","","","","false","","","","[{""event"":""focus"",""trial"":3,""time"":154964},{""event"":""fullscreenenter"",""trial"":3,""time"":156245},{""event"":""fullscreenexit"",""trial"":27,""time"":519799},{""event"":""blur"",""trial"":27,""time"":588314},{""event"":""focus"",""trial"":27,""time"":594907},{""event"":""blur"",""trial"":68,""time"":823456},{""event"":""focus"",""trial"":68,""time"":823726},{""event"":""blur"",""trial"":300,""time"":1792728}]","false","","","","","515.1000000014901","","47.19999999925494","","2","1","arrowright","1","arrowleft","[0.15,0.85,0.675,0.325]","","",""
"sailing-trial","300","1795412","0.0-11.0-265.0","","","","false","","","","[{""event"":""focus"",""trial"":3,""time"":154964},{""event"":""fullscreenenter"",""trial"":3,""time"":156245},{""event"":""fullscreenexit"",""trial"":27,""time"":519799},{""event"":""blur"",""trial"":27,""time"":588314},{""event"":""focus"",""trial"":27,""time"":594907},{""event"":""blur"",""trial"":68,""time"":823456},{""event"":""focus"",""trial"":68,""time"":823726},{""event"":""blur"",""trial"":300,""time"":1792728},{""event"":""focus"",""trial"":301,""time"":1797027}]","false","","","","","null","","1564.300000000745","","0","0","null","null","arrowup","[0.15,0.85,0.675,0.325]","","",""
"sailing-trial","301","1806267","0.0-11.0-266.0","","","","false","","","","","","","","","","7333.599999997765","","156.19999999925494","","1","1","arrowleft","0","arrowright","[0.15,0.85,0.675,0.325]","","",""
"sailing-trial","302","1812110","0.0-11.0-267.0","","","","false","","","","","","","","","","null","","3697.199999999255","","1","1","null","null","arrowup","[0.15,0.85,0.675,0.325]","","",""
"sailing-trial","303","1820642","0.0-11.0-268.0","","","","false","","","","","","","","","","1753.699999999255","","136.90000000223517","","1","1","arrowleft","0","arrowright","[0.15,0.85,0.675,0.325]","","",""
"sailing-trial","304","1826686","0.0-11.0-269.0","","","","false","","","","","","","","","","null","","4424.39999999851","","1","1","null","null","arrowup","[0.15,0.85,0.675,0.325]","","",""
"sailing-trial","305","1831993","0.0-11.0-270.0","","","","false","","","","","","","","","","910.1999999992549","","258.8999999985099","","1","1","arrowleft","0","arrowright","[0.15,0.85,0.675,0.325]","","",""
"sailing-trial","306","1837256","0.0-11.0-271.0","","","","false","","","","","","","","","","null","","2338.800000000745","","3","1","null","null","arrowup","[0.15,0.85,0.675,0.325]","","",""
"sailing-trial","307","1842958","0.0-11.0-272.0","","","","false","","","","","","","","","","961.9000000022352","","186.5","","1","1","arrowleft","0","arrowright","[0.15,0.85,0.675,0.325]","","",""
"sailing-trial","308","1847603","0.0-11.0-273.0","","","","false","","","","","","","","","","null","","2205.300000000745","","3","1","null","null","arrowup","[0.15,0.85,0.675,0.325]","","",""
"sailing-trial","309","1852238","0.0-11.0-274.0","","","","false","","","","","","","","","","1331.0999999977648","","51.899999998509884","","1","0","arrowleft","0","arrowright","[0.15,0.85,0.675,0.325]","","",""
"sailing-trial","310","1858627","0.0-11.0-275.0","","","","false","","","","","","","","","","null","","2915.5","","2","1","null","null","arrowup","[0.15,0.85,0.675,0.325]","","",""
"sailing-trial","311","1864357","0.0-11.0-276.0","","","","false","","","","","","","","","","1552.7999999970198","","1335.6000000014901","","0","0","arrowleft","0","arrowleft","[0.325,0.675,0.85,0.15]","","",""
"sailing-trial","312","1867937","0.0-11.0-277.0","","","","false","","","","","","","","","","null","","1448.800000000745","","2","1","null","null","arrowup","[0.325,0.675,0.85,0.15]","","",""
"sailing-trial","313","1872449","0.0-11.0-278.0","","","","false","","","","","","","","","","746","","180.5","","2","1","arrowright","1","arrowleft","[0.325,0.675,0.85,0.15]","","",""
"sailing-trial","314","1877177","0.0-11.0-279.0","","","","false","","","","","","","","","","null","","651.7999999970198","","0","1","null","null","arrowup","[0.325,0.675,0.85,0.15]","","",""
"sailing-trial","315","1881204","0.0-11.0-280.0","","","","false","","","","","","","","","","582.3999999985099","","48.30000000074506","","2","1","arrowright","1","arrowleft","[0.325,0.675,0.85,0.15]","","",""
"sailing-trial","316","1883276","0.0-11.0-281.0","","","","false","","","","","","","","","","null","","643.5","","0","0","null","null","arrowup","[0.325,0.675,0.85,0.15]","","",""
"sailing-trial","317","1887423","0.0-11.0-282.0","","","","false","","","","","","","","","","593.5","","5.099999997764826","","2","1","arrowright","1","arrowleft","[0.325,0.675,0.85,0.15]","","",""
"sailing-trial","318","1890376","0.0-11.0-283.0","","","","false","","","","","","","","","","null","","994.9000000022352","","2","0","null","null","arrowup","[0.325,0.675,0.85,0.15]","","",""
"sailing-trial","319","1897600","0.0-11.0-284.0","","","","false","","","","","","","","","","1705.5","","1785.199999999255","","0","0","arrowleft","0","arrowleft","[0.325,0.675,0.85,0.15]","","",""
"sailing-trial","320","1899912","0.0-11.0-285.0","","","","false","","","","","","","","","","null","","923.8999999985099","","3","0","null","null","arrowup","[0.325,0.675,0.85,0.15]","","",""
"sailing-trial","321","1906982","0.0-11.0-286.0","","","","false","","","","","","","","","","2517.10000000149","","1285.6000000014901","","2","1","arrowright","1","arrowleft","[0.325,0.675,0.85,0.15]","","",""
"sailing-trial","322","1910861","0.0-11.0-287.0","","","","false","","","","","","","","","","null","","1701.5999999977648","","2","1","null","null","arrowup","[0.325,0.675,0.85,0.15]","","",""
"sailing-trial","323","1914938","0.0-11.0-288.0","","","","false","","","","","","","","","","557.4000000022352","","223.40000000223517","","2","1","arrowright","1","arrowleft","[0.325,0.675,0.85,0.15]","","",""
"sailing-trial","324","1918812","0.0-11.0-289.0","","","","false","","","","","","","","","","null","","1329.800000000745","","3","1","null","null","arrowup","[0.325,0.675,0.85,0.15]","","",""
"sailing-trial","325","1923241","0.0-11.0-290.0","","","","false","","","","","","","","","","1182.5999999977648","","76.19999999925494","","2","1","arrowright","1","arrowleft","[0.325,0.675,0.85,0.15]","","",""
"sailing-trial","326","1925572","0.0-11.0-291.0","","","","false","","","","","","","","","","null","","893.8999999985099","","3","0","null","null","arrowup","[0.325,0.675,0.85,0.15]","","",""
"sailing-trial","327","1931267","0.0-11.0-292.0","","","","false","","","","","","","","","","564.1999999992549","","552.9000000022352","","2","1","arrowright","1","arrowleft","[0.325,0.675,0.85,0.15]","","",""
"sailing-trial","328","1934519","0.0-11.0-293.0","","","","false","","","","","","","","","","null","","1230.3999999985099","","1","1","null","null","arrowup","[0.325,0.675,0.85,0.15]","","",""
"sailing-trial","329","1941835","0.0-11.0-294.0","","","","false","","","","","","","","","","1816.8999999985099","","283.5","","2","1","arrowright","1","arrowleft","[0.325,0.675,0.85,0.15]","","",""
"sailing-trial","330","1944091","0.0-11.0-295.0","","","","false","","","","","","","","","","null","","649.1000000014901","","3","0","null","null","arrowup","[0.325,0.675,0.85,0.15]","","",""
"sailing-trial","331","1949107","0.0-11.0-296.0","","","","false","","","","","","","","","","922.8999999985099","","1096.199999999255","","2","0","arrowright","1","arrowleft","[0.15,0.85,0.675,0.325]","","",""
"sailing-trial","332","1952747","0.0-11.0-297.0","","","","false","","","","","","","","","","null","","2007.0999999977648","","1","0","null","null","arrowup","[0.15,0.85,0.675,0.325]","","",""
"sailing-trial","333","1957292","0.0-11.0-298.0","","","","false","","","","","","","","","","707.3999999985099","","225.69999999925494","","2","1","arrowright","1","arrowleft","[0.15,0.85,0.675,0.325]","","",""
"sailing-trial","334","1960613","0.0-11.0-299.0","","","","false","","","","","","","","","","null","","1141.5","","1","1","null","null","arrowup","[0.15,0.85,0.675,0.325]","","",""
"sailing-trial","335","1965151","0.0-11.0-300.0","","","","false","","","","","","","","","","746.5999999977648","","199.89999999850988","","2","1","arrowright","1","arrowleft","[0.15,0.85,0.675,0.325]","","",""
"sailing-trial","336","1967976","0.0-11.0-301.0","","","","false","","","","","","","","","","null","","718.9000000022352","","2","1","null","null","arrowup","[0.15,0.85,0.675,0.325]","","",""
"sailing-trial","337","1975076","0.0-11.0-302.0","","","","false","","","","","","","","","","1757.7000000029802","","386.4000000022352","","1","1","arrowleft","0","arrowright","[0.15,0.85,0.675,0.325]","","",""
"sailing-trial","338","1977441","0.0-11.0-303.0","","","","false","","","","","","","","","","null","","704.8000000007451","","2","0","null","null","arrowup","[0.15,0.85,0.675,0.325]","","",""
"sailing-trial","339","1982145","0.0-11.0-304.0","","","","false","","","","","","","","","","740.6000000014901","","467.4000000022352","","1","1","arrowleft","0","arrowright","[0.15,0.85,0.675,0.325]","","",""
"sailing-trial","340","1987921","0.0-11.0-305.0","","","","false","","","","","","","","","","null","","3421.60000000149","","2","1","null","null","arrowup","[0.15,0.85,0.675,0.325]","","",""
"sailing-trial","341","1993196","0.0-11.0-306.0","","","","false","","","","","","","","","","2156","","370.80000000074506","","1","0","arrowleft","0","arrowright","[0.15,0.85,0.675,0.325]","","",""
"sailing-trial","342","1996609","0.0-11.0-307.0","","","","false","","","","","","","","","","null","","1146.0999999977648","","2","1","null","null","arrowup","[0.15,0.85,0.675,0.325]","","",""
"sailing-trial","343","2002803","0.0-11.0-308.0","","","","false","","","","","","","","","","2356.800000000745","","433.69999999925494","","2","1","arrowright","1","arrowleft","[0.15,0.85,0.675,0.325]","","",""
"sailing-trial","344","2005205","0.0-11.0-309.0","","","","false","","","","","","","","","","null","","750","","0","0","null","null","arrowup","[0.15,0.85,0.675,0.325]","","",""
"sailing-trial","345","2008881","0.0-11.0-310.0","","","","false","","","","","","","","","","881.1999999992549","","34.19999999925494","","2","0","arrowright","1","arrowleft","[0.15,0.85,0.675,0.325]","","",""
"sailing-trial","346","2011773","0.0-11.0-311.0","","","","false","","","","","","","","","","null","","796.8999999985099","","1","1","null","null","arrowup","[0.15,0.85,0.675,0.325]","","",""
"sailing-trial","347","2015861","0.0-11.0-312.0","","","","false","","","","","","","","","","439.80000000074506","","173.39999999850988","","1","0","arrowleft","0","arrowright","[0.85,0.15,0.325,0.675]","","",""
"sailing-trial","348","2019490","0.0-11.0-313.0","","","","false","","","","","","","","","","null","","1214.0999999977648","","2","1","null","null","arrowup","[0.85,0.15,0.325,0.675]","","",""
"sailing-trial","349","2025117","0.0-11.0-314.0","","","","false","","","","","","","","","","1957","","308.19999999925494","","1","0","arrowleft","0","arrowright","[0.85,0.15,0.325,0.675]","","",""
"sailing-trial","350","2030565","0.0-11.0-315.0","","","","false","","","","","","","","","","null","","3720.699999999255","","2","0","null","null","arrowup","[0.85,0.15,0.325,0.675]","","",""
"sailing-trial","351","2036152","0.0-11.0-316.0","","","","false","","","","","","","","","","1251.5999999977648","","423.5999999977648","","1","1","arrowleft","0","arrowright","[0.85,0.15,0.325,0.675]","","",""
"sailing-trial","352","2038656","0.0-11.0-317.0","","","","false","","","","","","","","","","null","","934.5","","3","0","null","null","arrowup","[0.85,0.15,0.325,0.675]","","",""
"sailing-trial","353","2043422","0.0-11.0-318.0","","","","false","","","","","","","","","","685.3999999985099","","789.8999999985099","","2","1","arrowright","1","arrowleft","[0.85,0.15,0.325,0.675]","","",""
"sailing-trial","354","2046095","0.0-11.0-319.0","","","","false","","","","","","","","","","null","","705.8999999985099","","3","1","null","null","arrowup","[0.85,0.15,0.325,0.675]","","",""
"sailing-trial","355","2049110","0.0-11.0-320.0","","","","false","","","","","","","","","","418.5","","28.099999997764826","","2","0","arrowright","1","arrowleft","[0.85,0.15,0.325,0.675]","","",""
"sailing-trial","356","2051830","0.0-11.0-321.0","","","","false","","","","","","","","","","null","","1349.5","","2","0","null","null","arrowup","[0.85,0.15,0.325,0.675]","","",""
"sailing-trial","357","2058911","0.0-11.0-322.0","","","","false","","","","","","","","","","631.8000000007451","","2969.5","","2","0","arrowright","1","arrowleft","[0.85,0.15,0.325,0.675]","","",""
"sailing-trial","358","2062257","0.0-11.0-323.0","","","","false","","","","","","","","","","null","","782.6000000014901","","3","1","null","null","arrowup","[0.85,0.15,0.325,0.675]","","",""
"sailing-trial","359","2067473","0.0-11.0-324.0","","","","false","","","","","","","","","","984.0999999977648","","985.5","","2","0","arrowright","1","arrowleft","[0.85,0.15,0.325,0.675]","","",""
"sailing-trial","360","2073042","0.0-11.0-325.0","","","","false","","","","","","","","","","null","","3319.199999999255","","3","1","null","null","arrowup","[0.85,0.15,0.325,0.675]","","",""
"sailing-trial","361","2080173","0.0-11.0-326.0","","","","false","","","","","","","","","","1688.7000000029802","","2000.800000000745","","2","0","arrowright","1","arrowleft","[0.85,0.15,0.325,0.675]","","",""
"sailing-trial","362","2084334","0.0-11.0-327.0","","","","false","","","","","","","","","","null","","2543.39999999851","","1","0","null","null","arrowup","[0.85,0.15,0.325,0.675]","","",""
"sailing-trial","363","2088320","0.0-11.0-328.0","","","","false","","","","","","","","","","725.4000000022352","","245.89999999850988","","2","1","arrowright","1","arrowleft","[0.675,0.325,0.15,0.85]","","",""
"sailing-trial","364","2090838","0.0-11.0-329.0","","","","false","","","","","","","","","","null","","780.3000000007451","","2","0","null","null","arrowup","[0.675,0.325,0.15,0.85]","","",""
"sailing-trial","365","2096679","0.0-11.0-330.0","","","","false","","","","","","","","","","2059","","597.5","","2","0","arrowright","1","arrowleft","[0.675,0.325,0.15,0.85]","","",""
"sailing-trial","366","2100127","0.0-11.0-331.0","","","","false","","","","","","","","","","null","","1101","","3","1","null","null","arrowup","[0.675,0.325,0.15,0.85]","","",""
"sailing-trial","367","2105446","0.0-11.0-332.0","","","","false","","","","","","","","","","1166.2999999970198","","340.70000000298023","","2","0","arrowright","1","arrowleft","[0.675,0.325,0.15,0.85]","","",""
"sailing-trial","368","2109261","0.0-11.0-333.0","","","","false","","","","","","","","","","null","","1624.6000000014901","","3","1","null","null","arrowup","[0.675,0.325,0.15,0.85]","","",""
"sailing-trial","369","2113508","0.0-11.0-334.0","","","","false","","","","","","","","","","621.3999999985099","","82.60000000149012","","3","1","arrowright","1","arrowright","[0.675,0.325,0.15,0.85]","","",""
"sailing-trial","370","2115926","0.0-11.0-335.0","","","","false","","","","","","","","","","null","","668.3999999985099","","3","0","null","null","arrowup","[0.675,0.325,0.15,0.85]","","",""
"sailing-trial","371","2121439","0.0-11.0-336.0","","","","false","","","","","","","","","","753.7999999970198","","436.1000000014901","","3","1","arrowright","1","arrowright","[0.675,0.325,0.15,0.85]","","",""
"sailing-trial","372","2123834","0.0-11.0-337.0","","","","false","","","","","","","","","","null","","753.5","","2","0","null","null","arrowup","[0.675,0.325,0.15,0.85]","","",""
"sailing-trial","373","2128589","0.0-11.0-338.0","","","","false","","","","","","","","","","613.5","","52.400000002235174","","3","1","arrowright","1","arrowright","[0.675,0.325,0.15,0.85]","","",""
"sailing-trial","374","2131942","0.0-11.0-339.0","","","","false","","","","","","","","","","null","","1666.199999999255","","2","0","null","null","arrowup","[0.675,0.325,0.15,0.85]","","",""
"sailing-trial","375","2136466","0.0-11.0-340.0","","","","false","","","","","","","","","","766.0999999977648","","43.80000000074506","","1","0","arrowleft","0","arrowright","[0.675,0.325,0.15,0.85]","","",""
"sailing-trial","376","2139832","0.0-11.0-341.0","","","","false","","","","","","","","","","null","","1210.8999999985099","","3","1","null","null","arrowup","[0.675,0.325,0.15,0.85]","","",""
"sailing-trial","377","2144346","0.0-11.0-342.0","","","","false","","","","","","","","","","537.0999999977648","","182.89999999850988","","0","1","arrowleft","0","arrowleft","[0.675,0.325,0.15,0.85]","","",""
"sailing-trial","378","2146935","0.0-11.0-343.0","","","","false","","","","","","","","","","null","","662.4000000022352","","0","1","null","null","arrowup","[0.675,0.325,0.15,0.85]","","",""
"sailing-trial","379","2151411","0.0-11.0-344.0","","","","false","","","","","","","","","","457","","209.5","","0","1","arrowleft","0","arrowleft","[0.675,0.325,0.15,0.85]","","",""
"sailing-trial","380","2154072","0.0-11.0-345.0","","","","false","","","","","","","","","","null","","971.5","","1","0","null","null","arrowup","[0.675,0.325,0.15,0.85]","","",""
"sailing-trial","381","2158056","0.0-11.0-346.0","","","","false","","","","","","","","","","608.6999999992549","","266","","0","0","arrowleft","0","arrowleft","[0.325,0.675,0.85,0.15]","","",""
"sailing-trial","382","2162224","0.0-11.0-347.0","","","","false","","","","","","","","","","null","","1948.1000000014901","","0","1","null","null","arrowup","[0.325,0.675,0.85,0.15]","","",""
"sailing-trial","383","2165889","0.0-11.0-348.0","","","","false","","","","","","","","","","141.69999999925494","","22.300000000745058","","3","0","arrowright","1","arrowright","[0.325,0.675,0.85,0.15]","","",""
"sailing-trial","384","2168486","0.0-11.0-349.0","","","","false","","","","","","","","","","null","","196.10000000149012","","2","1","null","null","arrowup","[0.325,0.675,0.85,0.15]","","",""
"sailing-trial","385","2172595","0.0-11.0-350.0","","","","false","","","","","","","","","","368.69999999925494","","128.30000000074506","","2","1","arrowright","1","arrowleft","[0.325,0.675,0.85,0.15]","","",""
"sailing-trial","386","2175732","0.0-11.0-351.0","","","","false","","","","","","","","","","null","","1120.199999999255","","0","1","null","null","arrowup","[0.325,0.675,0.85,0.15]","","",""
"sailing-trial","387","2179395","0.0-11.0-352.0","","","","false","","","","","","","","","","487.20000000298023","","7.699999999254942","","2","1","arrowright","1","arrowleft","[0.325,0.675,0.85,0.15]","","",""
"sailing-trial","388","2181667","0.0-11.0-353.0","","","","false","","","","","","","","","","null","","699.2000000029802","","3","0","null","null","arrowup","[0.325,0.675,0.85,0.15]","","",""
"sailing-trial","389","2186310","0.0-11.0-354.0","","","","false","","","","","","","","","","637.6999999992549","","633.1999999992549","","2","1","arrowright","1","arrowleft","[0.325,0.675,0.85,0.15]","","",""
"sailing-trial","390","2189471","0.0-11.0-355.0","","","","false","","","","","","","","","","null","","1072.6000000014901","","0","1","null","null","arrowup","[0.325,0.675,0.85,0.15]","","",""
"sailing-trial","391","2194618","0.0-11.0-356.0","","","","false","","","","","","","","","","1571.3999999985099","","44.19999999925494","","2","1","arrowright","1","arrowleft","[0.325,0.675,0.85,0.15]","","",""
"sailing-trial","392","2196862","0.0-11.0-357.0","","","","false","","","","","","","","","","null","","678","","0","0","null","null","arrowup","[0.325,0.675,0.85,0.15]","","",""
"sailing-trial","393","2201616","0.0-11.0-358.0","","","","false","","","","","","","","","","788.5","","647.3999999985099","","2","1","arrowright","1","arrowleft","[0.325,0.675,0.85,0.15]","","",""
"sailing-trial","394","2205260","0.0-11.0-359.0","","","","false","","","","","","","","","","null","","1061.199999999255","","1","1","null","null","arrowup","[0.325,0.675,0.85,0.15]","","",""
"sailing-trial","395","2209787","0.0-11.0-360.0","","","","false","","","","","","","","","","608.2000000029802","","3","","2","1","arrowright","1","arrowleft","[0.325,0.675,0.85,0.15]","","",""
"sailing-trial","396","2212172","0.0-11.0-361.0","","","","false","","","","","","","","","","null","","754.8999999985099","","0","0","null","null","arrowup","[0.325,0.675,0.85,0.15]","","",""
"sailing-trial","397","2216440","0.0-11.0-362.0","","","","false","","","","","","","","","","677.2999999970198","","62.600000001490116","","1","1","arrowleft","0","arrowright","[0.15,0.85,0.675,0.325]","","",""
"sailing-trial","398","2219181","0.0-11.0-363.0","","","","false","","","","","","","","","","null","","774.8000000007451","","1","1","null","null","arrowup","[0.15,0.85,0.675,0.325]","","",""
"sailing-trial","399","2225763","0.0-11.0-364.0","","","","false","","","","","","","","","","596.1999999992549","","2745.39999999851","","1","1","arrowleft","0","arrowright","[0.15,0.85,0.675,0.325]","","",""
"sailing-trial","400","2228363","0.0-11.0-365.0","","","","false","","","","","","","","","","null","","1069.3999999985099","","1","0","null","null","arrowup","[0.15,0.85,0.675,0.325]","","",""
"sailing-trial","401","2233209","0.0-11.0-366.0","","","","false","","","","","","","","","","879.6000000014901","","498.69999999925494","","1","1","arrowleft","0","arrowright","[0.15,0.85,0.675,0.325]","","",""
"sailing-trial","402","2236109","0.0-11.0-367.0","","","","false","","","","","","","","","","null","","1186","","0","0","null","null","arrowup","[0.15,0.85,0.675,0.325]","","",""
"sailing-trial","403","2241149","0.0-11.0-368.0","","","","false","","","","","","","","","","586","","953.6999999992549","","1","1","arrowleft","0","arrowright","[0.15,0.85,0.675,0.325]","","",""
"sailing-trial","404","2243413","0.0-11.0-369.0","","","","false","","","","","","","","","","null","","683.1000000014901","","0","0","null","null","arrowup","[0.15,0.85,0.675,0.325]","","",""
"sailing-trial","405","2248161","0.0-11.0-370.0","","","","false","","","","","","","","","","803.3000000007451","","5.599999997764826","","1","1","arrowleft","0","arrowright","[0.15,0.85,0.675,0.325]","","",""
"sailing-trial","406","2250883","0.0-11.0-371.0","","","","false","","","","","","","","","","null","","978.3000000007451","","3","0","null","null","arrowup","[0.15,0.85,0.675,0.325]","","",""
"sailing-trial","407","2257678","0.0-11.0-372.0","","","","false","","","","","","","","","","1986.699999999255","","1298.5","","1","1","arrowleft","0","arrowright","[0.15,0.85,0.675,0.325]","","",""
"sailing-trial","408","2261126","0.0-11.0-373.0","","","","false","","","","","","","","","","null","","1511.199999999255","","1","1","null","null","arrowup","[0.15,0.85,0.675,0.325]","","",""
"sailing-trial","409","2266431","0.0-11.0-374.0","","","","false","","","","","","","","","","1389.800000000745","","158.19999999925494","","1","1","arrowleft","0","arrowright","[0.15,0.85,0.675,0.325]","","",""
"sailing-trial","410","2270296","0.0-11.0-375.0","","","","false","","","","","","","","","","null","","1626.800000000745","","2","1","null","null","arrowup","[0.15,0.85,0.675,0.325]","","",""
"sailing-trial","411","2276308","0.0-11.0-376.0","","","","false","","","","","","","","","","2215.5","","320","","1","1","arrowleft","0","arrowright","[0.15,0.85,0.675,0.325]","","",""
"sailing-trial","412","2278764","0.0-11.0-377.0","","","","false","","","","","","","","","","null","","864.1999999992549","","3","0","null","null","arrowup","[0.15,0.85,0.675,0.325]","","",""
"sailing-trial","413","2284345","0.0-11.0-378.0","","","","false","","","","","","","","","","758.8000000007451","","1074.199999999255","","2","1","arrowright","1","arrowleft","[0.15,0.85,0.675,0.325]","","",""
"sailing-trial","414","2286624","0.0-11.0-379.0","","","","false","","","","","","","","","","null","","707.9000000022352","","3","0","null","null","arrowup","[0.15,0.85,0.675,0.325]","","",""
"sailing-trial","415","2291845","0.0-11.0-380.0","","","","false","","","","","","","","","","758.4000000022352","","296.69999999925494","","2","1","arrowright","1","arrowleft","[0.15,0.85,0.675,0.325]","","",""
"sailing-trial","416","2295358","0.0-11.0-381.0","","","","false","","","","","","","","","","null","","1802","","0","0","null","null","arrowup","[0.15,0.85,0.675,0.325]","","",""
"sailing-trial","417","2300691","0.0-11.0-382.0","","","","false","","","","","","","","","","1019.3999999985099","","358.19999999925494","","2","1","arrowright","1","arrowleft","[0.325,0.675,0.85,0.15]","","",""
"sailing-trial","418","2303126","0.0-11.0-383.0","","","","false","","","","","","","","","","null","","903.3000000007451","","3","0","null","null","arrowup","[0.325,0.675,0.85,0.15]","","",""
"sailing-trial","419","2307219","0.0-11.0-384.0","","","","false","","","","","","","","","","761.4000000022352","","93.69999999925494","","2","0","arrowright","1","arrowleft","[0.325,0.675,0.85,0.15]","","",""
"sailing-trial","420","2311482","0.0-11.0-385.0","","","","false","","","","","","","","","","null","","1247","","1","0","null","null","arrowup","[0.325,0.675,0.85,0.15]","","",""
"sailing-trial","421","2320507","0.0-11.0-386.0","","","","false","","","","","","","","","","1181.9000000022352","","354.4000000022352","","2","1","arrowright","1","arrowleft","[0.325,0.675,0.85,0.15]","","",""
"sailing-trial","422","2327722","0.0-11.0-387.0","","","","false","","","","","","","","","","null","","3934.5","","2","1","null","null","arrowup","[0.325,0.675,0.85,0.15]","","",""
"sailing-trial","423","2338345","0.0-11.0-388.0","","","","false","","","","","","","","","","7033.300000000745","","182.10000000149012","","1","1","arrowleft","0","arrowright","[0.325,0.675,0.85,0.15]","","",""
"sailing-trial","424","2343238","0.0-11.0-389.0","","","","false","","","","","","","","","","null","","2997.89999999851","","0","0","null","null","arrowup","[0.325,0.675,0.85,0.15]","","",""
"sailing-trial","425","2348710","0.0-11.0-390.0","","","","false","","","","","","","","","","882.5","","677.0999999977648","","2","1","arrowright","1","arrowleft","[0.325,0.675,0.85,0.15]","","",""
"sailing-trial","426","2351846","0.0-11.0-391.0","","","","false","","","","","","","","","","null","","844.4000000022352","","2","1","null","null","arrowup","[0.325,0.675,0.85,0.15]","","",""
"sailing-trial","427","2356338","0.0-11.0-392.0","","","","false","","","","","","","","","","1187.4000000022352","","158.39999999850988","","1","1","arrowleft","0","arrowright","[0.325,0.675,0.85,0.15]","","",""
"sailing-trial","428","2358923","0.0-11.0-393.0","","","","false","","","","","","","","","","null","","701.5","","2","1","null","null","arrowup","[0.325,0.675,0.85,0.15]","","",""
"sailing-trial","429","2362597","0.0-11.0-394.0","","","","false","","","","","","","","","","430.20000000298023","","56.19999999925494","","1","1","arrowleft","0","arrowright","[0.325,0.675,0.85,0.15]","","",""
"sailing-trial","430","2364753","0.0-11.0-395.0","","","","false","","","","","","","","","","null","","620.9000000022352","","0","0","null","null","arrowup","[0.325,0.675,0.85,0.15]","","",""
"sailing-trial","431","2368875","0.0-11.0-396.0","","","","false","","","","","","","","","","687.3000000007451","","68","","1","1","arrowleft","0","arrowright","[0.325,0.675,0.85,0.15]","","",""
"sailing-trial","432","2371601","0.0-11.0-397.0","","","","false","","","","","","","","","","null","","843.6999999992549","","1","1","null","null","arrowup","[0.325,0.675,0.85,0.15]","","",""
"sailing-trial","433","2375712","0.0-11.0-398.0","","","","false","","","","","","","","","","637.5999999977648","","161.19999999925494","","1","1","arrowleft","0","arrowright","[0.325,0.675,0.85,0.15]","","",""
"sailing-trial","434","2377848","0.0-11.0-399.0","","","","false","","","","","","","","","","null","","473.5","","0","0","null","null","arrowup","[0.325,0.675,0.85,0.15]","","",""
"instructions","435","2385171","0.0-12.0","","","","","","","","","","7321.199999999255","","","","","","","","","","","","","","","","[{""page_index"":0,""viewing_time"":7320.199999999255}]"
"survey-debrief","436","2404888","0.0-13.0","","","","","","","","","","19710.300000000745","","","","","","","","","","","","","","{""difficulty"":""4"",""fun"":""1"",""clarity"":""5"",""strategy"":""none"",""feedback"":""n/a""}","",""
