"trial_type","trial_index","time_elapsed","internal_node_id","value","metadata","success","timeout","failed_images","failed_audio","failed_video","browser_interaction","low_quality","rt","stimulus","response","button_pressed","island_rt","island_response","boat_rt","boat_response","boat","reward","island_key","island","boat_key","reward_probabilities","responses","num_errors","view_history"
"pavlovia","0","3","0.0-0.0","","","","","","","","","","","","","","","","","","","","","","","","","",""
"call-function","1","3","0.0-1.0","","{""task_version"":""sailing_part1_v1"",""task_condition"":""good"",""boats"":[""C"",""B"",""A"",""D""],""boats_demo"":[""E"",""F"",""H"",""G""],""islands"":[""A"",""B""],""subject_id"":""14541"",""age"":""15"",""gender"":""Male""}","","","","","","","","","","","","","","","","","","","","","","","",""
"preload","2","1617","0.0-2.0","","","true","false","[]","[]","[]","[{""event"":""fullscreenenter"",""trial"":3,""time"":6344}]","false","","","","","","","","","","","","","","","","",""
"fullscreen","3","7341","0.0-3.0","","","true","","","","","","","","","","","","","","","","","","","","","","",""
"audio-keyboard-response","4","9681","0.0-4.0-0.0","","","","","","","","","","2142.0408163265306","audio/beep_loop.wav"," ","","","","","","","","","","","","","",""
"audio-test","5","11382","0.0-4.0-1.0","","","","","","","","","","null","audio/turtle.mp3","","3","","","","","","","","","","","","",""
"audio-test","6","13586","0.0-4.0-2.0","","","","","","","","","","null","audio/shark.mp3","","2","","","","","","","","","","","","",""
"sailing-instructions","7","63080","0.0-5.0-0.0-0.0","","","","","","","","","","","","","","null","null","null","null","null","null","","","","","","",""
"sailing-trial","8","66041","0.0-5.0-0.0-1.0-0.0","","","","false","","","","","","","","","","1859.8999998569489","","null","","null","null","arrowleft","0","null","null","","",""
"sailing-trial","9","68141","0.0-5.0-0.0-1.0-1.0","","","","false","","","","","","","","","","1000.1000001430511","","null","","null","null","arrowright","1","null","null","","",""
"sailing-trial","10","71228","0.0-5.0-0.0-1.0-2.0","","","","false","","","","","","","","","","1989.7999999523163","","null","","null","null","arrowleft","0","null","null","","",""
"sailing-instructions","11","109994","0.0-5.0-0.0-2.0","","","","","","","","","","","","","","null","null","null","null","0","null","","","","","","",""
"sailing-trial","12","114440","0.0-5.0-0.0-3.0-0.0","","","","false","","","","","","","","","","null","","1547.4000000953674","","2","1","null","null","arrowleft","[1,1,1,1]","","",""
"sailing-trial","13","117243","0.0-5.0-0.0-3.0-1.0","","","","false","","","","","","","","","","null","","287.2000000476837","","3","1","null","null","arrowright","[1,1,1,1]","","",""
"sailing-trial","14","120205","0.0-5.0-0.0-3.0-2.0","","","","false","","","","","","","","","","null","","220.80000019073486","","2","0","null","null","arrowleft","[0,0,0,0]","","",""
"sailing-instructions","15","127578","0.0-5.0-0.0-4.0","","","","","","","","","","","","","","null","null","null","null","null","null","","","","","","",""
"sailing-comprehension","16","146469","0.0-5.0-0.0-5.0","","","","","","","","","","15080.599999904633","","","","","","","","","","","","","","[""true"",""false"",""false"",""true""]","1",""
"sailing-instructions","17","173334","0.0-5.0-0.1-0.1","","","","","","","","","","","","","","null","null","null","null","null","null","","","","","","",""
"sailing-trial","18","175787","0.0-5.0-0.1-1.1-0.1","","","","false","","","","","","","","","","1334.3000001907349","","null","","null","null","arrowleft","0","null","null","","",""
"sailing-trial","19","177038","0.0-5.0-0.1-1.1-1.1","","","","false","","","","","","","","","","125.69999980926514","","null","","null","null","arrowright","1","null","null","","",""
"sailing-trial","20","178155","0.0-5.0-0.1-1.1-2.1","","","","false","","","","","","","","","","0.09999990463256836","","null","","null","null","arrowleft","0","null","null","","",""
"sailing-instructions","21","215980","0.0-5.0-0.1-2.1","","","","","","","","","","","","","","null","null","null","null","0","null","","","","","","",""
"sailing-trial","22","220419","0.0-5.0-0.1-3.1-0.1","","","","false","","","","","","","","","","null","","2146.0999999046326","","2","1","null","null","arrowleft","[1,1,1,1]","","",""
"sailing-trial","23","223202","0.0-5.0-0.1-3.1-1.1","","","","false","","","","","","","","","","null","","641","","3","1","null","null","arrowright","[1,1,1,1]","","",""
"sailing-trial","24","224936","0.0-5.0-0.1-3.1-2.1","","","","false","","","","","","","","","","null","","75","","3","0","null","null","arrowright","[0,0,0,0]","","",""
"sailing-instructions","25","232108","0.0-5.0-0.1-4.1","","","","","","","","","","","","","","null","null","null","null","null","null","","","","","","",""
"sailing-comprehension","26","249041","0.0-5.0-0.1-5.1","","","","","","","","","","14535.600000143051","","","","","","","","","","","","","","[""true"",""true"",""false"",""true""]","0",""
"sailing-instructions","27","306852","0.0-6.0-0.0-0.0","","","","","","","","","","","","","","null","null","null","null","null","null","","","","","","",""
"sailing-comprehension","28","326337","0.0-6.0-0.0-1.0","","","","","","","","","","18015.39999985695","","","","","","","","","","","","","","[""true"",""false"",""true""]","0",""
"sailing-instructions","29","340168","0.0-7.0-0.0-0.0","","","","","","","","","","","","","","null","null","null","null","null","null","","","","","","",""
"sailing-trial","30","344654","0.0-7.0-0.0-1.0-0.0","","","","false","","","","","","","","","","null","","3013.2999999523163","","0","0","null","null","arrowup","[0.2,0.8,0.2,0.8]","","",""
"sailing-trial","31","346635","0.0-7.0-0.0-1.0-1.0","","","","false","","","","","","","","","","null","","626.9000000953674","","1","0","null","null","arrowup","[0.2,0.8,0.2,0.8]","","",""
"sailing-trial","32","348658","0.0-7.0-0.0-1.0-2.0","","","","false","","","","","","","","","","null","","926.7999999523163","","2","0","null","null","arrowup","[0.2,0.8,0.2,0.8]","","",""
"sailing-trial","33","350729","0.0-7.0-0.0-1.0-3.0","","","","false","","","","","","","","","","null","","282.5","","3","1","null","null","arrowup","[0.2,0.8,0.2,0.8]","","",""
"sailing-comprehension","34","364123","0.0-7.0-0.0-2.0","","","","","","","","","","12250.299999952316","","","","","","","","","","","","","","[""false""]","0",""
"sailing-instructions","35","373858","0.0-8.0-0.0-0.0","","","","","","","","","","","","","","null","null","null","null","null","null","","","","","","",""
"sailing-comprehension","36","379498","0.0-8.0-0.0-1.0","","","","","","","","","","4415.400000095367","","","","","","","","","","","","","","[""true""]","0",""
"sailing-instructions","37","407684","0.0-9.0-0.0-0.0","","","","","","","","","","","","","","null","null","null","null","null","null","","","","","","",""
"sailing-trial","38","412640","0.0-9.0-0.0-1.0-0.0","","","","false","","","","","","","","","","1272.9000000953674","","6.400000095367432","","1","1","arrowleft","0","arrowright","[0.2,0.8,0.2,0.8]","","",""
"sailing-trial","39","416343","0.0-9.0-0.0-1.0-1.0","","","","false","","","","","","","","","","682.7000000476837","","231.5","","1","1","arrowleft","0","arrowright","[0.2,0.8,0.2,0.8]","","",""
"sailing-trial","40","419713","0.0-9.0-0.0-1.0-2.0","","","","false","","","","","","","","","","null","","1344","","0","1","null","null","arrowup","[0.2,0.8,0.2,0.8]","","",""
"sailing-trial","41","423114","0.0-9.0-0.0-1.0-3.0","","","","false","","","","","","","","","","509.2999999523163","","119.20000004768372","","1","1","arrowleft","0","arrowright","[0.2,0.8,0.2,0.8]","","",""
"sailing-trial","42","425684","0.0-9.0-0.0-1.0-4.0","","","","false","","","","","","","","","","null","","1023.5999999046326","","3","1","null","null","arrowup","[0.2,0.8,0.2,0.8]","","",""
"sailing-trial","43","428819","0.0-9.0-0.0-1.0-5.0","","","","false","","","","","","","","","","299","","156.60000014305115","","1","1","arrowleft","0","arrowright","[0.2,0.8,0.2,0.8]","","",""
"sailing-instructions","44","452142","0.0-10.0","","","","","","","","","","","","","","null","null","null","null","null","null","","","","","","",""
"sailing-trial","45","456540","0.0-11.0-0.0","","","","false","","","","","","","","","","1380.9000000953674","","113","","1","1","arrowleft","0","arrowright","[0.15,0.85,0.675,0.325]","","",""
"sailing-trial","46","459705","0.0-11.0-1.0","","","","false","","","","","","","","","","null","","1439","","0","0","null","null","arrowup","[0.15,0.85,0.675,0.325]","","",""
"sailing-trial","47","463243","0.0-11.0-2.0","","","","false","","","","","","","","","","493","","264","","1","1","arrowleft","0","arrowright","[0.15,0.85,0.675,0.325]","","",""
"sailing-trial","48","466031","0.0-11.0-3.0","","","","false","","","","","","","","","","null","","615.0999999046326","","3","1","null","null","arrowup","[0.15,0.85,0.675,0.325]","","",""
"sailing-trial","49","468882","0.0-11.0-4.0","","","","false","","","","","","","","","","32.799999952316284","","79.70000004768372","","1","1","arrowleft","0","arrowright","[0.15,0.85,0.675,0.325]","","",""
"sailing-trial","50","470476","0.0-11.0-5.0","","","","false","","","","","","","","","","null","","120.90000009536743","","3","0","null","null","arrowup","[0.15,0.85,0.675,0.325]","","",""
"sailing-trial","51","473601","0.0-11.0-6.0","","","","false","","","","","","","","","","237.79999995231628","","81.20000004768372","","1","1","arrowleft","0","arrowright","[0.15,0.85,0.675,0.325]","","",""
"sailing-trial","52","475437","0.0-11.0-7.0","","","","false","","","","","","","","","","null","","307.80000019073486","","2","1","null","null","arrowup","[0.15,0.85,0.675,0.325]","","",""
"sailing-trial","53","478522","0.0-11.0-8.0","","","","false","","","","","","","","","","197.60000014305115","","48.200000047683716","","1","1","arrowleft","0","arrowright","[0.15,0.85,0.675,0.325]","","",""
"sailing-trial","54","480375","0.0-11.0-9.0","","","","false","","","","","","","","","","null","","186.90000009536743","","2","1","null","null","arrowup","[0.15,0.85,0.675,0.325]","","",""
"sailing-trial","55","483476","0.0-11.0-10.0","","","","false","","","","","","","","","","164.5","","137.09999990463257","","1","1","arrowleft","0","arrowright","[0.15,0.85,0.675,0.325]","","",""
"sailing-trial","56","485190","0.0-11.0-11.0","","","","false","","","","","","","","","","null","","558.4000000953674","","0","0","null","null","arrowup","[0.15,0.85,0.675,0.325]","","",""
"sailing-trial","57","488763","0.0-11.0-12.0","","","","false","","","","","","","","","","688.7000000476837","","50.59999990463257","","1","1","arrowleft","0","arrowright","[0.15,0.85,0.675,0.325]","","",""
"sailing-trial","58","490021","0.0-11.0-13.0","","","","false","","","","","","","","","","null","","86.5","","3","0","null","null","arrowup","[0.15,0.85,0.675,0.325]","","",""
"sailing-trial","59","493449","0.0-11.0-14.0","","","","false","","","","","","","","","","163.10000014305115","","184.29999995231628","","1","1","arrowleft","0","arrowright","[0.15,0.85,0.675,0.325]","","",""
"sailing-trial","60","496185","0.0-11.0-15.0","","","","false","","","","","","","","","","null","","860.4000000953674","","2","1","null","null","arrowup","[0.15,0.85,0.675,0.325]","","",""
"sailing-trial","61","499354","0.0-11.0-16.0","","","","false","","","","","","","","","","374.2000000476837","","45.19999980926514","","1","1","arrowleft","0","arrowright","[0.15,0.85,0.675,0.325]","","",""
"sailing-trial","62","500821","0.0-11.0-17.0","","","","false","","","","","","","","","","null","","204.40000009536743","","0","0","null","null","arrowup","[0.15,0.85,0.675,0.325]","","",""
"sailing-trial","63","503431","0.0-11.0-18.0","","","","false","","","","","","","","","","343","","77.70000004768372","","1","0","arrowleft","0","arrowright","[0.675,0.325,0.15,0.85]","","",""
"sailing-trial","64","505808","0.0-11.0-19.0","","","","false","","","","","","","","","","null","","359.10000014305115","","0","1","null","null","arrowup","[0.675,0.325,0.15,0.85]","","",""
"sailing-trial","65","508847","0.0-11.0-20.0","","","","false","","","","","","","","","","800.9000000953674","","86.90000009536743","","2","0","arrowright","1","arrowleft","[0.675,0.325,0.15,0.85]","","",""
"sailing-trial","66","511292","0.0-11.0-21.0","","","","false","","","","","","","","","","null","","1258.4000000953674","","2","0","null","null","arrowup","[0.675,0.325,0.15,0.85]","","",""
"sailing-trial","67","513693","0.0-11.0-22.0","","","","false","","","","","","","","","","178.20000004768372","","76.19999980926514","","1","0","arrowleft","0","arrowright","[0.675,0.325,0.15,0.85]","","",""
"sailing-trial","68","516249","0.0-11.0-23.0","","","","false","","","","","","","","","","null","","476.60000014305115","","0","1","null","null","arrowup","[0.675,0.325,0.15,0.85]","","",""
"sailing-trial","69","519235","0.0-11.0-24.0","","","","false","","","","","","","","","","73.29999995231628","","50.09999990463257","","0","1","arrowleft","0","arrowleft","[0.675,0.325,0.15,0.85]","","",""
"sailing-trial","70","521854","0.0-11.0-25.0","","","","false","","","","","","","","","","null","","994.5999999046326","","0","1","null","null","arrowup","[0.675,0.325,0.15,0.85]","","",""
"sailing-trial","71","525156","0.0-11.0-26.0","","","","false","","","","","","","","","","430.69999980926514","","7.8999998569488525","","0","1","arrowleft","0","arrowleft","[0.675,0.325,0.15,0.85]","","",""
"sailing-trial","72","527040","0.0-11.0-27.0","","","","false","","","","","","","","","","null","","173.89999985694885","","3","1","null","null","arrowup","[0.675,0.325,0.15,0.85]","","",""
"sailing-trial","73","530110","0.0-11.0-28.0","","","","false","","","","","","","","","","195.60000014305115","","122.5","","0","1","arrowleft","0","arrowleft","[0.675,0.325,0.15,0.85]","","",""
"sailing-trial","74","532461","0.0-11.0-29.0","","","","false","","","","","","","","","","null","","319.30000019073486","","3","1","null","null","arrowup","[0.675,0.325,0.15,0.85]","","",""
"sailing-trial","75","536014","0.0-11.0-30.0","","","","false","","","","","","","","","","248.5","","575.2999999523163","","0","1","arrowleft","0","arrowleft","[0.675,0.325,0.15,0.85]","","",""
"sailing-trial","76","538499","0.0-11.0-31.0","","","","false","","","","","","","","","","null","","625.7000000476837","","3","1","null","null","arrowup","[0.675,0.325,0.15,0.85]","","",""
"sailing-trial","77","540947","0.0-11.0-32.0","","","","false","","","","","","","","","","1.0999999046325684","","71.10000014305115","","0","0","arrowleft","0","arrowleft","[0.675,0.325,0.15,0.85]","","",""
"sailing-trial","78","543033","0.0-11.0-33.0","","","","false","","","","","","","","","","null","","987.5","","1","0","null","null","arrowup","[0.675,0.325,0.15,0.85]","","",""
"sailing-trial","79","546004","0.0-11.0-34.0","","","","false","","","","","","","","","","192.5","","76.89999985694885","","0","1","arrowleft","0","arrowleft","[0.675,0.325,0.15,0.85]","","",""
"sailing-trial","80","547428","0.0-11.0-35.0","","","","false","","","","","","","","","","null","","371.2999999523163","","0","0","null","null","arrowup","[0.675,0.325,0.15,0.85]","","",""
"sailing-trial","81","550958","0.0-11.0-36.0","","","","false","","","","","","","","","","357.5","","186","","0","1","arrowleft","0","arrowleft","[0.675,0.325,0.15,0.85]","","",""
"sailing-trial","82","552589","0.0-11.0-37.0","","","","false","","","","","","","","","","null","","133.59999990463257","","1","0","null","null","arrowup","[0.675,0.325,0.15,0.85]","","",""
"sailing-trial","83","555183","0.0-11.0-38.0","","","","false","","","","","","","","","","101.59999990463257","","308.7000000476837","","0","0","arrowleft","0","arrowleft","[0.85,0.15,0.325,0.675]","","",""
"sailing-trial","84","560266","0.0-11.0-39.0","","","","false","","","","","","","","","","null","","3072.9000000953674","","1","1","null","null","arrowup","[0.85,0.15,0.325,0.675]","","",""
"sailing-trial","85","563132","0.0-11.0-40.0","","","","false","","","","","","","","","","0.09999990463256836","","108.5","","3","0","arrowright","1","arrowright","[0.85,0.15,0.325,0.675]","","",""
"sailing-trial","86","565473","0.0-11.0-41.0","","","","false","","","","","","","","","","null","","1003.9000000953674","","1","0","null","null","arrowup","[0.85,0.15,0.325,0.675]","","",""
"sailing-trial","87","568671","0.0-11.0-42.0","","","","false","","","","","","","","","","402.2000000476837","","47.700000047683716","","3","1","arrowright","1","arrowright","[0.85,0.15,0.325,0.675]","","",""
"sailing-trial","88","570708","0.0-11.0-43.0","","","","false","","","","","","","","","","null","","894.7999999523163","","2","0","null","null","arrowup","[0.85,0.15,0.325,0.675]","","",""
"sailing-trial","89","575493","0.0-11.0-44.0","","","","false","","","","","","","","","","192.79999995231628","","1654.2000000476837","","3","1","arrowright","1","arrowright","[0.85,0.15,0.325,0.675]","","",""
"sailing-trial","90","576874","0.0-11.0-45.0","","","","false","","","","","","","","","","null","","177.90000009536743","","1","0","null","null","arrowup","[0.85,0.15,0.325,0.675]","","",""
"sailing-trial","91","579724","0.0-11.0-46.0","","","","false","","","","","","","","","","177.20000004768372","","228.89999985694885","","3","0","arrowright","1","arrowright","[0.85,0.15,0.325,0.675]","","",""
"sailing-trial","92","581914","0.0-11.0-47.0","","","","false","","","","","","","","","","null","","221.39999985694885","","3","1","null","null","arrowup","[0.85,0.15,0.325,0.675]","","",""
"sailing-trial","93","584785","0.0-11.0-48.0","","","","false","","","","","","","","","","59.200000047683716","","16.399999856948853","","3","1","arrowright","1","arrowright","[0.85,0.15,0.325,0.675]","","",""
"sailing-trial","94","586504","0.0-11.0-49.0","","","","false","","","","","","","","","","null","","322","","1","0","null","null","arrowup","[0.85,0.15,0.325,0.675]","","",""
"sailing-trial","95","589755","0.0-11.0-50.0","","","","false","","","","","","","","","","297.2999999523163","","129.80000019073486","","3","1","arrowright","1","arrowright","[0.85,0.15,0.325,0.675]","","",""
"sailing-trial","96","591124","0.0-11.0-51.0","","","","false","","","","","","","","","","null","","91.29999995231628","","2","0","null","null","arrowup","[0.85,0.15,0.325,0.675]","","",""
"sailing-trial","97","594191","0.0-11.0-52.0","","","","false","","","","","","","","","","237.5","","62","","3","1","arrowright","1","arrowright","[0.85,0.15,0.325,0.675]","","",""
"sailing-trial","98","595834","0.0-11.0-53.0","","","","false","","","","","","","","","","null","","515.5","","2","0","null","null","arrowup","[0.85,0.15,0.325,0.675]","","",""
"sailing-trial","99","598458","0.0-11.0-54.0","","","","false","","","","","","","","","","387.30000019073486","","51.59999990463257","","3","0","arrowright","1","arrowright","[0.325,0.675,0.85,0.15]","","",""
"sailing-trial","100","601762","0.0-11.0-55.0","","","","false","","","","","","","","","","null","","1678.2000000476837","","2","1","null","null","arrowup","[0.325,0.675,0.85,0.15]","","",""
"sailing-trial","101","604898","0.0-11.0-56.0","","","","false","","","","","","","","","","384.90000009536743","","11.199999809265137","","3","1","arrowright","1","arrowright","[0.325,0.675,0.85,0.15]","","",""
"sailing-trial","102","606709","0.0-11.0-57.0","","","","false","","","","","","","","","","null","","158.29999995231628","","3","0","null","null","arrowup","[0.325,0.675,0.85,0.15]","","",""
"sailing-trial","103","610019","0.0-11.0-58.0","","","","false","","","","","","","","","","178.5","","387.5","","0","1","arrowleft","0","arrowleft","[0.325,0.675,0.85,0.15]","","",""
"sailing-trial","104","613136","0.0-11.0-59.0","","","","false","","","","","","","","","","null","","872.7000000476837","","2","1","null","null","arrowup","[0.325,0.675,0.85,0.15]","","",""
"sailing-trial","105","616623","0.0-11.0-60.0","","","","false","","","","","","","","","","381.5","","350.10000014305115","","0","1","arrowleft","0","arrowleft","[0.325,0.675,0.85,0.15]","","",""
"sailing-trial","106","618441","0.0-11.0-61.0","","","","false","","","","","","","","","","null","","120.20000004768372","","0","1","null","null","arrowup","[0.325,0.675,0.85,0.15]","","",""
"sailing-trial","107","621644","0.0-11.0-62.0","","","","false","","","","","","","","","","311.40000009536743","","186.79999995231628","","0","1","arrowleft","0","arrowleft","[0.325,0.675,0.85,0.15]","","",""
"sailing-trial","108","623610","0.0-11.0-63.0","","","","false","","","","","","","","","","null","","18.90000009536743","","1","1","null","null","arrowup","[0.325,0.675,0.85,0.15]","","",""
"sailing-trial","109","626331","0.0-11.0-64.0","","","","false","","","","","","","","","","2.5","","86.5","","0","1","arrowleft","0","arrowleft","[0.325,0.675,0.85,0.15]","","",""
"sailing-trial","110","628047","0.0-11.0-65.0","","","","false","","","","","","","","","","null","","11.200000047683716","","2","1","null","null","arrowup","[0.325,0.675,0.85,0.15]","","",""
"sailing-trial","111","630455","0.0-11.0-66.0","","","","false","","","","","","","","","","20.799999952316284","","146.40000009536743","","0","0","arrowleft","0","arrowleft","[0.325,0.675,0.85,0.15]","","",""
"sailing-trial","112","632433","0.0-11.0-67.0","","","","false","","","","","","","","","","null","","267.7999999523163","","2","1","null","null","arrowup","[0.325,0.675,0.85,0.15]","","",""
"sailing-trial","113","635486","0.0-11.0-68.0","","","","false","","","","","","","","","","164.59999990463257","","108.09999990463257","","0","1","arrowleft","0","arrowleft","[0.325,0.675,0.85,0.15]","","",""
"sailing-trial","114","637310","0.0-11.0-69.0","","","","false","","","","","","","","","","null","","425.69999980926514","","3","0","null","null","arrowup","[0.325,0.675,0.85,0.15]","","",""
"sailing-trial","115","639784","0.0-11.0-70.0","","","","false","","","","","","","","","","192.90000009536743","","8.799999952316284","","0","0","arrowleft","0","arrowleft","[0.15,0.85,0.675,0.325]","","",""
"sailing-trial","116","641255","0.0-11.0-71.0","","","","false","","","","","","","","","","null","","298.2000000476837","","0","0","null","null","arrowup","[0.15,0.85,0.675,0.325]","","",""
"sailing-trial","117","644394","0.0-11.0-72.0","","","","false","","","","","","","","","","267.60000014305115","","127.40000009536743","","2","1","arrowright","1","arrowleft","[0.15,0.85,0.675,0.325]","","",""
"sailing-trial","118","646729","0.0-11.0-73.0","","","","false","","","","","","","","","","null","","908.5","","3","0","null","null","arrowup","[0.15,0.85,0.675,0.325]","","",""
"sailing-trial","119","649599","0.0-11.0-74.0","","","","false","","","","","","","","","","89","","29.59999990463257","","2","1","arrowright","1","arrowleft","[0.15,0.85,0.675,0.325]","","",""
"sailing-trial","120","651748","0.0-11.0-75.0","","","","false","","","","","","","","","","null","","53.90000009536743","","1","1","null","null","arrowup","[0.15,0.85,0.675,0.325]","","",""
"sailing-trial","121","654584","0.0-11.0-76.0","","","","false","","","","","","","","","","4.299999952316284","","9.799999952316284","","2","1","arrowright","1","arrowleft","[0.15,0.85,0.675,0.325]","","",""
"sailing-trial","122","657668","0.0-11.0-77.0","","","","false","","","","","","","","","","null","","33.799999952316284","","2","1","null","null","arrowup","[0.15,0.85,0.675,0.325]","","",""
"sailing-trial","123","660638","0.0-11.0-78.0","","","","false","","","","","","","","","","159.5","","75.40000009536743","","2","1","arrowright","1","arrowleft","[0.15,0.85,0.675,0.325]","","",""
"sailing-trial","124","661954","0.0-11.0-79.0","","","","false","","","","","","","","","","null","","144.70000004768372","","0","0","null","null","arrowup","[0.15,0.85,0.675,0.325]","","",""
"sailing-trial","125","665159","0.0-11.0-80.0","","","","false","","","","","","","","","","343.5","","140.79999995231628","","2","1","arrowright","1","arrowleft","[0.15,0.85,0.675,0.325]","","",""
"sailing-trial","126","667580","0.0-11.0-81.0","","","","false","","","","","","","","","","null","","154.19999980926514","","3","0","null","null","arrowup","[0.15,0.85,0.675,0.325]","","",""
"sailing-trial","127","670645","0.0-11.0-82.0","","","","false","","","","","","","","","","223.29999995231628","","76.40000009536743","","2","1","arrowright","1","arrowleft","[0.15,0.85,0.675,0.325]","","",""
"sailing-trial","128","672495","0.0-11.0-83.0","","","","false","","","","","","","","","","null","","23.09999990463257","","2","1","null","null","arrowup","[0.15,0.85,0.675,0.325]","","",""
"sailing-trial","129","675517","0.0-11.0-84.0","","","","false","","","","","","","","","","47.799999952316284","","264.7000000476837","","2","1","arrowright","1","arrowleft","[0.15,0.85,0.675,0.325]","","",""
"sailing-trial","130","677390","0.0-11.0-85.0","","","","false","","","","","","","","","","null","","401","","0","0","null","null","arrowup","[0.15,0.85,0.675,0.325]","","",""
"sailing-trial","131","680570","0.0-11.0-86.0","","","","false","","","","","","","","","","298","","132.5","","2","1","arrowright","1","arrowleft","[0.325,0.675,0.85,0.15]","","",""
"sailing-trial","132","681876","0.0-11.0-87.0","","","","false","","","","","","","","","","null","","130.40000009536743","","0","0","null","null","arrowup","[0.325,0.675,0.85,0.15]","","",""
"sailing-trial","133","684939","0.0-11.0-88.0","","","","false","","","","","","","","","","192.5","","129.20000004768372","","2","1","arrowright","1","arrowleft","[0.325,0.675,0.85,0.15]","","",""
"sailing-trial","134","686824","0.0-11.0-89.0","","","","false","","","","","","","","","","null","","113.90000009536743","","2","1","null","null","arrowup","[0.325,0.675,0.85,0.15]","","",""
"sailing-trial","135","689910","0.0-11.0-90.0","","","","false","","","","","","","","","","344.7000000476837","","6","","2","1","arrowright","1","arrowleft","[0.325,0.675,0.85,0.15]","","",""
"sailing-trial","136","691040","0.0-11.0-91.0","","","","false","","","","","","","","","","null","","18.5","","0","0","null","null","arrowup","[0.325,0.675,0.85,0.15]","","",""
"sailing-trial","137","694063","0.0-11.0-92.0","","","","false","","","","","","","","","","192.79999995231628","","59.19999980926514","","2","1","arrowright","1","arrowleft","[0.325,0.675,0.85,0.15]","","",""
"sailing-trial","138","695255","0.0-11.0-93.0","","","","false","","","","","","","","","","null","","51.10000014305115","","0","0","null","null","arrowup","[0.325,0.675,0.85,0.15]","","",""
"sailing-trial","139","698315","0.0-11.0-94.0","","","","false","","","","","","","","","","177.70000004768372","","33.10000014305115","","1","1","arrowleft","0","arrowright","[0.325,0.675,0.85,0.15]","","",""
"sailing-trial","140","700462","0.0-11.0-95.0","","","","false","","","","","","","","","","null","","163.70000004768372","","3","0","null","null","arrowup","[0.325,0.675,0.85,0.15]","","",""
"sailing-trial","141","703451","0.0-11.0-96.0","","","","false","","","","","","","","","","131.70000004768372","","72.70000004768372","","2","1","arrowright","1","arrowleft","[0.325,0.675,0.85,0.15]","","",""
"sailing-trial","142","704625","0.0-11.0-97.0","","","","false","","","","","","","","","","null","","67.79999995231628","","1","0","null","null","arrowup","[0.325,0.675,0.85,0.15]","","",""
"sailing-trial","143","707589","0.0-11.0-98.0","","","","false","","","","","","","","","","213.80000019073486","","36.40000009536743","","2","1","arrowright","1","arrowleft","[0.325,0.675,0.85,0.15]","","",""
"sailing-trial","144","708906","0.0-11.0-99.0","","","","false","","","","","","","","","","null","","25.100000143051147","","0","0","null","null","arrowup","[0.325,0.675,0.85,0.15]","","",""
"sailing-trial","145","711860","0.0-11.0-100.0","","","","false","","","","","","","","","","177.60000014305115","","96","","2","1","arrowright","1","arrowleft","[0.325,0.675,0.85,0.15]","","",""
"sailing-trial","146","713676","0.0-11.0-101.0","","","","false","","","","","","","","","","null","","0.20000004768371582","","2","1","null","null","arrowup","[0.325,0.675,0.85,0.15]","","",""
"sailing-trial","147","716512","0.0-11.0-102.0","","","","false","","","","","","","","","","43.09999990463257","","34.5","","2","1","arrowright","1","arrowleft","[0.325,0.675,0.85,0.15]","","",""
"sailing-trial","148","718279","0.0-11.0-103.0","","","","false","","","","","","","","","","null","","122.29999995231628","","2","1","null","null","arrowup","[0.325,0.675,0.85,0.15]","","",""
"sailing-trial","149","721098","0.0-11.0-104.0","","","","false","","","","","","","","","","15.399999856948853","","112.69999980926514","","2","1","arrowright","1","arrowleft","[0.15,0.85,0.675,0.325]","","",""
"sailing-trial","150","722361","0.0-11.0-105.0","","","","false","","","","","","","","","","null","","120.80000019073486","","2","0","null","null","arrowup","[0.15,0.85,0.675,0.325]","","",""
"sailing-trial","151","725502","0.0-11.0-106.0","","","","false","","","","","","","","","","298.39999985694885","","79.89999985694885","","2","1","arrowright","1","arrowleft","[0.15,0.85,0.675,0.325]","","",""
"sailing-trial","152","727170","0.0-11.0-107.0","","","","false","","","","","","","","","","null","","120.70000004768372","","3","1","null","null","arrowup","[0.15,0.85,0.675,0.325]","","",""
"sailing-trial","153","729620","0.0-11.0-108.0","","","","false","","","","","","","","","","19.5","","268.10000014305115","","0","0","arrowleft","0","arrowleft","[0.15,0.85,0.675,0.325]","","",""
"sailing-trial","154","732081","0.0-11.0-109.0","","","","false","","","","","","","","","","null","","1153.5999999046326","","0","0","null","null","arrowup","[0.15,0.85,0.675,0.325]","","",""
"sailing-trial","155","735127","0.0-11.0-110.0","","","","false","","","","","","","","","","253","","50.200000047683716","","2","1","arrowright","1","arrowleft","[0.15,0.85,0.675,0.325]","","",""
"sailing-trial","156","736860","0.0-11.0-111.0","","","","false","","","","","","","","","","null","","87.40000009536743","","1","1","null","null","arrowup","[0.15,0.85,0.675,0.325]","","",""
"sailing-trial","157","739796","0.0-11.0-112.0","","","","false","","","","","","","","","","229.59999990463257","","37.60000014305115","","2","1","arrowright","1","arrowleft","[0.15,0.85,0.675,0.325]","","",""
"sailing-trial","158","741764","0.0-11.0-113.0","","","","false","","","","","","","","","","null","","233.5","","1","1","null","null","arrowup","[0.15,0.85,0.675,0.325]","","",""
"sailing-trial","159","744817","0.0-11.0-114.0","","","","false","","","","","","","","","","199.69999980926514","","159.09999990463257","","2","1","arrowright","1","arrowleft","[0.15,0.85,0.675,0.325]","","",""
"sailing-trial","160","746091","0.0-11.0-115.0","","","","false","","","","","","","","","","null","","207.30000019073486","","2","0","null","null","arrowup","[0.15,0.85,0.675,0.325]","","",""
"sailing-trial","161","749252","0.0-11.0-116.0","","","","false","","","","","","","","","","373","","50.30000019073486","","2","1","arrowright","1","arrowleft","[0.15,0.85,0.675,0.325]","","",""
"sailing-trial","162","750920","0.0-11.0-117.0","","","","false","","","","","","","","","","null","","46.89999985694885","","3","1","null","null","arrowup","[0.15,0.85,0.675,0.325]","","",""
"sailing-trial","163","753922","0.0-11.0-118.0","","","","false","","","","","","","","","","179","","49.09999990463257","","2","1","arrowright","1","arrowleft","[0.15,0.85,0.675,0.325]","","",""
"sailing-trial","164","755227","0.0-11.0-119.0","","","","false","","","","","","","","","","null","","42.39999985694885","","3","0","null","null","arrowup","[0.15,0.85,0.675,0.325]","","",""
"sailing-trial","165","757882","0.0-11.0-120.0","","","","false","","","","","","","","","","297.60000014305115","","19.700000047683716","","2","0","arrowright","1","arrowleft","[0.15,0.85,0.675,0.325]","","",""
"sailing-trial","166","760062","0.0-11.0-121.0","","","","false","","","","","","","","","","null","","57.90000009536743","","1","1","null","null","arrowup","[0.15,0.85,0.675,0.325]","","",""
"sailing-trial","167","762517","0.0-11.0-122.0","","","","false","","","","","","","","","","24.299999952316284","","160.40000009536743","","2","0","arrowright","1","arrowleft","[0.325,0.675,0.85,0.15]","","",""
"sailing-trial","168","764303","0.0-11.0-123.0","","","","false","","","","","","","","","","null","","57.700000047683716","","1","0","null","null","arrowup","[0.325,0.675,0.85,0.15]","","",""
"sailing-trial","169","767316","0.0-11.0-124.0","","","","false","","","","","","","","","","191.89999985694885","","152","","2","1","arrowright","1","arrowleft","[0.325,0.675,0.85,0.15]","","",""
"sailing-trial","170","769000","0.0-11.0-125.0","","","","false","","","","","","","","","","null","","31","","1","1","null","null","arrowup","[0.325,0.675,0.85,0.15]","","",""
"sailing-trial","171","771836","0.0-11.0-126.0","","","","false","","","","","","","","","","10.200000047683716","","63.799999952316284","","2","1","arrowright","1","arrowleft","[0.325,0.675,0.85,0.15]","","",""
"sailing-trial","172","773619","0.0-11.0-127.0","","","","false","","","","","","","","","","null","","119.39999985694885","","2","1","null","null","arrowup","[0.325,0.675,0.85,0.15]","","",""
"sailing-trial","173","776539","0.0-11.0-128.0","","","","false","","","","","","","","","","100.80000019073486","","99.90000009536743","","2","1","arrowright","1","arrowleft","[0.325,0.675,0.85,0.15]","","",""
"sailing-trial","174","778272","0.0-11.0-129.0","","","","false","","","","","","","","","","null","","151.29999995231628","","0","1","null","null","arrowup","[0.325,0.675,0.85,0.15]","","",""
"sailing-trial","175","781209","0.0-11.0-130.0","","","","false","","","","","","","","","","158","","47.19999980926514","","2","1","arrowright","1","arrowleft","[0.325,0.675,0.85,0.15]","","",""
"sailing-trial","176","782513","0.0-11.0-131.0","","","","false","","","","","","","","","","null","","26","","3","0","null","null","arrowup","[0.325,0.675,0.85,0.15]","","",""
"sailing-trial","177","785662","0.0-11.0-132.0","","","","false","","","","","","","","","","402.40000009536743","","32.700000047683716","","2","1","arrowright","1","arrowleft","[0.325,0.675,0.85,0.15]","","",""
"sailing-trial","178","787379","0.0-11.0-133.0","","","","false","","","","","","","","","","null","","131.79999995231628","","2","1","null","null","arrowup","[0.325,0.675,0.85,0.15]","","",""
"sailing-trial","179","790499","0.0-11.0-134.0","","","","false","","","","","","","","","","141.40000009536743","","138.70000004768372","","2","1","arrowright","1","arrowleft","[0.325,0.675,0.85,0.15]","","",""
"sailing-trial","180","792233","0.0-11.0-135.0","","","","false","","","","","","","","","","null","","51.200000047683716","","0","1","null","null","arrowup","[0.325,0.675,0.85,0.15]","","",""
"sailing-trial","181","795352","0.0-11.0-136.0","","","","false","","","","","","","","","","282.90000009536743","","100.70000004768372","","2","1","arrowright","1","arrowleft","[0.325,0.675,0.85,0.15]","","",""
"sailing-trial","182","796552","0.0-11.0-137.0","","","","false","","","","","","","","","","null","","73.59999990463257","","0","0","null","null","arrowup","[0.325,0.675,0.85,0.15]","","",""
"sailing-trial","183","799706","0.0-11.0-138.0","","","","false","","","","","","","","","","298.09999990463257","","110.5","","2","1","arrowright","1","arrowleft","[0.325,0.675,0.85,0.15]","","",""
"sailing-trial","184","801375","0.0-11.0-139.0","","","","false","","","","","","","","","","null","","53.59999990463257","","2","1","null","null","arrowup","[0.325,0.675,0.85,0.15]","","",""
"sailing-trial","185","804526","0.0-11.0-140.0","","","","false","","","","","","","","","","366.09999990463257","","113.39999985694885","","2","1","arrowright","1","arrowleft","[0.325,0.675,0.85,0.15]","","",""
"sailing-trial","186","806177","0.0-11.0-141.0","","","","false","","","","","","","","","","null","","93.79999995231628","","2","1","null","null","arrowup","[0.325,0.675,0.85,0.15]","","",""
"sailing-trial","187","809229","0.0-11.0-142.0","","","","false","","","","","","","","","","139","","148.20000004768372","","2","1","arrowright","1","arrowleft","[0.325,0.675,0.85,0.15]","","",""
"sailing-trial","188","810294","0.0-11.0-143.0","","","","false","","","","","","","","","","null","","26.40000009536743","","3","0","null","null","arrowup","[0.325,0.675,0.85,0.15]","","",""
"sailing-trial","189","813894","0.0-11.0-144.0","","","","false","","","","","","","","","","267.09999990463257","","137.29999995231628","","2","0","arrowright","1","arrowleft","[0.15,0.85,0.675,0.325]","","",""
"sailing-trial","190","815723","0.0-11.0-145.0","","","","false","","","","","","","","","","null","","687","","0","0","null","null","arrowup","[0.15,0.85,0.675,0.325]","","",""
"sailing-trial","191","818736","0.0-11.0-146.0","","","","false","","","","","","","","","","193.5","","68","","2","1","arrowright","1","arrowleft","[0.15,0.85,0.675,0.325]","","",""
"sailing-trial","192","820439","0.0-11.0-147.0","","","","false","","","","","","","","","","null","","30.600000143051147","","1","1","null","null","arrowup","[0.15,0.85,0.675,0.325]","","",""
"sailing-trial","193","824005","0.0-11.0-148.0","","","","false","","","","","","","","","","307.7000000476837","","416","","2","1","arrowright","1","arrowleft","[0.15,0.85,0.675,0.325]","","",""
"sailing-trial","194","825858","0.0-11.0-149.0","","","","false","","","","","","","","","","null","","146.09999990463257","","3","1","null","null","arrowup","[0.15,0.85,0.675,0.325]","","",""
"sailing-trial","195","828369","0.0-11.0-150.0","","","","false","","","","","","","","","","153","","114.39999985694885","","2","0","arrowright","1","arrowleft","[0.15,0.85,0.675,0.325]","","",""
"sailing-trial","196","830261","0.0-11.0-151.0","","","","false","","","","","","","","","","null","","192","","2","1","null","null","arrowup","[0.15,0.85,0.675,0.325]","","",""
"sailing-trial","197","833395","0.0-11.0-152.0","","","","false","","","","","","","","","","340.2000000476837","","10","","2","1","arrowright","1","arrowleft","[0.15,0.85,0.675,0.325]","","",""
"sailing-trial","198","834729","0.0-11.0-153.0","","","","false","","","","","","","","","","null","","115.79999995231628","","0","0","null","null","arrowup","[0.15,0.85,0.675,0.325]","","",""
"sailing-trial","199","837159","0.0-11.0-154.0","","","","false","","","","","","","","","","147.40000009536743","","149.70000004768372","","2","0","arrowright","1","arrowleft","[0.15,0.85,0.675,0.325]","","",""
"sailing-trial","200","839101","0.0-11.0-155.0","","","","false","","","","","","","","","","null","","282.59999990463257","","1","1","null","null","arrowup","[0.15,0.85,0.675,0.325]","","",""
"sailing-trial","201","842020","0.0-11.0-156.0","","","","false","","","","","","","","","","65.89999985694885","","112.59999990463257","","2","1","arrowright","1","arrowleft","[0.15,0.85,0.675,0.325]","","",""
"sailing-trial","202","843354","0.0-11.0-157.0","","","","false","","","","","","","","","","null","","176.90000009536743","","1","0","null","null","arrowup","[0.15,0.85,0.675,0.325]","","",""
"sailing-trial","203","846289","0.0-11.0-158.0","","","","false","","","","","","","","","","193.09999990463257","","34.700000047683716","","2","1","arrowright","1","arrowleft","[0.15,0.85,0.675,0.325]","","",""
"sailing-trial","204","848024","0.0-11.0-159.0","","","","false","","","","","","","","","","null","","196.30000019073486","","1","1","null","null","arrowup","[0.15,0.85,0.675,0.325]","","",""
"sailing-trial","205","850315","0.0-11.0-160.0","","","","false","","","","","","","","","","38.30000019073486","","103.80000019073486","","2","0","arrowright","1","arrowleft","[0.15,0.85,0.675,0.325]","","",""
"sailing-trial","206","851454","0.0-11.0-161.0","","","","false","","","","","","","","","","null","","42.299999952316284","","0","0","null","null","arrowup","[0.15,0.85,0.675,0.325]","","",""
"sailing-trial","207","854646","0.0-11.0-162.0","","","","false","","","","","","","","","","297.7000000476837","","136.5","","2","1","arrowright","1","arrowleft","[0.85,0.15,0.325,0.675]","","",""
"sailing-trial","208","856313","0.0-11.0-163.0","","","","false","","","","","","","","","","null","","62.700000047683716","","0","1","null","null","arrowup","[0.85,0.15,0.325,0.675]","","",""
"sailing-trial","209","859316","0.0-11.0-164.0","","","","false","","","","","","","","","","163.5","","201.10000014305115","","2","1","arrowright","1","arrowleft","[0.85,0.15,0.325,0.675]","","",""
"sailing-trial","210","860544","0.0-11.0-165.0","","","","false","","","","","","","","","","null","","41.700000047683716","","3","0","null","null","arrowup","[0.85,0.15,0.325,0.675]","","",""
"sailing-trial","211","862900","0.0-11.0-166.0","","","","false","","","","","","","","","","132.60000014305115","","47.700000047683716","","2","0","arrowright","1","arrowleft","[0.85,0.15,0.325,0.675]","","",""
"sailing-trial","212","864820","0.0-11.0-167.0","","","","false","","","","","","","","","","null","","266.89999985694885","","3","1","null","null","arrowup","[0.85,0.15,0.325,0.675]","","",""
"sailing-trial","213","867132","0.0-11.0-168.0","","","","false","","","","","","","","","","101.39999985694885","","36.5","","2","0","arrowright","1","arrowleft","[0.85,0.15,0.325,0.675]","","",""
"sailing-trial","214","868315","0.0-11.0-169.0","","","","false","","","","","","","","","","null","","103.80000019073486","","1","0","null","null","arrowup","[0.85,0.15,0.325,0.675]","","",""
"sailing-trial","215","870923","0.0-11.0-170.0","","","","false","","","","","","","","","","177.09999990463257","","238.29999995231628","","2","0","arrowright","1","arrowleft","[0.85,0.15,0.325,0.675]","","",""
"sailing-trial","216","872215","0.0-11.0-171.0","","","","false","","","","","","","","","","null","","148.79999995231628","","1","0","null","null","arrowup","[0.85,0.15,0.325,0.675]","","",""
"sailing-trial","217","875312","0.0-11.0-172.0","","","","false","","","","","","","","","","252","","125.60000014305115","","1","1","arrowleft","0","arrowright","[0.85,0.15,0.325,0.675]","","",""
"sailing-trial","218","877046","0.0-11.0-173.0","","","","false","","","","","","","","","","null","","124.60000014305115","","2","1","null","null","arrowup","[0.85,0.15,0.325,0.675]","","",""
"sailing-trial","219","879640","0.0-11.0-174.0","","","","false","","","","","","","","","","41.5","","267","","1","0","arrowleft","0","arrowright","[0.85,0.15,0.325,0.675]","","",""
"sailing-trial","220","881139","0.0-11.0-175.0","","","","false","","","","","","","","","","null","","327.10000014305115","","1","0","null","null","arrowup","[0.85,0.15,0.325,0.675]","","",""
"sailing-trial","221","883570","0.0-11.0-176.0","","","","false","","","","","","","","","","148.10000014305115","","15.099999904632568","","2","0","arrowright","1","arrowleft","[0.85,0.15,0.325,0.675]","","",""
"sailing-trial","222","885419","0.0-11.0-177.0","","","","false","","","","","","","","","","null","","222.90000009536743","","0","1","null","null","arrowup","[0.85,0.15,0.325,0.675]","","",""
"sailing-trial","223","888337","0.0-11.0-178.0","","","","false","","","","","","","","","","38.299999952316284","","67.39999985694885","","0","1","arrowleft","0","arrowleft","[0.675,0.325,0.15,0.85]","","",""
"sailing-trial","224","889539","0.0-11.0-179.0","","","","false","","","","","","","","","","null","","106","","3","0","null","null","arrowup","[0.675,0.325,0.15,0.85]","","",""
"sailing-trial","225","892690","0.0-11.0-180.0","","","","false","","","","","","","","","","238.79999995231628","","12.700000047683716","","0","1","arrowleft","0","arrowleft","[0.675,0.325,0.15,0.85]","","",""
"sailing-trial","226","894675","0.0-11.0-181.0","","","","false","","","","","","","","","","null","","312.7999999523163","","0","1","null","null","arrowup","[0.675,0.325,0.15,0.85]","","",""
"sailing-trial","227","898711","0.0-11.0-182.0","","","","false","","","","","","","","","","52.5","","1168.5","","0","1","arrowleft","0","arrowleft","[0.675,0.325,0.15,0.85]","","",""
"sailing-trial","228","900546","0.0-11.0-183.0","","","","false","","","","","","","","","","null","","7.200000047683716","","0","1","null","null","arrowup","[0.675,0.325,0.15,0.85]","","",""
"sailing-trial","229","903533","0.0-11.0-184.0","","","","false","","","","","","","","","","167.20000004768372","","113.59999990463257","","0","1","arrowleft","0","arrowleft","[0.675,0.325,0.15,0.85]","","",""
"sailing-trial","230","905217","0.0-11.0-185.0","","","","false","","","","","","","","","","null","","30.700000047683716","","0","1","null","null","arrowup","[0.675,0.325,0.15,0.85]","","",""
"sailing-trial","231","908384","0.0-11.0-186.0","","","","false","","","","","","","","","","86.20000004768372","","21.5","","0","1","arrowleft","0","arrowleft","[0.675,0.325,0.15,0.85]","","",""
"sailing-trial","232","910137","0.0-11.0-187.0","","","","false","","","","","","","","","","null","","158.70000004768372","","2","1","null","null","arrowup","[0.675,0.325,0.15,0.85]","","",""
"sailing-trial","233","913138","0.0-11.0-188.0","","","","false","","","","","","","","","","100.29999995231628","","94.60000014305115","","0","1","arrowleft","0","arrowleft","[0.675,0.325,0.15,0.85]","","",""
"sailing-trial","234","915024","0.0-11.0-189.0","","","","false","","","","","","","","","","null","","354.89999985694885","","1","1","null","null","arrowup","[0.675,0.325,0.15,0.85]","","",""
"sailing-trial","235","918175","0.0-11.0-190.0","","","","false","","","","","","","","","","134.10000014305115","","198.40000009536743","","0","1","arrowleft","0","arrowleft","[0.675,0.325,0.15,0.85]","","",""
"sailing-trial","236","920527","0.0-11.0-191.0","","","","false","","","","","","","","","","null","","748.0999999046326","","3","1","null","null","arrowup","[0.675,0.325,0.15,0.85]","","",""
"sailing-trial","237","923429","0.0-11.0-192.0","","","","false","","","","","","","","","","1","","99","","0","1","arrowleft","0","arrowleft","[0.675,0.325,0.15,0.85]","","",""
"sailing-trial","238","925080","0.0-11.0-193.0","","","","false","","","","","","","","","","null","","84.5","","3","1","null","null","arrowup","[0.675,0.325,0.15,0.85]","","",""
"sailing-trial","239","928233","0.0-11.0-194.0","","","","false","","","","","","","","","","172.20000004768372","","99","","0","1","arrowleft","0","arrowleft","[0.675,0.325,0.15,0.85]","","",""
"sailing-trial","240","930295","0.0-11.0-195.0","","","","false","","","","","","","","","","null","","830.0999999046326","","1","0","null","null","arrowup","[0.675,0.325,0.15,0.85]","","",""
"sailing-trial","241","933320","0.0-11.0-196.0","","","","false","","","","","","","","","","148","","70.20000004768372","","0","1","arrowleft","0","arrowleft","[0.675,0.325,0.15,0.85]","","",""
"sailing-trial","242","934615","0.0-11.0-197.0","","","","false","","","","","","","","","","null","","109","","2","0","null","null","arrowup","[0.675,0.325,0.15,0.85]","","",""
"sailing-trial","243","937421","0.0-11.0-198.0","","","","false","","","","","","","","","","147.90000009536743","","44.10000014305115","","0","0","arrowleft","0","arrowleft","[0.675,0.325,0.15,0.85]","","",""
"sailing-trial","244","939926","0.0-11.0-199.0","","","","false","","","","","","","","","","null","","687.5999999046326","","3","1","null","null","arrowup","[0.675,0.325,0.15,0.85]","","",""
"sailing-trial","245","942237","0.0-11.0-200.0","","","","false","","","","","","","","","","27.700000047683716","","188.39999985694885","","0","0","arrowleft","0","arrowleft","[0.85,0.15,0.325,0.675]","","",""
"sailing-trial","246","944605","0.0-11.0-201.0","","","","false","","","","","","","","","","null","","656.5999999046326","","2","0","null","null","arrowup","[0.85,0.15,0.325,0.675]","","",""
"sailing-trial","247","947597","0.0-11.0-202.0","","","","false","","","","","","","","","","14.599999904632568","","46.90000009536743","","3","1","arrowright","1","arrowright","[0.85,0.15,0.325,0.675]","","",""
"sailing-trial","248","949716","0.0-11.0-203.0","","","","false","","","","","","","","","","null","","66.90000009536743","","3","1","null","null","arrowup","[0.85,0.15,0.325,0.675]","","",""
"sailing-trial","249","952917","0.0-11.0-204.0","","","","false","","","","","","","","","","347.69999980926514","","46.30000019073486","","3","1","arrowright","1","arrowright","[0.85,0.15,0.325,0.675]","","",""
"sailing-trial","250","955053","0.0-11.0-205.0","","","","false","","","","","","","","","","null","","206.70000004768372","","3","1","null","null","arrowup","[0.85,0.15,0.325,0.675]","","",""
"sailing-trial","251","958137","0.0-11.0-206.0","","","","false","","","","","","","","","","6.900000095367432","","262.7999999523163","","3","1","arrowright","1","arrowright","[0.85,0.15,0.325,0.675]","","",""
"sailing-trial","252","959455","0.0-11.0-207.0","","","","false","","","","","","","","","","null","","116.29999995231628","","3","0","null","null","arrowup","[0.85,0.15,0.325,0.675]","","",""
"sailing-trial","253","962607","0.0-11.0-208.0","","","","false","","","","","","","","","","224.60000014305115","","157.79999995231628","","3","1","arrowright","1","arrowright","[0.85,0.15,0.325,0.675]","","",""
"sailing-trial","254","964675","0.0-11.0-209.0","","","","false","","","","","","","","","","null","","109.60000014305115","","0","1","null","null","arrowup","[0.85,0.15,0.325,0.675]","","",""
"sailing-trial","255","967272","0.0-11.0-210.0","","","","false","","","","","","","","","","148.30000019073486","","221.20000004768372","","3","0","arrowright","1","arrowright","[0.85,0.15,0.325,0.675]","","",""
"sailing-trial","256","969397","0.0-11.0-211.0","","","","false","","","","","","","","","","null","","477.2000000476837","","0","1","null","null","arrowup","[0.85,0.15,0.325,0.675]","","",""
"sailing-trial","257","971787","0.0-11.0-212.0","","","","false","","","","","","","","","","137.59999990463257","","65.30000019073486","","0","0","arrowleft","0","arrowleft","[0.85,0.15,0.325,0.675]","","",""
"sailing-trial","258","973827","0.0-11.0-213.0","","","","false","","","","","","","","","","null","","822.9000000953674","","2","0","null","null","arrowup","[0.85,0.15,0.325,0.675]","","",""
"sailing-trial","259","977086","0.0-11.0-214.0","","","","false","","","","","","","","","","357.2000000476837","","192.29999995231628","","0","1","arrowleft","0","arrowleft","[0.85,0.15,0.325,0.675]","","",""
"sailing-trial","260","978835","0.0-11.0-215.0","","","","false","","","","","","","","","","null","","191.09999990463257","","0","1","null","null","arrowup","[0.85,0.15,0.325,0.675]","","",""
"sailing-trial","261","982038","0.0-11.0-216.0","","","","false","","","","","","","","","","119.5","","222.09999990463257","","0","1","arrowleft","0","arrowleft","[0.85,0.15,0.325,0.675]","","",""
"sailing-trial","262","983248","0.0-11.0-217.0","","","","false","","","","","","","","","","null","","121.70000004768372","","1","0","null","null","arrowup","[0.85,0.15,0.325,0.675]","","",""
"sailing-trial","263","986641","0.0-11.0-218.0","","","","false","","","","","","","","","","476.89999985694885","","208.79999995231628","","0","1","arrowleft","0","arrowleft","[0.85,0.15,0.325,0.675]","","",""
"sailing-trial","264","987898","0.0-11.0-219.0","","","","false","","","","","","","","","","null","","203.29999995231628","","1","0","null","null","arrowup","[0.85,0.15,0.325,0.675]","","",""
"sailing-trial","265","991579","0.0-11.0-220.0","","","","false","","","","","","","","","","746.8999998569489","","238.20000004768372","","0","1","arrowleft","0","arrowleft","[0.675,0.325,0.15,0.85]","","",""
"sailing-trial","266","993823","0.0-11.0-221.0","","","","false","","","","","","","","","","null","","695.8000001907349","","2","0","null","null","arrowup","[0.675,0.325,0.15,0.85]","","",""
"sailing-trial","267","996916","0.0-11.0-222.0","","","","false","","","","","","","","","","57.200000047683716","","324.80000019073486","","0","1","arrowleft","0","arrowleft","[0.675,0.325,0.15,0.85]","","",""
"sailing-trial","268","1000977","0.0-11.0-223.0","","","","false","","","","","","","","","","null","","2138.199999809265","","2","0","null","null","arrowup","[0.675,0.325,0.15,0.85]","","",""
"sailing-trial","269","1004388","0.0-11.0-224.0","","","","false","","","","","","","","","","552.1000001430511","","96","","0","1","arrowleft","0","arrowleft","[0.675,0.325,0.15,0.85]","","",""
"sailing-trial","270","1007952","0.0-11.0-225.0","","","","false","","","","","","","","","","null","","2286.5999999046326","","2","0","null","null","arrowup","[0.675,0.325,0.15,0.85]","","",""
"sailing-trial","271","1010562","0.0-11.0-226.0","","","","false","","","","","","","","","","358.2000000476837","","54.60000014305115","","0","0","arrowleft","0","arrowleft","[0.675,0.325,0.15,0.85]","","",""
"sailing-trial","272","1012063","0.0-11.0-227.0","","","","false","","","","","","","","","","null","","177.79999995231628","","3","0","null","null","arrowup","[0.675,0.325,0.15,0.85]","","",""
"sailing-trial","273","1015080","0.0-11.0-228.0","","","","false","","","","","","","","","","132.39999985694885","","118.40000009536743","","0","1","arrowleft","0","arrowleft","[0.675,0.325,0.15,0.85]","","",""
"sailing-trial","274","1016398","0.0-11.0-229.0","","","","false","","","","","","","","","","null","","99.90000009536743","","1","0","null","null","arrowup","[0.675,0.325,0.15,0.85]","","",""
"sailing-trial","275","1019616","0.0-11.0-230.0","","","","false","","","","","","","","","","402.30000019073486","","25.5","","0","1","arrowleft","0","arrowleft","[0.675,0.325,0.15,0.85]","","",""
"sailing-trial","276","1021968","0.0-11.0-231.0","","","","false","","","","","","","","","","null","","183.80000019073486","","3","1","null","null","arrowup","[0.675,0.325,0.15,0.85]","","",""
"sailing-trial","277","1025221","0.0-11.0-232.0","","","","false","","","","","","","","","","37.299999952316284","","292.90000009536743","","0","1","arrowleft","0","arrowleft","[0.675,0.325,0.15,0.85]","","",""
"sailing-trial","278","1026357","0.0-11.0-233.0","","","","false","","","","","","","","","","null","","40.5","","0","0","null","null","arrowup","[0.675,0.325,0.15,0.85]","","",""
"sailing-trial","279","1029541","0.0-11.0-234.0","","","","false","","","","","","","","","","223.09999990463257","","213.20000004768372","","0","1","arrowleft","0","arrowleft","[0.675,0.325,0.15,0.85]","","",""
"sailing-trial","280","1031325","0.0-11.0-235.0","","","","false","","","","","","","","","","null","","84.39999985694885","","1","1","null","null","arrowup","[0.675,0.325,0.15,0.85]","","",""
"sailing-trial","281","1033769","0.0-11.0-236.0","","","","false","","","","","","","","","","145.79999995231628","","111.09999990463257","","0","0","arrowleft","0","arrowleft","[0.675,0.325,0.15,0.85]","","",""
"sailing-trial","282","1036061","0.0-11.0-237.0","","","","false","","","","","","","","","","null","","71.90000009536743","","1","1","null","null","arrowup","[0.675,0.325,0.15,0.85]","","",""
"sailing-trial","283","1038418","0.0-11.0-238.0","","","","false","","","","","","","","","","179.79999995231628","","6.400000095367432","","2","0","arrowright","1","arrowleft","[0.85,0.15,0.325,0.675]","","",""
"sailing-trial","284","1039679","0.0-11.0-239.0","","","","false","","","","","","","","","","null","","207.69999980926514","","2","0","null","null","arrowup","[0.85,0.15,0.325,0.675]","","",""
"sailing-trial","285","1043048","0.0-11.0-240.0","","","","false","","","","","","","","","","417.30000019073486","","123.59999990463257","","3","1","arrowright","1","arrowright","[0.85,0.15,0.325,0.675]","","",""
"sailing-trial","286","1045001","0.0-11.0-241.0","","","","false","","","","","","","","","","null","","91.89999985694885","","1","1","null","null","arrowup","[0.85,0.15,0.325,0.675]","","",""
"sailing-trial","287","1048051","0.0-11.0-242.0","","","","false","","","","","","","","","","689.7999999523163","","85.79999995231628","","1","0","arrowleft","0","arrowright","[0.85,0.15,0.325,0.675]","","",""
"sailing-trial","288","1049822","0.0-11.0-243.0","","","","false","","","","","","","","","","null","","129.70000004768372","","0","1","null","null","arrowup","[0.85,0.15,0.325,0.675]","","",""
"sailing-trial","289","1052840","0.0-11.0-244.0","","","","false","","","","","","","","","","99.20000004768372","","199.10000014305115","","0","1","arrowleft","0","arrowleft","[0.85,0.15,0.325,0.675]","","",""
"sailing-trial","290","1054591","0.0-11.0-245.0","","","","false","","","","","","","","","","null","","6.6000001430511475","","3","1","null","null","arrowup","[0.85,0.15,0.325,0.675]","","",""
"sailing-trial","291","1057811","0.0-11.0-246.0","","","","false","","","","","","","","","","263.90000009536743","","111.90000009536743","","0","1","arrowleft","0","arrowleft","[0.85,0.15,0.325,0.675]","","",""
"sailing-trial","292","1059644","0.0-11.0-247.0","","","","false","","","","","","","","","","null","","135.5","","3","1","null","null","arrowup","[0.85,0.15,0.325,0.675]","","",""
"sailing-trial","293","1063130","0.0-11.0-248.0","","","","false","","","","","","","","","","641.2000000476837","","54.799999952316284","","0","1","arrowleft","0","arrowleft","[0.85,0.15,0.325,0.675]","","",""
"sailing-trial","294","1064428","0.0-11.0-249.0","","","","false","","","","","","","","","","null","","170.5","","1","0","null","null","arrowup","[0.85,0.15,0.325,0.675]","","",""
"sailing-trial","295","1067452","0.0-11.0-250.0","","","","false","","","","","","","","","","238.70000004768372","","95.20000004768372","","0","1","arrowleft","0","arrowleft","[0.85,0.15,0.325,0.675]","","",""
"sailing-trial","296","1068644","0.0-11.0-251.0","","","","false","","","","","","","","","","null","","34","","1","0","null","null","arrowup","[0.85,0.15,0.325,0.675]","","",""
"sailing-trial","297","1071403","0.0-11.0-252.0","","","","false","","","","","","","","","","72.59999990463257","","9.5","","0","1","arrowleft","0","arrowleft","[0.85,0.15,0.325,0.675]","","",""
"sailing-trial","298","1073388","0.0-11.0-253.0","","","","false","","","","","","","","","","null","","163.39999985694885","","2","1","null","null","arrowup","[0.85,0.15,0.325,0.675]","","",""
"sailing-trial","299","1075889","0.0-11.0-254.0","","","","false","","","","","","","","","","24.699999809265137","","181.40000009536743","","0","0","arrowleft","0","arrowleft","[0.675,0.325,0.15,0.85]","","",""
"sailing-trial","300","1077708","0.0-11.0-255.0","","","","false","","","","","","","","","","null","","168.89999985694885","","2","1","null","null","arrowup","[0.675,0.325,0.15,0.85]","","",""
"sailing-trial","301","1080179","0.0-11.0-256.0","","","","false","","","","","","","","","","39","","179","","1","0","arrowleft","0","arrowright","[0.675,0.325,0.15,0.85]","","",""
"sailing-trial","302","1081944","0.0-11.0-257.0","","","","false","","","","","","","","","","null","","117.59999990463257","","0","1","null","null","arrowup","[0.675,0.325,0.15,0.85]","","",""
"sailing-trial","303","1085014","0.0-11.0-258.0","","","","false","","","","","","","","","","47.09999990463257","","136.40000009536743","","0","1","arrowleft","0","arrowleft","[0.675,0.325,0.15,0.85]","","",""
"sailing-trial","304","1087148","0.0-11.0-259.0","","","","false","","","","","","","","","","null","","487.90000009536743","","1","1","null","null","arrowup","[0.675,0.325,0.15,0.85]","","",""
"sailing-trial","305","1090034","0.0-11.0-260.0","","","","false","","","","","","","","","","81.19999980926514","","47.39999985694885","","0","1","arrowleft","0","arrowleft","[0.675,0.325,0.15,0.85]","","",""
"sailing-trial","306","1091702","0.0-11.0-261.0","","","","false","","","","","","","","","","null","","27.799999952316284","","3","1","null","null","arrowup","[0.675,0.325,0.15,0.85]","","",""
"sailing-trial","307","1094688","0.0-11.0-262.0","","","","false","","","","","","","","","","190.39999985694885","","30.299999952316284","","0","1","arrowleft","0","arrowleft","[0.675,0.325,0.15,0.85]","","",""
"sailing-trial","308","1095944","0.0-11.0-263.0","","","","false","","","","","","","","","","null","","113.70000004768372","","0","0","null","null","arrowup","[0.675,0.325,0.15,0.85]","","",""
"sailing-trial","309","1098285","0.0-11.0-264.0","","","","false","","","","","","","","","","26.90000009536743","","1.3000001907348633","","0","0","arrowleft","0","arrowleft","[0.675,0.325,0.15,0.85]","","",""
"sailing-trial","310","1100258","0.0-11.0-265.0","","","","false","","","","","","","","","","null","","12","","3","1","null","null","arrowup","[0.675,0.325,0.15,0.85]","","",""
"sailing-trial","311","1103426","0.0-11.0-266.0","","","","false","","","","","","","","","","183.90000009536743","","150.39999985694885","","0","1","arrowleft","0","arrowleft","[0.675,0.325,0.15,0.85]","","",""
"sailing-trial","312","1105456","0.0-11.0-267.0","","","","false","","","","","","","","","","null","","915.2000000476837","","2","0","null","null","arrowup","[0.675,0.325,0.15,0.85]","","",""
"sailing-trial","313","1107898","0.0-11.0-268.0","","","","false","","","","","","","","","","206.39999985694885","","48.299999952316284","","0","0","arrowleft","0","arrowleft","[0.675,0.325,0.15,0.85]","","",""
"sailing-trial","314","1109429","0.0-11.0-269.0","","","","false","","","","","","","","","","null","","14.799999952316284","","2","0","null","null","arrowup","[0.675,0.325,0.15,0.85]","","",""
"sailing-trial","315","1111905","0.0-11.0-270.0","","","","false","","","","","","","","","","177.70000004768372","","55.700000047683716","","2","0","arrowright","1","arrowleft","[0.675,0.325,0.15,0.85]","","",""
"sailing-trial","316","1113967","0.0-11.0-271.0","","","","false","","","","","","","","","","null","","207.20000004768372","","0","1","null","null","arrowup","[0.675,0.325,0.15,0.85]","","",""
"sailing-trial","317","1116345","0.0-11.0-272.0","","","","false","","","","","","","","","","125.09999990463257","","136.80000019073486","","0","0","arrowleft","0","arrowleft","[0.15,0.85,0.675,0.325]","","",""
"sailing-trial","318","1118487","0.0-11.0-273.0","","","","false","","","","","","","","","","null","","236.79999995231628","","1","1","null","null","arrowup","[0.15,0.85,0.675,0.325]","","",""
"sailing-trial","319","1122140","0.0-11.0-274.0","","","","false","","","","","","","","","","255.09999990463257","","163.5","","1","1","arrowleft","0","arrowright","[0.15,0.85,0.675,0.325]","","",""
"sailing-trial","320","1124241","0.0-11.0-275.0","","","","false","","","","","","","","","","null","","22.899999856948853","","2","1","null","null","arrowup","[0.15,0.85,0.675,0.325]","","",""
"sailing-trial","321","1127845","0.0-11.0-276.0","","","","false","","","","","","","","","","156.40000009536743","","254.59999990463257","","1","1","arrowleft","0","arrowright","[0.15,0.85,0.675,0.325]","","",""
"sailing-trial","322","1130985","0.0-11.0-277.0","","","","false","","","","","","","","","","null","","2057.899999856949","","2","0","null","null","arrowup","[0.15,0.85,0.675,0.325]","","",""
"sailing-trial","323","1134534","0.0-11.0-278.0","","","","false","","","","","","","","","","312.5","","233.79999995231628","","1","1","arrowleft","0","arrowright","[0.15,0.85,0.675,0.325]","","",""
"sailing-trial","324","1136534","0.0-11.0-279.0","","","","false","","","","","","","","","","null","","933.5","","0","0","null","null","arrowup","[0.15,0.85,0.675,0.325]","","",""
"sailing-trial","325","1139671","0.0-11.0-280.0","","","","false","","","","","","","","","","223.70000004768372","","135.20000004768372","","1","1","arrowleft","0","arrowright","[0.15,0.85,0.675,0.325]","","",""
"sailing-trial","326","1140840","0.0-11.0-281.0","","","","false","","","","","","","","","","null","","102","","0","0","null","null","arrowup","[0.15,0.85,0.675,0.325]","","",""
"sailing-trial","327","1143805","0.0-11.0-282.0","","","","false","","","","","","","","","","118.10000014305115","","54.90000009536743","","1","1","arrowleft","0","arrowright","[0.15,0.85,0.675,0.325]","","",""
"sailing-trial","328","1145959","0.0-11.0-283.0","","","","false","","","","","","","","","","null","","632.8000001907349","","1","1","null","null","arrowup","[0.15,0.85,0.675,0.325]","","",""
"sailing-trial","329","1149059","0.0-11.0-284.0","","","","false","","","","","","","","","","144.70000004768372","","141","","1","1","arrowleft","0","arrowright","[0.15,0.85,0.675,0.325]","","",""
"sailing-trial","330","1150230","0.0-11.0-285.0","","","","false","","","","","","","","","","null","","88.69999980926514","","2","0","null","null","arrowup","[0.15,0.85,0.675,0.325]","","",""
"sailing-trial","331","1153201","0.0-11.0-286.0","","","","false","","","","","","","","","","493","","132.89999985694885","","1","0","arrowleft","0","arrowright","[0.15,0.85,0.675,0.325]","","",""
"sailing-trial","332","1154414","0.0-11.0-287.0","","","","false","","","","","","","","","","null","","27.200000047683716","","0","0","null","null","arrowup","[0.15,0.85,0.675,0.325]","","",""
"sailing-trial","333","1157100","0.0-11.0-288.0","","","","false","","","","","","","","","","13.799999952316284","","36.90000009536743","","1","1","arrowleft","0","arrowright","[0.325,0.675,0.85,0.15]","","",""
"sailing-trial","334","1158950","0.0-11.0-289.0","","","","false","","","","","","","","","","null","","194.09999990463257","","1","1","null","null","arrowup","[0.325,0.675,0.85,0.15]","","",""
"sailing-trial","335","1161274","0.0-11.0-290.0","","","","false","","","","","","","","","","113","","23.100000143051147","","1","0","arrowleft","0","arrowright","[0.325,0.675,0.85,0.15]","","",""
"sailing-trial","336","1162666","0.0-11.0-291.0","","","","false","","","","","","","","","","null","","116.60000014305115","","0","0","null","null","arrowup","[0.325,0.675,0.85,0.15]","","",""
"sailing-trial","337","1166175","0.0-11.0-292.0","","","","false","","","","","","","","","","131.70000004768372","","1284","","0","0","arrowleft","0","arrowleft","[0.325,0.675,0.85,0.15]","","",""
"sailing-trial","338","1167466","0.0-11.0-293.0","","","","false","","","","","","","","","","null","","14.199999809265137","","2","0","null","null","arrowup","[0.325,0.675,0.85,0.15]","","",""
"sailing-trial","339","1170526","0.0-11.0-294.0","","","","false","","","","","","","","","","132.90000009536743","","154.90000009536743","","1","1","arrowleft","0","arrowright","[0.325,0.675,0.85,0.15]","","",""
"sailing-trial","340","1172360","0.0-11.0-295.0","","","","false","","","","","","","","","","null","","101.70000004768372","","1","1","null","null","arrowup","[0.325,0.675,0.85,0.15]","","",""
"sailing-trial","341","1175163","0.0-11.0-296.0","","","","false","","","","","","","","","","53.5","","71.89999985694885","","1","1","arrowleft","0","arrowright","[0.325,0.675,0.85,0.15]","","",""
"sailing-trial","342","1176540","0.0-11.0-297.0","","","","false","","","","","","","","","","null","","205","","3","0","null","null","arrowup","[0.325,0.675,0.85,0.15]","","",""
"sailing-trial","343","1179567","0.0-11.0-298.0","","","","false","","","","","","","","","","77.70000004768372","","155.90000009536743","","1","1","arrowleft","0","arrowright","[0.325,0.675,0.85,0.15]","","",""
"sailing-trial","344","1181217","0.0-11.0-299.0","","","","false","","","","","","","","","","null","","32.89999985694885","","3","1","null","null","arrowup","[0.325,0.675,0.85,0.15]","","",""
"sailing-trial","345","1184135","0.0-11.0-300.0","","","","false","","","","","","","","","","46.299999952316284","","13.299999952316284","","1","1","arrowleft","0","arrowright","[0.325,0.675,0.85,0.15]","","",""
"sailing-trial","346","1185838","0.0-11.0-301.0","","","","false","","","","","","","","","","null","","84","","0","1","null","null","arrowup","[0.325,0.675,0.85,0.15]","","",""
"sailing-trial","347","1188346","0.0-11.0-302.0","","","","false","","","","","","","","","","121.09999990463257","","10","","1","0","arrowleft","0","arrowright","[0.325,0.675,0.85,0.15]","","",""
"sailing-trial","348","1189622","0.0-11.0-303.0","","","","false","","","","","","","","","","null","","88.10000014305115","","1","0","null","null","arrowup","[0.325,0.675,0.85,0.15]","","",""
"sailing-trial","349","1192411","0.0-11.0-304.0","","","","false","","","","","","","","","","432","","151.70000004768372","","1","0","arrowleft","0","arrowright","[0.15,0.85,0.675,0.325]","","",""
"sailing-trial","350","1193686","0.0-11.0-305.0","","","","false","","","","","","","","","","null","","87.79999995231628","","0","0","null","null","arrowup","[0.15,0.85,0.675,0.325]","","",""
"sailing-trial","351","1197411","0.0-11.0-306.0","","","","false","","","","","","","","","","222.59999990463257","","797.3000001907349","","1","1","arrowleft","0","arrowright","[0.15,0.85,0.675,0.325]","","",""
"sailing-trial","352","1198906","0.0-11.0-307.0","","","","false","","","","","","","","","","null","","127","","3","0","null","null","arrowup","[0.15,0.85,0.675,0.325]","","",""
"sailing-trial","353","1201831","0.0-11.0-308.0","","","","false","","","","","","","","","","118.29999995231628","","36.799999952316284","","1","1","arrowleft","0","arrowright","[0.15,0.85,0.675,0.325]","","",""
"sailing-trial","354","1203631","0.0-11.0-309.0","","","","false","","","","","","","","","","null","","121.5","","1","1","null","null","arrowup","[0.15,0.85,0.675,0.325]","","",""
"sailing-trial","355","1206586","0.0-11.0-310.0","","","","false","","","","","","","","","","28.59999990463257","","169.59999990463257","","1","1","arrowleft","0","arrowright","[0.15,0.85,0.675,0.325]","","",""
"sailing-trial","356","1208418","0.0-11.0-311.0","","","","false","","","","","","","","","","null","","28.5","","1","1","null","null","arrowup","[0.15,0.85,0.675,0.325]","","",""
"sailing-trial","357","1211889","0.0-11.0-312.0","","","","false","","","","","","","","","","670.7000000476837","","14.600000143051147","","1","1","arrowleft","0","arrowright","[0.15,0.85,0.675,0.325]","","",""
"sailing-trial","358","1213441","0.0-11.0-313.0","","","","false","","","","","","","","","","null","","122.09999990463257","","3","0","null","null","arrowup","[0.15,0.85,0.675,0.325]","","",""
"sailing-trial","359","1216226","0.0-11.0-314.0","","","","false","","","","","","","","","","43.200000047683716","","126.40000009536743","","1","1","arrowleft","0","arrowright","[0.15,0.85,0.675,0.325]","","",""
"sailing-trial","360","1218025","0.0-11.0-315.0","","","","false","","","","","","","","","","null","","159.70000004768372","","3","1","null","null","arrowup","[0.15,0.85,0.675,0.325]","","",""
"sailing-trial","361","1220963","0.0-11.0-316.0","","","","false","","","","","","","","","","169.59999990463257","","83","","1","1","arrowleft","0","arrowright","[0.15,0.85,0.675,0.325]","","",""
"sailing-trial","362","1222350","0.0-11.0-317.0","","","","false","","","","","","","","","","null","","180.5","","3","0","null","null","arrowup","[0.15,0.85,0.675,0.325]","","",""
"sailing-trial","363","1225098","0.0-11.0-318.0","","","","false","","","","","","","","","","449.19999980926514","","196.70000004768372","","1","0","arrowleft","0","arrowright","[0.15,0.85,0.675,0.325]","","",""
"sailing-trial","364","1226899","0.0-11.0-319.0","","","","false","","","","","","","","","","null","","86","","0","1","null","null","arrowup","[0.15,0.85,0.675,0.325]","","",""
"sailing-trial","365","1229328","0.0-11.0-320.0","","","","false","","","","","","","","","","145.70000004768372","","63.30000019073486","","1","0","arrowleft","0","arrowright","[0.85,0.15,0.325,0.675]","","",""
"sailing-trial","366","1231104","0.0-11.0-321.0","","","","false","","","","","","","","","","null","","101.29999995231628","","0","1","null","null","arrowup","[0.85,0.15,0.325,0.675]","","",""
"sailing-trial","367","1233572","0.0-11.0-322.0","","","","false","","","","","","","","","","84.79999995231628","","50","","2","0","arrowright","1","arrowleft","[0.85,0.15,0.325,0.675]","","",""
"sailing-trial","368","1234846","0.0-11.0-323.0","","","","false","","","","","","","","","","null","","72.79999995231628","","2","0","null","null","arrowup","[0.85,0.15,0.325,0.675]","","",""
"sailing-trial","369","1237142","0.0-11.0-324.0","","","","false","","","","","","","","","","43.40000009536743","","153.29999995231628","","1","0","arrowleft","0","arrowright","[0.85,0.15,0.325,0.675]","","",""
"sailing-trial","370","1238476","0.0-11.0-325.0","","","","false","","","","","","","","","","null","","147.59999990463257","","1","0","null","null","arrowup","[0.85,0.15,0.325,0.675]","","",""
"sailing-trial","371","1241611","0.0-11.0-326.0","","","","false","","","","","","","","","","89.10000014305115","","313.7000000476837","","0","1","arrowleft","0","arrowleft","[0.85,0.15,0.325,0.675]","","",""
"sailing-trial","372","1242782","0.0-11.0-327.0","","","","false","","","","","","","","","","null","","119.79999995231628","","2","0","null","null","arrowup","[0.85,0.15,0.325,0.675]","","",""
"sailing-trial","373","1246464","0.0-11.0-328.0","","","","false","","","","","","","","","","283.19999980926514","","657","","0","1","arrowleft","0","arrowleft","[0.85,0.15,0.325,0.675]","","",""
"sailing-trial","374","1247718","0.0-11.0-329.0","","","","false","","","","","","","","","","null","","165.39999985694885","","1","0","null","null","arrowup","[0.85,0.15,0.325,0.675]","","",""
"sailing-trial","375","1249997","0.0-11.0-330.0","","","","false","","","","","","","","","","12.400000095367432","","9.700000047683716","","0","0","arrowleft","0","arrowleft","[0.85,0.15,0.325,0.675]","","",""
"sailing-trial","376","1251952","0.0-11.0-331.0","","","","false","","","","","","","","","","null","","193","","0","1","null","null","arrowup","[0.85,0.15,0.325,0.675]","","",""
"sailing-trial","377","1254954","0.0-11.0-332.0","","","","false","","","","","","","","","","174.09999990463257","","75.40000009536743","","0","1","arrowleft","0","arrowleft","[0.85,0.15,0.325,0.675]","","",""
"sailing-trial","378","1256654","0.0-11.0-333.0","","","","false","","","","","","","","","","null","","7.599999904632568","","3","1","null","null","arrowup","[0.85,0.15,0.325,0.675]","","",""
"sailing-trial","379","1259574","0.0-11.0-334.0","","","","false","","","","","","","","","","136.09999990463257","","132.39999985694885","","0","1","arrowleft","0","arrowleft","[0.85,0.15,0.325,0.675]","","",""
"sailing-trial","380","1261202","0.0-11.0-335.0","","","","false","","","","","","","","","","null","","545.7999999523163","","2","0","null","null","arrowup","[0.85,0.15,0.325,0.675]","","",""
"sailing-trial","381","1264177","0.0-11.0-336.0","","","","false","","","","","","","","","","13.599999904632568","","143.39999985694885","","0","1","arrowleft","0","arrowleft","[0.85,0.15,0.325,0.675]","","",""
"sailing-trial","382","1265568","0.0-11.0-337.0","","","","false","","","","","","","","","","null","","263.2000000476837","","2","0","null","null","arrowup","[0.85,0.15,0.325,0.675]","","",""
"sailing-trial","383","1268630","0.0-11.0-338.0","","","","false","","","","","","","","","","71.90000009536743","","146.5","","0","1","arrowleft","0","arrowleft","[0.85,0.15,0.325,0.675]","","",""
"sailing-trial","384","1270398","0.0-11.0-339.0","","","","false","","","","","","","","","","null","","190.70000004768372","","0","1","null","null","arrowup","[0.85,0.15,0.325,0.675]","","",""
"sailing-trial","385","1273068","0.0-11.0-340.0","","","","false","","","","","","","","","","162.10000014305115","","208.5","","0","0","arrowleft","0","arrowleft","[0.675,0.325,0.15,0.85]","","",""
"sailing-trial","386","1274769","0.0-11.0-341.0","","","","false","","","","","","","","","","null","","58.200000047683716","","3","1","null","null","arrowup","[0.675,0.325,0.15,0.85]","","",""
"sailing-trial","387","1277162","0.0-11.0-342.0","","","","false","","","","","","","","","","186.90000009536743","","128.5","","0","0","arrowleft","0","arrowleft","[0.675,0.325,0.15,0.85]","","",""
"sailing-trial","388","1278498","0.0-11.0-343.0","","","","false","","","","","","","","","","null","","253","","1","0","null","null","arrowup","[0.675,0.325,0.15,0.85]","","",""
"sailing-trial","389","1281138","0.0-11.0-344.0","","","","false","","","","","","","","","","192.29999995231628","","207","","0","0","arrowleft","0","arrowleft","[0.675,0.325,0.15,0.85]","","",""
"sailing-trial","390","1282891","0.0-11.0-345.0","","","","false","","","","","","","","","","null","","111","","0","1","null","null","arrowup","[0.675,0.325,0.15,0.85]","","",""
"sailing-trial","391","1285323","0.0-11.0-346.0","","","","false","","","","","","","","","","165.10000014305115","","144.30000019073486","","0","0","arrowleft","0","arrowleft","[0.675,0.325,0.15,0.85]","","",""
"sailing-trial","392","1286853","0.0-11.0-347.0","","","","false","","","","","","","","","","null","","372.90000009536743","","2","0","null","null","arrowup","[0.675,0.325,0.15,0.85]","","",""
"sailing-trial","393","1289793","0.0-11.0-348.0","","","","false","","","","","","","","","","253.29999995231628","","125.70000004768372","","0","0","arrowleft","0","arrowleft","[0.675,0.325,0.15,0.85]","","",""
"sailing-trial","394","1291630","0.0-11.0-349.0","","","","false","","","","","","","","","","null","","28.09999990463257","","3","1","null","null","arrowup","[0.675,0.325,0.15,0.85]","","",""
"sailing-trial","395","1294608","0.0-11.0-350.0","","","","false","","","","","","","","","","636.2999999523163","","10.700000047683716","","3","0","arrowright","1","arrowright","[0.675,0.325,0.15,0.85]","","",""
"sailing-trial","396","1296200","0.0-11.0-351.0","","","","false","","","","","","","","","","null","","0","","3","1","null","null","arrowup","[0.675,0.325,0.15,0.85]","","",""
"sailing-trial","397","1299068","0.0-11.0-352.0","","","","false","","","","","","","","","","116","","112.09999990463257","","3","1","arrowright","1","arrowright","[0.675,0.325,0.15,0.85]","","",""
"sailing-trial","398","1300143","0.0-11.0-353.0","","","","false","","","","","","","","","","null","","53.200000047683716","","2","0","null","null","arrowup","[0.675,0.325,0.15,0.85]","","",""
"sailing-trial","399","1303438","0.0-11.0-354.0","","","","false","","","","","","","","","","357.7999999523163","","107.10000014305115","","3","1","arrowright","1","arrowright","[0.675,0.325,0.15,0.85]","","",""
"sailing-trial","400","1305190","0.0-11.0-355.0","","","","false","","","","","","","","","","null","","78.59999990463257","","3","1","null","null","arrowup","[0.675,0.325,0.15,0.85]","","",""
"sailing-trial","401","1308308","0.0-11.0-356.0","","","","false","","","","","","","","","","231.29999995231628","","43.200000047683716","","3","1","arrowright","1","arrowright","[0.675,0.325,0.15,0.85]","","",""
"sailing-trial","402","1309714","0.0-11.0-357.0","","","","false","","","","","","","","","","null","","232.89999985694885","","3","0","null","null","arrowup","[0.675,0.325,0.15,0.85]","","",""
"sailing-trial","403","1312695","0.0-11.0-358.0","","","","false","","","","","","","","","","102.90000009536743","","174.30000019073486","","3","1","arrowright","1","arrowright","[0.675,0.325,0.15,0.85]","","",""
"sailing-trial","404","1314003","0.0-11.0-359.0","","","","false","","","","","","","","","","null","","110.20000004768372","","2","0","null","null","arrowup","[0.675,0.325,0.15,0.85]","","",""
"sailing-trial","405","1317081","0.0-11.0-360.0","","","","false","","","","","","","","","","223.09999990463257","","23.59999990463257","","3","1","arrowright","1","arrowright","[0.85,0.15,0.325,0.675]","","",""
"sailing-trial","406","1318933","0.0-11.0-361.0","","","","false","","","","","","","","","","null","","144.79999995231628","","3","1","null","null","arrowup","[0.85,0.15,0.325,0.675]","","",""
"sailing-trial","407","1321489","0.0-11.0-362.0","","","","false","","","","","","","","","","228.29999995231628","","52.39999985694885","","3","0","arrowright","1","arrowright","[0.85,0.15,0.325,0.675]","","",""
"sailing-trial","408","1323319","0.0-11.0-363.0","","","","false","","","","","","","","","","null","","118.30000019073486","","1","1","null","null","arrowup","[0.85,0.15,0.325,0.675]","","",""
"sailing-trial","409","1325674","0.0-11.0-364.0","","","","false","","","","","","","","","","72.79999995231628","","178.59999990463257","","3","0","arrowright","1","arrowright","[0.85,0.15,0.325,0.675]","","",""
"sailing-trial","410","1327294","0.0-11.0-365.0","","","","false","","","","","","","","","","null","","178.09999990463257","","1","0","null","null","arrowup","[0.85,0.15,0.325,0.675]","","",""
"sailing-trial","411","1330359","0.0-11.0-366.0","","","","false","","","","","","","","","","177.20000004768372","","173.59999990463257","","3","1","arrowright","1","arrowright","[0.85,0.15,0.325,0.675]","","",""
"sailing-trial","412","1331781","0.0-11.0-367.0","","","","false","","","","","","","","","","null","","247.5","","1","0","null","null","arrowup","[0.85,0.15,0.325,0.675]","","",""
"sailing-trial","413","1335379","0.0-11.0-368.0","","","","false","","","","","","","","","","775.2999999523163","","82","","3","1","arrowright","1","arrowright","[0.85,0.15,0.325,0.675]","","",""
"sailing-trial","414","1336624","0.0-11.0-369.0","","","","false","","","","","","","","","","null","","12.099999904632568","","1","0","null","null","arrowup","[0.85,0.15,0.325,0.675]","","",""
"sailing-trial","415","1339581","0.0-11.0-370.0","","","","false","","","","","","","","","","148.20000004768372","","4.599999904632568","","3","1","arrowright","1","arrowright","[0.85,0.15,0.325,0.675]","","",""
"sailing-trial","416","1340719","0.0-11.0-371.0","","","","false","","","","","","","","","","null","","115.79999995231628","","3","0","null","null","arrowup","[0.85,0.15,0.325,0.675]","","",""
"sailing-trial","417","1343314","0.0-11.0-372.0","","","","false","","","","","","","","","","133.59999990463257","","97.40000009536743","","3","0","arrowright","1","arrowright","[0.85,0.15,0.325,0.675]","","",""
"sailing-trial","418","1345070","0.0-11.0-373.0","","","","false","","","","","","","","","","null","","132.59999990463257","","3","1","null","null","arrowup","[0.85,0.15,0.325,0.675]","","",""
"sailing-trial","419","1347955","0.0-11.0-374.0","","","","false","","","","","","","","","","12.5","","122","","3","1","arrowright","1","arrowright","[0.85,0.15,0.325,0.675]","","",""
"sailing-trial","420","1349360","0.0-11.0-375.0","","","","false","","","","","","","","","","null","","217.29999995231628","","2","0","null","null","arrowup","[0.85,0.15,0.325,0.675]","","",""
"sailing-trial","421","1351985","0.0-11.0-376.0","","","","false","","","","","","","","","","176.90000009536743","","70.29999995231628","","3","0","arrowright","1","arrowright","[0.15,0.85,0.675,0.325]","","",""
"sailing-trial","422","1353893","0.0-11.0-377.0","","","","false","","","","","","","","","","null","","268.2999999523163","","2","1","null","null","arrowup","[0.15,0.85,0.675,0.325]","","",""
"sailing-trial","423","1356811","0.0-11.0-378.0","","","","false","","","","","","","","","","69.40000009536743","","183.79999995231628","","2","1","arrowright","1","arrowleft","[0.15,0.85,0.675,0.325]","","",""
"sailing-trial","424","1358712","0.0-11.0-379.0","","","","false","","","","","","","","","","null","","121.09999990463257","","1","1","null","null","arrowup","[0.15,0.85,0.675,0.325]","","",""
"sailing-trial","425","1361104","0.0-11.0-380.0","","","","false","","","","","","","","","","140.20000004768372","","33.90000009536743","","0","0","arrowleft","0","arrowleft","[0.15,0.85,0.675,0.325]","","",""
"sailing-trial","426","1362882","0.0-11.0-381.0","","","","false","","","","","","","","","","null","","148.10000014305115","","2","1","null","null","arrowup","[0.15,0.85,0.675,0.325]","","",""
"sailing-trial","427","1365784","0.0-11.0-382.0","","","","false","","","","","","","","","","65.5","","188.79999995231628","","2","1","arrowright","1","arrowleft","[0.15,0.85,0.675,0.325]","","",""
"sailing-trial","428","1367501","0.0-11.0-383.0","","","","false","","","","","","","","","","null","","28.5","","1","1","null","null","arrowup","[0.15,0.85,0.675,0.325]","","",""
"sailing-trial","429","1370031","0.0-11.0-384.0","","","","false","","","","","","","","","","67.10000014305115","","159","","2","0","arrowright","1","arrowleft","[0.15,0.85,0.675,0.325]","","",""
"sailing-trial","430","1371845","0.0-11.0-385.0","","","","false","","","","","","","","","","null","","596.6000001430511","","0","0","null","null","arrowup","[0.15,0.85,0.675,0.325]","","",""
"sailing-trial","431","1374825","0.0-11.0-386.0","","","","false","","","","","","","","","","177.60000014305115","","53.799999952316284","","2","1","arrowright","1","arrowleft","[0.15,0.85,0.675,0.325]","","",""
"sailing-trial","432","1376015","0.0-11.0-387.0","","","","false","","","","","","","","","","null","","62.700000047683716","","3","0","null","null","arrowup","[0.15,0.85,0.675,0.325]","","",""
"sailing-trial","433","1379009","0.0-11.0-388.0","","","","false","","","","","","","","","","147.90000009536743","","45.90000009536743","","2","1","arrowright","1","arrowleft","[0.15,0.85,0.675,0.325]","","",""
"sailing-trial","434","1380185","0.0-11.0-389.0","","","","false","","","","","","","","","","null","","138.39999985694885","","3","0","null","null","arrowup","[0.15,0.85,0.675,0.325]","","",""
"sailing-trial","435","1382870","0.0-11.0-390.0","","","","false","","","","","","","","","","57.799999952316284","","102.59999990463257","","2","0","arrowright","1","arrowleft","[0.15,0.85,0.675,0.325]","","",""
"sailing-trial","436","1384297","0.0-11.0-391.0","","","","false","","","","","","","","","","null","","162.80000019073486","","0","0","null","null","arrowup","[0.15,0.85,0.675,0.325]","","",""
"sailing-trial","437","1387184","0.0-11.0-392.0","","","","false","","","","","","","","","","11.200000047683716","","132.5","","2","1","arrowright","1","arrowleft","[0.15,0.85,0.675,0.325]","","",""
"sailing-trial","438","1388526","0.0-11.0-393.0","","","","false","","","","","","","","","","null","","34.700000047683716","","0","0","null","null","arrowup","[0.15,0.85,0.675,0.325]","","",""
"sailing-trial","439","1391435","0.0-11.0-394.0","","","","false","","","","","","","","","","72.29999995231628","","97.89999985694885","","2","1","arrowright","1","arrowleft","[0.15,0.85,0.675,0.325]","","",""
"sailing-trial","440","1393186","0.0-11.0-395.0","","","","false","","","","","","","","","","null","","151.09999990463257","","1","1","null","null","arrowup","[0.15,0.85,0.675,0.325]","","",""
"sailing-trial","441","1396123","0.0-11.0-396.0","","","","false","","","","","","","","","","17.299999952316284","","84.40000009536743","","2","1","arrowright","1","arrowleft","[0.15,0.85,0.675,0.325]","","",""
"sailing-trial","442","1397873","0.0-11.0-397.0","","","","false","","","","","","","","","","null","","172.09999990463257","","1","1","null","null","arrowup","[0.15,0.85,0.675,0.325]","","",""
"sailing-trial","443","1400693","0.0-11.0-398.0","","","","false","","","","","","","","","","25.799999952316284","","49.80000019073486","","2","1","arrowright","1","arrowleft","[0.15,0.85,0.675,0.325]","","",""
"sailing-trial","444","1401935","0.0-11.0-399.0","","","","false","","","","","","","","","","null","","25.5","","0","0","null","null","arrowup","[0.15,0.85,0.675,0.325]","","",""
"instructions","445","1402100","0.0-12.0","","","","","","","","","","164.70000004768372","","","","","","","","","","","","","","","","[{""page_index"":0,""viewing_time"":164.59999990463257}]"
"survey-debrief","446","1454761","0.0-13.0","","","","","","","","","","52659.5","","","","","","","","","","","","","","{""difficulty"":""4"",""fun"":""4"",""clarity"":""5"",""strategy"":""I saw how some stores started to give less treasure than others"",""feedback"":""N/A""}","",""
